"success","timeout","failed_images","failed_audio","failed_video","trial_type","trial_index","time_elapsed","internal_node_id","subject_id","study_id","session_id","view_history","rt","stimulus","response","task","image_index","folder","sequence_type","presentation_order","valuable_image_index","reward_type","correct_choice","chosen_image_index","target_X"
"true","false","[]","[]","[]","preload","0","2680","0.0-0.0","E7B350C4F0A8405E9588C00FEE738204","019cf98d-c8a8-7782-940f-bb6c88b80b70","019cf974-7aee-7bc9-8ea4-9f55741b365d","","","","","","","","","","","","","",""
"","","","","","instructions","1","5915","0.0-1.0","E7B350C4F0A8405E9588C00FEE738204","019cf98d-c8a8-7782-940f-bb6c88b80b70","019cf974-7aee-7bc9-8ea4-9f55741b365d","[{""page_index"":0,""viewing_time"":3233}]","3234","","","","","","","","","","","",""
"","","","","","instructions","2","12622","0.0-2.0","E7B350C4F0A8405E9588C00FEE738204","019cf98d-c8a8-7782-940f-bb6c88b80b70","019cf974-7aee-7bc9-8ea4-9f55741b365d","[{""page_index"":0,""viewing_time"":6706}]","6707","","","","","","","","","","","",""
"true","","","","","fullscreen","3","18021","0.0-3.0","E7B350C4F0A8405E9588C00FEE738204","019cf98d-c8a8-7782-940f-bb6c88b80b70","019cf974-7aee-7bc9-8ea4-9f55741b365d","","4396","","","","","","","","","","","",""
"","","","","","instructions","4","39718","0.0-4.0","E7B350C4F0A8405E9588C00FEE738204","019cf98d-c8a8-7782-940f-bb6c88b80b70","019cf974-7aee-7bc9-8ea4-9f55741b365d","[{""page_index"":0,""viewing_time"":21696}]","21697","","","","","","","","","","","",""
"","","","","","instructions","5","53567","0.0-5.0","E7B350C4F0A8405E9588C00FEE738204","019cf98d-c8a8-7782-940f-bb6c88b80b70","019cf974-7aee-7bc9-8ea4-9f55741b365d","[{""page_index"":0,""viewing_time"":13849}]","13849","","","","","","","","","","","",""
"","","","","","html-keyboard-response","6","57583","0.0-6.0","E7B350C4F0A8405E9588C00FEE738204","019cf98d-c8a8-7782-940f-bb6c88b80b70","019cf974-7aee-7bc9-8ea4-9f55741b365d","","null","
                <div class=""stimulus-container"">
                    <img src=""images/instructions/movie_1.png"" class=""exp-image"">
                    <div class=""question-area""></div> 
                </div>","null","","","","","","","","","",""
"","","","","","html-button-response","7","59477","0.0-7.0","E7B350C4F0A8405E9588C00FEE738204","019cf98d-c8a8-7782-940f-bb6c88b80b70","019cf974-7aee-7bc9-8ea4-9f55741b365d","","1892","
                <div class=""stimulus-container"">
                    <img src=""images/instructions/movie_1.png"" class=""exp-image"">
                    <div class=""question-area"">
                        <p style=""font-size: 20px; font-weight: bold; margin: 0;"">Was there a person in this image?</p>
                    </div>
                </div>","0","example_question","1","","","","","","","",""
"","","","","","html-keyboard-response","8","63485","0.0-8.0","E7B350C4F0A8405E9588C00FEE738204","019cf98d-c8a8-7782-940f-bb6c88b80b70","019cf974-7aee-7bc9-8ea4-9f55741b365d","","null","
                <div class=""stimulus-container"">
                    <img src=""images/instructions/movie_2.png"" class=""exp-image"">
                    <div class=""question-area""></div> 
                </div>","null","","","","","","","","","",""
"","","","","","html-button-response","9","64628","0.0-9.0","E7B350C4F0A8405E9588C00FEE738204","019cf98d-c8a8-7782-940f-bb6c88b80b70","019cf974-7aee-7bc9-8ea4-9f55741b365d","","1141","
                <div class=""stimulus-container"">
                    <img src=""images/instructions/movie_2.png"" class=""exp-image"">
                    <div class=""question-area"">
                        <p style=""font-size: 20px; font-weight: bold; margin: 0;"">Was there a person in this image?</p>
                    </div>
                </div>","0","example_question","2","","","","","","","",""
"","","","","","html-keyboard-response","10","68635","0.0-10.0","E7B350C4F0A8405E9588C00FEE738204","019cf98d-c8a8-7782-940f-bb6c88b80b70","019cf974-7aee-7bc9-8ea4-9f55741b365d","","null","
                <div class=""stimulus-container"">
                    <img src=""images/instructions/movie_3.png"" class=""exp-image"">
                    <div class=""question-area""></div> 
                </div>","null","","","","","","","","","",""
"","","","","","html-button-response","11","70050","0.0-11.0","E7B350C4F0A8405E9588C00FEE738204","019cf98d-c8a8-7782-940f-bb6c88b80b70","019cf974-7aee-7bc9-8ea4-9f55741b365d","","1414","
                <div class=""stimulus-container"">
                    <img src=""images/instructions/movie_3.png"" class=""exp-image"">
                    <div class=""question-area"">
                        <p style=""font-size: 20px; font-weight: bold; margin: 0;"">Was there a person in this image?</p>
                    </div>
                </div>","0","example_question","3","","","","","","","",""
"","","","","","html-keyboard-response","12","74051","0.0-12.0","E7B350C4F0A8405E9588C00FEE738204","019cf98d-c8a8-7782-940f-bb6c88b80b70","019cf974-7aee-7bc9-8ea4-9f55741b365d","","null","
                <div class=""stimulus-container"">
                    <img src=""images/instructions/movie_4.png"" class=""exp-image"">
                    <div class=""question-area""></div> 
                </div>","null","","","","","","","","","",""
"","","","","","html-button-response","13","75863","0.0-13.0","E7B350C4F0A8405E9588C00FEE738204","019cf98d-c8a8-7782-940f-bb6c88b80b70","019cf974-7aee-7bc9-8ea4-9f55741b365d","","1810","
                <div class=""stimulus-container"">
                    <img src=""images/instructions/movie_4.png"" class=""exp-image"">
                    <div class=""question-area"">
                        <p style=""font-size: 20px; font-weight: bold; margin: 0;"">Was there a person in this image?</p>
                    </div>
                </div>","0","example_question","4","","","","","","","",""
"","","","","","instructions","14","77784","0.0-14.0","E7B350C4F0A8405E9588C00FEE738204","019cf98d-c8a8-7782-940f-bb6c88b80b70","019cf974-7aee-7bc9-8ea4-9f55741b365d","[{""page_index"":0,""viewing_time"":1921}]","1921","","","","","","","","","","","",""
"","","","","","instructions","15","94764","0.0-15.0","E7B350C4F0A8405E9588C00FEE738204","019cf98d-c8a8-7782-940f-bb6c88b80b70","019cf974-7aee-7bc9-8ea4-9f55741b365d","[{""page_index"":0,""viewing_time"":16979}]","16979","","","","","","","","","","","",""
"","","","","","html-keyboard-response","16","99776","0.0-16.0","E7B350C4F0A8405E9588C00FEE738204","019cf98d-c8a8-7782-940f-bb6c88b80b70","019cf974-7aee-7bc9-8ea4-9f55741b365d","","null","<div style=""background-color: white; width: 100vw; height: 100vh;""></div>","null","","","","","","","","","",""
"","","","","","html-keyboard-response","17","100778","0.0-17.0","E7B350C4F0A8405E9588C00FEE738204","019cf98d-c8a8-7782-940f-bb6c88b80b70","019cf974-7aee-7bc9-8ea4-9f55741b365d","","null","
                <div class=""stimulus-container"">
                    <img src=""images/semantic_sequence/exploring_nature_semantic/exploring_nature_semantic_ten.png"" class=""exp-image"">
                    <div class=""question-area""></div> 
                </div>","null","","","","","","","","","",""
"","","","","","html-button-response","18","101974","0.0-18.0","E7B350C4F0A8405E9588C00FEE738204","019cf98d-c8a8-7782-940f-bb6c88b80b70","019cf974-7aee-7bc9-8ea4-9f55741b365d","","1195","
                <div class=""stimulus-container"">
                    <img src=""images/semantic_sequence/exploring_nature_semantic/exploring_nature_semantic_ten.png"" class=""exp-image"">
                    <div class=""question-area"">
                        <p style=""font-size: 20px; font-weight: bold; margin: 0;"">Is there a person in this image?</p>
                    </div>
                </div>","0","main_experiment_trial","ten","exploring_nature_semantic","semantic_sequence","randomized","","","","",""
"","","","","","html-keyboard-response","19","102977","0.0-19.0","E7B350C4F0A8405E9588C00FEE738204","019cf98d-c8a8-7782-940f-bb6c88b80b70","019cf974-7aee-7bc9-8ea4-9f55741b365d","","null","
                <div class=""stimulus-container"">
                    <img src=""images/semantic_sequence/exploring_nature_semantic/exploring_nature_semantic_2.png"" class=""exp-image"">
                    <div class=""question-area""></div> 
                </div>","null","","","","","","","","","",""
"","","","","","html-button-response","20","104528","0.0-20.0","E7B350C4F0A8405E9588C00FEE738204","019cf98d-c8a8-7782-940f-bb6c88b80b70","019cf974-7aee-7bc9-8ea4-9f55741b365d","","1550","
                <div class=""stimulus-container"">
                    <img src=""images/semantic_sequence/exploring_nature_semantic/exploring_nature_semantic_2.png"" class=""exp-image"">
                    <div class=""question-area"">
                        <p style=""font-size: 20px; font-weight: bold; margin: 0;"">Is there a person in this image?</p>
                    </div>
                </div>","0","main_experiment_trial","2","exploring_nature_semantic","semantic_sequence","randomized","","","","",""
"","","","","","html-keyboard-response","21","105530","0.0-21.0","E7B350C4F0A8405E9588C00FEE738204","019cf98d-c8a8-7782-940f-bb6c88b80b70","019cf974-7aee-7bc9-8ea4-9f55741b365d","","null","
                <div class=""stimulus-container"">
                    <img src=""images/semantic_sequence/exploring_nature_semantic/exploring_nature_semantic_8.png"" class=""exp-image"">
                    <div class=""question-area""></div> 
                </div>","null","","","","","","","","","",""
"","","","","","html-button-response","22","106720","0.0-22.0","E7B350C4F0A8405E9588C00FEE738204","019cf98d-c8a8-7782-940f-bb6c88b80b70","019cf974-7aee-7bc9-8ea4-9f55741b365d","","1189","
                <div class=""stimulus-container"">
                    <img src=""images/semantic_sequence/exploring_nature_semantic/exploring_nature_semantic_8.png"" class=""exp-image"">
                    <div class=""question-area"">
                        <p style=""font-size: 20px; font-weight: bold; margin: 0;"">Is there a person in this image?</p>
                    </div>
                </div>","0","main_experiment_trial","8","exploring_nature_semantic","semantic_sequence","randomized","","","","",""
"","","","","","html-keyboard-response","23","107722","0.0-23.0","E7B350C4F0A8405E9588C00FEE738204","019cf98d-c8a8-7782-940f-bb6c88b80b70","019cf974-7aee-7bc9-8ea4-9f55741b365d","","null","
                <div class=""stimulus-container"">
                    <img src=""images/semantic_sequence/exploring_nature_semantic/exploring_nature_semantic_5.png"" class=""exp-image"">
                    <div class=""question-area""></div> 
                </div>","null","","","","","","","","","",""
"","","","","","html-button-response","24","108981","0.0-24.0","E7B350C4F0A8405E9588C00FEE738204","019cf98d-c8a8-7782-940f-bb6c88b80b70","019cf974-7aee-7bc9-8ea4-9f55741b365d","","1257","
                <div class=""stimulus-container"">
                    <img src=""images/semantic_sequence/exploring_nature_semantic/exploring_nature_semantic_5.png"" class=""exp-image"">
                    <div class=""question-area"">
                        <p style=""font-size: 20px; font-weight: bold; margin: 0;"">Is there a person in this image?</p>
                    </div>
                </div>","0","main_experiment_trial","5","exploring_nature_semantic","semantic_sequence","randomized","","","","",""
"","","","","","html-keyboard-response","25","109982","0.0-25.0","E7B350C4F0A8405E9588C00FEE738204","019cf98d-c8a8-7782-940f-bb6c88b80b70","019cf974-7aee-7bc9-8ea4-9f55741b365d","","null","
                <div class=""stimulus-container"">
                    <img src=""images/semantic_sequence/exploring_nature_semantic/exploring_nature_semantic_1.png"" class=""exp-image"">
                    <div class=""question-area""></div> 
                </div>","null","","","","","","","","","",""
"","","","","","html-button-response","26","111152","0.0-26.0","E7B350C4F0A8405E9588C00FEE738204","019cf98d-c8a8-7782-940f-bb6c88b80b70","019cf974-7aee-7bc9-8ea4-9f55741b365d","","1168","
                <div class=""stimulus-container"">
                    <img src=""images/semantic_sequence/exploring_nature_semantic/exploring_nature_semantic_1.png"" class=""exp-image"">
                    <div class=""question-area"">
                        <p style=""font-size: 20px; font-weight: bold; margin: 0;"">Is there a person in this image?</p>
                    </div>
                </div>","0","main_experiment_trial","1","exploring_nature_semantic","semantic_sequence","randomized","","","","",""
"","","","","","html-keyboard-response","27","112155","0.0-27.0","E7B350C4F0A8405E9588C00FEE738204","019cf98d-c8a8-7782-940f-bb6c88b80b70","019cf974-7aee-7bc9-8ea4-9f55741b365d","","null","
                <div class=""stimulus-container"">
                    <img src=""images/semantic_sequence/exploring_nature_semantic/exploring_nature_semantic_6.png"" class=""exp-image"">
                    <div class=""question-area""></div> 
                </div>","null","","","","","","","","","",""
"","","","","","html-button-response","28","113051","0.0-28.0","E7B350C4F0A8405E9588C00FEE738204","019cf98d-c8a8-7782-940f-bb6c88b80b70","019cf974-7aee-7bc9-8ea4-9f55741b365d","","895","
                <div class=""stimulus-container"">
                    <img src=""images/semantic_sequence/exploring_nature_semantic/exploring_nature_semantic_6.png"" class=""exp-image"">
                    <div class=""question-area"">
                        <p style=""font-size: 20px; font-weight: bold; margin: 0;"">Is there a person in this image?</p>
                    </div>
                </div>","0","main_experiment_trial","6","exploring_nature_semantic","semantic_sequence","randomized","","","","",""
"","","","","","html-keyboard-response","29","114059","0.0-29.0","E7B350C4F0A8405E9588C00FEE738204","019cf98d-c8a8-7782-940f-bb6c88b80b70","019cf974-7aee-7bc9-8ea4-9f55741b365d","","null","
                <div class=""stimulus-container"">
                    <img src=""images/semantic_sequence/exploring_nature_semantic/exploring_nature_semantic_3.png"" class=""exp-image"">
                    <div class=""question-area""></div> 
                </div>","null","","","","","","","","","",""
"","","","","","html-button-response","30","115044","0.0-30.0","E7B350C4F0A8405E9588C00FEE738204","019cf98d-c8a8-7782-940f-bb6c88b80b70","019cf974-7aee-7bc9-8ea4-9f55741b365d","","984","
                <div class=""stimulus-container"">
                    <img src=""images/semantic_sequence/exploring_nature_semantic/exploring_nature_semantic_3.png"" class=""exp-image"">
                    <div class=""question-area"">
                        <p style=""font-size: 20px; font-weight: bold; margin: 0;"">Is there a person in this image?</p>
                    </div>
                </div>","0","main_experiment_trial","3","exploring_nature_semantic","semantic_sequence","randomized","","","","",""
"","","","","","html-keyboard-response","31","116049","0.0-31.0","E7B350C4F0A8405E9588C00FEE738204","019cf98d-c8a8-7782-940f-bb6c88b80b70","019cf974-7aee-7bc9-8ea4-9f55741b365d","","null","
                <div class=""stimulus-container"">
                    <img src=""images/semantic_sequence/exploring_nature_semantic/exploring_nature_semantic_7.png"" class=""exp-image"">
                    <div class=""question-area""></div> 
                </div>","null","","","","","","","","","",""
"","","","","","html-button-response","32","116961","0.0-32.0","E7B350C4F0A8405E9588C00FEE738204","019cf98d-c8a8-7782-940f-bb6c88b80b70","019cf974-7aee-7bc9-8ea4-9f55741b365d","","912","
                <div class=""stimulus-container"">
                    <img src=""images/semantic_sequence/exploring_nature_semantic/exploring_nature_semantic_7.png"" class=""exp-image"">
                    <div class=""question-area"">
                        <p style=""font-size: 20px; font-weight: bold; margin: 0;"">Is there a person in this image?</p>
                    </div>
                </div>","0","main_experiment_trial","7","exploring_nature_semantic","semantic_sequence","randomized","","","","",""
"","","","","","html-keyboard-response","33","117977","0.0-33.0","E7B350C4F0A8405E9588C00FEE738204","019cf98d-c8a8-7782-940f-bb6c88b80b70","019cf974-7aee-7bc9-8ea4-9f55741b365d","","null","
                <div class=""stimulus-container"">
                    <img src=""images/semantic_sequence/exploring_nature_semantic/exploring_nature_semantic_9.png"" class=""exp-image"">
                    <div class=""question-area""></div> 
                </div>","null","","","","","","","","","",""
"","","","","","html-button-response","34","118771","0.0-34.0","E7B350C4F0A8405E9588C00FEE738204","019cf98d-c8a8-7782-940f-bb6c88b80b70","019cf974-7aee-7bc9-8ea4-9f55741b365d","","793","
                <div class=""stimulus-container"">
                    <img src=""images/semantic_sequence/exploring_nature_semantic/exploring_nature_semantic_9.png"" class=""exp-image"">
                    <div class=""question-area"">
                        <p style=""font-size: 20px; font-weight: bold; margin: 0;"">Is there a person in this image?</p>
                    </div>
                </div>","0","main_experiment_trial","9","exploring_nature_semantic","semantic_sequence","randomized","","","","",""
"","","","","","html-keyboard-response","35","119786","0.0-35.0","E7B350C4F0A8405E9588C00FEE738204","019cf98d-c8a8-7782-940f-bb6c88b80b70","019cf974-7aee-7bc9-8ea4-9f55741b365d","","null","
                <div class=""stimulus-container"">
                    <img src=""images/semantic_sequence/exploring_nature_semantic/exploring_nature_semantic_4.png"" class=""exp-image"">
                    <div class=""question-area""></div> 
                </div>","null","","","","","","","","","",""
"","","","","","html-button-response","36","120646","0.0-36.0","E7B350C4F0A8405E9588C00FEE738204","019cf98d-c8a8-7782-940f-bb6c88b80b70","019cf974-7aee-7bc9-8ea4-9f55741b365d","","858","
                <div class=""stimulus-container"">
                    <img src=""images/semantic_sequence/exploring_nature_semantic/exploring_nature_semantic_4.png"" class=""exp-image"">
                    <div class=""question-area"">
                        <p style=""font-size: 20px; font-weight: bold; margin: 0;"">Is there a person in this image?</p>
                    </div>
                </div>","0","main_experiment_trial","4","exploring_nature_semantic","semantic_sequence","randomized","","","","",""
"","","","","","html-keyboard-response","37","125653","0.0-37.0","E7B350C4F0A8405E9588C00FEE738204","019cf98d-c8a8-7782-940f-bb6c88b80b70","019cf974-7aee-7bc9-8ea4-9f55741b365d","","null","<div style=""background-color: white; width: 100vw; height: 100vh;""></div>","null","","","","","","","","","",""
"","","","","","html-keyboard-response","38","126655","0.0-38.0","E7B350C4F0A8405E9588C00FEE738204","019cf98d-c8a8-7782-940f-bb6c88b80b70","019cf974-7aee-7bc9-8ea4-9f55741b365d","","null","
                <div class=""stimulus-container"">
                    <img src=""images/semantic_sequence/self_care_activities_semantic/self_care_activities_semantic_1.png"" class=""exp-image"">
                    <div class=""question-area""></div> 
                </div>","null","","","","","","","","","",""
"","","","","","html-button-response","39","128126","0.0-39.0","E7B350C4F0A8405E9588C00FEE738204","019cf98d-c8a8-7782-940f-bb6c88b80b70","019cf974-7aee-7bc9-8ea4-9f55741b365d","","1470","
                <div class=""stimulus-container"">
                    <img src=""images/semantic_sequence/self_care_activities_semantic/self_care_activities_semantic_1.png"" class=""exp-image"">
                    <div class=""question-area"">
                        <p style=""font-size: 20px; font-weight: bold; margin: 0;"">Is there a person in this image?</p>
                    </div>
                </div>","0","main_experiment_trial","1","self_care_activities_semantic","semantic_sequence","randomized","","","","",""
"","","","","","html-keyboard-response","40","129142","0.0-40.0","E7B350C4F0A8405E9588C00FEE738204","019cf98d-c8a8-7782-940f-bb6c88b80b70","019cf974-7aee-7bc9-8ea4-9f55741b365d","","null","
                <div class=""stimulus-container"">
                    <img src=""images/semantic_sequence/self_care_activities_semantic/self_care_activities_semantic_2.png"" class=""exp-image"">
                    <div class=""question-area""></div> 
                </div>","null","","","","","","","","","",""
"","","","","","html-button-response","41","130695","0.0-41.0","E7B350C4F0A8405E9588C00FEE738204","019cf98d-c8a8-7782-940f-bb6c88b80b70","019cf974-7aee-7bc9-8ea4-9f55741b365d","","1552","
                <div class=""stimulus-container"">
                    <img src=""images/semantic_sequence/self_care_activities_semantic/self_care_activities_semantic_2.png"" class=""exp-image"">
                    <div class=""question-area"">
                        <p style=""font-size: 20px; font-weight: bold; margin: 0;"">Is there a person in this image?</p>
                    </div>
                </div>","0","main_experiment_trial","2","self_care_activities_semantic","semantic_sequence","randomized","","","","",""
"","","","","","html-keyboard-response","42","131700","0.0-42.0","E7B350C4F0A8405E9588C00FEE738204","019cf98d-c8a8-7782-940f-bb6c88b80b70","019cf974-7aee-7bc9-8ea4-9f55741b365d","","null","
                <div class=""stimulus-container"">
                    <img src=""images/semantic_sequence/self_care_activities_semantic/self_care_activities_semantic_6.png"" class=""exp-image"">
                    <div class=""question-area""></div> 
                </div>","null","","","","","","","","","",""
"","","","","","html-button-response","43","132937","0.0-43.0","E7B350C4F0A8405E9588C00FEE738204","019cf98d-c8a8-7782-940f-bb6c88b80b70","019cf974-7aee-7bc9-8ea4-9f55741b365d","","1235","
                <div class=""stimulus-container"">
                    <img src=""images/semantic_sequence/self_care_activities_semantic/self_care_activities_semantic_6.png"" class=""exp-image"">
                    <div class=""question-area"">
                        <p style=""font-size: 20px; font-weight: bold; margin: 0;"">Is there a person in this image?</p>
                    </div>
                </div>","1","main_experiment_trial","6","self_care_activities_semantic","semantic_sequence","randomized","","","","",""
"","","","","","html-keyboard-response","44","133943","0.0-44.0","E7B350C4F0A8405E9588C00FEE738204","019cf98d-c8a8-7782-940f-bb6c88b80b70","019cf974-7aee-7bc9-8ea4-9f55741b365d","","null","
                <div class=""stimulus-container"">
                    <img src=""images/semantic_sequence/self_care_activities_semantic/self_care_activities_semantic_7.png"" class=""exp-image"">
                    <div class=""question-area""></div> 
                </div>","null","","","","","","","","","",""
"","","","","","html-button-response","45","134860","0.0-45.0","E7B350C4F0A8405E9588C00FEE738204","019cf98d-c8a8-7782-940f-bb6c88b80b70","019cf974-7aee-7bc9-8ea4-9f55741b365d","","916","
                <div class=""stimulus-container"">
                    <img src=""images/semantic_sequence/self_care_activities_semantic/self_care_activities_semantic_7.png"" class=""exp-image"">
                    <div class=""question-area"">
                        <p style=""font-size: 20px; font-weight: bold; margin: 0;"">Is there a person in this image?</p>
                    </div>
                </div>","0","main_experiment_trial","7","self_care_activities_semantic","semantic_sequence","randomized","","","","",""
"","","","","","html-keyboard-response","46","135874","0.0-46.0","E7B350C4F0A8405E9588C00FEE738204","019cf98d-c8a8-7782-940f-bb6c88b80b70","019cf974-7aee-7bc9-8ea4-9f55741b365d","","null","
                <div class=""stimulus-container"">
                    <img src=""images/semantic_sequence/self_care_activities_semantic/self_care_activities_semantic_4.png"" class=""exp-image"">
                    <div class=""question-area""></div> 
                </div>","null","","","","","","","","","",""
"","","","","","html-button-response","47","136682","0.0-47.0","E7B350C4F0A8405E9588C00FEE738204","019cf98d-c8a8-7782-940f-bb6c88b80b70","019cf974-7aee-7bc9-8ea4-9f55741b365d","","807","
                <div class=""stimulus-container"">
                    <img src=""images/semantic_sequence/self_care_activities_semantic/self_care_activities_semantic_4.png"" class=""exp-image"">
                    <div class=""question-area"">
                        <p style=""font-size: 20px; font-weight: bold; margin: 0;"">Is there a person in this image?</p>
                    </div>
                </div>","0","main_experiment_trial","4","self_care_activities_semantic","semantic_sequence","randomized","","","","",""
"","","","","","html-keyboard-response","48","137689","0.0-48.0","E7B350C4F0A8405E9588C00FEE738204","019cf98d-c8a8-7782-940f-bb6c88b80b70","019cf974-7aee-7bc9-8ea4-9f55741b365d","","null","
                <div class=""stimulus-container"">
                    <img src=""images/semantic_sequence/self_care_activities_semantic/self_care_activities_semantic_9.png"" class=""exp-image"">
                    <div class=""question-area""></div> 
                </div>","null","","","","","","","","","",""
"","","","","","html-button-response","49","138792","0.0-49.0","E7B350C4F0A8405E9588C00FEE738204","019cf98d-c8a8-7782-940f-bb6c88b80b70","019cf974-7aee-7bc9-8ea4-9f55741b365d","","1101","
                <div class=""stimulus-container"">
                    <img src=""images/semantic_sequence/self_care_activities_semantic/self_care_activities_semantic_9.png"" class=""exp-image"">
                    <div class=""question-area"">
                        <p style=""font-size: 20px; font-weight: bold; margin: 0;"">Is there a person in this image?</p>
                    </div>
                </div>","0","main_experiment_trial","9","self_care_activities_semantic","semantic_sequence","randomized","","","","",""
"","","","","","html-keyboard-response","50","139807","0.0-50.0","E7B350C4F0A8405E9588C00FEE738204","019cf98d-c8a8-7782-940f-bb6c88b80b70","019cf974-7aee-7bc9-8ea4-9f55741b365d","","null","
                <div class=""stimulus-container"">
                    <img src=""images/semantic_sequence/self_care_activities_semantic/self_care_activities_semantic_5.png"" class=""exp-image"">
                    <div class=""question-area""></div> 
                </div>","null","","","","","","","","","",""
"","","","","","html-button-response","51","141056","0.0-51.0","E7B350C4F0A8405E9588C00FEE738204","019cf98d-c8a8-7782-940f-bb6c88b80b70","019cf974-7aee-7bc9-8ea4-9f55741b365d","","1248","
                <div class=""stimulus-container"">
                    <img src=""images/semantic_sequence/self_care_activities_semantic/self_care_activities_semantic_5.png"" class=""exp-image"">
                    <div class=""question-area"">
                        <p style=""font-size: 20px; font-weight: bold; margin: 0;"">Is there a person in this image?</p>
                    </div>
                </div>","0","main_experiment_trial","5","self_care_activities_semantic","semantic_sequence","randomized","","","","",""
"","","","","","html-keyboard-response","52","142064","0.0-52.0","E7B350C4F0A8405E9588C00FEE738204","019cf98d-c8a8-7782-940f-bb6c88b80b70","019cf974-7aee-7bc9-8ea4-9f55741b365d","","null","
                <div class=""stimulus-container"">
                    <img src=""images/semantic_sequence/self_care_activities_semantic/self_care_activities_semantic_ten.png"" class=""exp-image"">
                    <div class=""question-area""></div> 
                </div>","null","","","","","","","","","",""
"","","","","","html-button-response","53","142987","0.0-53.0","E7B350C4F0A8405E9588C00FEE738204","019cf98d-c8a8-7782-940f-bb6c88b80b70","019cf974-7aee-7bc9-8ea4-9f55741b365d","","921","
                <div class=""stimulus-container"">
                    <img src=""images/semantic_sequence/self_care_activities_semantic/self_care_activities_semantic_ten.png"" class=""exp-image"">
                    <div class=""question-area"">
                        <p style=""font-size: 20px; font-weight: bold; margin: 0;"">Is there a person in this image?</p>
                    </div>
                </div>","0","main_experiment_trial","ten","self_care_activities_semantic","semantic_sequence","randomized","","","","",""
"","","","","","html-keyboard-response","54","144001","0.0-54.0","E7B350C4F0A8405E9588C00FEE738204","019cf98d-c8a8-7782-940f-bb6c88b80b70","019cf974-7aee-7bc9-8ea4-9f55741b365d","","null","
                <div class=""stimulus-container"">
                    <img src=""images/semantic_sequence/self_care_activities_semantic/self_care_activities_semantic_8.png"" class=""exp-image"">
                    <div class=""question-area""></div> 
                </div>","null","","","","","","","","","",""
"","","","","","html-button-response","55","145353","0.0-55.0","E7B350C4F0A8405E9588C00FEE738204","019cf98d-c8a8-7782-940f-bb6c88b80b70","019cf974-7aee-7bc9-8ea4-9f55741b365d","","1350","
                <div class=""stimulus-container"">
                    <img src=""images/semantic_sequence/self_care_activities_semantic/self_care_activities_semantic_8.png"" class=""exp-image"">
                    <div class=""question-area"">
                        <p style=""font-size: 20px; font-weight: bold; margin: 0;"">Is there a person in this image?</p>
                    </div>
                </div>","0","main_experiment_trial","8","self_care_activities_semantic","semantic_sequence","randomized","","","","",""
"","","","","","html-keyboard-response","56","146365","0.0-56.0","E7B350C4F0A8405E9588C00FEE738204","019cf98d-c8a8-7782-940f-bb6c88b80b70","019cf974-7aee-7bc9-8ea4-9f55741b365d","","null","
                <div class=""stimulus-container"">
                    <img src=""images/semantic_sequence/self_care_activities_semantic/self_care_activities_semantic_3.png"" class=""exp-image"">
                    <div class=""question-area""></div> 
                </div>","null","","","","","","","","","",""
"","","","","","html-button-response","57","147102","0.0-57.0","E7B350C4F0A8405E9588C00FEE738204","019cf98d-c8a8-7782-940f-bb6c88b80b70","019cf974-7aee-7bc9-8ea4-9f55741b365d","","735","
                <div class=""stimulus-container"">
                    <img src=""images/semantic_sequence/self_care_activities_semantic/self_care_activities_semantic_3.png"" class=""exp-image"">
                    <div class=""question-area"">
                        <p style=""font-size: 20px; font-weight: bold; margin: 0;"">Is there a person in this image?</p>
                    </div>
                </div>","0","main_experiment_trial","3","self_care_activities_semantic","semantic_sequence","randomized","","","","",""
"","","","","","html-keyboard-response","58","152115","0.0-58.0","E7B350C4F0A8405E9588C00FEE738204","019cf98d-c8a8-7782-940f-bb6c88b80b70","019cf974-7aee-7bc9-8ea4-9f55741b365d","","null","<div style=""background-color: white; width: 100vw; height: 100vh;""></div>","null","","","","","","","","","",""
"","","","","","html-keyboard-response","59","153130","0.0-59.0","E7B350C4F0A8405E9588C00FEE738204","019cf98d-c8a8-7782-940f-bb6c88b80b70","019cf974-7aee-7bc9-8ea4-9f55741b365d","","null","
                <div class=""stimulus-container"">
                    <img src=""images/semantic_sequence/housework_semantic/housework_semantic_1.png"" class=""exp-image"">
                    <div class=""question-area""></div> 
                </div>","null","","","","","","","","","",""
"","","","","","html-button-response","60","156147","0.0-60.0","E7B350C4F0A8405E9588C00FEE738204","019cf98d-c8a8-7782-940f-bb6c88b80b70","019cf974-7aee-7bc9-8ea4-9f55741b365d","","null","
                <div class=""stimulus-container"">
                    <img src=""images/semantic_sequence/housework_semantic/housework_semantic_1.png"" class=""exp-image"">
                    <div class=""question-area"">
                        <p style=""font-size: 20px; font-weight: bold; margin: 0;"">Is there a person in this image?</p>
                    </div>
                </div>","null","main_experiment_trial","1","housework_semantic","semantic_sequence","randomized","","","","",""
"","","","","","html-keyboard-response","61","157152","0.0-61.0","E7B350C4F0A8405E9588C00FEE738204","019cf98d-c8a8-7782-940f-bb6c88b80b70","019cf974-7aee-7bc9-8ea4-9f55741b365d","","null","
                <div class=""stimulus-container"">
                    <img src=""images/semantic_sequence/housework_semantic/housework_semantic_2.png"" class=""exp-image"">
                    <div class=""question-area""></div> 
                </div>","null","","","","","","","","","",""
"","","","","","html-button-response","62","158144","0.0-62.0","E7B350C4F0A8405E9588C00FEE738204","019cf98d-c8a8-7782-940f-bb6c88b80b70","019cf974-7aee-7bc9-8ea4-9f55741b365d","","989","
                <div class=""stimulus-container"">
                    <img src=""images/semantic_sequence/housework_semantic/housework_semantic_2.png"" class=""exp-image"">
                    <div class=""question-area"">
                        <p style=""font-size: 20px; font-weight: bold; margin: 0;"">Is there a person in this image?</p>
                    </div>
                </div>","0","main_experiment_trial","2","housework_semantic","semantic_sequence","randomized","","","","",""
"","","","","","html-keyboard-response","63","159146","0.0-63.0","E7B350C4F0A8405E9588C00FEE738204","019cf98d-c8a8-7782-940f-bb6c88b80b70","019cf974-7aee-7bc9-8ea4-9f55741b365d","","null","
                <div class=""stimulus-container"">
                    <img src=""images/semantic_sequence/housework_semantic/housework_semantic_3.png"" class=""exp-image"">
                    <div class=""question-area""></div> 
                </div>","null","","","","","","","","","",""
"","","","","","html-button-response","64","159874","0.0-64.0","E7B350C4F0A8405E9588C00FEE738204","019cf98d-c8a8-7782-940f-bb6c88b80b70","019cf974-7aee-7bc9-8ea4-9f55741b365d","","728","
                <div class=""stimulus-container"">
                    <img src=""images/semantic_sequence/housework_semantic/housework_semantic_3.png"" class=""exp-image"">
                    <div class=""question-area"">
                        <p style=""font-size: 20px; font-weight: bold; margin: 0;"">Is there a person in this image?</p>
                    </div>
                </div>","0","main_experiment_trial","3","housework_semantic","semantic_sequence","randomized","","","","",""
"","","","","","html-keyboard-response","65","160882","0.0-65.0","E7B350C4F0A8405E9588C00FEE738204","019cf98d-c8a8-7782-940f-bb6c88b80b70","019cf974-7aee-7bc9-8ea4-9f55741b365d","","null","
                <div class=""stimulus-container"">
                    <img src=""images/semantic_sequence/housework_semantic/housework_semantic_4.png"" class=""exp-image"">
                    <div class=""question-area""></div> 
                </div>","null","","","","","","","","","",""
"","","","","","html-button-response","66","161629","0.0-66.0","E7B350C4F0A8405E9588C00FEE738204","019cf98d-c8a8-7782-940f-bb6c88b80b70","019cf974-7aee-7bc9-8ea4-9f55741b365d","","746","
                <div class=""stimulus-container"">
                    <img src=""images/semantic_sequence/housework_semantic/housework_semantic_4.png"" class=""exp-image"">
                    <div class=""question-area"">
                        <p style=""font-size: 20px; font-weight: bold; margin: 0;"">Is there a person in this image?</p>
                    </div>
                </div>","0","main_experiment_trial","4","housework_semantic","semantic_sequence","randomized","","","","",""
"","","","","","html-keyboard-response","67","162637","0.0-67.0","E7B350C4F0A8405E9588C00FEE738204","019cf98d-c8a8-7782-940f-bb6c88b80b70","019cf974-7aee-7bc9-8ea4-9f55741b365d","","null","
                <div class=""stimulus-container"">
                    <img src=""images/semantic_sequence/housework_semantic/housework_semantic_9.png"" class=""exp-image"">
                    <div class=""question-area""></div> 
                </div>","null","","","","","","","","","",""
"","","","","","html-button-response","68","163230","0.0-68.0","E7B350C4F0A8405E9588C00FEE738204","019cf98d-c8a8-7782-940f-bb6c88b80b70","019cf974-7aee-7bc9-8ea4-9f55741b365d","","591","
                <div class=""stimulus-container"">
                    <img src=""images/semantic_sequence/housework_semantic/housework_semantic_9.png"" class=""exp-image"">
                    <div class=""question-area"">
                        <p style=""font-size: 20px; font-weight: bold; margin: 0;"">Is there a person in this image?</p>
                    </div>
                </div>","0","main_experiment_trial","9","housework_semantic","semantic_sequence","randomized","","","","",""
"","","","","","html-keyboard-response","69","164231","0.0-69.0","E7B350C4F0A8405E9588C00FEE738204","019cf98d-c8a8-7782-940f-bb6c88b80b70","019cf974-7aee-7bc9-8ea4-9f55741b365d","","null","
                <div class=""stimulus-container"">
                    <img src=""images/semantic_sequence/housework_semantic/housework_semantic_7.png"" class=""exp-image"">
                    <div class=""question-area""></div> 
                </div>","null","","","","","","","","","",""
"","","","","","html-button-response","70","164681","0.0-70.0","E7B350C4F0A8405E9588C00FEE738204","019cf98d-c8a8-7782-940f-bb6c88b80b70","019cf974-7aee-7bc9-8ea4-9f55741b365d","","448","
                <div class=""stimulus-container"">
                    <img src=""images/semantic_sequence/housework_semantic/housework_semantic_7.png"" class=""exp-image"">
                    <div class=""question-area"">
                        <p style=""font-size: 20px; font-weight: bold; margin: 0;"">Is there a person in this image?</p>
                    </div>
                </div>","1","main_experiment_trial","7","housework_semantic","semantic_sequence","randomized","","","","",""
"","","","","","html-keyboard-response","71","165682","0.0-71.0","E7B350C4F0A8405E9588C00FEE738204","019cf98d-c8a8-7782-940f-bb6c88b80b70","019cf974-7aee-7bc9-8ea4-9f55741b365d","","null","
                <div class=""stimulus-container"">
                    <img src=""images/semantic_sequence/housework_semantic/housework_semantic_ten.png"" class=""exp-image"">
                    <div class=""question-area""></div> 
                </div>","null","","","","","","","","","",""
"","","","","","html-button-response","72","166047","0.0-72.0","E7B350C4F0A8405E9588C00FEE738204","019cf98d-c8a8-7782-940f-bb6c88b80b70","019cf974-7aee-7bc9-8ea4-9f55741b365d","","364","
                <div class=""stimulus-container"">
                    <img src=""images/semantic_sequence/housework_semantic/housework_semantic_ten.png"" class=""exp-image"">
                    <div class=""question-area"">
                        <p style=""font-size: 20px; font-weight: bold; margin: 0;"">Is there a person in this image?</p>
                    </div>
                </div>","0","main_experiment_trial","ten","housework_semantic","semantic_sequence","randomized","","","","",""
"","","","","","html-keyboard-response","73","167049","0.0-73.0","E7B350C4F0A8405E9588C00FEE738204","019cf98d-c8a8-7782-940f-bb6c88b80b70","019cf974-7aee-7bc9-8ea4-9f55741b365d","","null","
                <div class=""stimulus-container"">
                    <img src=""images/semantic_sequence/housework_semantic/housework_semantic_6.png"" class=""exp-image"">
                    <div class=""question-area""></div> 
                </div>","null","","","","","","","","","",""
"","","","","","html-button-response","74","167450","0.0-74.0","E7B350C4F0A8405E9588C00FEE738204","019cf98d-c8a8-7782-940f-bb6c88b80b70","019cf974-7aee-7bc9-8ea4-9f55741b365d","","399","
                <div class=""stimulus-container"">
                    <img src=""images/semantic_sequence/housework_semantic/housework_semantic_6.png"" class=""exp-image"">
                    <div class=""question-area"">
                        <p style=""font-size: 20px; font-weight: bold; margin: 0;"">Is there a person in this image?</p>
                    </div>
                </div>","0","main_experiment_trial","6","housework_semantic","semantic_sequence","randomized","","","","",""
"","","","","","html-keyboard-response","75","168452","0.0-75.0","E7B350C4F0A8405E9588C00FEE738204","019cf98d-c8a8-7782-940f-bb6c88b80b70","019cf974-7aee-7bc9-8ea4-9f55741b365d","","null","
                <div class=""stimulus-container"">
                    <img src=""images/semantic_sequence/housework_semantic/housework_semantic_5.png"" class=""exp-image"">
                    <div class=""question-area""></div> 
                </div>","null","","","","","","","","","",""
"","","","","","html-button-response","76","168776","0.0-76.0","E7B350C4F0A8405E9588C00FEE738204","019cf98d-c8a8-7782-940f-bb6c88b80b70","019cf974-7aee-7bc9-8ea4-9f55741b365d","","323","
                <div class=""stimulus-container"">
                    <img src=""images/semantic_sequence/housework_semantic/housework_semantic_5.png"" class=""exp-image"">
                    <div class=""question-area"">
                        <p style=""font-size: 20px; font-weight: bold; margin: 0;"">Is there a person in this image?</p>
                    </div>
                </div>","0","main_experiment_trial","5","housework_semantic","semantic_sequence","randomized","","","","",""
"","","","","","html-keyboard-response","77","169793","0.0-77.0","E7B350C4F0A8405E9588C00FEE738204","019cf98d-c8a8-7782-940f-bb6c88b80b70","019cf974-7aee-7bc9-8ea4-9f55741b365d","","null","
                <div class=""stimulus-container"">
                    <img src=""images/semantic_sequence/housework_semantic/housework_semantic_8.png"" class=""exp-image"">
                    <div class=""question-area""></div> 
                </div>","null","","","","","","","","","",""
"","","","","","html-button-response","78","170127","0.0-78.0","E7B350C4F0A8405E9588C00FEE738204","019cf98d-c8a8-7782-940f-bb6c88b80b70","019cf974-7aee-7bc9-8ea4-9f55741b365d","","333","
                <div class=""stimulus-container"">
                    <img src=""images/semantic_sequence/housework_semantic/housework_semantic_8.png"" class=""exp-image"">
                    <div class=""question-area"">
                        <p style=""font-size: 20px; font-weight: bold; margin: 0;"">Is there a person in this image?</p>
                    </div>
                </div>","0","main_experiment_trial","8","housework_semantic","semantic_sequence","randomized","","","","",""
"","","","","","html-keyboard-response","79","175137","0.0-79.0","E7B350C4F0A8405E9588C00FEE738204","019cf98d-c8a8-7782-940f-bb6c88b80b70","019cf974-7aee-7bc9-8ea4-9f55741b365d","","null","<div style=""background-color: white; width: 100vw; height: 100vh;""></div>","null","","","","","","","","","",""
"","","","","","html-keyboard-response","80","176140","0.0-80.0","E7B350C4F0A8405E9588C00FEE738204","019cf98d-c8a8-7782-940f-bb6c88b80b70","019cf974-7aee-7bc9-8ea4-9f55741b365d","","null","
                <div class=""stimulus-container"">
                    <img src=""images/semantic_sequence/physical_activity_semantic/physical_activity_semantic_8.png"" class=""exp-image"">
                    <div class=""question-area""></div> 
                </div>","null","","","","","","","","","",""
"","","","","","html-button-response","81","177074","0.0-81.0","E7B350C4F0A8405E9588C00FEE738204","019cf98d-c8a8-7782-940f-bb6c88b80b70","019cf974-7aee-7bc9-8ea4-9f55741b365d","","933","
                <div class=""stimulus-container"">
                    <img src=""images/semantic_sequence/physical_activity_semantic/physical_activity_semantic_8.png"" class=""exp-image"">
                    <div class=""question-area"">
                        <p style=""font-size: 20px; font-weight: bold; margin: 0;"">Is there a person in this image?</p>
                    </div>
                </div>","0","main_experiment_trial","8","physical_activity_semantic","semantic_sequence","randomized","","","","",""
"","","","","","html-keyboard-response","82","178081","0.0-82.0","E7B350C4F0A8405E9588C00FEE738204","019cf98d-c8a8-7782-940f-bb6c88b80b70","019cf974-7aee-7bc9-8ea4-9f55741b365d","","null","
                <div class=""stimulus-container"">
                    <img src=""images/semantic_sequence/physical_activity_semantic/physical_activity_semantic_ten.png"" class=""exp-image"">
                    <div class=""question-area""></div> 
                </div>","null","","","","","","","","","",""
"","","","","","html-button-response","83","178519","0.0-83.0","E7B350C4F0A8405E9588C00FEE738204","019cf98d-c8a8-7782-940f-bb6c88b80b70","019cf974-7aee-7bc9-8ea4-9f55741b365d","","436","
                <div class=""stimulus-container"">
                    <img src=""images/semantic_sequence/physical_activity_semantic/physical_activity_semantic_ten.png"" class=""exp-image"">
                    <div class=""question-area"">
                        <p style=""font-size: 20px; font-weight: bold; margin: 0;"">Is there a person in this image?</p>
                    </div>
                </div>","0","main_experiment_trial","ten","physical_activity_semantic","semantic_sequence","randomized","","","","",""
"","","","","","html-keyboard-response","84","179526","0.0-84.0","E7B350C4F0A8405E9588C00FEE738204","019cf98d-c8a8-7782-940f-bb6c88b80b70","019cf974-7aee-7bc9-8ea4-9f55741b365d","","null","
                <div class=""stimulus-container"">
                    <img src=""images/semantic_sequence/physical_activity_semantic/physical_activity_semantic_7.png"" class=""exp-image"">
                    <div class=""question-area""></div> 
                </div>","null","","","","","","","","","",""
"","","","","","html-button-response","85","179861","0.0-85.0","E7B350C4F0A8405E9588C00FEE738204","019cf98d-c8a8-7782-940f-bb6c88b80b70","019cf974-7aee-7bc9-8ea4-9f55741b365d","","334","
                <div class=""stimulus-container"">
                    <img src=""images/semantic_sequence/physical_activity_semantic/physical_activity_semantic_7.png"" class=""exp-image"">
                    <div class=""question-area"">
                        <p style=""font-size: 20px; font-weight: bold; margin: 0;"">Is there a person in this image?</p>
                    </div>
                </div>","0","main_experiment_trial","7","physical_activity_semantic","semantic_sequence","randomized","","","","",""
"","","","","","html-keyboard-response","86","180863","0.0-86.0","E7B350C4F0A8405E9588C00FEE738204","019cf98d-c8a8-7782-940f-bb6c88b80b70","019cf974-7aee-7bc9-8ea4-9f55741b365d","","null","
                <div class=""stimulus-container"">
                    <img src=""images/semantic_sequence/physical_activity_semantic/physical_activity_semantic_4.png"" class=""exp-image"">
                    <div class=""question-area""></div> 
                </div>","null","","","","","","","","","",""
"","","","","","html-button-response","87","181175","0.0-87.0","E7B350C4F0A8405E9588C00FEE738204","019cf98d-c8a8-7782-940f-bb6c88b80b70","019cf974-7aee-7bc9-8ea4-9f55741b365d","","311","
                <div class=""stimulus-container"">
                    <img src=""images/semantic_sequence/physical_activity_semantic/physical_activity_semantic_4.png"" class=""exp-image"">
                    <div class=""question-area"">
                        <p style=""font-size: 20px; font-weight: bold; margin: 0;"">Is there a person in this image?</p>
                    </div>
                </div>","0","main_experiment_trial","4","physical_activity_semantic","semantic_sequence","randomized","","","","",""
"","","","","","html-keyboard-response","88","182181","0.0-88.0","E7B350C4F0A8405E9588C00FEE738204","019cf98d-c8a8-7782-940f-bb6c88b80b70","019cf974-7aee-7bc9-8ea4-9f55741b365d","","null","
                <div class=""stimulus-container"">
                    <img src=""images/semantic_sequence/physical_activity_semantic/physical_activity_semantic_2.png"" class=""exp-image"">
                    <div class=""question-area""></div> 
                </div>","null","","","","","","","","","",""
"","","","","","html-button-response","89","182525","0.0-89.0","E7B350C4F0A8405E9588C00FEE738204","019cf98d-c8a8-7782-940f-bb6c88b80b70","019cf974-7aee-7bc9-8ea4-9f55741b365d","","343","
                <div class=""stimulus-container"">
                    <img src=""images/semantic_sequence/physical_activity_semantic/physical_activity_semantic_2.png"" class=""exp-image"">
                    <div class=""question-area"">
                        <p style=""font-size: 20px; font-weight: bold; margin: 0;"">Is there a person in this image?</p>
                    </div>
                </div>","0","main_experiment_trial","2","physical_activity_semantic","semantic_sequence","randomized","","","","",""
"","","","","","html-keyboard-response","90","183527","0.0-90.0","E7B350C4F0A8405E9588C00FEE738204","019cf98d-c8a8-7782-940f-bb6c88b80b70","019cf974-7aee-7bc9-8ea4-9f55741b365d","","null","
                <div class=""stimulus-container"">
                    <img src=""images/semantic_sequence/physical_activity_semantic/physical_activity_semantic_3.png"" class=""exp-image"">
                    <div class=""question-area""></div> 
                </div>","null","","","","","","","","","",""
"","","","","","html-button-response","91","183906","0.0-91.0","E7B350C4F0A8405E9588C00FEE738204","019cf98d-c8a8-7782-940f-bb6c88b80b70","019cf974-7aee-7bc9-8ea4-9f55741b365d","","377","
                <div class=""stimulus-container"">
                    <img src=""images/semantic_sequence/physical_activity_semantic/physical_activity_semantic_3.png"" class=""exp-image"">
                    <div class=""question-area"">
                        <p style=""font-size: 20px; font-weight: bold; margin: 0;"">Is there a person in this image?</p>
                    </div>
                </div>","0","main_experiment_trial","3","physical_activity_semantic","semantic_sequence","randomized","","","","",""
"","","","","","html-keyboard-response","92","184919","0.0-92.0","E7B350C4F0A8405E9588C00FEE738204","019cf98d-c8a8-7782-940f-bb6c88b80b70","019cf974-7aee-7bc9-8ea4-9f55741b365d","","null","
                <div class=""stimulus-container"">
                    <img src=""images/semantic_sequence/physical_activity_semantic/physical_activity_semantic_6.png"" class=""exp-image"">
                    <div class=""question-area""></div> 
                </div>","null","","","","","","","","","",""
"","","","","","html-button-response","93","185284","0.0-93.0","E7B350C4F0A8405E9588C00FEE738204","019cf98d-c8a8-7782-940f-bb6c88b80b70","019cf974-7aee-7bc9-8ea4-9f55741b365d","","364","
                <div class=""stimulus-container"">
                    <img src=""images/semantic_sequence/physical_activity_semantic/physical_activity_semantic_6.png"" class=""exp-image"">
                    <div class=""question-area"">
                        <p style=""font-size: 20px; font-weight: bold; margin: 0;"">Is there a person in this image?</p>
                    </div>
                </div>","0","main_experiment_trial","6","physical_activity_semantic","semantic_sequence","randomized","","","","",""
"","","","","","html-keyboard-response","94","186285","0.0-94.0","E7B350C4F0A8405E9588C00FEE738204","019cf98d-c8a8-7782-940f-bb6c88b80b70","019cf974-7aee-7bc9-8ea4-9f55741b365d","","null","
                <div class=""stimulus-container"">
                    <img src=""images/semantic_sequence/physical_activity_semantic/physical_activity_semantic_5.png"" class=""exp-image"">
                    <div class=""question-area""></div> 
                </div>","null","","","","","","","","","",""
"","","","","","html-button-response","95","186831","0.0-95.0","E7B350C4F0A8405E9588C00FEE738204","019cf98d-c8a8-7782-940f-bb6c88b80b70","019cf974-7aee-7bc9-8ea4-9f55741b365d","","544","
                <div class=""stimulus-container"">
                    <img src=""images/semantic_sequence/physical_activity_semantic/physical_activity_semantic_5.png"" class=""exp-image"">
                    <div class=""question-area"">
                        <p style=""font-size: 20px; font-weight: bold; margin: 0;"">Is there a person in this image?</p>
                    </div>
                </div>","0","main_experiment_trial","5","physical_activity_semantic","semantic_sequence","randomized","","","","",""
"","","","","","html-keyboard-response","96","187834","0.0-96.0","E7B350C4F0A8405E9588C00FEE738204","019cf98d-c8a8-7782-940f-bb6c88b80b70","019cf974-7aee-7bc9-8ea4-9f55741b365d","","null","
                <div class=""stimulus-container"">
                    <img src=""images/semantic_sequence/physical_activity_semantic/physical_activity_semantic_9.png"" class=""exp-image"">
                    <div class=""question-area""></div> 
                </div>","null","","","","","","","","","",""
"","","","","","html-button-response","97","188540","0.0-97.0","E7B350C4F0A8405E9588C00FEE738204","019cf98d-c8a8-7782-940f-bb6c88b80b70","019cf974-7aee-7bc9-8ea4-9f55741b365d","","704","
                <div class=""stimulus-container"">
                    <img src=""images/semantic_sequence/physical_activity_semantic/physical_activity_semantic_9.png"" class=""exp-image"">
                    <div class=""question-area"">
                        <p style=""font-size: 20px; font-weight: bold; margin: 0;"">Is there a person in this image?</p>
                    </div>
                </div>","0","main_experiment_trial","9","physical_activity_semantic","semantic_sequence","randomized","","","","",""
"","","","","","html-keyboard-response","98","189556","0.0-98.0","E7B350C4F0A8405E9588C00FEE738204","019cf98d-c8a8-7782-940f-bb6c88b80b70","019cf974-7aee-7bc9-8ea4-9f55741b365d","","null","
                <div class=""stimulus-container"">
                    <img src=""images/semantic_sequence/physical_activity_semantic/physical_activity_semantic_1.png"" class=""exp-image"">
                    <div class=""question-area""></div> 
                </div>","null","","","","","","","","","",""
"","","","","","html-button-response","99","190031","0.0-99.0","E7B350C4F0A8405E9588C00FEE738204","019cf98d-c8a8-7782-940f-bb6c88b80b70","019cf974-7aee-7bc9-8ea4-9f55741b365d","","474","
                <div class=""stimulus-container"">
                    <img src=""images/semantic_sequence/physical_activity_semantic/physical_activity_semantic_1.png"" class=""exp-image"">
                    <div class=""question-area"">
                        <p style=""font-size: 20px; font-weight: bold; margin: 0;"">Is there a person in this image?</p>
                    </div>
                </div>","0","main_experiment_trial","1","physical_activity_semantic","semantic_sequence","randomized","","","","",""
"","","","","","html-keyboard-response","100","195044","0.0-100.0","E7B350C4F0A8405E9588C00FEE738204","019cf98d-c8a8-7782-940f-bb6c88b80b70","019cf974-7aee-7bc9-8ea4-9f55741b365d","","null","<div style=""background-color: white; width: 100vw; height: 100vh;""></div>","null","","","","","","","","","",""
"","","","","","html-keyboard-response","101","196058","0.0-101.0","E7B350C4F0A8405E9588C00FEE738204","019cf98d-c8a8-7782-940f-bb6c88b80b70","019cf974-7aee-7bc9-8ea4-9f55741b365d","","null","
                <div class=""stimulus-container"">
                    <img src=""images/causal_sequence/package_causal/package_causal_ten.png"" class=""exp-image"">
                    <div class=""question-area""></div> 
                </div>","null","","","","","","","","","",""
"","","","","","html-button-response","102","196658","0.0-102.0","E7B350C4F0A8405E9588C00FEE738204","019cf98d-c8a8-7782-940f-bb6c88b80b70","019cf974-7aee-7bc9-8ea4-9f55741b365d","","599","
                <div class=""stimulus-container"">
                    <img src=""images/causal_sequence/package_causal/package_causal_ten.png"" class=""exp-image"">
                    <div class=""question-area"">
                        <p style=""font-size: 20px; font-weight: bold; margin: 0;"">Is there a person in this image?</p>
                    </div>
                </div>","0","main_experiment_trial","ten","package_causal","causal_sequence","randomized","","","","",""
"","","","","","html-keyboard-response","103","197668","0.0-103.0","E7B350C4F0A8405E9588C00FEE738204","019cf98d-c8a8-7782-940f-bb6c88b80b70","019cf974-7aee-7bc9-8ea4-9f55741b365d","","null","
                <div class=""stimulus-container"">
                    <img src=""images/causal_sequence/package_causal/package_causal_2.png"" class=""exp-image"">
                    <div class=""question-area""></div> 
                </div>","null","","","","","","","","","",""
"","","","","","html-button-response","104","198119","0.0-104.0","E7B350C4F0A8405E9588C00FEE738204","019cf98d-c8a8-7782-940f-bb6c88b80b70","019cf974-7aee-7bc9-8ea4-9f55741b365d","","449","
                <div class=""stimulus-container"">
                    <img src=""images/causal_sequence/package_causal/package_causal_2.png"" class=""exp-image"">
                    <div class=""question-area"">
                        <p style=""font-size: 20px; font-weight: bold; margin: 0;"">Is there a person in this image?</p>
                    </div>
                </div>","0","main_experiment_trial","2","package_causal","causal_sequence","randomized","","","","",""
"","","","","","html-keyboard-response","105","199130","0.0-105.0","E7B350C4F0A8405E9588C00FEE738204","019cf98d-c8a8-7782-940f-bb6c88b80b70","019cf974-7aee-7bc9-8ea4-9f55741b365d","","null","
                <div class=""stimulus-container"">
                    <img src=""images/causal_sequence/package_causal/package_causal_7.png"" class=""exp-image"">
                    <div class=""question-area""></div> 
                </div>","null","","","","","","","","","",""
"","","","","","html-button-response","106","199574","0.0-106.0","E7B350C4F0A8405E9588C00FEE738204","019cf98d-c8a8-7782-940f-bb6c88b80b70","019cf974-7aee-7bc9-8ea4-9f55741b365d","","443","
                <div class=""stimulus-container"">
                    <img src=""images/causal_sequence/package_causal/package_causal_7.png"" class=""exp-image"">
                    <div class=""question-area"">
                        <p style=""font-size: 20px; font-weight: bold; margin: 0;"">Is there a person in this image?</p>
                    </div>
                </div>","0","main_experiment_trial","7","package_causal","causal_sequence","randomized","","","","",""
"","","","","","html-keyboard-response","107","200578","0.0-107.0","E7B350C4F0A8405E9588C00FEE738204","019cf98d-c8a8-7782-940f-bb6c88b80b70","019cf974-7aee-7bc9-8ea4-9f55741b365d","","null","
                <div class=""stimulus-container"">
                    <img src=""images/causal_sequence/package_causal/package_causal_8.png"" class=""exp-image"">
                    <div class=""question-area""></div> 
                </div>","null","","","","","","","","","",""
"","","","","","html-button-response","108","201158","0.0-108.0","E7B350C4F0A8405E9588C00FEE738204","019cf98d-c8a8-7782-940f-bb6c88b80b70","019cf974-7aee-7bc9-8ea4-9f55741b365d","","579","
                <div class=""stimulus-container"">
                    <img src=""images/causal_sequence/package_causal/package_causal_8.png"" class=""exp-image"">
                    <div class=""question-area"">
                        <p style=""font-size: 20px; font-weight: bold; margin: 0;"">Is there a person in this image?</p>
                    </div>
                </div>","0","main_experiment_trial","8","package_causal","causal_sequence","randomized","","","","",""
"","","","","","html-keyboard-response","109","202163","0.0-109.0","E7B350C4F0A8405E9588C00FEE738204","019cf98d-c8a8-7782-940f-bb6c88b80b70","019cf974-7aee-7bc9-8ea4-9f55741b365d","","null","
                <div class=""stimulus-container"">
                    <img src=""images/causal_sequence/package_causal/package_causal_1.png"" class=""exp-image"">
                    <div class=""question-area""></div> 
                </div>","null","","","","","","","","","",""
"","","","","","html-button-response","110","202649","0.0-110.0","E7B350C4F0A8405E9588C00FEE738204","019cf98d-c8a8-7782-940f-bb6c88b80b70","019cf974-7aee-7bc9-8ea4-9f55741b365d","","484","
                <div class=""stimulus-container"">
                    <img src=""images/causal_sequence/package_causal/package_causal_1.png"" class=""exp-image"">
                    <div class=""question-area"">
                        <p style=""font-size: 20px; font-weight: bold; margin: 0;"">Is there a person in this image?</p>
                    </div>
                </div>","0","main_experiment_trial","1","package_causal","causal_sequence","randomized","","","","",""
"","","","","","html-keyboard-response","111","203656","0.0-111.0","E7B350C4F0A8405E9588C00FEE738204","019cf98d-c8a8-7782-940f-bb6c88b80b70","019cf974-7aee-7bc9-8ea4-9f55741b365d","","null","
                <div class=""stimulus-container"">
                    <img src=""images/causal_sequence/package_causal/package_causal_4.png"" class=""exp-image"">
                    <div class=""question-area""></div> 
                </div>","null","","","","","","","","","",""
"","","","","","html-button-response","112","204194","0.0-112.0","E7B350C4F0A8405E9588C00FEE738204","019cf98d-c8a8-7782-940f-bb6c88b80b70","019cf974-7aee-7bc9-8ea4-9f55741b365d","","537","
                <div class=""stimulus-container"">
                    <img src=""images/causal_sequence/package_causal/package_causal_4.png"" class=""exp-image"">
                    <div class=""question-area"">
                        <p style=""font-size: 20px; font-weight: bold; margin: 0;"">Is there a person in this image?</p>
                    </div>
                </div>","1","main_experiment_trial","4","package_causal","causal_sequence","randomized","","","","",""
"","","","","","html-keyboard-response","113","205201","0.0-113.0","E7B350C4F0A8405E9588C00FEE738204","019cf98d-c8a8-7782-940f-bb6c88b80b70","019cf974-7aee-7bc9-8ea4-9f55741b365d","","null","
                <div class=""stimulus-container"">
                    <img src=""images/causal_sequence/package_causal/package_causal_6.png"" class=""exp-image"">
                    <div class=""question-area""></div> 
                </div>","null","","","","","","","","","",""
"","","","","","html-button-response","114","205610","0.0-114.0","E7B350C4F0A8405E9588C00FEE738204","019cf98d-c8a8-7782-940f-bb6c88b80b70","019cf974-7aee-7bc9-8ea4-9f55741b365d","","408","
                <div class=""stimulus-container"">
                    <img src=""images/causal_sequence/package_causal/package_causal_6.png"" class=""exp-image"">
                    <div class=""question-area"">
                        <p style=""font-size: 20px; font-weight: bold; margin: 0;"">Is there a person in this image?</p>
                    </div>
                </div>","0","main_experiment_trial","6","package_causal","causal_sequence","randomized","","","","",""
"","","","","","html-keyboard-response","115","206614","0.0-115.0","E7B350C4F0A8405E9588C00FEE738204","019cf98d-c8a8-7782-940f-bb6c88b80b70","019cf974-7aee-7bc9-8ea4-9f55741b365d","","null","
                <div class=""stimulus-container"">
                    <img src=""images/causal_sequence/package_causal/package_causal_5.png"" class=""exp-image"">
                    <div class=""question-area""></div> 
                </div>","null","","","","","","","","","",""
"","","","","","html-button-response","116","207171","0.0-116.0","E7B350C4F0A8405E9588C00FEE738204","019cf98d-c8a8-7782-940f-bb6c88b80b70","019cf974-7aee-7bc9-8ea4-9f55741b365d","","555","
                <div class=""stimulus-container"">
                    <img src=""images/causal_sequence/package_causal/package_causal_5.png"" class=""exp-image"">
                    <div class=""question-area"">
                        <p style=""font-size: 20px; font-weight: bold; margin: 0;"">Is there a person in this image?</p>
                    </div>
                </div>","0","main_experiment_trial","5","package_causal","causal_sequence","randomized","","","","",""
"","","","","","html-keyboard-response","117","208181","0.0-117.0","E7B350C4F0A8405E9588C00FEE738204","019cf98d-c8a8-7782-940f-bb6c88b80b70","019cf974-7aee-7bc9-8ea4-9f55741b365d","","null","
                <div class=""stimulus-container"">
                    <img src=""images/causal_sequence/package_causal/package_causal_3.png"" class=""exp-image"">
                    <div class=""question-area""></div> 
                </div>","null","","","","","","","","","",""
"","","","","","html-button-response","118","209000","0.0-118.0","E7B350C4F0A8405E9588C00FEE738204","019cf98d-c8a8-7782-940f-bb6c88b80b70","019cf974-7aee-7bc9-8ea4-9f55741b365d","","818","
                <div class=""stimulus-container"">
                    <img src=""images/causal_sequence/package_causal/package_causal_3.png"" class=""exp-image"">
                    <div class=""question-area"">
                        <p style=""font-size: 20px; font-weight: bold; margin: 0;"">Is there a person in this image?</p>
                    </div>
                </div>","0","main_experiment_trial","3","package_causal","causal_sequence","randomized","","","","",""
"","","","","","html-keyboard-response","119","210015","0.0-119.0","E7B350C4F0A8405E9588C00FEE738204","019cf98d-c8a8-7782-940f-bb6c88b80b70","019cf974-7aee-7bc9-8ea4-9f55741b365d","","null","
                <div class=""stimulus-container"">
                    <img src=""images/causal_sequence/package_causal/package_causal_9.png"" class=""exp-image"">
                    <div class=""question-area""></div> 
                </div>","null","","","","","","","","","",""
"","","","","","html-button-response","120","210724","0.0-120.0","E7B350C4F0A8405E9588C00FEE738204","019cf98d-c8a8-7782-940f-bb6c88b80b70","019cf974-7aee-7bc9-8ea4-9f55741b365d","","708","
                <div class=""stimulus-container"">
                    <img src=""images/causal_sequence/package_causal/package_causal_9.png"" class=""exp-image"">
                    <div class=""question-area"">
                        <p style=""font-size: 20px; font-weight: bold; margin: 0;"">Is there a person in this image?</p>
                    </div>
                </div>","0","main_experiment_trial","9","package_causal","causal_sequence","randomized","","","","",""
"","","","","","html-keyboard-response","121","215739","0.0-121.0","E7B350C4F0A8405E9588C00FEE738204","019cf98d-c8a8-7782-940f-bb6c88b80b70","019cf974-7aee-7bc9-8ea4-9f55741b365d","","null","<div style=""background-color: white; width: 100vw; height: 100vh;""></div>","null","","","","","","","","","",""
"","","","","","html-keyboard-response","122","216741","0.0-122.0","E7B350C4F0A8405E9588C00FEE738204","019cf98d-c8a8-7782-940f-bb6c88b80b70","019cf974-7aee-7bc9-8ea4-9f55741b365d","","null","
                <div class=""stimulus-container"">
                    <img src=""images/causal_sequence/the_performance_causal/the_performance_causal_7.png"" class=""exp-image"">
                    <div class=""question-area""></div> 
                </div>","null","","","","","","","","","",""
"","","","","","html-button-response","123","217837","0.0-123.0","E7B350C4F0A8405E9588C00FEE738204","019cf98d-c8a8-7782-940f-bb6c88b80b70","019cf974-7aee-7bc9-8ea4-9f55741b365d","","1094","
                <div class=""stimulus-container"">
                    <img src=""images/causal_sequence/the_performance_causal/the_performance_causal_7.png"" class=""exp-image"">
                    <div class=""question-area"">
                        <p style=""font-size: 20px; font-weight: bold; margin: 0;"">Is there a person in this image?</p>
                    </div>
                </div>","0","main_experiment_trial","7","the_performance_causal","causal_sequence","randomized","","","","",""
"","","","","","html-keyboard-response","124","218851","0.0-124.0","E7B350C4F0A8405E9588C00FEE738204","019cf98d-c8a8-7782-940f-bb6c88b80b70","019cf974-7aee-7bc9-8ea4-9f55741b365d","","null","
                <div class=""stimulus-container"">
                    <img src=""images/causal_sequence/the_performance_causal/the_performance_causal_3.png"" class=""exp-image"">
                    <div class=""question-area""></div> 
                </div>","null","","","","","","","","","",""
"","","","","","html-button-response","125","219498","0.0-125.0","E7B350C4F0A8405E9588C00FEE738204","019cf98d-c8a8-7782-940f-bb6c88b80b70","019cf974-7aee-7bc9-8ea4-9f55741b365d","","645","
                <div class=""stimulus-container"">
                    <img src=""images/causal_sequence/the_performance_causal/the_performance_causal_3.png"" class=""exp-image"">
                    <div class=""question-area"">
                        <p style=""font-size: 20px; font-weight: bold; margin: 0;"">Is there a person in this image?</p>
                    </div>
                </div>","0","main_experiment_trial","3","the_performance_causal","causal_sequence","randomized","","","","",""
"","","","","","html-keyboard-response","126","220500","0.0-126.0","E7B350C4F0A8405E9588C00FEE738204","019cf98d-c8a8-7782-940f-bb6c88b80b70","019cf974-7aee-7bc9-8ea4-9f55741b365d","","null","
                <div class=""stimulus-container"">
                    <img src=""images/causal_sequence/the_performance_causal/the_performance_causal_8.png"" class=""exp-image"">
                    <div class=""question-area""></div> 
                </div>","null","","","","","","","","","",""
"","","","","","html-button-response","127","221401","0.0-127.0","E7B350C4F0A8405E9588C00FEE738204","019cf98d-c8a8-7782-940f-bb6c88b80b70","019cf974-7aee-7bc9-8ea4-9f55741b365d","","899","
                <div class=""stimulus-container"">
                    <img src=""images/causal_sequence/the_performance_causal/the_performance_causal_8.png"" class=""exp-image"">
                    <div class=""question-area"">
                        <p style=""font-size: 20px; font-weight: bold; margin: 0;"">Is there a person in this image?</p>
                    </div>
                </div>","0","main_experiment_trial","8","the_performance_causal","causal_sequence","randomized","","","","",""
"","","","","","html-keyboard-response","128","222414","0.0-128.0","E7B350C4F0A8405E9588C00FEE738204","019cf98d-c8a8-7782-940f-bb6c88b80b70","019cf974-7aee-7bc9-8ea4-9f55741b365d","","null","
                <div class=""stimulus-container"">
                    <img src=""images/causal_sequence/the_performance_causal/the_performance_causal_9.png"" class=""exp-image"">
                    <div class=""question-area""></div> 
                </div>","null","","","","","","","","","",""
"","","","","","html-button-response","129","223231","0.0-129.0","E7B350C4F0A8405E9588C00FEE738204","019cf98d-c8a8-7782-940f-bb6c88b80b70","019cf974-7aee-7bc9-8ea4-9f55741b365d","","814","
                <div class=""stimulus-container"">
                    <img src=""images/causal_sequence/the_performance_causal/the_performance_causal_9.png"" class=""exp-image"">
                    <div class=""question-area"">
                        <p style=""font-size: 20px; font-weight: bold; margin: 0;"">Is there a person in this image?</p>
                    </div>
                </div>","0","main_experiment_trial","9","the_performance_causal","causal_sequence","randomized","","","","",""
"","","","","","html-keyboard-response","130","224233","0.0-130.0","E7B350C4F0A8405E9588C00FEE738204","019cf98d-c8a8-7782-940f-bb6c88b80b70","019cf974-7aee-7bc9-8ea4-9f55741b365d","","null","
                <div class=""stimulus-container"">
                    <img src=""images/causal_sequence/the_performance_causal/the_performance_causal_ten.png"" class=""exp-image"">
                    <div class=""question-area""></div> 
                </div>","null","","","","","","","","","",""
"","","","","","html-button-response","131","225120","0.0-131.0","E7B350C4F0A8405E9588C00FEE738204","019cf98d-c8a8-7782-940f-bb6c88b80b70","019cf974-7aee-7bc9-8ea4-9f55741b365d","","885","
                <div class=""stimulus-container"">
                    <img src=""images/causal_sequence/the_performance_causal/the_performance_causal_ten.png"" class=""exp-image"">
                    <div class=""question-area"">
                        <p style=""font-size: 20px; font-weight: bold; margin: 0;"">Is there a person in this image?</p>
                    </div>
                </div>","0","main_experiment_trial","ten","the_performance_causal","causal_sequence","randomized","","","","",""
"","","","","","html-keyboard-response","132","226124","0.0-132.0","E7B350C4F0A8405E9588C00FEE738204","019cf98d-c8a8-7782-940f-bb6c88b80b70","019cf974-7aee-7bc9-8ea4-9f55741b365d","","null","
                <div class=""stimulus-container"">
                    <img src=""images/causal_sequence/the_performance_causal/the_performance_causal_4.png"" class=""exp-image"">
                    <div class=""question-area""></div> 
                </div>","null","","","","","","","","","",""
"","","","","","html-button-response","133","227189","0.0-133.0","E7B350C4F0A8405E9588C00FEE738204","019cf98d-c8a8-7782-940f-bb6c88b80b70","019cf974-7aee-7bc9-8ea4-9f55741b365d","","1062","
                <div class=""stimulus-container"">
                    <img src=""images/causal_sequence/the_performance_causal/the_performance_causal_4.png"" class=""exp-image"">
                    <div class=""question-area"">
                        <p style=""font-size: 20px; font-weight: bold; margin: 0;"">Is there a person in this image?</p>
                    </div>
                </div>","0","main_experiment_trial","4","the_performance_causal","causal_sequence","randomized","","","","",""
"","","","","","html-keyboard-response","134","228201","0.0-134.0","E7B350C4F0A8405E9588C00FEE738204","019cf98d-c8a8-7782-940f-bb6c88b80b70","019cf974-7aee-7bc9-8ea4-9f55741b365d","","null","
                <div class=""stimulus-container"">
                    <img src=""images/causal_sequence/the_performance_causal/the_performance_causal_5.png"" class=""exp-image"">
                    <div class=""question-area""></div> 
                </div>","null","","","","","","","","","",""
"","","","","","html-button-response","135","229024","0.0-135.0","E7B350C4F0A8405E9588C00FEE738204","019cf98d-c8a8-7782-940f-bb6c88b80b70","019cf974-7aee-7bc9-8ea4-9f55741b365d","","821","
                <div class=""stimulus-container"">
                    <img src=""images/causal_sequence/the_performance_causal/the_performance_causal_5.png"" class=""exp-image"">
                    <div class=""question-area"">
                        <p style=""font-size: 20px; font-weight: bold; margin: 0;"">Is there a person in this image?</p>
                    </div>
                </div>","0","main_experiment_trial","5","the_performance_causal","causal_sequence","randomized","","","","",""
"","","","","","html-keyboard-response","136","230040","0.0-136.0","E7B350C4F0A8405E9588C00FEE738204","019cf98d-c8a8-7782-940f-bb6c88b80b70","019cf974-7aee-7bc9-8ea4-9f55741b365d","","null","
                <div class=""stimulus-container"">
                    <img src=""images/causal_sequence/the_performance_causal/the_performance_causal_6.png"" class=""exp-image"">
                    <div class=""question-area""></div> 
                </div>","null","","","","","","","","","",""
"","","","","","html-button-response","137","231069","0.0-137.0","E7B350C4F0A8405E9588C00FEE738204","019cf98d-c8a8-7782-940f-bb6c88b80b70","019cf974-7aee-7bc9-8ea4-9f55741b365d","","1027","
                <div class=""stimulus-container"">
                    <img src=""images/causal_sequence/the_performance_causal/the_performance_causal_6.png"" class=""exp-image"">
                    <div class=""question-area"">
                        <p style=""font-size: 20px; font-weight: bold; margin: 0;"">Is there a person in this image?</p>
                    </div>
                </div>","0","main_experiment_trial","6","the_performance_causal","causal_sequence","randomized","","","","",""
"","","","","","html-keyboard-response","138","232077","0.0-138.0","E7B350C4F0A8405E9588C00FEE738204","019cf98d-c8a8-7782-940f-bb6c88b80b70","019cf974-7aee-7bc9-8ea4-9f55741b365d","","null","
                <div class=""stimulus-container"">
                    <img src=""images/causal_sequence/the_performance_causal/the_performance_causal_2.png"" class=""exp-image"">
                    <div class=""question-area""></div> 
                </div>","null","","","","","","","","","",""
"","","","","","html-button-response","139","233186","0.0-139.0","E7B350C4F0A8405E9588C00FEE738204","019cf98d-c8a8-7782-940f-bb6c88b80b70","019cf974-7aee-7bc9-8ea4-9f55741b365d","","1107","
                <div class=""stimulus-container"">
                    <img src=""images/causal_sequence/the_performance_causal/the_performance_causal_2.png"" class=""exp-image"">
                    <div class=""question-area"">
                        <p style=""font-size: 20px; font-weight: bold; margin: 0;"">Is there a person in this image?</p>
                    </div>
                </div>","0","main_experiment_trial","2","the_performance_causal","causal_sequence","randomized","","","","",""
"","","","","","html-keyboard-response","140","234199","0.0-140.0","E7B350C4F0A8405E9588C00FEE738204","019cf98d-c8a8-7782-940f-bb6c88b80b70","019cf974-7aee-7bc9-8ea4-9f55741b365d","","null","
                <div class=""stimulus-container"">
                    <img src=""images/causal_sequence/the_performance_causal/the_performance_causal_1.png"" class=""exp-image"">
                    <div class=""question-area""></div> 
                </div>","null","","","","","","","","","",""
"","","","","","html-button-response","141","235142","0.0-141.0","E7B350C4F0A8405E9588C00FEE738204","019cf98d-c8a8-7782-940f-bb6c88b80b70","019cf974-7aee-7bc9-8ea4-9f55741b365d","","941","
                <div class=""stimulus-container"">
                    <img src=""images/causal_sequence/the_performance_causal/the_performance_causal_1.png"" class=""exp-image"">
                    <div class=""question-area"">
                        <p style=""font-size: 20px; font-weight: bold; margin: 0;"">Is there a person in this image?</p>
                    </div>
                </div>","0","main_experiment_trial","1","the_performance_causal","causal_sequence","randomized","","","","",""
"","","","","","html-keyboard-response","142","240156","0.0-142.0","E7B350C4F0A8405E9588C00FEE738204","019cf98d-c8a8-7782-940f-bb6c88b80b70","019cf974-7aee-7bc9-8ea4-9f55741b365d","","null","<div style=""background-color: white; width: 100vw; height: 100vh;""></div>","null","","","","","","","","","",""
"","","","","","html-keyboard-response","143","241159","0.0-143.0","E7B350C4F0A8405E9588C00FEE738204","019cf98d-c8a8-7782-940f-bb6c88b80b70","019cf974-7aee-7bc9-8ea4-9f55741b365d","","null","
                <div class=""stimulus-container"">
                    <img src=""images/causal_sequence/museum_causal/museum_causal_9.png"" class=""exp-image"">
                    <div class=""question-area""></div> 
                </div>","null","","","","","","","","","",""
"","","","","","html-button-response","144","242340","0.0-144.0","E7B350C4F0A8405E9588C00FEE738204","019cf98d-c8a8-7782-940f-bb6c88b80b70","019cf974-7aee-7bc9-8ea4-9f55741b365d","","1180","
                <div class=""stimulus-container"">
                    <img src=""images/causal_sequence/museum_causal/museum_causal_9.png"" class=""exp-image"">
                    <div class=""question-area"">
                        <p style=""font-size: 20px; font-weight: bold; margin: 0;"">Is there a person in this image?</p>
                    </div>
                </div>","1","main_experiment_trial","9","museum_causal","causal_sequence","randomized","","","","",""
"","","","","","html-keyboard-response","145","243342","0.0-145.0","E7B350C4F0A8405E9588C00FEE738204","019cf98d-c8a8-7782-940f-bb6c88b80b70","019cf974-7aee-7bc9-8ea4-9f55741b365d","","null","
                <div class=""stimulus-container"">
                    <img src=""images/causal_sequence/museum_causal/museum_causal_4.png"" class=""exp-image"">
                    <div class=""question-area""></div> 
                </div>","null","","","","","","","","","",""
"","","","","","html-button-response","146","244380","0.0-146.0","E7B350C4F0A8405E9588C00FEE738204","019cf98d-c8a8-7782-940f-bb6c88b80b70","019cf974-7aee-7bc9-8ea4-9f55741b365d","","1037","
                <div class=""stimulus-container"">
                    <img src=""images/causal_sequence/museum_causal/museum_causal_4.png"" class=""exp-image"">
                    <div class=""question-area"">
                        <p style=""font-size: 20px; font-weight: bold; margin: 0;"">Is there a person in this image?</p>
                    </div>
                </div>","1","main_experiment_trial","4","museum_causal","causal_sequence","randomized","","","","",""
"","","","","","html-keyboard-response","147","245388","0.0-147.0","E7B350C4F0A8405E9588C00FEE738204","019cf98d-c8a8-7782-940f-bb6c88b80b70","019cf974-7aee-7bc9-8ea4-9f55741b365d","","null","
                <div class=""stimulus-container"">
                    <img src=""images/causal_sequence/museum_causal/museum_causal_7.png"" class=""exp-image"">
                    <div class=""question-area""></div> 
                </div>","null","","","","","","","","","",""
"","","","","","html-button-response","148","246407","0.0-148.0","E7B350C4F0A8405E9588C00FEE738204","019cf98d-c8a8-7782-940f-bb6c88b80b70","019cf974-7aee-7bc9-8ea4-9f55741b365d","","1017","
                <div class=""stimulus-container"">
                    <img src=""images/causal_sequence/museum_causal/museum_causal_7.png"" class=""exp-image"">
                    <div class=""question-area"">
                        <p style=""font-size: 20px; font-weight: bold; margin: 0;"">Is there a person in this image?</p>
                    </div>
                </div>","1","main_experiment_trial","7","museum_causal","causal_sequence","randomized","","","","",""
"","","","","","html-keyboard-response","149","247423","0.0-149.0","E7B350C4F0A8405E9588C00FEE738204","019cf98d-c8a8-7782-940f-bb6c88b80b70","019cf974-7aee-7bc9-8ea4-9f55741b365d","","null","
                <div class=""stimulus-container"">
                    <img src=""images/causal_sequence/museum_causal/museum_causal_6.png"" class=""exp-image"">
                    <div class=""question-area""></div> 
                </div>","null","","","","","","","","","",""
"","","","","","html-button-response","150","248311","0.0-150.0","E7B350C4F0A8405E9588C00FEE738204","019cf98d-c8a8-7782-940f-bb6c88b80b70","019cf974-7aee-7bc9-8ea4-9f55741b365d","","886","
                <div class=""stimulus-container"">
                    <img src=""images/causal_sequence/museum_causal/museum_causal_6.png"" class=""exp-image"">
                    <div class=""question-area"">
                        <p style=""font-size: 20px; font-weight: bold; margin: 0;"">Is there a person in this image?</p>
                    </div>
                </div>","0","main_experiment_trial","6","museum_causal","causal_sequence","randomized","","","","",""
"","","","","","html-keyboard-response","151","249326","0.0-151.0","E7B350C4F0A8405E9588C00FEE738204","019cf98d-c8a8-7782-940f-bb6c88b80b70","019cf974-7aee-7bc9-8ea4-9f55741b365d","","null","
                <div class=""stimulus-container"">
                    <img src=""images/causal_sequence/museum_causal/museum_causal_3.png"" class=""exp-image"">
                    <div class=""question-area""></div> 
                </div>","null","","","","","","","","","",""
"","","","","","html-button-response","152","250377","0.0-152.0","E7B350C4F0A8405E9588C00FEE738204","019cf98d-c8a8-7782-940f-bb6c88b80b70","019cf974-7aee-7bc9-8ea4-9f55741b365d","","1049","
                <div class=""stimulus-container"">
                    <img src=""images/causal_sequence/museum_causal/museum_causal_3.png"" class=""exp-image"">
                    <div class=""question-area"">
                        <p style=""font-size: 20px; font-weight: bold; margin: 0;"">Is there a person in this image?</p>
                    </div>
                </div>","0","main_experiment_trial","3","museum_causal","causal_sequence","randomized","","","","",""
"","","","","","html-keyboard-response","153","251386","0.0-153.0","E7B350C4F0A8405E9588C00FEE738204","019cf98d-c8a8-7782-940f-bb6c88b80b70","019cf974-7aee-7bc9-8ea4-9f55741b365d","","null","
                <div class=""stimulus-container"">
                    <img src=""images/causal_sequence/museum_causal/museum_causal_ten.png"" class=""exp-image"">
                    <div class=""question-area""></div> 
                </div>","null","","","","","","","","","",""
"","","","","","html-button-response","154","252031","0.0-154.0","E7B350C4F0A8405E9588C00FEE738204","019cf98d-c8a8-7782-940f-bb6c88b80b70","019cf974-7aee-7bc9-8ea4-9f55741b365d","","643","
                <div class=""stimulus-container"">
                    <img src=""images/causal_sequence/museum_causal/museum_causal_ten.png"" class=""exp-image"">
                    <div class=""question-area"">
                        <p style=""font-size: 20px; font-weight: bold; margin: 0;"">Is there a person in this image?</p>
                    </div>
                </div>","0","main_experiment_trial","ten","museum_causal","causal_sequence","randomized","","","","",""
"","","","","","html-keyboard-response","155","253039","0.0-155.0","E7B350C4F0A8405E9588C00FEE738204","019cf98d-c8a8-7782-940f-bb6c88b80b70","019cf974-7aee-7bc9-8ea4-9f55741b365d","","null","
                <div class=""stimulus-container"">
                    <img src=""images/causal_sequence/museum_causal/museum_causal_1.png"" class=""exp-image"">
                    <div class=""question-area""></div> 
                </div>","null","","","","","","","","","",""
"","","","","","html-button-response","156","253545","0.0-156.0","E7B350C4F0A8405E9588C00FEE738204","019cf98d-c8a8-7782-940f-bb6c88b80b70","019cf974-7aee-7bc9-8ea4-9f55741b365d","","503","
                <div class=""stimulus-container"">
                    <img src=""images/causal_sequence/museum_causal/museum_causal_1.png"" class=""exp-image"">
                    <div class=""question-area"">
                        <p style=""font-size: 20px; font-weight: bold; margin: 0;"">Is there a person in this image?</p>
                    </div>
                </div>","0","main_experiment_trial","1","museum_causal","causal_sequence","randomized","","","","",""
"","","","","","html-keyboard-response","157","254555","0.0-157.0","E7B350C4F0A8405E9588C00FEE738204","019cf98d-c8a8-7782-940f-bb6c88b80b70","019cf974-7aee-7bc9-8ea4-9f55741b365d","","null","
                <div class=""stimulus-container"">
                    <img src=""images/causal_sequence/museum_causal/museum_causal_2.png"" class=""exp-image"">
                    <div class=""question-area""></div> 
                </div>","null","","","","","","","","","",""
"","","","","","html-button-response","158","256461","0.0-158.0","E7B350C4F0A8405E9588C00FEE738204","019cf98d-c8a8-7782-940f-bb6c88b80b70","019cf974-7aee-7bc9-8ea4-9f55741b365d","","1905","
                <div class=""stimulus-container"">
                    <img src=""images/causal_sequence/museum_causal/museum_causal_2.png"" class=""exp-image"">
                    <div class=""question-area"">
                        <p style=""font-size: 20px; font-weight: bold; margin: 0;"">Is there a person in this image?</p>
                    </div>
                </div>","1","main_experiment_trial","2","museum_causal","causal_sequence","randomized","","","","",""
"","","","","","html-keyboard-response","159","257463","0.0-159.0","E7B350C4F0A8405E9588C00FEE738204","019cf98d-c8a8-7782-940f-bb6c88b80b70","019cf974-7aee-7bc9-8ea4-9f55741b365d","","null","
                <div class=""stimulus-container"">
                    <img src=""images/causal_sequence/museum_causal/museum_causal_8.png"" class=""exp-image"">
                    <div class=""question-area""></div> 
                </div>","null","","","","","","","","","",""
"","","","","","html-button-response","160","258533","0.0-160.0","E7B350C4F0A8405E9588C00FEE738204","019cf98d-c8a8-7782-940f-bb6c88b80b70","019cf974-7aee-7bc9-8ea4-9f55741b365d","","1069","
                <div class=""stimulus-container"">
                    <img src=""images/causal_sequence/museum_causal/museum_causal_8.png"" class=""exp-image"">
                    <div class=""question-area"">
                        <p style=""font-size: 20px; font-weight: bold; margin: 0;"">Is there a person in this image?</p>
                    </div>
                </div>","0","main_experiment_trial","8","museum_causal","causal_sequence","randomized","","","","",""
"","","","","","html-keyboard-response","161","259542","0.0-161.0","E7B350C4F0A8405E9588C00FEE738204","019cf98d-c8a8-7782-940f-bb6c88b80b70","019cf974-7aee-7bc9-8ea4-9f55741b365d","","null","
                <div class=""stimulus-container"">
                    <img src=""images/causal_sequence/museum_causal/museum_causal_5.png"" class=""exp-image"">
                    <div class=""question-area""></div> 
                </div>","null","","","","","","","","","",""
"","","","","","html-button-response","162","260908","0.0-162.0","E7B350C4F0A8405E9588C00FEE738204","019cf98d-c8a8-7782-940f-bb6c88b80b70","019cf974-7aee-7bc9-8ea4-9f55741b365d","","1364","
                <div class=""stimulus-container"">
                    <img src=""images/causal_sequence/museum_causal/museum_causal_5.png"" class=""exp-image"">
                    <div class=""question-area"">
                        <p style=""font-size: 20px; font-weight: bold; margin: 0;"">Is there a person in this image?</p>
                    </div>
                </div>","0","main_experiment_trial","5","museum_causal","causal_sequence","randomized","","","","",""
"","","","","","html-keyboard-response","163","265912","0.0-163.0","E7B350C4F0A8405E9588C00FEE738204","019cf98d-c8a8-7782-940f-bb6c88b80b70","019cf974-7aee-7bc9-8ea4-9f55741b365d","","null","<div style=""background-color: white; width: 100vw; height: 100vh;""></div>","null","","","","","","","","","",""
"","","","","","html-keyboard-response","164","266913","0.0-164.0","E7B350C4F0A8405E9588C00FEE738204","019cf98d-c8a8-7782-940f-bb6c88b80b70","019cf974-7aee-7bc9-8ea4-9f55741b365d","","null","
                <div class=""stimulus-container"">
                    <img src=""images/causal_sequence/dog_causal/dog_causal_7.png"" class=""exp-image"">
                    <div class=""question-area""></div> 
                </div>","null","","","","","","","","","",""
"","","","","","html-button-response","165","267923","0.0-165.0","E7B350C4F0A8405E9588C00FEE738204","019cf98d-c8a8-7782-940f-bb6c88b80b70","019cf974-7aee-7bc9-8ea4-9f55741b365d","","1008","
                <div class=""stimulus-container"">
                    <img src=""images/causal_sequence/dog_causal/dog_causal_7.png"" class=""exp-image"">
                    <div class=""question-area"">
                        <p style=""font-size: 20px; font-weight: bold; margin: 0;"">Is there a person in this image?</p>
                    </div>
                </div>","0","main_experiment_trial","7","dog_causal","causal_sequence","randomized","","","","",""
"","","","","","html-keyboard-response","166","268929","0.0-166.0","E7B350C4F0A8405E9588C00FEE738204","019cf98d-c8a8-7782-940f-bb6c88b80b70","019cf974-7aee-7bc9-8ea4-9f55741b365d","","null","
                <div class=""stimulus-container"">
                    <img src=""images/causal_sequence/dog_causal/dog_causal_5.png"" class=""exp-image"">
                    <div class=""question-area""></div> 
                </div>","null","","","","","","","","","",""
"","","","","","html-button-response","167","269723","0.0-167.0","E7B350C4F0A8405E9588C00FEE738204","019cf98d-c8a8-7782-940f-bb6c88b80b70","019cf974-7aee-7bc9-8ea4-9f55741b365d","","793","
                <div class=""stimulus-container"">
                    <img src=""images/causal_sequence/dog_causal/dog_causal_5.png"" class=""exp-image"">
                    <div class=""question-area"">
                        <p style=""font-size: 20px; font-weight: bold; margin: 0;"">Is there a person in this image?</p>
                    </div>
                </div>","0","main_experiment_trial","5","dog_causal","causal_sequence","randomized","","","","",""
"","","","","","html-keyboard-response","168","270737","0.0-168.0","E7B350C4F0A8405E9588C00FEE738204","019cf98d-c8a8-7782-940f-bb6c88b80b70","019cf974-7aee-7bc9-8ea4-9f55741b365d","","null","
                <div class=""stimulus-container"">
                    <img src=""images/causal_sequence/dog_causal/dog_causal_2.png"" class=""exp-image"">
                    <div class=""question-area""></div> 
                </div>","null","","","","","","","","","",""
"","","","","","html-button-response","169","271470","0.0-169.0","E7B350C4F0A8405E9588C00FEE738204","019cf98d-c8a8-7782-940f-bb6c88b80b70","019cf974-7aee-7bc9-8ea4-9f55741b365d","","733","
                <div class=""stimulus-container"">
                    <img src=""images/causal_sequence/dog_causal/dog_causal_2.png"" class=""exp-image"">
                    <div class=""question-area"">
                        <p style=""font-size: 20px; font-weight: bold; margin: 0;"">Is there a person in this image?</p>
                    </div>
                </div>","0","main_experiment_trial","2","dog_causal","causal_sequence","randomized","","","","",""
"","","","","","html-keyboard-response","170","272475","0.0-170.0","E7B350C4F0A8405E9588C00FEE738204","019cf98d-c8a8-7782-940f-bb6c88b80b70","019cf974-7aee-7bc9-8ea4-9f55741b365d","","null","
                <div class=""stimulus-container"">
                    <img src=""images/causal_sequence/dog_causal/dog_causal_9.png"" class=""exp-image"">
                    <div class=""question-area""></div> 
                </div>","null","","","","","","","","","",""
"","","","","","html-button-response","171","273415","0.0-171.0","E7B350C4F0A8405E9588C00FEE738204","019cf98d-c8a8-7782-940f-bb6c88b80b70","019cf974-7aee-7bc9-8ea4-9f55741b365d","","938","
                <div class=""stimulus-container"">
                    <img src=""images/causal_sequence/dog_causal/dog_causal_9.png"" class=""exp-image"">
                    <div class=""question-area"">
                        <p style=""font-size: 20px; font-weight: bold; margin: 0;"">Is there a person in this image?</p>
                    </div>
                </div>","0","main_experiment_trial","9","dog_causal","causal_sequence","randomized","","","","",""
"","","","","","html-keyboard-response","172","274428","0.0-172.0","E7B350C4F0A8405E9588C00FEE738204","019cf98d-c8a8-7782-940f-bb6c88b80b70","019cf974-7aee-7bc9-8ea4-9f55741b365d","","null","
                <div class=""stimulus-container"">
                    <img src=""images/causal_sequence/dog_causal/dog_causal_4.png"" class=""exp-image"">
                    <div class=""question-area""></div> 
                </div>","null","","","","","","","","","",""
"","","","","","html-button-response","173","275683","0.0-173.0","E7B350C4F0A8405E9588C00FEE738204","019cf98d-c8a8-7782-940f-bb6c88b80b70","019cf974-7aee-7bc9-8ea4-9f55741b365d","","1253","
                <div class=""stimulus-container"">
                    <img src=""images/causal_sequence/dog_causal/dog_causal_4.png"" class=""exp-image"">
                    <div class=""question-area"">
                        <p style=""font-size: 20px; font-weight: bold; margin: 0;"">Is there a person in this image?</p>
                    </div>
                </div>","0","main_experiment_trial","4","dog_causal","causal_sequence","randomized","","","","",""
"","","","","","html-keyboard-response","174","276686","0.0-174.0","E7B350C4F0A8405E9588C00FEE738204","019cf98d-c8a8-7782-940f-bb6c88b80b70","019cf974-7aee-7bc9-8ea4-9f55741b365d","","null","
                <div class=""stimulus-container"">
                    <img src=""images/causal_sequence/dog_causal/dog_causal_3.png"" class=""exp-image"">
                    <div class=""question-area""></div> 
                </div>","null","","","","","","","","","",""
"","","","","","html-button-response","175","277366","0.0-175.0","E7B350C4F0A8405E9588C00FEE738204","019cf98d-c8a8-7782-940f-bb6c88b80b70","019cf974-7aee-7bc9-8ea4-9f55741b365d","","678","
                <div class=""stimulus-container"">
                    <img src=""images/causal_sequence/dog_causal/dog_causal_3.png"" class=""exp-image"">
                    <div class=""question-area"">
                        <p style=""font-size: 20px; font-weight: bold; margin: 0;"">Is there a person in this image?</p>
                    </div>
                </div>","0","main_experiment_trial","3","dog_causal","causal_sequence","randomized","","","","",""
"","","","","","html-keyboard-response","176","278374","0.0-176.0","E7B350C4F0A8405E9588C00FEE738204","019cf98d-c8a8-7782-940f-bb6c88b80b70","019cf974-7aee-7bc9-8ea4-9f55741b365d","","null","
                <div class=""stimulus-container"">
                    <img src=""images/causal_sequence/dog_causal/dog_causal_8.png"" class=""exp-image"">
                    <div class=""question-area""></div> 
                </div>","null","","","","","","","","","",""
"","","","","","html-button-response","177","279121","0.0-177.0","E7B350C4F0A8405E9588C00FEE738204","019cf98d-c8a8-7782-940f-bb6c88b80b70","019cf974-7aee-7bc9-8ea4-9f55741b365d","","745","
                <div class=""stimulus-container"">
                    <img src=""images/causal_sequence/dog_causal/dog_causal_8.png"" class=""exp-image"">
                    <div class=""question-area"">
                        <p style=""font-size: 20px; font-weight: bold; margin: 0;"">Is there a person in this image?</p>
                    </div>
                </div>","0","main_experiment_trial","8","dog_causal","causal_sequence","randomized","","","","",""
"","","","","","html-keyboard-response","178","280124","0.0-178.0","E7B350C4F0A8405E9588C00FEE738204","019cf98d-c8a8-7782-940f-bb6c88b80b70","019cf974-7aee-7bc9-8ea4-9f55741b365d","","null","
                <div class=""stimulus-container"">
                    <img src=""images/causal_sequence/dog_causal/dog_causal_1.png"" class=""exp-image"">
