"success","timeout","failed_images","failed_audio","failed_video","trial_type","trial_index","time_elapsed","internal_node_id","view_history","rt","stimulus","response","task","folder","sequence_type","img_idx","comparison_type","img_index","block_story","block_info","left_img_path","right_img_path"
"true","false","[]","[]","[]","preload","0","862","0.0-0.0","","","","","","","","","","","","","",""
"","","","","","instructions","1","2402","0.0-1.0","[{""page_index"":0,""viewing_time"":1539}]","1539","","","","","","","","","","","",""
"","","","","","instructions","2","4760","0.0-2.0","[{""page_index"":0,""viewing_time"":2358}]","2358","","","","","","","","","","","",""
"true","","","","","fullscreen","3","7203","0.0-3.0","","1439","","","","","","","","","","","",""
"","","","","","instructions","4","8912","0.0-4.0","[{""page_index"":0,""viewing_time"":1707}]","1708","","","","","","","","","","","",""
"","","","","","html-keyboard-response","5","10914","0.0-5.0","","null","<div class=""transition-square""></div>","null","","","","","","","","","",""
"","","","","","html-keyboard-response","6","15921","0.0-6.0","","null","<div class=""stimulus-container""><img src=""images_story_vs_info/info_3_1.png"" class=""exp-image""><div class=""question-area""></div></div>","null","","","","","","","","","",""
"","","","","","html-button-response","7","17217","0.0-7.0","","1293","<div class=""stimulus-container""><img src=""images_story_vs_info/info_3_1.png"" class=""exp-image""><div class=""question-area""><p style=""font-size: 20px; font-weight: bold; margin: 0;"">Is there a person in this image?</p></div></div>","1","observation","info_3","info","1","","","","","",""
"","","","","","html-keyboard-response","8","22219","0.0-8.0","","null","<div class=""stimulus-container""><img src=""images_story_vs_info/info_3_2.png"" class=""exp-image""><div class=""question-area""></div></div>","null","","","","","","","","","",""
"","","","","","html-button-response","9","22888","0.0-9.0","","668","<div class=""stimulus-container""><img src=""images_story_vs_info/info_3_2.png"" class=""exp-image""><div class=""question-area""><p style=""font-size: 20px; font-weight: bold; margin: 0;"">Is there a person in this image?</p></div></div>","1","observation","info_3","info","2","","","","","",""
"","","","","","html-keyboard-response","10","27893","0.0-10.0","","null","<div class=""stimulus-container""><img src=""images_story_vs_info/info_3_3.png"" class=""exp-image""><div class=""question-area""></div></div>","null","","","","","","","","","",""
"","","","","","html-button-response","11","29056","0.0-11.0","","1162","<div class=""stimulus-container""><img src=""images_story_vs_info/info_3_3.png"" class=""exp-image""><div class=""question-area""><p style=""font-size: 20px; font-weight: bold; margin: 0;"">Is there a person in this image?</p></div></div>","1","observation","info_3","info","3","","","","","",""
"","","","","","html-keyboard-response","12","34067","0.0-12.0","","null","<div class=""stimulus-container""><img src=""images_story_vs_info/info_3_4.png"" class=""exp-image""><div class=""question-area""></div></div>","null","","","","","","","","","",""
"","","","","","html-button-response","13","34488","0.0-13.0","","418","<div class=""stimulus-container""><img src=""images_story_vs_info/info_3_4.png"" class=""exp-image""><div class=""question-area""><p style=""font-size: 20px; font-weight: bold; margin: 0;"">Is there a person in this image?</p></div></div>","0","observation","info_3","info","4","","","","","",""
"","","","","","html-keyboard-response","14","39503","0.0-14.0","","null","<div class=""stimulus-container""><img src=""images_story_vs_info/info_3_5.png"" class=""exp-image""><div class=""question-area""></div></div>","null","","","","","","","","","",""
"","","","","","html-button-response","15","40120","0.0-15.0","","614","<div class=""stimulus-container""><img src=""images_story_vs_info/info_3_5.png"" class=""exp-image""><div class=""question-area""><p style=""font-size: 20px; font-weight: bold; margin: 0;"">Is there a person in this image?</p></div></div>","1","observation","info_3","info","5","","","","","",""
"","","","","","html-keyboard-response","16","45129","0.0-16.0","","null","<div class=""stimulus-container""><img src=""images_story_vs_info/info_3_6_b.png"" class=""exp-image""><div class=""question-area""></div></div>","null","","","","","","","","","",""
"","","","","","html-button-response","17","45704","0.0-17.0","","574","<div class=""stimulus-container""><img src=""images_story_vs_info/info_3_6_b.png"" class=""exp-image""><div class=""question-area""><p style=""font-size: 20px; font-weight: bold; margin: 0;"">Is there a person in this image?</p></div></div>","1","observation","info_3","info","6","","","","","",""
"","","","","","html-keyboard-response","18","47712","0.0-18.0","","null","<div class=""transition-square""></div>","null","","","","","","","","","",""
"","","","","","html-keyboard-response","19","52730","0.0-19.0","","null","<div class=""stimulus-container""><img src=""images_story_vs_info/story_1_1.png"" class=""exp-image""><div class=""question-area""></div></div>","null","","","","","","","","","",""
"","","","","","html-button-response","20","53377","0.0-20.0","","645","<div class=""stimulus-container""><img src=""images_story_vs_info/story_1_1.png"" class=""exp-image""><div class=""question-area""><p style=""font-size: 20px; font-weight: bold; margin: 0;"">Is there a person in this image?</p></div></div>","1","observation","story_1","story","1","","","","","",""
"","","","","","html-keyboard-response","21","58393","0.0-21.0","","null","<div class=""stimulus-container""><img src=""images_story_vs_info/story_1_2.png"" class=""exp-image""><div class=""question-area""></div></div>","null","","","","","","","","","",""
"","","","","","html-button-response","22","58816","0.0-22.0","","422","<div class=""stimulus-container""><img src=""images_story_vs_info/story_1_2.png"" class=""exp-image""><div class=""question-area""><p style=""font-size: 20px; font-weight: bold; margin: 0;"">Is there a person in this image?</p></div></div>","1","observation","story_1","story","2","","","","","",""
"","","","","","html-keyboard-response","23","63827","0.0-23.0","","null","<div class=""stimulus-container""><img src=""images_story_vs_info/story_1_3.png"" class=""exp-image""><div class=""question-area""></div></div>","null","","","","","","","","","",""
"","","","","","html-button-response","24","64920","0.0-24.0","","1091","<div class=""stimulus-container""><img src=""images_story_vs_info/story_1_3.png"" class=""exp-image""><div class=""question-area""><p style=""font-size: 20px; font-weight: bold; margin: 0;"">Is there a person in this image?</p></div></div>","1","observation","story_1","story","3","","","","","",""
"","","","","","html-keyboard-response","25","69928","0.0-25.0","","null","<div class=""stimulus-container""><img src=""images_story_vs_info/story_1_4.png"" class=""exp-image""><div class=""question-area""></div></div>","null","","","","","","","","","",""
"","","","","","html-button-response","26","70744","0.0-26.0","","814","<div class=""stimulus-container""><img src=""images_story_vs_info/story_1_4.png"" class=""exp-image""><div class=""question-area""><p style=""font-size: 20px; font-weight: bold; margin: 0;"">Is there a person in this image?</p></div></div>","1","observation","story_1","story","4","","","","","",""
"","","","","","html-keyboard-response","27","75747","0.0-27.0","","null","<div class=""stimulus-container""><img src=""images_story_vs_info/story_1_5.png"" class=""exp-image""><div class=""question-area""></div></div>","null","","","","","","","","","",""
"","","","","","html-button-response","28","76224","0.0-28.0","","475","<div class=""stimulus-container""><img src=""images_story_vs_info/story_1_5.png"" class=""exp-image""><div class=""question-area""><p style=""font-size: 20px; font-weight: bold; margin: 0;"">Is there a person in this image?</p></div></div>","1","observation","story_1","story","5","","","","","",""
"","","","","","html-keyboard-response","29","81239","0.0-29.0","","null","<div class=""stimulus-container""><img src=""images_story_vs_info/story_1_6_a.png"" class=""exp-image""><div class=""question-area""></div></div>","null","","","","","","","","","",""
"","","","","","html-button-response","30","84242","0.0-30.0","","null","<div class=""stimulus-container""><img src=""images_story_vs_info/story_1_6_a.png"" class=""exp-image""><div class=""question-area""><p style=""font-size: 20px; font-weight: bold; margin: 0;"">Is there a person in this image?</p></div></div>","null","observation","story_1","story","6","","","","","",""
"","","","","","html-keyboard-response","31","86252","0.0-31.0","","null","<div class=""transition-square""></div>","null","","","","","","","","","",""
"","","","","","html-keyboard-response","32","91265","0.0-32.0","","null","<div class=""stimulus-container""><img src=""images_story_vs_info/info_4_1.png"" class=""exp-image""><div class=""question-area""></div></div>","null","","","","","","","","","",""
"","","","","","html-button-response","33","92088","0.0-33.0","","821","<div class=""stimulus-container""><img src=""images_story_vs_info/info_4_1.png"" class=""exp-image""><div class=""question-area""><p style=""font-size: 20px; font-weight: bold; margin: 0;"">Is there a person in this image?</p></div></div>","1","observation","info_4","info","1","","","","","",""
"","","","","","html-keyboard-response","34","97096","0.0-34.0","","null","<div class=""stimulus-container""><img src=""images_story_vs_info/info_4_2.png"" class=""exp-image""><div class=""question-area""></div></div>","null","","","","","","","","","",""
"","","","","","html-button-response","35","97480","0.0-35.0","","382","<div class=""stimulus-container""><img src=""images_story_vs_info/info_4_2.png"" class=""exp-image""><div class=""question-area""><p style=""font-size: 20px; font-weight: bold; margin: 0;"">Is there a person in this image?</p></div></div>","1","observation","info_4","info","2","","","","","",""
"","","","","","html-keyboard-response","36","102482","0.0-36.0","","null","<div class=""stimulus-container""><img src=""images_story_vs_info/info_4_3.png"" class=""exp-image""><div class=""question-area""></div></div>","null","","","","","","","","","",""
"","","","","","html-button-response","37","102888","0.0-37.0","","406","<div class=""stimulus-container""><img src=""images_story_vs_info/info_4_3.png"" class=""exp-image""><div class=""question-area""><p style=""font-size: 20px; font-weight: bold; margin: 0;"">Is there a person in this image?</p></div></div>","1","observation","info_4","info","3","","","","","",""
"","","","","","html-keyboard-response","38","107899","0.0-38.0","","null","<div class=""stimulus-container""><img src=""images_story_vs_info/info_4_4.png"" class=""exp-image""><div class=""question-area""></div></div>","null","","","","","","","","","",""
"","","","","","html-button-response","39","108232","0.0-39.0","","332","<div class=""stimulus-container""><img src=""images_story_vs_info/info_4_4.png"" class=""exp-image""><div class=""question-area""><p style=""font-size: 20px; font-weight: bold; margin: 0;"">Is there a person in this image?</p></div></div>","1","observation","info_4","info","4","","","","","",""
"","","","","","html-keyboard-response","40","113247","0.0-40.0","","null","<div class=""stimulus-container""><img src=""images_story_vs_info/info_4_5.png"" class=""exp-image""><div class=""question-area""></div></div>","null","","","","","","","","","",""
"","","","","","html-button-response","41","113600","0.0-41.0","","352","<div class=""stimulus-container""><img src=""images_story_vs_info/info_4_5.png"" class=""exp-image""><div class=""question-area""><p style=""font-size: 20px; font-weight: bold; margin: 0;"">Is there a person in this image?</p></div></div>","1","observation","info_4","info","5","","","","","",""
"","","","","","html-keyboard-response","42","118603","0.0-42.0","","null","<div class=""stimulus-container""><img src=""images_story_vs_info/info_4_6_a.png"" class=""exp-image""><div class=""question-area""></div></div>","null","","","","","","","","","",""
"","","","","","html-button-response","43","119032","0.0-43.0","","427","<div class=""stimulus-container""><img src=""images_story_vs_info/info_4_6_a.png"" class=""exp-image""><div class=""question-area""><p style=""font-size: 20px; font-weight: bold; margin: 0;"">Is there a person in this image?</p></div></div>","0","observation","info_4","info","6","","","","","",""
"","","","","","html-keyboard-response","44","121043","0.0-44.0","","null","<div class=""transition-square""></div>","null","","","","","","","","","",""
"","","","","","html-keyboard-response","45","126049","0.0-45.0","","null","<div class=""stimulus-container""><img src=""images_story_vs_info/story_2_1.png"" class=""exp-image""><div class=""question-area""></div></div>","null","","","","","","","","","",""
"","","","","","html-button-response","46","126992","0.0-46.0","","941","<div class=""stimulus-container""><img src=""images_story_vs_info/story_2_1.png"" class=""exp-image""><div class=""question-area""><p style=""font-size: 20px; font-weight: bold; margin: 0;"">Is there a person in this image?</p></div></div>","1","observation","story_2","story","1","","","","","",""
"","","","","","html-keyboard-response","47","131994","0.0-47.0","","null","<div class=""stimulus-container""><img src=""images_story_vs_info/story_2_2.png"" class=""exp-image""><div class=""question-area""></div></div>","null","","","","","","","","","",""
"","","","","","html-button-response","48","132400","0.0-48.0","","405","<div class=""stimulus-container""><img src=""images_story_vs_info/story_2_2.png"" class=""exp-image""><div class=""question-area""><p style=""font-size: 20px; font-weight: bold; margin: 0;"">Is there a person in this image?</p></div></div>","1","observation","story_2","story","2","","","","","",""
"","","","","","html-keyboard-response","49","137415","0.0-49.0","","null","<div class=""stimulus-container""><img src=""images_story_vs_info/story_2_3.png"" class=""exp-image""><div class=""question-area""></div></div>","null","","","","","","","","","",""
"","","","","","html-button-response","50","137776","0.0-50.0","","360","<div class=""stimulus-container""><img src=""images_story_vs_info/story_2_3.png"" class=""exp-image""><div class=""question-area""><p style=""font-size: 20px; font-weight: bold; margin: 0;"">Is there a person in this image?</p></div></div>","1","observation","story_2","story","3","","","","","",""
"","","","","","html-keyboard-response","51","142779","0.0-51.0","","null","<div class=""stimulus-container""><img src=""images_story_vs_info/story_2_4.png"" class=""exp-image""><div class=""question-area""></div></div>","null","","","","","","","","","",""
"","","","","","html-button-response","52","143304","0.0-52.0","","524","<div class=""stimulus-container""><img src=""images_story_vs_info/story_2_4.png"" class=""exp-image""><div class=""question-area""><p style=""font-size: 20px; font-weight: bold; margin: 0;"">Is there a person in this image?</p></div></div>","1","observation","story_2","story","4","","","","","",""
"","","","","","html-keyboard-response","53","148315","0.0-53.0","","null","<div class=""stimulus-container""><img src=""images_story_vs_info/story_2_5.png"" class=""exp-image""><div class=""question-area""></div></div>","null","","","","","","","","","",""
"","","","","","html-button-response","54","148744","0.0-54.0","","428","<div class=""stimulus-container""><img src=""images_story_vs_info/story_2_5.png"" class=""exp-image""><div class=""question-area""><p style=""font-size: 20px; font-weight: bold; margin: 0;"">Is there a person in this image?</p></div></div>","1","observation","story_2","story","5","","","","","",""
"","","","","","html-keyboard-response","55","153750","0.0-55.0","","null","<div class=""stimulus-container""><img src=""images_story_vs_info/story_2_6_b.png"" class=""exp-image""><div class=""question-area""></div></div>","null","","","","","","","","","",""
"","","","","","html-button-response","56","154136","0.0-56.0","","385","<div class=""stimulus-container""><img src=""images_story_vs_info/story_2_6_b.png"" class=""exp-image""><div class=""question-area""><p style=""font-size: 20px; font-weight: bold; margin: 0;"">Is there a person in this image?</p></div></div>","1","observation","story_2","story","6","","","","","",""
"","","","","","instructions","57","160696","0.0-57.0","[{""page_index"":0,""viewing_time"":6560}]","6560","","","","","","","","","","","",""
"","","","","","html-button-response","58","162784","0.0-58.0","","2086","
                <div style=""font-family: Arial; margin-bottom: 20px;""><h3>Which image is worth <b>more money</b>?</h3></div>
                <div class=""stimulus-container"" style=""display: flex; flex-direction: row; width: 800px; justify-content: center; gap: 30px;"">
                    <img src=""images_story_vs_info/info_4_2.png"" class=""small-image"">
                    <img src=""images_story_vs_info/story_1_2.png"" class=""small-image"">
                </div>","1","choice_comparison","","","","Valuable_Story_vs_Info","2","story_1","info_4","images_story_vs_info/info_4_2.png","images_story_vs_info/story_1_2.png"
"","","","","","html-button-response","59","164392","0.0-59.0","","1607","
                <div style=""font-family: Arial; margin-bottom: 20px;""><h3>Which image is worth <b>more money</b>?</h3></div>
                <div class=""stimulus-container"" style=""display: flex; flex-direction: row; width: 800px; justify-content: center; gap: 30px;"">
                    <img src=""images_story_vs_info/story_2_2.png"" class=""small-image"">
                    <img src=""images_story_vs_info/info_3_2.png"" class=""small-image"">
                </div>","0","choice_comparison","","","","Neutral_Story_vs_Info","2","story_2","info_3","images_story_vs_info/story_2_2.png","images_story_vs_info/info_3_2.png"
"","","","","","html-button-response","60","167120","0.0-60.0","","2727","
                <div style=""font-family: Arial; margin-bottom: 20px;""><h3>Which image is worth <b>more money</b>?</h3></div>
                <div class=""stimulus-container"" style=""display: flex; flex-direction: row; width: 800px; justify-content: center; gap: 30px;"">
                    <img src=""images_story_vs_info/story_1_6_a.png"" class=""small-image"">
                    <img src=""images_story_vs_info/info_4_6_a.png"" class=""small-image"">
                </div>","0","choice_comparison","","","","Valuable_Story_vs_Info","6","story_1","info_4","images_story_vs_info/story_1_6_a.png","images_story_vs_info/info_4_6_a.png"
"","","","","","html-button-response","61","168880","0.0-61.0","","1759","
                <div style=""font-family: Arial; margin-bottom: 20px;""><h3>Which image is worth <b>more money</b>?</h3></div>
                <div class=""stimulus-container"" style=""display: flex; flex-direction: row; width: 800px; justify-content: center; gap: 30px;"">
                    <img src=""images_story_vs_info/info_3_6_b.png"" class=""small-image"">
                    <img src=""images_story_vs_info/story_2_6_b.png"" class=""small-image"">
                </div>","0","choice_comparison","","","","Neutral_Story_vs_Info","6","story_2","info_3","images_story_vs_info/info_3_6_b.png","images_story_vs_info/story_2_6_b.png"
"","","","","","html-button-response","62","170344","0.0-62.0","","1463","
                <div style=""font-family: Arial; margin-bottom: 20px;""><h3>Which image is worth <b>more money</b>?</h3></div>
                <div class=""stimulus-container"" style=""display: flex; flex-direction: row; width: 800px; justify-content: center; gap: 30px;"">
                    <img src=""images_story_vs_info/info_4_4.png"" class=""small-image"">
                    <img src=""images_story_vs_info/story_1_4.png"" class=""small-image"">
                </div>","0","choice_comparison","","","","Valuable_Story_vs_Info","4","story_1","info_4","images_story_vs_info/info_4_4.png","images_story_vs_info/story_1_4.png"
"","","","","","html-button-response","63","171544","0.0-63.0","","1200","
                <div style=""font-family: Arial; margin-bottom: 20px;""><h3>Which image is worth <b>more money</b>?</h3></div>
                <div class=""stimulus-container"" style=""display: flex; flex-direction: row; width: 800px; justify-content: center; gap: 30px;"">
                    <img src=""images_story_vs_info/info_3_4.png"" class=""small-image"">
                    <img src=""images_story_vs_info/story_2_4.png"" class=""small-image"">
                </div>","1","choice_comparison","","","","Neutral_Story_vs_Info","4","story_2","info_3","images_story_vs_info/info_3_4.png","images_story_vs_info/story_2_4.png"
"","","","","","html-button-response","64","173576","0.0-64.0","","2031","
                <div style=""font-family: Arial; margin-bottom: 20px;""><h3>Which image is worth <b>more money</b>?</h3></div>
                <div class=""stimulus-container"" style=""display: flex; flex-direction: row; width: 800px; justify-content: center; gap: 30px;"">
                    <img src=""images_story_vs_info/story_2_1.png"" class=""small-image"">
                    <img src=""images_story_vs_info/info_3_1.png"" class=""small-image"">
                </div>","0","choice_comparison","","","","Neutral_Story_vs_Info","1","story_2","info_3","images_story_vs_info/story_2_1.png","images_story_vs_info/info_3_1.png"
"","","","","","html-button-response","65","175104","0.0-65.0","","1527","
                <div style=""font-family: Arial; margin-bottom: 20px;""><h3>Which image is worth <b>more money</b>?</h3></div>
                <div class=""stimulus-container"" style=""display: flex; flex-direction: row; width: 800px; justify-content: center; gap: 30px;"">
                    <img src=""images_story_vs_info/info_3_3.png"" class=""small-image"">
                    <img src=""images_story_vs_info/story_2_3.png"" class=""small-image"">
                </div>","1","choice_comparison","","","","Neutral_Story_vs_Info","3","story_2","info_3","images_story_vs_info/info_3_3.png","images_story_vs_info/story_2_3.png"
"","","","","","html-button-response","66","176664","0.0-66.0","","1559","
                <div style=""font-family: Arial; margin-bottom: 20px;""><h3>Which image is worth <b>more money</b>?</h3></div>
                <div class=""stimulus-container"" style=""display: flex; flex-direction: row; width: 800px; justify-content: center; gap: 30px;"">
                    <img src=""images_story_vs_info/info_3_5.png"" class=""small-image"">
                    <img src=""images_story_vs_info/story_2_5.png"" class=""small-image"">
                </div>","1","choice_comparison","","","","Neutral_Story_vs_Info","5","story_2","info_3","images_story_vs_info/info_3_5.png","images_story_vs_info/story_2_5.png"
"","","","","","html-button-response","67","178496","0.0-67.0","","1831","
                <div style=""font-family: Arial; margin-bottom: 20px;""><h3>Which image is worth <b>more money</b>?</h3></div>
                <div class=""stimulus-container"" style=""display: flex; flex-direction: row; width: 800px; justify-content: center; gap: 30px;"">
                    <img src=""images_story_vs_info/story_1_5.png"" class=""small-image"">
                    <img src=""images_story_vs_info/info_4_5.png"" class=""small-image"">
                </div>","1","choice_comparison","","","","Valuable_Story_vs_Info","5","story_1","info_4","images_story_vs_info/story_1_5.png","images_story_vs_info/info_4_5.png"
"","","","","","html-button-response","68","179832","0.0-68.0","","1335","
                <div style=""font-family: Arial; margin-bottom: 20px;""><h3>Which image is worth <b>more money</b>?</h3></div>
                <div class=""stimulus-container"" style=""display: flex; flex-direction: row; width: 800px; justify-content: center; gap: 30px;"">
                    <img src=""images_story_vs_info/info_4_1.png"" class=""small-image"">
                    <img src=""images_story_vs_info/story_1_1.png"" class=""small-image"">
                </div>","0","choice_comparison","","","","Valuable_Story_vs_Info","1","story_1","info_4","images_story_vs_info/info_4_1.png","images_story_vs_info/story_1_1.png"
"","","","","","html-button-response","69","181824","0.0-69.0","","1991","
                <div style=""font-family: Arial; margin-bottom: 20px;""><h3>Which image is worth <b>more money</b>?</h3></div>
                <div class=""stimulus-container"" style=""display: flex; flex-direction: row; width: 800px; justify-content: center; gap: 30px;"">
                    <img src=""images_story_vs_info/story_1_3.png"" class=""small-image"">
                    <img src=""images_story_vs_info/info_4_3.png"" class=""small-image"">
                </div>","1","choice_comparison","","","","Valuable_Story_vs_Info","3","story_1","info_4","images_story_vs_info/story_1_3.png","images_story_vs_info/info_4_3.png"
"","","","","","survey-text","70","203138","0.0-70.0","","21304","","{""choice_strategy"":""I had no strategy, I had nothing to go on here. It was 100% a guess."",""gender"":""female"",""age"":""35""}","","","","","","","","","",""
"","","","","","instructions","71","208112","0.0-71.0","[{""page_index"":0,""viewing_time"":4974}]","4974","","","","","","","","","","","",""
