"success","timeout","failed_images","failed_audio","failed_video","trial_type","trial_index","time_elapsed","internal_node_id","view_history","rt","stimulus","response","task","folder","sequence_type","image_index","reward_type","valuable_image_index","target_X","dist_left","dist_right","chosen_image_index","chosen_dist","selected_after_X","correct_choice"
"true","false","[]","[]","[]","preload","0","7407","0.0-0.0","","","","","","","","","","","","","","","","",""
"","","","","","instructions","1","12763","0.0-1.0","[{""page_index"":0,""viewing_time"":5355}]","5355","","","","","","","","","","","","","","",""
"","","","","","instructions","2","16188","0.0-2.0","[{""page_index"":0,""viewing_time"":3425}]","3425","","","","","","","","","","","","","","",""
"true","","","","","fullscreen","3","23194","0.0-3.0","","6003","","","","","","","","","","","","","","",""
"","","","","","instructions","4","30120","0.0-4.0","[{""page_index"":0,""viewing_time"":6925}]","6925","","","","","","","","","","","","","","",""
"","","","","","instructions","5","35541","0.0-5.0","[{""page_index"":0,""viewing_time"":5421}]","5421","","","","","","","","","","","","","","",""
"","","","","","html-keyboard-response","6","38544","0.0-6.0","","null","<div class=""stimulus-container""><img src=""images/instructions/movie_1.png"" class=""exp-image""><div class=""question-area""></div></div>","null","","","","","","","","","","","","",""
"","","","","","html-button-response","7","39874","0.0-7.0","","1328","<div class=""stimulus-container""><img src=""images/instructions/movie_1.png"" class=""exp-image""><div class=""question-area""><p>Is there a person?</p></div></div>","0","","","","","","","","","","","","",""
"","","","","","html-keyboard-response","8","42876","0.0-8.0","","null","<div class=""stimulus-container""><img src=""images/instructions/movie_2.png"" class=""exp-image""><div class=""question-area""></div></div>","null","","","","","","","","","","","","",""
"","","","","","html-button-response","9","43685","0.0-9.0","","808","<div class=""stimulus-container""><img src=""images/instructions/movie_2.png"" class=""exp-image""><div class=""question-area""><p>Is there a person?</p></div></div>","1","","","","","","","","","","","","",""
"","","","","","html-keyboard-response","10","46687","0.0-10.0","","null","<div class=""stimulus-container""><img src=""images/instructions/movie_3.png"" class=""exp-image""><div class=""question-area""></div></div>","null","","","","","","","","","","","","",""
"","","","","","html-button-response","11","47315","0.0-11.0","","627","<div class=""stimulus-container""><img src=""images/instructions/movie_3.png"" class=""exp-image""><div class=""question-area""><p>Is there a person?</p></div></div>","0","","","","","","","","","","","","",""
"","","","","","instructions","12","49585","0.0-12.0","[{""page_index"":0,""viewing_time"":2269}]","2269","","","","","","","","","","","","","","",""
"","","","","","html-keyboard-response","13","51587","0.0-13.0","","null","<div style=""background-color: white; width: 100vw; height: 100vh;""></div>","null","","","","","","","","","","","","",""
"","","","","","html-keyboard-response","14","55589","0.0-14.0","","null","<div class=""stimulus-container""><img src=""images/semantic_sequence/visiting_cities_semantic/visiting_cities_semantic_1.png"" class=""exp-image""></div>","null","","","","","","","","","","","","",""
"","","","","","html-button-response","15","56907","0.0-15.0","","1316","<div class=""stimulus-container""><img src=""images/semantic_sequence/visiting_cities_semantic/visiting_cities_semantic_1.png"" class=""exp-image""><div class=""question-area""><p>Is there a person?</p></div></div>","0","observation","visiting_cities_semantic","semantic_sequence","1","","","","","","","","",""
"","","","","","html-keyboard-response","16","60909","0.0-16.0","","null","<div class=""stimulus-container""><img src=""images/semantic_sequence/visiting_cities_semantic/visiting_cities_semantic_2.png"" class=""exp-image""></div>","null","","","","","","","","","","","","",""
"","","","","","html-button-response","17","62249","0.0-17.0","","1339","<div class=""stimulus-container""><img src=""images/semantic_sequence/visiting_cities_semantic/visiting_cities_semantic_2.png"" class=""exp-image""><div class=""question-area""><p>Is there a person?</p></div></div>","1","observation","visiting_cities_semantic","semantic_sequence","2","","","","","","","","",""
"","","","","","html-keyboard-response","18","66251","0.0-18.0","","null","<div class=""stimulus-container""><img src=""images/semantic_sequence/visiting_cities_semantic/visiting_cities_semantic_3.png"" class=""exp-image""></div>","null","","","","","","","","","","","","",""
"","","","","","html-button-response","19","66757","0.0-19.0","","505","<div class=""stimulus-container""><img src=""images/semantic_sequence/visiting_cities_semantic/visiting_cities_semantic_3.png"" class=""exp-image""><div class=""question-area""><p>Is there a person?</p></div></div>","1","observation","visiting_cities_semantic","semantic_sequence","3","","","","","","","","",""
"","","","","","html-keyboard-response","20","70760","0.0-20.0","","null","<div class=""stimulus-container""><img src=""images/semantic_sequence/visiting_cities_semantic/visiting_cities_semantic_4.png"" class=""exp-image""></div>","null","","","","","","","","","","","","",""
"","","","","","html-button-response","21","71412","0.0-21.0","","652","<div class=""stimulus-container""><img src=""images/semantic_sequence/visiting_cities_semantic/visiting_cities_semantic_4.png"" class=""exp-image""><div class=""question-area""><p>Is there a person?</p></div></div>","1","observation","visiting_cities_semantic","semantic_sequence","4","","","","","","","","",""
"","","","","","html-keyboard-response","22","75415","0.0-22.0","","null","<div class=""stimulus-container""><img src=""images/semantic_sequence/visiting_cities_semantic/visiting_cities_semantic_5.png"" class=""exp-image""></div>","null","","","","","","","","","","","","",""
"","","","","","html-button-response","23","76369","0.0-23.0","","953","<div class=""stimulus-container""><img src=""images/semantic_sequence/visiting_cities_semantic/visiting_cities_semantic_5.png"" class=""exp-image""><div class=""question-area""><p>Is there a person?</p></div></div>","1","observation","visiting_cities_semantic","semantic_sequence","5","","","","","","","","",""
"","","","","","html-keyboard-response","24","80372","0.0-24.0","","null","<div class=""stimulus-container""><img src=""images/semantic_sequence/visiting_cities_semantic/visiting_cities_semantic_6.png"" class=""exp-image""></div>","null","","","","","","","","","","","","",""
"","","","","","html-button-response","25","81155","0.0-25.0","","782","<div class=""stimulus-container""><img src=""images/semantic_sequence/visiting_cities_semantic/visiting_cities_semantic_6.png"" class=""exp-image""><div class=""question-area""><p>Is there a person?</p></div></div>","1","observation","visiting_cities_semantic","semantic_sequence","6","","","","","","","","",""
"","","","","","html-keyboard-response","26","85157","0.0-26.0","","null","<div class=""stimulus-container""><img src=""images/semantic_sequence/visiting_cities_semantic/visiting_cities_semantic_7.png"" class=""exp-image""></div>","null","","","","","","","","","","","","",""
"","","","","","html-button-response","27","85817","0.0-27.0","","659","<div class=""stimulus-container""><img src=""images/semantic_sequence/visiting_cities_semantic/visiting_cities_semantic_7.png"" class=""exp-image""><div class=""question-area""><p>Is there a person?</p></div></div>","0","observation","visiting_cities_semantic","semantic_sequence","7","","","","","","","","",""
"","","","","","html-keyboard-response","28","89818","0.0-28.0","","null","<div class=""stimulus-container""><img src=""images/semantic_sequence/visiting_cities_semantic/visiting_cities_semantic_8.png"" class=""exp-image""></div>","null","","","","","","","","","","","","",""
"","","","","","html-button-response","29","90379","0.0-29.0","","560","<div class=""stimulus-container""><img src=""images/semantic_sequence/visiting_cities_semantic/visiting_cities_semantic_8.png"" class=""exp-image""><div class=""question-area""><p>Is there a person?</p></div></div>","0","observation","visiting_cities_semantic","semantic_sequence","8","","","","","","","","",""
"","","","","","html-keyboard-response","30","94381","0.0-30.0","","null","<div class=""stimulus-container""><img src=""images/semantic_sequence/visiting_cities_semantic/visiting_cities_semantic_9.png"" class=""exp-image""></div>","null","","","","","","","","","","","","",""
"","","","","","html-button-response","31","95029","0.0-31.0","","647","<div class=""stimulus-container""><img src=""images/semantic_sequence/visiting_cities_semantic/visiting_cities_semantic_9.png"" class=""exp-image""><div class=""question-area""><p>Is there a person?</p></div></div>","0","observation","visiting_cities_semantic","semantic_sequence","9","","","","","","","","",""
"","","","","","html-keyboard-response","32","99032","0.0-32.0","","null","<div class=""stimulus-container""><img src=""images/semantic_sequence/visiting_cities_semantic/visiting_cities_semantic_ten.png"" class=""exp-image""></div>","null","","","","","","","","","","","","",""
"","","","","","html-button-response","33","99667","0.0-33.0","","634","<div class=""stimulus-container""><img src=""images/semantic_sequence/visiting_cities_semantic/visiting_cities_semantic_ten.png"" class=""exp-image""><div class=""question-area""><p>Is there a person?</p></div></div>","0","observation","visiting_cities_semantic","semantic_sequence","ten","","","","","","","","",""
"","","","","","html-keyboard-response","34","101669","0.0-34.0","","null","<div style=""background-color: white; width: 100vw; height: 100vh;""></div>","null","","","","","","","","","","","","",""
"","","","","","html-keyboard-response","35","105670","0.0-35.0","","null","<div class=""stimulus-container""><img src=""images/semantic_sequence/kitchen_operations_semantic/kitchen_operations_semantic_1.png"" class=""exp-image""></div>","null","","","","","","","","","","","","",""
"","","","","","html-button-response","36","106471","0.0-36.0","","799","<div class=""stimulus-container""><img src=""images/semantic_sequence/kitchen_operations_semantic/kitchen_operations_semantic_1.png"" class=""exp-image""><div class=""question-area""><p>Is there a person?</p></div></div>","0","observation","kitchen_operations_semantic","semantic_sequence","1","","","","","","","","",""
"","","","","","html-keyboard-response","37","110474","0.0-37.0","","null","<div class=""stimulus-container""><img src=""images/semantic_sequence/kitchen_operations_semantic/kitchen_operations_semantic_2.png"" class=""exp-image""></div>","null","","","","","","","","","","","","",""
"","","","","","html-button-response","38","111305","0.0-38.0","","830","<div class=""stimulus-container""><img src=""images/semantic_sequence/kitchen_operations_semantic/kitchen_operations_semantic_2.png"" class=""exp-image""><div class=""question-area""><p>Is there a person?</p></div></div>","0","observation","kitchen_operations_semantic","semantic_sequence","2","","","","","","","","",""
"","","","","","html-keyboard-response","39","115307","0.0-39.0","","null","<div class=""stimulus-container""><img src=""images/semantic_sequence/kitchen_operations_semantic/kitchen_operations_semantic_3.png"" class=""exp-image""></div>","null","","","","","","","","","","","","",""
"","","","","","html-button-response","40","115740","0.0-40.0","","432","<div class=""stimulus-container""><img src=""images/semantic_sequence/kitchen_operations_semantic/kitchen_operations_semantic_3.png"" class=""exp-image""><div class=""question-area""><p>Is there a person?</p></div></div>","0","observation","kitchen_operations_semantic","semantic_sequence","3","","","","","","","","",""
"","","","","","html-keyboard-response","41","119743","0.0-41.0","","null","<div class=""stimulus-container""><img src=""images/semantic_sequence/kitchen_operations_semantic/kitchen_operations_semantic_4.png"" class=""exp-image""></div>","null","","","","","","","","","","","","",""
"","","","","","html-button-response","42","120454","0.0-42.0","","711","<div class=""stimulus-container""><img src=""images/semantic_sequence/kitchen_operations_semantic/kitchen_operations_semantic_4.png"" class=""exp-image""><div class=""question-area""><p>Is there a person?</p></div></div>","0","observation","kitchen_operations_semantic","semantic_sequence","4","","","","","","","","",""
"","","","","","html-keyboard-response","43","124456","0.0-43.0","","null","<div class=""stimulus-container""><img src=""images/semantic_sequence/kitchen_operations_semantic/kitchen_operations_semantic_5.png"" class=""exp-image""></div>","null","","","","","","","","","","","","",""
"","","","","","html-button-response","44","125196","0.0-44.0","","739","<div class=""stimulus-container""><img src=""images/semantic_sequence/kitchen_operations_semantic/kitchen_operations_semantic_5.png"" class=""exp-image""><div class=""question-area""><p>Is there a person?</p></div></div>","0","observation","kitchen_operations_semantic","semantic_sequence","5","","","","","","","","",""
"","","","","","html-keyboard-response","45","129199","0.0-45.0","","null","<div class=""stimulus-container""><img src=""images/semantic_sequence/kitchen_operations_semantic/kitchen_operations_semantic_6.png"" class=""exp-image""></div>","null","","","","","","","","","","","","",""
"","","","","","html-button-response","46","130064","0.0-46.0","","864","<div class=""stimulus-container""><img src=""images/semantic_sequence/kitchen_operations_semantic/kitchen_operations_semantic_6.png"" class=""exp-image""><div class=""question-area""><p>Is there a person?</p></div></div>","0","observation","kitchen_operations_semantic","semantic_sequence","6","","","","","","","","",""
"","","","","","html-keyboard-response","47","134067","0.0-47.0","","null","<div class=""stimulus-container""><img src=""images/semantic_sequence/kitchen_operations_semantic/kitchen_operations_semantic_7.png"" class=""exp-image""></div>","null","","","","","","","","","","","","",""
"","","","","","html-button-response","48","134559","0.0-48.0","","491","<div class=""stimulus-container""><img src=""images/semantic_sequence/kitchen_operations_semantic/kitchen_operations_semantic_7.png"" class=""exp-image""><div class=""question-area""><p>Is there a person?</p></div></div>","0","observation","kitchen_operations_semantic","semantic_sequence","7","","","","","","","","",""
"","","","","","html-keyboard-response","49","138562","0.0-49.0","","null","<div class=""stimulus-container""><img src=""images/semantic_sequence/kitchen_operations_semantic/kitchen_operations_semantic_8.png"" class=""exp-image""></div>","null","","","","","","","","","","","","",""
"","","","","","html-button-response","50","138986","0.0-50.0","","423","<div class=""stimulus-container""><img src=""images/semantic_sequence/kitchen_operations_semantic/kitchen_operations_semantic_8.png"" class=""exp-image""><div class=""question-area""><p>Is there a person?</p></div></div>","0","observation","kitchen_operations_semantic","semantic_sequence","8","","","","","","","","",""
"","","","","","html-keyboard-response","51","142987","0.0-51.0","","null","<div class=""stimulus-container""><img src=""images/semantic_sequence/kitchen_operations_semantic/kitchen_operations_semantic_9.png"" class=""exp-image""></div>","null","","","","","","","","","","","","",""
"","","","","","html-button-response","52","143505","0.0-52.0","","516","<div class=""stimulus-container""><img src=""images/semantic_sequence/kitchen_operations_semantic/kitchen_operations_semantic_9.png"" class=""exp-image""><div class=""question-area""><p>Is there a person?</p></div></div>","0","observation","kitchen_operations_semantic","semantic_sequence","9","","","","","","","","",""
"","","","","","html-keyboard-response","53","147507","0.0-53.0","","null","<div class=""stimulus-container""><img src=""images/semantic_sequence/kitchen_operations_semantic/kitchen_operations_semantic_ten.png"" class=""exp-image""></div>","null","","","","","","","","","","","","",""
"","","","","","html-button-response","54","147939","0.0-54.0","","431","<div class=""stimulus-container""><img src=""images/semantic_sequence/kitchen_operations_semantic/kitchen_operations_semantic_ten.png"" class=""exp-image""><div class=""question-area""><p>Is there a person?</p></div></div>","0","observation","kitchen_operations_semantic","semantic_sequence","ten","","","","","","","","",""
"","","","","","html-keyboard-response","55","149941","0.0-55.0","","null","<div style=""background-color: white; width: 100vw; height: 100vh;""></div>","null","","","","","","","","","","","","",""
"","","","","","html-keyboard-response","56","153944","0.0-56.0","","null","<div class=""stimulus-container""><img src=""images/semantic_sequence/maintaining_a_car_semantic/maintaining_a_car_semantic_1.png"" class=""exp-image""></div>","null","","","","","","","","","","","","",""
"","","","","","html-button-response","57","154692","0.0-57.0","","747","<div class=""stimulus-container""><img src=""images/semantic_sequence/maintaining_a_car_semantic/maintaining_a_car_semantic_1.png"" class=""exp-image""><div class=""question-area""><p>Is there a person?</p></div></div>","0","observation","maintaining_a_car_semantic","semantic_sequence","1","","","","","","","","",""
"","","","","","html-keyboard-response","58","158695","0.0-58.0","","null","<div class=""stimulus-container""><img src=""images/semantic_sequence/maintaining_a_car_semantic/maintaining_a_car_semantic_2.png"" class=""exp-image""></div>","null","","","","","","","","","","","","",""
"","","","","","html-button-response","59","159109","0.0-59.0","","413","<div class=""stimulus-container""><img src=""images/semantic_sequence/maintaining_a_car_semantic/maintaining_a_car_semantic_2.png"" class=""exp-image""><div class=""question-area""><p>Is there a person?</p></div></div>","0","observation","maintaining_a_car_semantic","semantic_sequence","2","","","","","","","","",""
"","","","","","html-keyboard-response","60","163111","0.0-60.0","","null","<div class=""stimulus-container""><img src=""images/semantic_sequence/maintaining_a_car_semantic/maintaining_a_car_semantic_3.png"" class=""exp-image""></div>","null","","","","","","","","","","","","",""
"","","","","","html-button-response","61","163560","0.0-61.0","","448","<div class=""stimulus-container""><img src=""images/semantic_sequence/maintaining_a_car_semantic/maintaining_a_car_semantic_3.png"" class=""exp-image""><div class=""question-area""><p>Is there a person?</p></div></div>","0","observation","maintaining_a_car_semantic","semantic_sequence","3","","","","","","","","",""
"","","","","","html-keyboard-response","62","167563","0.0-62.0","","null","<div class=""stimulus-container""><img src=""images/semantic_sequence/maintaining_a_car_semantic/maintaining_a_car_semantic_4.png"" class=""exp-image""></div>","null","","","","","","","","","","","","",""
"","","","","","html-button-response","63","168209","0.0-63.0","","644","<div class=""stimulus-container""><img src=""images/semantic_sequence/maintaining_a_car_semantic/maintaining_a_car_semantic_4.png"" class=""exp-image""><div class=""question-area""><p>Is there a person?</p></div></div>","0","observation","maintaining_a_car_semantic","semantic_sequence","4","","","","","","","","",""
"","","","","","html-keyboard-response","64","172211","0.0-64.0","","null","<div class=""stimulus-container""><img src=""images/semantic_sequence/maintaining_a_car_semantic/maintaining_a_car_semantic_5.png"" class=""exp-image""></div>","null","","","","","","","","","","","","",""
"","","","","","html-button-response","65","172678","0.0-65.0","","466","<div class=""stimulus-container""><img src=""images/semantic_sequence/maintaining_a_car_semantic/maintaining_a_car_semantic_5.png"" class=""exp-image""><div class=""question-area""><p>Is there a person?</p></div></div>","0","observation","maintaining_a_car_semantic","semantic_sequence","5","","","","","","","","",""
"","","","","","html-keyboard-response","66","176680","0.0-66.0","","null","<div class=""stimulus-container""><img src=""images/semantic_sequence/maintaining_a_car_semantic/maintaining_a_car_semantic_6.png"" class=""exp-image""></div>","null","","","","","","","","","","","","",""
"","","","","","html-button-response","67","177146","0.0-67.0","","465","<div class=""stimulus-container""><img src=""images/semantic_sequence/maintaining_a_car_semantic/maintaining_a_car_semantic_6.png"" class=""exp-image""><div class=""question-area""><p>Is there a person?</p></div></div>","0","observation","maintaining_a_car_semantic","semantic_sequence","6","","","","","","","","",""
"","","","","","html-keyboard-response","68","181149","0.0-68.0","","null","<div class=""stimulus-container""><img src=""images/semantic_sequence/maintaining_a_car_semantic/maintaining_a_car_semantic_7.png"" class=""exp-image""></div>","null","","","","","","","","","","","","",""
"","","","","","html-button-response","69","181756","0.0-69.0","","606","<div class=""stimulus-container""><img src=""images/semantic_sequence/maintaining_a_car_semantic/maintaining_a_car_semantic_7.png"" class=""exp-image""><div class=""question-area""><p>Is there a person?</p></div></div>","0","observation","maintaining_a_car_semantic","semantic_sequence","7","","","","","","","","",""
"","","","","","html-keyboard-response","70","185758","0.0-70.0","","null","<div class=""stimulus-container""><img src=""images/semantic_sequence/maintaining_a_car_semantic/maintaining_a_car_semantic_8.png"" class=""exp-image""></div>","null","","","","","","","","","","","","",""
"","","","","","html-button-response","71","186280","0.0-71.0","","521","<div class=""stimulus-container""><img src=""images/semantic_sequence/maintaining_a_car_semantic/maintaining_a_car_semantic_8.png"" class=""exp-image""><div class=""question-area""><p>Is there a person?</p></div></div>","0","observation","maintaining_a_car_semantic","semantic_sequence","8","","","","","","","","",""
"","","","","","html-keyboard-response","72","190282","0.0-72.0","","null","<div class=""stimulus-container""><img src=""images/semantic_sequence/maintaining_a_car_semantic/maintaining_a_car_semantic_9.png"" class=""exp-image""></div>","null","","","","","","","","","","","","",""
"","","","","","html-button-response","73","199865","0.0-73.0","","9581","<div class=""stimulus-container""><img src=""images/semantic_sequence/maintaining_a_car_semantic/maintaining_a_car_semantic_9.png"" class=""exp-image""><div class=""question-area""><p>Is there a person?</p></div></div>","0","observation","maintaining_a_car_semantic","semantic_sequence","9","","","","","","","","",""
"","","","","","html-keyboard-response","74","203868","0.0-74.0","","null","<div class=""stimulus-container""><img src=""images/semantic_sequence/maintaining_a_car_semantic/maintaining_a_car_semantic_ten.png"" class=""exp-image""></div>","null","","","","","","","","","","","","",""
"","","","","","html-button-response","75","222631","0.0-75.0","","18762","<div class=""stimulus-container""><img src=""images/semantic_sequence/maintaining_a_car_semantic/maintaining_a_car_semantic_ten.png"" class=""exp-image""><div class=""question-area""><p>Is there a person?</p></div></div>","0","observation","maintaining_a_car_semantic","semantic_sequence","ten","","","","","","","","",""
"","","","","","html-keyboard-response","76","224634","0.0-76.0","","null","<div style=""background-color: white; width: 100vw; height: 100vh;""></div>","null","","","","","","","","","","","","",""
"","","","","","html-keyboard-response","77","228636","0.0-77.0","","null","<div class=""stimulus-container""><img src=""images/causal_sequence/the_performance_causal/the_performance_causal_1.png"" class=""exp-image""></div>","null","","","","","","","","","","","","",""
"","","","","","html-button-response","78","230138","0.0-78.0","","1501","<div class=""stimulus-container""><img src=""images/causal_sequence/the_performance_causal/the_performance_causal_1.png"" class=""exp-image""><div class=""question-area""><p>Is there a person?</p></div></div>","0","observation","the_performance_causal","causal_sequence","1","","","","","","","","",""
"","","","","","html-keyboard-response","79","234140","0.0-79.0","","null","<div class=""stimulus-container""><img src=""images/causal_sequence/the_performance_causal/the_performance_causal_2.png"" class=""exp-image""></div>","null","","","","","","","","","","","","",""
"","","","","","html-button-response","80","235665","0.0-80.0","","1525","<div class=""stimulus-container""><img src=""images/causal_sequence/the_performance_causal/the_performance_causal_2.png"" class=""exp-image""><div class=""question-area""><p>Is there a person?</p></div></div>","0","observation","the_performance_causal","causal_sequence","2","","","","","","","","",""
"","","","","","html-keyboard-response","81","239668","0.0-81.0","","null","<div class=""stimulus-container""><img src=""images/causal_sequence/the_performance_causal/the_performance_causal_3.png"" class=""exp-image""></div>","null","","","","","","","","","","","","",""
"","","","","","html-button-response","82","240715","0.0-82.0","","1047","<div class=""stimulus-container""><img src=""images/causal_sequence/the_performance_causal/the_performance_causal_3.png"" class=""exp-image""><div class=""question-area""><p>Is there a person?</p></div></div>","0","observation","the_performance_causal","causal_sequence","3","","","","","","","","",""
"","","","","","html-keyboard-response","83","244718","0.0-83.0","","null","<div class=""stimulus-container""><img src=""images/causal_sequence/the_performance_causal/the_performance_causal_4.png"" class=""exp-image""></div>","null","","","","","","","","","","","","",""
"","","","","","html-button-response","84","248241","0.0-84.0","","3523","<div class=""stimulus-container""><img src=""images/causal_sequence/the_performance_causal/the_performance_causal_4.png"" class=""exp-image""><div class=""question-area""><p>Is there a person?</p></div></div>","0","observation","the_performance_causal","causal_sequence","4","","","","","","","","",""
"","","","","","html-keyboard-response","85","252243","0.0-85.0","","null","<div class=""stimulus-container""><img src=""images/causal_sequence/the_performance_causal/the_performance_causal_5.png"" class=""exp-image""></div>","null","","","","","","","","","","","","",""
"","","","","","html-button-response","86","254030","0.0-86.0","","1786","<div class=""stimulus-container""><img src=""images/causal_sequence/the_performance_causal/the_performance_causal_5.png"" class=""exp-image""><div class=""question-area""><p>Is there a person?</p></div></div>","0","observation","the_performance_causal","causal_sequence","5","","","","","","","","",""
"","","","","","html-keyboard-response","87","258032","0.0-87.0","","null","<div class=""stimulus-container""><img src=""images/causal_sequence/the_performance_causal/the_performance_causal_6.png"" class=""exp-image""></div>","null","","","","","","","","","","","","",""
"","","","","","html-button-response","88","259714","0.0-88.0","","1680","<div class=""stimulus-container""><img src=""images/causal_sequence/the_performance_causal/the_performance_causal_6.png"" class=""exp-image""><div class=""question-area""><p>Is there a person?</p></div></div>","0","observation","the_performance_causal","causal_sequence","6","","","","","","","","",""
"","","","","","html-keyboard-response","89","263716","0.0-89.0","","null","<div class=""stimulus-container""><img src=""images/causal_sequence/the_performance_causal/the_performance_causal_7.png"" class=""exp-image""></div>","null","","","","","","","","","","","","",""
"","","","","","html-button-response","90","265196","0.0-90.0","","1478","<div class=""stimulus-container""><img src=""images/causal_sequence/the_performance_causal/the_performance_causal_7.png"" class=""exp-image""><div class=""question-area""><p>Is there a person?</p></div></div>","0","observation","the_performance_causal","causal_sequence","7","","","","","","","","",""
"","","","","","html-keyboard-response","91","269140","0.0-91.0","","null","<div class=""stimulus-container""><img src=""images/causal_sequence/the_performance_causal/the_performance_causal_8.png"" class=""exp-image""></div>","null","","","","","","","","","","","","",""
"","","","","","html-button-response","92","272660","0.0-92.0","","3519","<div class=""stimulus-container""><img src=""images/causal_sequence/the_performance_causal/the_performance_causal_8.png"" class=""exp-image""><div class=""question-area""><p>Is there a person?</p></div></div>","0","observation","the_performance_causal","causal_sequence","8","","","","","","","","",""
"","","","","","html-keyboard-response","93","276662","0.0-93.0","","null","<div class=""stimulus-container""><img src=""images/causal_sequence/the_performance_causal/the_performance_causal_9.png"" class=""exp-image""></div>","null","","","","","","","","","","","","",""
"","","","","","html-button-response","94","282140","0.0-94.0","","5477","<div class=""stimulus-container""><img src=""images/causal_sequence/the_performance_causal/the_performance_causal_9.png"" class=""exp-image""><div class=""question-area""><p>Is there a person?</p></div></div>","0","observation","the_performance_causal","causal_sequence","9","","","","","","","","",""
"","","","","","html-keyboard-response","95","286142","0.0-95.0","","null","<div class=""stimulus-container""><img src=""images/causal_sequence/the_performance_causal/the_performance_causal_ten.png"" class=""exp-image""></div>","null","","","","","","","","","","","","",""
"","","","","","html-button-response","96","287853","0.0-96.0","","1710","<div class=""stimulus-container""><img src=""images/causal_sequence/the_performance_causal/the_performance_causal_ten.png"" class=""exp-image""><div class=""question-area""><p>Is there a person?</p></div></div>","0","observation","the_performance_causal","causal_sequence","ten","","","","","","","","",""
"","","","","","html-keyboard-response","97","289856","0.0-97.0","","null","<div style=""background-color: white; width: 100vw; height: 100vh;""></div>","null","","","","","","","","","","","","",""
"","","","","","html-keyboard-response","98","293857","0.0-98.0","","null","<div class=""stimulus-container""><img src=""images/semantic_sequence/physical_activity_semantic/physical_activity_semantic_1.png"" class=""exp-image""></div>","null","","","","","","","","","","","","",""
"","","","","","html-button-response","99","295152","0.0-99.0","","1294","<div class=""stimulus-container""><img src=""images/semantic_sequence/physical_activity_semantic/physical_activity_semantic_1.png"" class=""exp-image""><div class=""question-area""><p>Is there a person?</p></div></div>","0","observation","physical_activity_semantic","semantic_sequence","1","","","","","","","","",""
"","","","","","html-keyboard-response","100","299154","0.0-100.0","","null","<div class=""stimulus-container""><img src=""images/semantic_sequence/physical_activity_semantic/physical_activity_semantic_2.png"" class=""exp-image""></div>","null","","","","","","","","","","","","",""
"","","","","","html-button-response","101","300290","0.0-101.0","","1135","<div class=""stimulus-container""><img src=""images/semantic_sequence/physical_activity_semantic/physical_activity_semantic_2.png"" class=""exp-image""><div class=""question-area""><p>Is there a person?</p></div></div>","0","observation","physical_activity_semantic","semantic_sequence","2","","","","","","","","",""
"","","","","","html-keyboard-response","102","304292","0.0-102.0","","null","<div class=""stimulus-container""><img src=""images/semantic_sequence/physical_activity_semantic/physical_activity_semantic_3.png"" class=""exp-image""></div>","null","","","","","","","","","","","","",""
"","","","","","html-button-response","103","344934","0.0-103.0","","40641","<div class=""stimulus-container""><img src=""images/semantic_sequence/physical_activity_semantic/physical_activity_semantic_3.png"" class=""exp-image""><div class=""question-area""><p>Is there a person?</p></div></div>","0","observation","physical_activity_semantic","semantic_sequence","3","","","","","","","","",""
"","","","","","html-keyboard-response","104","348935","0.0-104.0","","null","<div class=""stimulus-container""><img src=""images/semantic_sequence/physical_activity_semantic/physical_activity_semantic_4.png"" class=""exp-image""></div>","null","","","","","","","","","","","","",""
"","","","","","html-button-response","105","352344","0.0-105.0","","3407","<div class=""stimulus-container""><img src=""images/semantic_sequence/physical_activity_semantic/physical_activity_semantic_4.png"" class=""exp-image""><div class=""question-area""><p>Is there a person?</p></div></div>","0","observation","physical_activity_semantic","semantic_sequence","4","","","","","","","","",""
"","","","","","html-keyboard-response","106","356347","0.0-106.0","","null","<div class=""stimulus-container""><img src=""images/semantic_sequence/physical_activity_semantic/physical_activity_semantic_5.png"" class=""exp-image""></div>","null","","","","","","","","","","","","",""
"","","","","","html-button-response","107","357888","0.0-107.0","","1540","<div class=""stimulus-container""><img src=""images/semantic_sequence/physical_activity_semantic/physical_activity_semantic_5.png"" class=""exp-image""><div class=""question-area""><p>Is there a person?</p></div></div>","0","observation","physical_activity_semantic","semantic_sequence","5","","","","","","","","",""
"","","","","","html-keyboard-response","108","361890","0.0-108.0","","null","<div class=""stimulus-container""><img src=""images/semantic_sequence/physical_activity_semantic/physical_activity_semantic_6.png"" class=""exp-image""></div>","null","","","","","","","","","","","","",""
"","","","","","html-button-response","109","372445","0.0-109.0","","10554","<div class=""stimulus-container""><img src=""images/semantic_sequence/physical_activity_semantic/physical_activity_semantic_6.png"" class=""exp-image""><div class=""question-area""><p>Is there a person?</p></div></div>","0","observation","physical_activity_semantic","semantic_sequence","6","","","","","","","","",""
"","","","","","html-keyboard-response","110","376448","0.0-110.0","","null","<div class=""stimulus-container""><img src=""images/semantic_sequence/physical_activity_semantic/physical_activity_semantic_7.png"" class=""exp-image""></div>","null","","","","","","","","","","","","",""
"","","","","","html-button-response","111","377438","0.0-111.0","","989","<div class=""stimulus-container""><img src=""images/semantic_sequence/physical_activity_semantic/physical_activity_semantic_7.png"" class=""exp-image""><div class=""question-area""><p>Is there a person?</p></div></div>","0","observation","physical_activity_semantic","semantic_sequence","7","","","","","","","","",""
"","","","","","html-keyboard-response","112","381441","0.0-112.0","","null","<div class=""stimulus-container""><img src=""images/semantic_sequence/physical_activity_semantic/physical_activity_semantic_8.png"" class=""exp-image""></div>","null","","","","","","","","","","","","",""
"","","","","","html-button-response","113","382561","0.0-113.0","","1119","<div class=""stimulus-container""><img src=""images/semantic_sequence/physical_activity_semantic/physical_activity_semantic_8.png"" class=""exp-image""><div class=""question-area""><p>Is there a person?</p></div></div>","0","observation","physical_activity_semantic","semantic_sequence","8","","","","","","","","",""
"","","","","","html-keyboard-response","114","386564","0.0-114.0","","null","<div class=""stimulus-container""><img src=""images/semantic_sequence/physical_activity_semantic/physical_activity_semantic_9.png"" class=""exp-image""></div>","null","","","","","","","","","","","","",""
"","","","","","html-button-response","115","387567","0.0-115.0","","1002","<div class=""stimulus-container""><img src=""images/semantic_sequence/physical_activity_semantic/physical_activity_semantic_9.png"" class=""exp-image""><div class=""question-area""><p>Is there a person?</p></div></div>","0","observation","physical_activity_semantic","semantic_sequence","9","","","","","","","","",""
"","","","","","html-keyboard-response","116","391569","0.0-116.0","","null","<div class=""stimulus-container""><img src=""images/semantic_sequence/physical_activity_semantic/physical_activity_semantic_ten.png"" class=""exp-image""></div>","null","","","","","","","","","","","","",""
"","","","","","html-button-response","117","393053","0.0-117.0","","1482","<div class=""stimulus-container""><img src=""images/semantic_sequence/physical_activity_semantic/physical_activity_semantic_ten.png"" class=""exp-image""><div class=""question-area""><p>Is there a person?</p></div></div>","0","observation","physical_activity_semantic","semantic_sequence","ten","","","","","","","","",""
"","","","","","html-keyboard-response","118","395056","0.0-118.0","","null","<div style=""background-color: white; width: 100vw; height: 100vh;""></div>","null","","","","","","","","","","","","",""
"","","","","","html-keyboard-response","119","399059","0.0-119.0","","null","<div class=""stimulus-container""><img src=""images/semantic_sequence/housework_semantic/housework_semantic_1.png"" class=""exp-image""></div>","null","","","","","","","","","","","","",""
"","","","","","html-button-response","120","405223","0.0-120.0","","6162","<div class=""stimulus-container""><img src=""images/semantic_sequence/housework_semantic/housework_semantic_1.png"" class=""exp-image""><div class=""question-area""><p>Is there a person?</p></div></div>","0","observation","housework_semantic","semantic_sequence","1","","","","","","","","",""
"","","","","","html-keyboard-response","121","409225","0.0-121.0","","null","<div class=""stimulus-container""><img src=""images/semantic_sequence/housework_semantic/housework_semantic_2.png"" class=""exp-image""></div>","null","","","","","","","","","","","","",""
"","","","","","html-button-response","122","410655","0.0-122.0","","1429","<div class=""stimulus-container""><img src=""images/semantic_sequence/housework_semantic/housework_semantic_2.png"" class=""exp-image""><div class=""question-area""><p>Is there a person?</p></div></div>","0","observation","housework_semantic","semantic_sequence","2","","","","","","","","",""
"","","","","","html-keyboard-response","123","414657","0.0-123.0","","null","<div class=""stimulus-container""><img src=""images/semantic_sequence/housework_semantic/housework_semantic_3.png"" class=""exp-image""></div>","null","","","","","","","","","","","","",""
"","","","","","html-button-response","124","415623","0.0-124.0","","965","<div class=""stimulus-container""><img src=""images/semantic_sequence/housework_semantic/housework_semantic_3.png"" class=""exp-image""><div class=""question-area""><p>Is there a person?</p></div></div>","0","observation","housework_semantic","semantic_sequence","3","","","","","","","","",""
"","","","","","html-keyboard-response","125","419625","0.0-125.0","","null","<div class=""stimulus-container""><img src=""images/semantic_sequence/housework_semantic/housework_semantic_4.png"" class=""exp-image""></div>","null","","","","","","","","","","","","",""
"","","","","","html-button-response","126","421450","0.0-126.0","","1824","<div class=""stimulus-container""><img src=""images/semantic_sequence/housework_semantic/housework_semantic_4.png"" class=""exp-image""><div class=""question-area""><p>Is there a person?</p></div></div>","0","observation","housework_semantic","semantic_sequence","4","","","","","","","","",""
"","","","","","html-keyboard-response","127","425452","0.0-127.0","","null","<div class=""stimulus-container""><img src=""images/semantic_sequence/housework_semantic/housework_semantic_5.png"" class=""exp-image""></div>","null","","","","","","","","","","","","",""
"","","","","","html-button-response","128","427886","0.0-128.0","","2433","<div class=""stimulus-container""><img src=""images/semantic_sequence/housework_semantic/housework_semantic_5.png"" class=""exp-image""><div class=""question-area""><p>Is there a person?</p></div></div>","0","observation","housework_semantic","semantic_sequence","5","","","","","","","","",""
"","","","","","html-keyboard-response","129","431889","0.0-129.0","","null","<div class=""stimulus-container""><img src=""images/semantic_sequence/housework_semantic/housework_semantic_6.png"" class=""exp-image""></div>","null","","","","","","","","","","","","",""
"","","","","","html-button-response","130","433844","0.0-130.0","","1955","<div class=""stimulus-container""><img src=""images/semantic_sequence/housework_semantic/housework_semantic_6.png"" class=""exp-image""><div class=""question-area""><p>Is there a person?</p></div></div>","0","observation","housework_semantic","semantic_sequence","6","","","","","","","","",""
"","","","","","html-keyboard-response","131","437847","0.0-131.0","","null","<div class=""stimulus-container""><img src=""images/semantic_sequence/housework_semantic/housework_semantic_7.png"" class=""exp-image""></div>","null","","","","","","","","","","","","",""
"","","","","","html-button-response","132","440929","0.0-132.0","","3081","<div class=""stimulus-container""><img src=""images/semantic_sequence/housework_semantic/housework_semantic_7.png"" class=""exp-image""><div class=""question-area""><p>Is there a person?</p></div></div>","0","observation","housework_semantic","semantic_sequence","7","","","","","","","","",""
"","","","","","html-keyboard-response","133","444931","0.0-133.0","","null","<div class=""stimulus-container""><img src=""images/semantic_sequence/housework_semantic/housework_semantic_8.png"" class=""exp-image""></div>","null","","","","","","","","","","","","",""
"","","","","","html-button-response","134","448497","0.0-134.0","","3565","<div class=""stimulus-container""><img src=""images/semantic_sequence/housework_semantic/housework_semantic_8.png"" class=""exp-image""><div class=""question-area""><p>Is there a person?</p></div></div>","0","observation","housework_semantic","semantic_sequence","8","","","","","","","","",""
"","","","","","html-keyboard-response","135","452499","0.0-135.0","","null","<div class=""stimulus-container""><img src=""images/semantic_sequence/housework_semantic/housework_semantic_9.png"" class=""exp-image""></div>","null","","","","","","","","","","","","",""
"","","","","","html-button-response","136","453771","0.0-136.0","","1271","<div class=""stimulus-container""><img src=""images/semantic_sequence/housework_semantic/housework_semantic_9.png"" class=""exp-image""><div class=""question-area""><p>Is there a person?</p></div></div>","0","observation","housework_semantic","semantic_sequence","9","","","","","","","","",""
"","","","","","html-keyboard-response","137","457772","0.0-137.0","","null","<div class=""stimulus-container""><img src=""images/semantic_sequence/housework_semantic/housework_semantic_ten.png"" class=""exp-image""></div>","null","","","","","","","","","","","","",""
"","","","","","html-button-response","138","459108","0.0-138.0","","1335","<div class=""stimulus-container""><img src=""images/semantic_sequence/housework_semantic/housework_semantic_ten.png"" class=""exp-image""><div class=""question-area""><p>Is there a person?</p></div></div>","0","observation","housework_semantic","semantic_sequence","ten","","","","","","","","",""
"","","","","","html-keyboard-response","139","461110","0.0-139.0","","null","<div style=""background-color: white; width: 100vw; height: 100vh;""></div>","null","","","","","","","","","","","","",""
"","","","","","html-keyboard-response","140","465111","0.0-140.0","","null","<div class=""stimulus-container""><img src=""images/semantic_sequence/self_care_activities_semantic/self_care_activities_semantic_1.png"" class=""exp-image""></div>","null","","","","","","","","","","","","",""
"","","","","","html-button-response","141","471783","0.0-141.0","","6672","<div class=""stimulus-container""><img src=""images/semantic_sequence/self_care_activities_semantic/self_care_activities_semantic_1.png"" class=""exp-image""><div class=""question-area""><p>Is there a person?</p></div></div>","0","observation","self_care_activities_semantic","semantic_sequence","1","","","","","","","","",""
"","","","","","html-keyboard-response","142","475786","0.0-142.0","","null","<div class=""stimulus-container""><img src=""images/semantic_sequence/self_care_activities_semantic/self_care_activities_semantic_2.png"" class=""exp-image""></div>","null","","","","","","","","","","","","",""
"","","","","","html-button-response","143","476767","0.0-143.0","","979","<div class=""stimulus-container""><img src=""images/semantic_sequence/self_care_activities_semantic/self_care_activities_semantic_2.png"" class=""exp-image""><div class=""question-area""><p>Is there a person?</p></div></div>","0","observation","self_care_activities_semantic","semantic_sequence","2","","","","","","","","",""
"","","","","","html-keyboard-response","144","480768","0.0-144.0","","null","<div class=""stimulus-container""><img src=""images/semantic_sequence/self_care_activities_semantic/self_care_activities_semantic_3.png"" class=""exp-image""></div>","null","","","","","","","","","","","","",""
"","","","","","html-button-response","145","483180","0.0-145.0","","2411","<div class=""stimulus-container""><img src=""images/semantic_sequence/self_care_activities_semantic/self_care_activities_semantic_3.png"" class=""exp-image""><div class=""question-area""><p>Is there a person?</p></div></div>","0","observation","self_care_activities_semantic","semantic_sequence","3","","","","","","","","",""
"","","","","","html-keyboard-response","146","487182","0.0-146.0","","null","<div class=""stimulus-container""><img src=""images/semantic_sequence/self_care_activities_semantic/self_care_activities_semantic_4.png"" class=""exp-image""></div>","null","","","","","","","","","","","","",""
"","","","","","html-button-response","147","491398","0.0-147.0","","4215","<div class=""stimulus-container""><img src=""images/semantic_sequence/self_care_activities_semantic/self_care_activities_semantic_4.png"" class=""exp-image""><div class=""question-area""><p>Is there a person?</p></div></div>","0","observation","self_care_activities_semantic","semantic_sequence","4","","","","","","","","",""
"","","","","","html-keyboard-response","148","495401","0.0-148.0","","null","<div class=""stimulus-container""><img src=""images/semantic_sequence/self_care_activities_semantic/self_care_activities_semantic_5.png"" class=""exp-image""></div>","null","","","","","","","","","","","","",""
"","","","","","html-button-response","149","496737","0.0-149.0","","1335","<div class=""stimulus-container""><img src=""images/semantic_sequence/self_care_activities_semantic/self_care_activities_semantic_5.png"" class=""exp-image""><div class=""question-area""><p>Is there a person?</p></div></div>","0","observation","self_care_activities_semantic","semantic_sequence","5","","","","","","","","",""
"","","","","","html-keyboard-response","150","500739","0.0-150.0","","null","<div class=""stimulus-container""><img src=""images/semantic_sequence/self_care_activities_semantic/self_care_activities_semantic_6.png"" class=""exp-image""></div>","null","","","","","","","","","","","","",""
"","","","","","html-button-response","151","502160","0.0-151.0","","1420","<div class=""stimulus-container""><img src=""images/semantic_sequence/self_care_activities_semantic/self_care_activities_semantic_6.png"" class=""exp-image""><div class=""question-area""><p>Is there a person?</p></div></div>","1","observation","self_care_activities_semantic","semantic_sequence","6","","","","","","","","",""
"","","","","","html-keyboard-response","152","506162","0.0-152.0","","null","<div class=""stimulus-container""><img src=""images/semantic_sequence/self_care_activities_semantic/self_care_activities_semantic_7.png"" class=""exp-image""></div>","null","","","","","","","","","","","","",""
"","","","","","html-button-response","153","507554","0.0-153.0","","1391","<div class=""stimulus-container""><img src=""images/semantic_sequence/self_care_activities_semantic/self_care_activities_semantic_7.png"" class=""exp-image""><div class=""question-area""><p>Is there a person?</p></div></div>","0","observation","self_care_activities_semantic","semantic_sequence","7","","","","","","","","",""
"","","","","","html-keyboard-response","154","511555","0.0-154.0","","null","<div class=""stimulus-container""><img src=""images/semantic_sequence/self_care_activities_semantic/self_care_activities_semantic_8.png"" class=""exp-image""></div>","null","","","","","","","","","","","","",""
"","","","","","html-button-response","155","515392","0.0-155.0","","3836","<div class=""stimulus-container""><img src=""images/semantic_sequence/self_care_activities_semantic/self_care_activities_semantic_8.png"" class=""exp-image""><div class=""question-area""><p>Is there a person?</p></div></div>","0","observation","self_care_activities_semantic","semantic_sequence","8","","","","","","","","",""
"","","","","","html-keyboard-response","156","519394","0.0-156.0","","null","<div class=""stimulus-container""><img src=""images/semantic_sequence/self_care_activities_semantic/self_care_activities_semantic_9.png"" class=""exp-image""></div>","null","","","","","","","","","","","","",""
"","","","","","html-button-response","157","521176","0.0-157.0","","1780","<div class=""stimulus-container""><img src=""images/semantic_sequence/self_care_activities_semantic/self_care_activities_semantic_9.png"" class=""exp-image""><div class=""question-area""><p>Is there a person?</p></div></div>","0","observation","self_care_activities_semantic","semantic_sequence","9","","","","","","","","",""
"","","","","","html-keyboard-response","158","525178","0.0-158.0","","null","<div class=""stimulus-container""><img src=""images/semantic_sequence/self_care_activities_semantic/self_care_activities_semantic_ten.png"" class=""exp-image""></div>","null","","","","","","","","","","","","",""
"","","","","","html-button-response","159","526278","0.0-159.0","","1098","<div class=""stimulus-container""><img src=""images/semantic_sequence/self_care_activities_semantic/self_care_activities_semantic_ten.png"" class=""exp-image""><div class=""question-area""><p>Is there a person?</p></div></div>","0","observation","self_care_activities_semantic","semantic_sequence","ten","","","","","","","","",""
"","","","","","html-keyboard-response","160","528280","0.0-160.0","","null","<div style=""background-color: white; width: 100vw; height: 100vh;""></div>","null","","","","","","","","","","","","",""
"","","","","","html-keyboard-response","161","532282","0.0-161.0","","null","<div class=""stimulus-container""><img src=""images/causal_sequence/dog_causal/dog_causal_1.png"" class=""exp-image""></div>","null","","","","","","","","","","","","",""
"","","","","","html-button-response","162","536480","0.0-162.0","","4197","<div class=""stimulus-container""><img src=""images/causal_sequence/dog_causal/dog_causal_1.png"" class=""exp-image""><div class=""question-area""><p>Is there a person?</p></div></div>","0","observation","dog_causal","causal_sequence","1","","","","","","","","",""
"","","","","","html-keyboard-response","163","540482","0.0-163.0","","null","<div class=""stimulus-container""><img src=""images/causal_sequence/dog_causal/dog_causal_2.png"" class=""exp-image""></div>","null","","","","","","","","","","","","",""
"","","","","","html-button-response","164","541826","0.0-164.0","","1343","<div class=""stimulus-container""><img src=""images/causal_sequence/dog_causal/dog_causal_2.png"" class=""exp-image""><div class=""question-area""><p>Is there a person?</p></div></div>","0","observation","dog_causal","causal_sequence","2","","","","","","","","",""
"","","","","","html-keyboard-response","165","545827","0.0-165.0","","null","<div class=""stimulus-container""><img src=""images/causal_sequence/dog_causal/dog_causal_3.png"" class=""exp-image""></div>","null","","","","","","","","","","","","",""
"","","","","","html-button-response","166","546932","0.0-166.0","","1104","<div class=""stimulus-container""><img src=""images/causal_sequence/dog_causal/dog_causal_3.png"" class=""exp-image""><div class=""question-area""><p>Is there a person?</p></div></div>","0","observation","dog_causal","causal_sequence","3","","","","","","","","",""
"","","","","","html-keyboard-response","167","550934","0.0-167.0","","null","<div class=""stimulus-container""><img src=""images/causal_sequence/dog_causal/dog_causal_4.png"" class=""exp-image""></div>","null","","","","","","","","","","","","",""
"","","","","","html-button-response","168","552238","0.0-168.0","","1303","<div class=""stimulus-container""><img src=""images/causal_sequence/dog_causal/dog_causal_4.png"" class=""exp-image""><div class=""question-area""><p>Is there a person?</p></div></div>","0","observation","dog_causal","causal_sequence","4","","","","","","","","",""
"","","","","","html-keyboard-response","169","556241","0.0-169.0","","null","<div class=""stimulus-container""><img src=""images/causal_sequence/dog_causal/dog_causal_5.png"" class=""exp-image""></div>","null","","","","","","","","","","","","",""
"","","","","","html-button-response","170","557140","0.0-170.0","","898","<div class=""stimulus-container""><img src=""images/causal_sequence/dog_causal/dog_causal_5.png"" class=""exp-image""><div class=""question-area""><p>Is there a person?</p></div></div>","0","observation","dog_causal","causal_sequence","5","","","","","","","","",""
"","","","","","html-keyboard-response","171","561142","0.0-171.0","","null","<div class=""stimulus-container""><img src=""images/causal_sequence/dog_causal/dog_causal_6.png"" class=""exp-image""></div>","null","","","","","","","","","","","","",""
"","","","","","html-button-response","172","563221","0.0-172.0","","2078","<div class=""stimulus-container""><img src=""images/causal_sequence/dog_causal/dog_causal_6.png"" class=""exp-image""><div class=""question-area""><p>Is there a person?</p></div></div>","0","observation","dog_causal","causal_sequence","6","","","","","","","","",""
"","","","","","html-keyboard-response","173","567223","0.0-173.0","","null","<div class=""stimulus-container""><img src=""images/causal_sequence/dog_causal/dog_causal_7.png"" class=""exp-image""></div>","null","","","","","","","","","","","","",""
"","","","","","html-button-response","174","601027","0.0-174.0","","33803","<div class=""stimulus-container""><img src=""images/causal_sequence/dog_causal/dog_causal_7.png"" class=""exp-image""><div class=""question-area""><p>Is there a person?</p></div></div>","0","observation","dog_causal","causal_sequence","7","","","","","","","","",""
"","","","","","html-keyboard-response","175","605028","0.0-175.0","","null","<div class=""stimulus-container""><img src=""images/causal_sequence/dog_causal/dog_causal_8.png"" class=""exp-image""></div>","null","","","","","","","","","","","","",""
"","","","","","html-button-response","176","606199","0.0-176.0","","1171","<div class=""stimulus-container""><img src=""images/causal_sequence/dog_causal/dog_causal_8.png"" class=""exp-image""><div class=""question-area""><p>Is there a person?</p></div></div>","0","observation","dog_causal","causal_sequence","8","","","","","","","","",""
"","","","","","html-keyboard-response","177","610202","0.0-177.0","","null","<div class=""stimulus-container""><img src=""images/causal_sequence/dog_causal/dog_causal_9.png"" class=""exp-image""></div>","null","","","","","","","","","","","","",""
"","","","","","html-button-response","178","620334","0.0-178.0","","10131","<div class=""stimulus-container""><img src=""images/causal_sequence/dog_causal/dog_causal_9.png"" class=""exp-image""><div class=""question-area""><p>Is there a person?</p></div></div>","0","observation","dog_causal","causal_sequence","9","","","","","","","","",""
"","","","","","html-keyboard-response","179","624337","0.0-179.0","","null","<div class=""stimulus-container""><img src=""images/causal_sequence/dog_causal/dog_causal_ten.png"" class=""exp-image""></div>","null","","","","","","","","","","","","",""
"","","","","","html-button-response","180","628001","0.0-180.0","","3663","<div class=""stimulus-container""><img src=""images/causal_sequence/dog_causal/dog_causal_ten.png"" class=""exp-image""><div class=""question-area""><p>Is there a person?</p></div></div>","0","observation","dog_causal","causal_sequence","ten","","","","","","","","",""
"","","","","","html-keyboard-response","181","630004","0.0-181.0","","null","<div style=""background-color: white; width: 100vw; height: 100vh;""></div>","null","","","","","","","","","","","","",""
"","","","","","html-keyboard-response","182","634006","0.0-182.0","","null","<div class=""stimulus-container""><img src=""images/causal_sequence/coin_causal/coin_causal_1.png"" class=""exp-image""></div>","null","","","","","","","","","","","","",""
"","","","","","html-button-response","183","639983","0.0-183.0","","5975","<div class=""stimulus-container""><img src=""images/causal_sequence/coin_causal/coin_causal_1.png"" class=""exp-image""><div class=""question-area""><p>Is there a person?</p></div></div>","0","observation","coin_causal","causal_sequence","1","","","","","","","","",""
"","","","","","html-keyboard-response","184","643985","0.0-184.0","","null","<div class=""stimulus-container""><img src=""images/causal_sequence/coin_causal/coin_causal_2.png"" class=""exp-image""></div>","null","","","","","","","","","","","","",""
"","","","","","html-button-response","185","647199","0.0-185.0","","3213","<div class=""stimulus-container""><img src=""images/causal_sequence/coin_causal/coin_causal_2.png"" class=""exp-image""><div class=""question-area""><p>Is there a person?</p></div></div>","0","observation","coin_causal","causal_sequence","2","","","","","","","","",""
"","","","","","html-keyboard-response","186","651201","0.0-186.0","","null","<div class=""stimulus-container""><img src=""images/causal_sequence/coin_causal/coin_causal_3.png"" class=""exp-image""></div>","null","","","","","","","","","","","","",""
"","","","","","html-button-response","187","659833","0.0-187.0","","8631","<div class=""stimulus-container""><img src=""images/causal_sequence/coin_causal/coin_causal_3.png"" class=""exp-image""><div class=""question-area""><p>Is there a person?</p></div></div>","0","observation","coin_causal","causal_sequence","3","","","","","","","","",""
"","","","","","html-keyboard-response","188","663835","0.0-188.0","","null","<div class=""stimulus-container""><img src=""images/causal_sequence/coin_causal/coin_causal_4.png"" class=""exp-image""></div>","null","","","","","","","","","","","","",""
"","","","","","html-button-response","189","675336","0.0-189.0","","11500","<div class=""stimulus-container""><img src=""images/causal_sequence/coin_causal/coin_causal_4.png"" class=""exp-image""><div class=""question-area""><p>Is there a person?</p></div></div>","0","observation","coin_causal","causal_sequence","4","","","","","","","","",""
"","","","","","html-keyboard-response","190","679338","0.0-190.0","","null","<div class=""stimulus-container""><img src=""images/causal_sequence/coin_causal/coin_causal_5.png"" class=""exp-image""></div>","null","","","","","","","","","","","","",""
"","","","","","html-button-response","191","680545","0.0-191.0","","1206","<div class=""stimulus-container""><img src=""images/causal_sequence/coin_causal/coin_causal_5.png"" class=""exp-image""><div class=""question-area""><p>Is there a person?</p></div></div>","0","observation","coin_causal","causal_sequence","5","","","","","","","","",""
"","","","","","html-keyboard-response","192","684547","0.0-192.0","","null","<div class=""stimulus-container""><img src=""images/causal_sequence/coin_causal/coin_causal_6.png"" class=""exp-image""></div>","null","","","","","","","","","","","","",""
"","","","","","html-button-response","193","685832","0.0-193.0","","1284","<div class=""stimulus-container""><img src=""images/causal_sequence/coin_causal/coin_causal_6.png"" class=""exp-image""><div class=""question-area""><p>Is there a person?</p></div></div>","0","observation","coin_causal","causal_sequence","6","","","","","","","","",""
"","","","","","html-keyboard-response","194","689834","0.0-194.0","","null","<div class=""stimulus-container""><img src=""images/causal_sequence/coin_causal/coin_causal_7.png"" class=""exp-image""></div>","null","","","","","","","","","","","","",""
"","","","","","html-button-response","195","691375","0.0-195.0","","1540","<div class=""stimulus-container""><img src=""images/causal_sequence/coin_causal/coin_causal_7.png"" class=""exp-image""><div class=""question-area""><p>Is there a person?</p></div></div>","1","observation","coin_causal","causal_sequence","7","","","","","","","","",""
"","","","","","html-keyboard-response","196","695377","0.0-196.0","","null","<div class=""stimulus-container""><img src=""images/causal_sequence/coin_causal/coin_causal_8.png"" class=""exp-image""></div>","null","","","","","","","","","","","","",""
"","","","","","html-button-response","197","697102","0.0-197.0","","1725","<div class=""stimulus-container""><img src=""images/causal_sequence/coin_causal/coin_causal_8.png"" class=""exp-image""><div class=""question-area""><p>Is there a person?</p></div></div>","0","observation","coin_causal","causal_sequence","8","","","","","","","","",""
"","","","","","html-keyboard-response","198","701105","0.0-198.0","","null","<div class=""stimulus-container""><img src=""images/causal_sequence/coin_causal/coin_causal_9.png"" class=""exp-image""></div>","null","","","","","","","","","","","","",""
"","","","","","html-button-response","199","705311","0.0-199.0","","4205","<div class=""stimulus-container""><img src=""images/causal_sequence/coin_causal/coin_causal_9.png"" class=""exp-image""><div class=""question-area""><p>Is there a person?</p></div></div>","0","observation","coin_causal","causal_sequence","9","","","","","","","","",""
"","","","","","html-keyboard-response","200","709313","0.0-200.0","","null","<div class=""stimulus-container""><img src=""images/causal_sequence/coin_causal/coin_causal_ten.png"" class=""exp-image""></div>","null","","","","","","","","","","","","",""
"","","","","","html-button-response","201","715832","0.0-201.0","","6518","<div class=""stimulus-container""><img src=""images/causal_sequence/coin_causal/coin_causal_ten.png"" class=""exp-image""><div class=""question-area""><p>Is there a person?</p></div></div>","0","observation","coin_causal","causal_sequence","ten","","","","","","","","",""
"","","","","","html-keyboard-response","202","717834","0.0-202.0","","null","<div style=""background-color: white; width: 100vw; height: 100vh;""></div>","null","","","","","","","","","","","","",""
"","","","","","html-keyboard-response","203","721836","0.0-203.0","","null","<div class=""stimulus-container""><img src=""images/causal_sequence/saving_a_cat_causal/saving_a_cat_causal_1.png"" class=""exp-image""></div>","null","","","","","","","","","","","","",""
"","","","","","html-button-response","204","727180","0.0-204.0","","5344","<div class=""stimulus-container""><img src=""images/causal_sequence/saving_a_cat_causal/saving_a_cat_causal_1.png"" class=""exp-image""><div class=""question-area""><p>Is there a person?</p></div></div>","0","observation","saving_a_cat_causal","causal_sequence","1","","","","","","","","",""
"","","","","","html-keyboard-response","205","731182","0.0-205.0","","null","<div class=""stimulus-container""><img src=""images/causal_sequence/saving_a_cat_causal/saving_a_cat_causal_2.png"" class=""exp-image""></div>","null","","","","","","","","","","","","",""
"","","","","","html-button-response","206","734657","0.0-206.0","","3474","<div class=""stimulus-container""><img src=""images/causal_sequence/saving_a_cat_causal/saving_a_cat_causal_2.png"" class=""exp-image""><div class=""question-area""><p>Is there a person?</p></div></div>","1","observation","saving_a_cat_causal","causal_sequence","2","","","","","","","","",""
"","","","","","html-keyboard-response","207","738659","0.0-207.0","","null","<div class=""stimulus-container""><img src=""images/causal_sequence/saving_a_cat_causal/saving_a_cat_causal_3.png"" class=""exp-image""></div>","null","","","","","","","","","","","","",""
"","","","","","html-button-response","208","740038","0.0-208.0","","1378","<div class=""stimulus-container""><img src=""images/causal_sequence/saving_a_cat_causal/saving_a_cat_causal_3.png"" class=""exp-image""><div class=""question-area""><p>Is there a person?</p></div></div>","1","observation","saving_a_cat_causal","causal_sequence","3","","","","","","","","",""
"","","","","","html-keyboard-response","209","744039","0.0-209.0","","null","<div class=""stimulus-container""><img src=""images/causal_sequence/saving_a_cat_causal/saving_a_cat_causal_4.png"" class=""exp-image""></div>","null","","","","","","","","","","","","",""
"","","","","","html-button-response","210","744738","0.0-210.0","","698","<div class=""stimulus-container""><img src=""images/causal_sequence/saving_a_cat_causal/saving_a_cat_causal_4.png"" class=""exp-image""><div class=""question-area""><p>Is there a person?</p></div></div>","0","observation","saving_a_cat_causal","causal_sequence","4","","","","","","","","",""
"","","","","","html-keyboard-response","211","748740","0.0-211.0","","null","<div class=""stimulus-container""><img src=""images/causal_sequence/saving_a_cat_causal/saving_a_cat_causal_5.png"" class=""exp-image""></div>","null","","","","","","","","","","","","",""
"","","","","","html-button-response","212","749506","0.0-212.0","","764","<div class=""stimulus-container""><img src=""images/causal_sequence/saving_a_cat_causal/saving_a_cat_causal_5.png"" class=""exp-image""><div class=""question-area""><p>Is there a person?</p></div></div>","0","observation","saving_a_cat_causal","causal_sequence","5","","","","","","","","",""
"","","","","","html-keyboard-response","213","753507","0.0-213.0","","null","<div class=""stimulus-container""><img src=""images/causal_sequence/saving_a_cat_causal/saving_a_cat_causal_6.png"" class=""exp-image""></div>","null","","","","","","","","","","","","",""
"","","","","","html-button-response","214","754837","0.0-214.0","","1329","<div class=""stimulus-container""><img src=""images/causal_sequence/saving_a_cat_causal/saving_a_cat_causal_6.png"" class=""exp-image""><div class=""question-area""><p>Is there a person?</p></div></div>","0","observation","saving_a_cat_causal","causal_sequence","6","","","","","","","","",""
"","","","","","html-keyboard-response","215","758839","0.0-215.0","","null","<div class=""stimulus-container""><img src=""images/causal_sequence/saving_a_cat_causal/saving_a_cat_causal_7.png"" class=""exp-image""></div>","null","","","","","","","","","","","","",""
"","","","","","html-button-response","216","761327","0.0-216.0","","2487","<div class=""stimulus-container""><img src=""images/causal_sequence/saving_a_cat_causal/saving_a_cat_causal_7.png"" class=""exp-image""><div class=""question-area""><p>Is there a person?</p></div></div>","0","observation","saving_a_cat_causal","causal_sequence","7","","","","","","","","",""
"","","","","","html-keyboard-response","217","765329","0.0-217.0","","null","<div class=""stimulus-container""><img src=""images/causal_sequence/saving_a_cat_causal/saving_a_cat_causal_8.png"" class=""exp-image""></div>","null","","","","","","","","","","","","",""
"","","","","","html-button-response","218","767028","0.0-218.0","","1698","<div class=""stimulus-container""><img src=""images/causal_sequence/saving_a_cat_causal/saving_a_cat_causal_8.png"" class=""exp-image""><div class=""question-area""><p>Is there a person?</p></div></div>","0","observation","saving_a_cat_causal","causal_sequence","8","","","","","","","","",""
"","","","","","html-keyboard-response","219","771031","0.0-219.0","","null","<div class=""stimulus-container""><img src=""images/causal_sequence/saving_a_cat_causal/saving_a_cat_causal_9.png"" class=""exp-image""></div>","null","","","","","","","","","","","","",""
"","","","","","html-button-response","220","772626","0.0-220.0","","1595","<div class=""stimulus-container""><img src=""images/causal_sequence/saving_a_cat_causal/saving_a_cat_causal_9.png"" class=""exp-image""><div class=""question-area""><p>Is there a person?</p></div></div>","0","observation","saving_a_cat_causal","causal_sequence","9","","","","","","","","",""
"","","","","","html-keyboard-response","221","776629","0.0-221.0","","null","<div class=""stimulus-container""><img src=""images/causal_sequence/saving_a_cat_causal/saving_a_cat_causal_ten.png"" class=""exp-image""></div>","null","","","","","","","","","","","","",""
"","","","","","html-button-response","222","777272","0.0-222.0","","642","<div class=""stimulus-container""><img src=""images/causal_sequence/saving_a_cat_causal/saving_a_cat_causal_ten.png"" class=""exp-image""><div class=""question-area""><p>Is there a person?</p></div></div>","0","observation","saving_a_cat_causal","causal_sequence","ten","","","","","","","","",""
"","","","","","html-keyboard-response","223","779274","0.0-223.0","","null","<div style=""background-color: white; width: 100vw; height: 100vh;""></div>","null","","","","","","","","","","","","",""
"","","","","","html-keyboard-response","224","783810","0.0-224.0","","null","<div class=""stimulus-container""><img src=""images/causal_sequence/museum_causal/museum_causal_1.png"" class=""exp-image""></div>","null","","","","","","","","","","","","",""
"","","","","","html-button-response","225","786965","0.0-225.0","","3152","<div class=""stimulus-container""><img src=""images/causal_sequence/museum_causal/museum_causal_1.png"" class=""exp-image""><div class=""question-area""><p>Is there a person?</p></div></div>","0","observation","museum_causal","causal_sequence","1","","","","","","","","",""
"","","","","","html-keyboard-response","226","790968","0.0-226.0","","null","<div class=""stimulus-container""><img src=""images/causal_sequence/museum_causal/museum_causal_2.png"" class=""exp-image""></div>","null","","","","","","","","","","","","",""
"","","","","","html-button-response","227","791742","0.0-227.0","","773","<div class=""stimulus-container""><img src=""images/causal_sequence/museum_causal/museum_causal_2.png"" class=""exp-image""><div class=""question-area""><p>Is there a person?</p></div></div>","0","observation","museum_causal","causal_sequence","2","","","","","","","","",""
"","","","","","html-keyboard-response","228","795743","0.0-228.0","","null","<div class=""stimulus-container""><img src=""images/causal_sequence/museum_causal/museum_causal_3.png"" class=""exp-image""></div>","null","","","","","","","","","","","","",""
"","","","","","html-button-response","229","796986","0.0-229.0","","1242","<div class=""stimulus-container""><img src=""images/causal_sequence/museum_causal/museum_causal_3.png"" class=""exp-image""><div class=""question-area""><p>Is there a person?</p></div></div>","0","observation","museum_causal","causal_sequence","3","","","","","","","","",""
"","","","","","html-keyboard-response","230","800987","0.0-230.0","","null","<div class=""stimulus-container""><img src=""images/causal_sequence/museum_causal/museum_causal_4.png"" class=""exp-image""></div>","null","","","","","","","","","","","","",""
"","","","","","html-button-response","231","801699","0.0-231.0","","711","<div class=""stimulus-container""><img src=""images/causal_sequence/museum_causal/museum_causal_4.png"" class=""exp-image""><div class=""question-area""><p>Is there a person?</p></div></div>","1","observation","museum_causal","causal_sequence","4","","","","","","","","",""
"","","","","","html-keyboard-response","232","805702","0.0-232.0","","null","<div class=""stimulus-container""><img src=""images/causal_sequence/museum_causal/museum_causal_5.png"" class=""exp-image""></div>","null","","","","","","","","","","","","",""
"","","","","","html-button-response","233","806863","0.0-233.0","","1161","<div class=""stimulus-container""><img src=""images/causal_sequence/museum_causal/museum_causal_5.png"" class=""exp-image""><div class=""question-area""><p>Is there a person?</p></div></div>","0","observation","museum_causal","causal_sequence","5","","","","","","","","",""
"","","","","","html-keyboard-response","234","810866","0.0-234.0","","null","<div class=""stimulus-container""><img src=""images/causal_sequence/museum_causal/museum_causal_6.png"" class=""exp-image""></div>","null","","","","","","","","","","","","",""
"","","","","","html-button-response","235","812602","0.0-235.0","","1735","<div class=""stimulus-container""><img src=""images/causal_sequence/museum_causal/museum_causal_6.png"" class=""exp-image""><div class=""question-area""><p>Is there a person?</p></div></div>","0","observation","museum_causal","causal_sequence","6","","","","","","","","",""
"","","","","","html-keyboard-response","236","816604","0.0-236.0","","null","<div class=""stimulus-container""><img src=""images/causal_sequence/museum_causal/museum_causal_7.png"" class=""exp-image""></div>","null","","","","","","","","","","","","",""
"","","","","","html-button-response","237","817783","0.0-237.0","","1178","<div class=""stimulus-container""><img src=""images/causal_sequence/museum_causal/museum_causal_7.png"" class=""exp-image""><div class=""question-area""><p>Is there a person?</p></div></div>","1","observation","museum_causal","causal_sequence","7","","","","","","","","",""
"","","","","","html-keyboard-response","238","821784","0.0-238.0","","null","<div class=""stimulus-container""><img src=""images/causal_sequence/museum_causal/museum_causal_8.png"" class=""exp-image""></div>","null","","","","","","","","","","","","",""
"","","","","","html-button-response","239","822928","0.0-239.0","","1143","<div class=""stimulus-container""><img src=""images/causal_sequence/museum_causal/museum_causal_8.png"" class=""exp-image""><div class=""question-area""><p>Is there a person?</p></div></div>","0","observation","museum_causal","causal_sequence","8","","","","","","","","",""
"","","","","","html-keyboard-response","240","826930","0.0-240.0","","null","<div class=""stimulus-container""><img src=""images/causal_sequence/museum_causal/museum_causal_9.png"" class=""exp-image""></div>","null","","","","","","","","","","","","",""
"","","","","","html-button-response","241","827655","0.0-241.0","","724","<div class=""stimulus-container""><img src=""images/causal_sequence/museum_causal/museum_causal_9.png"" class=""exp-image""><div class=""question-area""><p>Is there a person?</p></div></div>","1","observation","museum_causal","causal_sequence","9","","","","","","","","",""
"","","","","","html-keyboard-response","242","831657","0.0-242.0","","null","<div class=""stimulus-container""><img src=""images/causal_sequence/museum_causal/museum_causal_ten.png"" class=""exp-image""></div>","null","","","","","","","","","","","","",""
"","","","","","html-button-response","243","832581","0.0-243.0","","923","<div class=""stimulus-container""><img src=""images/causal_sequence/museum_causal/museum_causal_ten.png"" class=""exp-image""><div class=""question-area""><p>Is there a person?</p></div></div>","0","observation","museum_causal","causal_sequence","ten","","","","","","","","",""
"","","","","","html-keyboard-response","244","834584","0.0-244.0","","null","<div style=""background-color: white; width: 100vw; height: 100vh;""></div>","null","","","","","","","","","","","","",""
"","","","","","html-keyboard-response","245","838585","0.0-245.0","","null","<div class=""stimulus-container""><img src=""images/causal_sequence/package_causal/package_causal_1.png"" class=""exp-image""></div>","null","","","","","","","","","","","","",""
"","","","","","html-button-response","246","839732","0.0-246.0","","1146","<div class=""stimulus-container""><img src=""images/causal_sequence/package_causal/package_causal_1.png"" class=""exp-image""><div class=""question-area""><p>Is there a person?</p></div></div>","0","observation","package_causal","causal_sequence","1","","","","","","","","",""
"","","","","","html-keyboard-response","247","843735","0.0-247.0","","null","<div class=""stimulus-container""><img src=""images/causal_sequence/package_causal/package_causal_2.png"" class=""exp-image""></div>","null","","","","","","","","","","","","",""
"","","","","","html-button-response","248","844731","0.0-248.0","","995","<div class=""stimulus-container""><img src=""images/causal_sequence/package_causal/package_causal_2.png"" class=""exp-image""><div class=""question-area""><p>Is there a person?</p></div></div>","0","observation","package_causal","causal_sequence","2","","","","","","","","",""
"","","","","","html-keyboard-response","249","848733","0.0-249.0","","null","<div class=""stimulus-container""><img src=""images/causal_sequence/package_causal/package_causal_3.png"" class=""exp-image""></div>","null","","","","","","","","","","","","",""
"","","","","","html-button-response","250","851877","0.0-250.0","","3144","<div class=""stimulus-container""><img src=""images/causal_sequence/package_causal/package_causal_3.png"" class=""exp-image""><div class=""question-area""><p>Is there a person?</p></div></div>","0","observation","package_causal","causal_sequence","3","","","","","","","","",""
"","","","","","html-keyboard-response","251","855880","0.0-251.0","","null","<div class=""stimulus-container""><img src=""images/causal_sequence/package_causal/package_causal_4.png"" class=""exp-image""></div>","null","","","","","","","","","","","","",""
"","","","","","html-button-response","252","857103","0.0-252.0","","1222","<div class=""stimulus-container""><img src=""images/causal_sequence/package_causal/package_causal_4.png"" class=""exp-image""><div class=""question-area""><p>Is there a person?</p></div></div>","1","observation","package_causal","causal_sequence","4","","","","","","","","",""
"","","","","","html-keyboard-response","253","861105","0.0-253.0","","null","<div class=""stimulus-container""><img src=""images/causal_sequence/package_causal/package_causal_5.png"" class=""exp-image""></div>","null","","","","","","","","","","","","",""
"","","","","","html-button-response","254","863041","0.0-254.0","","1935","<div class=""stimulus-container""><img src=""images/causal_sequence/package_causal/package_causal_5.png"" class=""exp-image""><div class=""question-area""><p>Is there a person?</p></div></div>","0","observation","package_causal","causal_sequence","5","","","","","","","","",""
"","","","","","html-keyboard-response","255","867043","0.0-255.0","","null","<div class=""stimulus-container""><img src=""images/causal_sequence/package_causal/package_causal_6.png"" class=""exp-image""></div>","null","","","","","","","","","","","","",""
"","","","","","html-button-response","256","870353","0.0-256.0","","3309","<div class=""stimulus-container""><img src=""images/causal_sequence/package_causal/package_causal_6.png"" class=""exp-image""><div class=""question-area""><p>Is there a person?</p></div></div>","0","observation","package_causal","causal_sequence","6","","","","","","","","",""
"","","","","","html-keyboard-response","257","874355","0.0-257.0","","null","<div class=""stimulus-container""><img src=""images/causal_sequence/package_causal/package_causal_7.png"" class=""exp-image""></div>","null","","","","","","","","","","","","",""
"","","","","","html-button-response","258","885251","0.0-258.0","","10895","<div class=""stimulus-container""><img src=""images/causal_sequence/package_causal/package_causal_7.png"" class=""exp-image""><div class=""question-area""><p>Is there a person?</p></div></div>","0","observation","package_causal","causal_sequence","7","","","","","","","","",""
"","","","","","html-keyboard-response","259","889252","0.0-259.0","","null","<div class=""stimulus-container""><img src=""images/causal_sequence/package_causal/package_causal_8.png"" class=""exp-image""></div>","null","","","","","","","","","","","","",""
"","","","","","html-button-response","260","890239","0.0-260.0","","987","<div class=""stimulus-container""><img src=""images/causal_sequence/package_causal/package_causal_8.png"" class=""exp-image""><div class=""question-area""><p>Is there a person?</p></div></div>","0","observation","package_causal","causal_sequence","8","","","","","","","","",""
"","","","","","html-keyboard-response","261","894242","0.0-261.0","","null","<div class=""stimulus-container""><img src=""images/causal_sequence/package_causal/package_causal_9.png"" class=""exp-image""></div>","null","","","","","","","","","","","","",""
"","","","","","html-button-response","262","895767","0.0-262.0","","1524","<div class=""stimulus-container""><img src=""images/causal_sequence/package_causal/package_causal_9.png"" class=""exp-image""><div class=""question-area""><p>Is there a person?</p></div></div>","0","observation","package_causal","causal_sequence","9","","","","","","","","",""
"","","","","","html-keyboard-response","263","899768","0.0-263.0","","null","<div class=""stimulus-container""><img src=""images/causal_sequence/package_causal/package_causal_ten.png"" class=""exp-image""></div>","null","","","","","","","","","","","","",""
"","","","","","html-button-response","264","901093","0.0-264.0","","1324","<div class=""stimulus-container""><img src=""images/causal_sequence/package_causal/package_causal_ten.png"" class=""exp-image""><div class=""question-area""><p>Is there a person?</p></div></div>","0","observation","package_causal","causal_sequence","ten","","","","","","","","",""
"","","","","","instructions","265","905503","0.0-265.0","[{""page_index"":0,""viewing_time"":4409}]","4410","","","","","","","","","","","","","","",""
"","","","","","html-button-response","266","909891","0.0-266.0","","4386","<div class=""stimulus-container""><img src=""images/semantic_sequence/housework_semantic/housework_semantic_6.png"" class=""exp-image""><div style=""height:100px;""></div></div>","0","","","","","","","","","","","","",""
"","","","","","html-keyboard-response","267","913893","0.0-267.0","","null","
                <div class=""stimulus-container"" style=""display:flex; align-items:center; justify-content:center; gap:40px;"">
                    <img src=""images/semantic_sequence/housework_semantic/housework_semantic_6.png"" class=""exp-image"">
                    <div style=""text-align:center;"">
                        <img src=""images/gray.png"" style=""width:150px; border:5px solid grey; border-radius:15px;"">
                        <p style=""color:grey; font-weight:bold; font-size:28px;"">NEUTRAL</p>
                    </div>
                </div>","null","value_learning","housework_semantic","","","neutral","6","","","","","","",""
"","","","","","html-button-response","268","916155","0.0-268.0","","2261","<div class=""stimulus-container""><img src=""images/causal_sequence/coin_causal/coin_causal_5.png"" class=""exp-image""><div style=""height:100px;""></div></div>","0","","","","","","","","","","","","",""
"","","","","","html-keyboard-response","269","920157","0.0-269.0","","null","
                <div class=""stimulus-container"" style=""display:flex; align-items:center; justify-content:center; gap:40px;"">
                    <img src=""images/causal_sequence/coin_causal/coin_causal_5.png"" class=""exp-image"">
                    <div style=""text-align:center;"">
                        <img src=""images/gray.png"" style=""width:150px; border:5px solid grey; border-radius:15px;"">
                        <p style=""color:grey; font-weight:bold; font-size:28px;"">NEUTRAL</p>
                    </div>
                </div>","null","value_learning","coin_causal","","","neutral","5","","","","","","",""
"","","","","","html-button-response","270","921204","0.0-270.0","","1046","<div class=""stimulus-container""><img src=""images/semantic_sequence/physical_activity_semantic/physical_activity_semantic_5.png"" class=""exp-image""><div style=""height:100px;""></div></div>","0","","","","","","","","","","","","",""
"","","","","","html-keyboard-response","271","925206","0.0-271.0","","null","
                <div class=""stimulus-container"" style=""display:flex; align-items:center; justify-content:center; gap:40px;"">
                    <img src=""images/semantic_sequence/physical_activity_semantic/physical_activity_semantic_5.png"" class=""exp-image"">
                    <div style=""text-align:center;"">
                        <img src=""images/dollar.png"" style=""width:150px; border:5px solid green; border-radius:15px;"">
                        <p style=""color:green; font-weight:bold; font-size:28px;"">WORTH MONEY</p>
                    </div>
                </div>","null","value_learning","physical_activity_semantic","","","valuable","5","","","","","","",""
"","","","","","html-button-response","272","926342","0.0-272.0","","1135","<div class=""stimulus-container""><img src=""images/semantic_sequence/visiting_cities_semantic/visiting_cities_semantic_6.png"" class=""exp-image""><div style=""height:100px;""></div></div>","0","","","","","","","","","","","","",""
"","","","","","html-keyboard-response","273","930344","0.0-273.0","","null","
                <div class=""stimulus-container"" style=""display:flex; align-items:center; justify-content:center; gap:40px;"">
                    <img src=""images/semantic_sequence/visiting_cities_semantic/visiting_cities_semantic_6.png"" class=""exp-image"">
                    <div style=""text-align:center;"">
                        <img src=""images/gray.png"" style=""width:150px; border:5px solid grey; border-radius:15px;"">
                        <p style=""color:grey; font-weight:bold; font-size:28px;"">NEUTRAL</p>
                    </div>
                </div>","null","value_learning","visiting_cities_semantic","","","neutral","6","","","","","","",""
"","","","","","html-button-response","274","930980","0.0-274.0","","635","<div class=""stimulus-container""><img src=""images/semantic_sequence/self_care_activities_semantic/self_care_activities_semantic_5.png"" class=""exp-image""><div style=""height:100px;""></div></div>","0","","","","","","","","","","","","",""
"","","","","","html-keyboard-response","275","934982","0.0-275.0","","null","
                <div class=""stimulus-container"" style=""display:flex; align-items:center; justify-content:center; gap:40px;"">
                    <img src=""images/semantic_sequence/self_care_activities_semantic/self_care_activities_semantic_5.png"" class=""exp-image"">
                    <div style=""text-align:center;"">
                        <img src=""images/gray.png"" style=""width:150px; border:5px solid grey; border-radius:15px;"">
                        <p style=""color:grey; font-weight:bold; font-size:28px;"">NEUTRAL</p>
                    </div>
                </div>","null","value_learning","self_care_activities_semantic","","","neutral","5","","","","","","",""
"","","","","","html-button-response","276","935874","0.0-276.0","","892","<div class=""stimulus-container""><img src=""images/semantic_sequence/kitchen_operations_semantic/kitchen_operations_semantic_5.png"" class=""exp-image""><div style=""height:100px;""></div></div>","0","","","","","","","","","","","","",""
"","","","","","html-keyboard-response","277","939877","0.0-277.0","","null","
                <div class=""stimulus-container"" style=""display:flex; align-items:center; justify-content:center; gap:40px;"">
                    <img src=""images/semantic_sequence/kitchen_operations_semantic/kitchen_operations_semantic_5.png"" class=""exp-image"">
                    <div style=""text-align:center;"">
                        <img src=""images/dollar.png"" style=""width:150px; border:5px solid green; border-radius:15px;"">
                        <p style=""color:green; font-weight:bold; font-size:28px;"">WORTH MONEY</p>
                    </div>
                </div>","null","value_learning","kitchen_operations_semantic","","","valuable","5","","","","","","",""
"","","","","","html-button-response","278","941249","0.0-278.0","","1370","<div class=""stimulus-container""><img src=""images/semantic_sequence/maintaining_a_car_semantic/maintaining_a_car_semantic_6.png"" class=""exp-image""><div style=""height:100px;""></div></div>","0","","","","","","","","","","","","",""
"","","","","","html-keyboard-response","279","945251","0.0-279.0","","null","
                <div class=""stimulus-container"" style=""display:flex; align-items:center; justify-content:center; gap:40px;"">
                    <img src=""images/semantic_sequence/maintaining_a_car_semantic/maintaining_a_car_semantic_6.png"" class=""exp-image"">
                    <div style=""text-align:center;"">
                        <img src=""images/dollar.png"" style=""width:150px; border:5px solid green; border-radius:15px;"">
                        <p style=""color:green; font-weight:bold; font-size:28px;"">WORTH MONEY</p>
                    </div>
                </div>","null","value_learning","maintaining_a_car_semantic","","","valuable","6","","","","","","",""
"","","","","","html-button-response","280","946288","0.0-280.0","","1037","<div class=""stimulus-container""><img src=""images/causal_sequence/package_causal/package_causal_7.png"" class=""exp-image""><div style=""height:100px;""></div></div>","0","","","","","","","","","","","","",""
"","","","","","html-keyboard-response","281","950291","0.0-281.0","","null","
                <div class=""stimulus-container"" style=""display:flex; align-items:center; justify-content:center; gap:40px;"">
                    <img src=""images/causal_sequence/package_causal/package_causal_7.png"" class=""exp-image"">
                    <div style=""text-align:center;"">
                        <img src=""images/dollar.png"" style=""width:150px; border:5px solid green; border-radius:15px;"">
                        <p style=""color:green; font-weight:bold; font-size:28px;"">WORTH MONEY</p>
                    </div>
                </div>","null","value_learning","package_causal","","","valuable","7","","","","","","",""
"","","","","","html-button-response","282","951458","0.0-282.0","","1166","<div class=""stimulus-container""><img src=""images/causal_sequence/saving_a_cat_causal/saving_a_cat_causal_7.png"" class=""exp-image""><div style=""height:100px;""></div></div>","0","","","","","","","","","","","","",""
"","","","","","html-keyboard-response","283","955460","0.0-283.0","","null","
                <div class=""stimulus-container"" style=""display:flex; align-items:center; justify-content:center; gap:40px;"">
                    <img src=""images/causal_sequence/saving_a_cat_causal/saving_a_cat_causal_7.png"" class=""exp-image"">
                    <div style=""text-align:center;"">
                        <img src=""images/dollar.png"" style=""width:150px; border:5px solid green; border-radius:15px;"">
                        <p style=""color:green; font-weight:bold; font-size:28px;"">WORTH MONEY</p>
                    </div>
                </div>","null","value_learning","saving_a_cat_causal","","","valuable","7","","","","","","",""
"","","","","","html-button-response","284","957108","0.0-284.0","","1648","<div class=""stimulus-container""><img src=""images/causal_sequence/the_performance_causal/the_performance_causal_7.png"" class=""exp-image""><div style=""height:100px;""></div></div>","0","","","","","","","","","","","","",""
"","","","","","html-keyboard-response","285","961111","0.0-285.0","","null","
                <div class=""stimulus-container"" style=""display:flex; align-items:center; justify-content:center; gap:40px;"">
                    <img src=""images/causal_sequence/the_performance_causal/the_performance_causal_7.png"" class=""exp-image"">
                    <div style=""text-align:center;"">
                        <img src=""images/dollar.png"" style=""width:150px; border:5px solid green; border-radius:15px;"">
                        <p style=""color:green; font-weight:bold; font-size:28px;"">WORTH MONEY</p>
                    </div>
                </div>","null","value_learning","the_performance_causal","","","valuable","7","","","","","","",""
"","","","","","html-button-response","286","962401","0.0-286.0","","1289","<div class=""stimulus-container""><img src=""images/causal_sequence/museum_causal/museum_causal_4.png"" class=""exp-image""><div style=""height:100px;""></div></div>","0","","","","","","","","","","","","",""
"","","","","","html-keyboard-response","287","966403","0.0-287.0","","null","
                <div class=""stimulus-container"" style=""display:flex; align-items:center; justify-content:center; gap:40px;"">
                    <img src=""images/causal_sequence/museum_causal/museum_causal_4.png"" class=""exp-image"">
                    <div style=""text-align:center;"">
                        <img src=""images/gray.png"" style=""width:150px; border:5px solid grey; border-radius:15px;"">
                        <p style=""color:grey; font-weight:bold; font-size:28px;"">NEUTRAL</p>
                    </div>
                </div>","null","value_learning","museum_causal","","","neutral","4","","","","","","",""
"","","","","","html-button-response","288","968418","0.0-288.0","","2014","<div class=""stimulus-container""><img src=""images/causal_sequence/dog_causal/dog_causal_4.png"" class=""exp-image""><div style=""height:100px;""></div></div>","0","","","","","","","","","","","","",""
"","","","","","html-keyboard-response","289","972420","0.0-289.0","","null","
                <div class=""stimulus-container"" style=""display:flex; align-items:center; justify-content:center; gap:40px;"">
                    <img src=""images/causal_sequence/dog_causal/dog_causal_4.png"" class=""exp-image"">
                    <div style=""text-align:center;"">
                        <img src=""images/gray.png"" style=""width:150px; border:5px solid grey; border-radius:15px;"">
                        <p style=""color:grey; font-weight:bold; font-size:28px;"">NEUTRAL</p>
                    </div>
                </div>","null","value_learning","dog_causal","","","neutral","4","","","","","","",""
"","","","","","instructions","290","984763","0.0-290.0","[{""page_index"":0,""viewing_time"":12342}]","12343","","","","","","","","","","","","","","",""
"","","","","","html-keyboard-response","291","987765","0.0-291.0-0.0","","null","<div style=""font-family: Arial; margin-bottom: 20px;""><h3>Which image is worth <b>more money</b>?</h3></div>
                                    <div class=""stimulus-container"" style=""display: flex; width: 800px; justify-content: center; gap: 30px;"">
                                        <img src=""images/causal_sequence/coin_causal/coin_causal_7.png"" class=""small-image"">
                                        <img src=""images/causal_sequence/coin_causal/coin_causal_2.png"" class=""small-image"">
                                    </div>","null","","","","","","","","","","","","",""
"","","","","","html-button-response","292","989424","0.0-291.0-1.0","","1658","<h3>Which image is worth <b>more money</b>?</h3>","1","choice_test","coin_causal","","","","","5","2","-3","2","-3","0",""
"","","","","","html-keyboard-response","293","992427","0.0-292.0-0.0","","null","<div style=""font-family: Arial; margin-bottom: 20px;""><h3>Which image is worth <b>more money</b>?</h3></div>
                                    <div class=""stimulus-container"" style=""display: flex; width: 800px; justify-content: center; gap: 30px;"">
                                        <img src=""images/semantic_sequence/kitchen_operations_semantic/kitchen_operations_semantic_2.png"" class=""small-image"">
                                        <img src=""images/semantic_sequence/kitchen_operations_semantic/kitchen_operations_semantic_7.png"" class=""small-image"">
                                    </div>","null","","","","","","","","","","","","",""
"","","","","","html-button-response","294","993571","0.0-292.0-1.0","","1143","<h3>Which image is worth <b>more money</b>?</h3>","1","choice_test","kitchen_operations_semantic","","","","","5","-3","2","7","2","1",""
"","","","","","html-keyboard-response","295","996573","0.0-293.0-0.0","","null","<div style=""font-family: Arial; margin-bottom: 20px;""><h3>Which image is worth <b>more money</b>?</h3></div>
                                    <div class=""stimulus-container"" style=""display: flex; width: 800px; justify-content: center; gap: 30px;"">
                                        <img src=""images/semantic_sequence/physical_activity_semantic/physical_activity_semantic_4.png"" class=""small-image"">
                                        <img src=""images/semantic_sequence/physical_activity_semantic/physical_activity_semantic_8.png"" class=""small-image"">
                                    </div>","null","","","","","","","","","","","","",""
"","","","","","html-button-response","296","997430","0.0-293.0-1.0","","856","<h3>Which image is worth <b>more money</b>?</h3>","0","choice_test","physical_activity_semantic","","","","","5","-1","3","4","-1","0",""
"","","","","","html-keyboard-response","297","1000432","0.0-294.0-0.0","","null","<div style=""font-family: Arial; margin-bottom: 20px;""><h3>Which image is worth <b>more money</b>?</h3></div>
                                    <div class=""stimulus-container"" style=""display: flex; width: 800px; justify-content: center; gap: 30px;"">
                                        <img src=""images/causal_sequence/package_causal/package_causal_ten.png"" class=""small-image"">
                                        <img src=""images/causal_sequence/package_causal/package_causal_6.png"" class=""small-image"">
                                    </div>","null","","","","","","","","","","","","",""
"","","","","","html-button-response","298","1001308","0.0-294.0-1.0","","875","<h3>Which image is worth <b>more money</b>?</h3>","0","choice_test","package_causal","","","","","7","3","-1","10","3","1",""
"","","","","","html-keyboard-response","299","1004310","0.0-295.0-0.0","","null","<div style=""font-family: Arial; margin-bottom: 20px;""><h3>Which image is worth <b>more money</b>?</h3></div>
                                    <div class=""stimulus-container"" style=""display: flex; width: 800px; justify-content: center; gap: 30px;"">
                                        <img src=""images/semantic_sequence/self_care_activities_semantic/self_care_activities_semantic_2.png"" class=""small-image"">
