"success","timeout","failed_images","failed_audio","failed_video","trial_type","trial_index","time_elapsed","internal_node_id","subject_id","study_id","session_id","view_history","rt","stimulus","response","task","image_index","folder","valuable_image_index","valuable_X","chosen_image_index","distance_from_X"
"false","false","[]","[]","[]","preload","0","3082","0.0-0.0","112C874A37CE4F2F82B72F0D85A39016","019ce7b8-b0f2-7817-9567-a14ec7dc1f10","019ce7a0-0965-7aa7-a556-174d32a8e773","","","","","","","","","","",""
"","","","","","instructions","1","4423","0.0-1.0","112C874A37CE4F2F82B72F0D85A39016","019ce7b8-b0f2-7817-9567-a14ec7dc1f10","019ce7a0-0965-7aa7-a556-174d32a8e773","[{""page_index"":0,""viewing_time"":1340}]","1340","","","","","","","","",""
"","","","","","instructions","2","7968","0.0-2.0","112C874A37CE4F2F82B72F0D85A39016","019ce7b8-b0f2-7817-9567-a14ec7dc1f10","019ce7a0-0965-7aa7-a556-174d32a8e773","[{""page_index"":0,""viewing_time"":3544}]","3545","","","","","","","","",""
"true","","","","","fullscreen","3","10380","0.0-3.0","112C874A37CE4F2F82B72F0D85A39016","019ce7b8-b0f2-7817-9567-a14ec7dc1f10","019ce7a0-0965-7aa7-a556-174d32a8e773","","1402","","","","","","","","",""
"","","","","","instructions","4","13563","0.0-4.0","112C874A37CE4F2F82B72F0D85A39016","019ce7b8-b0f2-7817-9567-a14ec7dc1f10","019ce7a0-0965-7aa7-a556-174d32a8e773","[{""page_index"":0,""viewing_time"":3182}]","3183","","","","","","","","",""
"","","","","","instructions","5","15330","0.0-5.0","112C874A37CE4F2F82B72F0D85A39016","019ce7b8-b0f2-7817-9567-a14ec7dc1f10","019ce7a0-0965-7aa7-a556-174d32a8e773","[{""page_index"":0,""viewing_time"":1765}]","1765","","","","","","","","",""
"","","","","","html-keyboard-response","6","19343","0.0-6.0","112C874A37CE4F2F82B72F0D85A39016","019ce7b8-b0f2-7817-9567-a14ec7dc1f10","019ce7a0-0965-7aa7-a556-174d32a8e773","","null","
                <div class=""stimulus-container"">
                    <img src=""images/instructions/movie_1.png"" class=""exp-image"">
                    <div class=""question-area""></div> 
                </div>","null","","","","","","",""
"","","","","","html-button-response","7","21872","0.0-7.0","112C874A37CE4F2F82B72F0D85A39016","019ce7b8-b0f2-7817-9567-a14ec7dc1f10","019ce7a0-0965-7aa7-a556-174d32a8e773","","2526","
                <div class=""stimulus-container"">
                    <img src=""images/instructions/movie_1.png"" class=""exp-image"">
                    <div class=""question-area"">
                        <p style=""font-size: 20px; font-weight: bold; margin: 0;"">Was there a person in this image?</p>
                    </div>
                </div>","0","example_question","1","","","","",""
"","","","","","html-keyboard-response","8","25886","0.0-8.0","112C874A37CE4F2F82B72F0D85A39016","019ce7b8-b0f2-7817-9567-a14ec7dc1f10","019ce7a0-0965-7aa7-a556-174d32a8e773","","null","
                <div class=""stimulus-container"">
                    <img src=""images/instructions/movie_2.png"" class=""exp-image"">
                    <div class=""question-area""></div> 
                </div>","null","","","","","","",""
"","","","","","html-button-response","9","26948","0.0-9.0","112C874A37CE4F2F82B72F0D85A39016","019ce7b8-b0f2-7817-9567-a14ec7dc1f10","019ce7a0-0965-7aa7-a556-174d32a8e773","","1059","
                <div class=""stimulus-container"">
                    <img src=""images/instructions/movie_2.png"" class=""exp-image"">
                    <div class=""question-area"">
                        <p style=""font-size: 20px; font-weight: bold; margin: 0;"">Was there a person in this image?</p>
                    </div>
                </div>","0","example_question","2","","","","",""
"","","","","","html-keyboard-response","10","30959","0.0-10.0","112C874A37CE4F2F82B72F0D85A39016","019ce7b8-b0f2-7817-9567-a14ec7dc1f10","019ce7a0-0965-7aa7-a556-174d32a8e773","","null","
                <div class=""stimulus-container"">
                    <img src=""images/instructions/movie_3.png"" class=""exp-image"">
                    <div class=""question-area""></div> 
                </div>","null","","","","","","",""
"","","","","","html-button-response","11","31725","0.0-11.0","112C874A37CE4F2F82B72F0D85A39016","019ce7b8-b0f2-7817-9567-a14ec7dc1f10","019ce7a0-0965-7aa7-a556-174d32a8e773","","764","
                <div class=""stimulus-container"">
                    <img src=""images/instructions/movie_3.png"" class=""exp-image"">
                    <div class=""question-area"">
                        <p style=""font-size: 20px; font-weight: bold; margin: 0;"">Was there a person in this image?</p>
                    </div>
                </div>","0","example_question","3","","","","",""
"","","","","","html-keyboard-response","12","35736","0.0-12.0","112C874A37CE4F2F82B72F0D85A39016","019ce7b8-b0f2-7817-9567-a14ec7dc1f10","019ce7a0-0965-7aa7-a556-174d32a8e773","","null","
                <div class=""stimulus-container"">
                    <img src=""images/instructions/movie_4.png"" class=""exp-image"">
                    <div class=""question-area""></div> 
                </div>","null","","","","","","",""
"","","","","","html-button-response","13","36394","0.0-13.0","112C874A37CE4F2F82B72F0D85A39016","019ce7b8-b0f2-7817-9567-a14ec7dc1f10","019ce7a0-0965-7aa7-a556-174d32a8e773","","655","
                <div class=""stimulus-container"">
                    <img src=""images/instructions/movie_4.png"" class=""exp-image"">
                    <div class=""question-area"">
                        <p style=""font-size: 20px; font-weight: bold; margin: 0;"">Was there a person in this image?</p>
                    </div>
                </div>","0","example_question","4","","","","",""
"","","","","","instructions","14","37981","0.0-14.0","112C874A37CE4F2F82B72F0D85A39016","019ce7b8-b0f2-7817-9567-a14ec7dc1f10","019ce7a0-0965-7aa7-a556-174d32a8e773","[{""page_index"":0,""viewing_time"":1585}]","1586","","","","","","","","",""
"","","","","","html-keyboard-response","15","38994","0.0-15.0","112C874A37CE4F2F82B72F0D85A39016","019ce7b8-b0f2-7817-9567-a14ec7dc1f10","019ce7a0-0965-7aa7-a556-174d32a8e773","","null","<div style=""background-color: gray; width: 100vw; height: 100vh;""></div>","null","","","","","","",""
"","","","","","html-keyboard-response","16","44000","0.0-16.0","112C874A37CE4F2F82B72F0D85A39016","019ce7b8-b0f2-7817-9567-a14ec7dc1f10","019ce7a0-0965-7aa7-a556-174d32a8e773","","null","
                    <div class=""stimulus-container"">
                        <img src=""images/causal_sequence/coin_causal/coin_causal_1.png"" class=""exp-image"">
                        <div class=""question-area""></div> 
                    </div>","null","","","","","","",""
"","","","","","html-button-response","17","45097","0.0-17.0","112C874A37CE4F2F82B72F0D85A39016","019ce7b8-b0f2-7817-9567-a14ec7dc1f10","019ce7a0-0965-7aa7-a556-174d32a8e773","","1095","
                    <div class=""stimulus-container"">
                        <img src=""images/causal_sequence/coin_causal/coin_causal_1.png"" class=""exp-image"">
                        <div class=""question-area"">
                            <p style=""font-size: 20px; font-weight: bold; margin: 0;"">Is there a person in this image?</p>
                        </div>
                    </div>","0","main_causal_task","1","coin_causal","","","",""
"","","","","","html-keyboard-response","18","50102","0.0-18.0","112C874A37CE4F2F82B72F0D85A39016","019ce7b8-b0f2-7817-9567-a14ec7dc1f10","019ce7a0-0965-7aa7-a556-174d32a8e773","","null","
                    <div class=""stimulus-container"">
                        <img src=""images/causal_sequence/coin_causal/coin_causal_2.png"" class=""exp-image"">
                        <div class=""question-area""></div> 
                    </div>","null","","","","","","",""
"","","","","","html-button-response","19","50881","0.0-19.0","112C874A37CE4F2F82B72F0D85A39016","019ce7b8-b0f2-7817-9567-a14ec7dc1f10","019ce7a0-0965-7aa7-a556-174d32a8e773","","777","
                    <div class=""stimulus-container"">
                        <img src=""images/causal_sequence/coin_causal/coin_causal_2.png"" class=""exp-image"">
                        <div class=""question-area"">
                            <p style=""font-size: 20px; font-weight: bold; margin: 0;"">Is there a person in this image?</p>
                        </div>
                    </div>","0","main_causal_task","2","coin_causal","","","",""
"","","","","","html-keyboard-response","20","55890","0.0-20.0","112C874A37CE4F2F82B72F0D85A39016","019ce7b8-b0f2-7817-9567-a14ec7dc1f10","019ce7a0-0965-7aa7-a556-174d32a8e773","","null","
                    <div class=""stimulus-container"">
                        <img src=""images/causal_sequence/coin_causal/coin_causal_3.png"" class=""exp-image"">
                        <div class=""question-area""></div> 
                    </div>","null","","","","","","",""
"","","","","","html-button-response","21","56558","0.0-21.0","112C874A37CE4F2F82B72F0D85A39016","019ce7b8-b0f2-7817-9567-a14ec7dc1f10","019ce7a0-0965-7aa7-a556-174d32a8e773","","667","
                    <div class=""stimulus-container"">
                        <img src=""images/causal_sequence/coin_causal/coin_causal_3.png"" class=""exp-image"">
                        <div class=""question-area"">
                            <p style=""font-size: 20px; font-weight: bold; margin: 0;"">Is there a person in this image?</p>
                        </div>
                    </div>","0","main_causal_task","3","coin_causal","","","",""
"","","","","","html-keyboard-response","22","61570","0.0-22.0","112C874A37CE4F2F82B72F0D85A39016","019ce7b8-b0f2-7817-9567-a14ec7dc1f10","019ce7a0-0965-7aa7-a556-174d32a8e773","","null","
                    <div class=""stimulus-container"">
                        <img src=""images/causal_sequence/coin_causal/coin_causal_4.png"" class=""exp-image"">
                        <div class=""question-area""></div> 
                    </div>","null","","","","","","",""
"","","","","","html-button-response","23","62326","0.0-23.0","112C874A37CE4F2F82B72F0D85A39016","019ce7b8-b0f2-7817-9567-a14ec7dc1f10","019ce7a0-0965-7aa7-a556-174d32a8e773","","754","
                    <div class=""stimulus-container"">
                        <img src=""images/causal_sequence/coin_causal/coin_causal_4.png"" class=""exp-image"">
                        <div class=""question-area"">
                            <p style=""font-size: 20px; font-weight: bold; margin: 0;"">Is there a person in this image?</p>
                        </div>
                    </div>","0","main_causal_task","4","coin_causal","","","",""
"","","","","","html-keyboard-response","24","67342","0.0-24.0","112C874A37CE4F2F82B72F0D85A39016","019ce7b8-b0f2-7817-9567-a14ec7dc1f10","019ce7a0-0965-7aa7-a556-174d32a8e773","","null","
                    <div class=""stimulus-container"">
                        <img src=""images/causal_sequence/coin_causal/coin_causal_5.png"" class=""exp-image"">
                        <div class=""question-area""></div> 
                    </div>","null","","","","","","",""
"","","","","","html-button-response","25","68078","0.0-25.0","112C874A37CE4F2F82B72F0D85A39016","019ce7b8-b0f2-7817-9567-a14ec7dc1f10","019ce7a0-0965-7aa7-a556-174d32a8e773","","734","
                    <div class=""stimulus-container"">
                        <img src=""images/causal_sequence/coin_causal/coin_causal_5.png"" class=""exp-image"">
                        <div class=""question-area"">
                            <p style=""font-size: 20px; font-weight: bold; margin: 0;"">Is there a person in this image?</p>
                        </div>
                    </div>","0","main_causal_task","5","coin_causal","","","",""
"","","","","","html-keyboard-response","26","73094","0.0-26.0","112C874A37CE4F2F82B72F0D85A39016","019ce7b8-b0f2-7817-9567-a14ec7dc1f10","019ce7a0-0965-7aa7-a556-174d32a8e773","","null","
                    <div class=""stimulus-container"">
                        <img src=""images/causal_sequence/coin_causal/coin_causal_6.png"" class=""exp-image"">
                        <div class=""question-area""></div> 
                    </div>","null","","","","","","",""
"","","","","","html-button-response","27","73845","0.0-27.0","112C874A37CE4F2F82B72F0D85A39016","019ce7b8-b0f2-7817-9567-a14ec7dc1f10","019ce7a0-0965-7aa7-a556-174d32a8e773","","748","
                    <div class=""stimulus-container"">
                        <img src=""images/causal_sequence/coin_causal/coin_causal_6.png"" class=""exp-image"">
                        <div class=""question-area"">
                            <p style=""font-size: 20px; font-weight: bold; margin: 0;"">Is there a person in this image?</p>
                        </div>
                    </div>","0","main_causal_task","6","coin_causal","","","",""
"","","","","","html-keyboard-response","28","78846","0.0-28.0","112C874A37CE4F2F82B72F0D85A39016","019ce7b8-b0f2-7817-9567-a14ec7dc1f10","019ce7a0-0965-7aa7-a556-174d32a8e773","","null","
                    <div class=""stimulus-container"">
                        <img src=""images/causal_sequence/coin_causal/coin_causal_7.png"" class=""exp-image"">
                        <div class=""question-area""></div> 
                    </div>","null","","","","","","",""
"","","","","","html-button-response","29","79608","0.0-29.0","112C874A37CE4F2F82B72F0D85A39016","019ce7b8-b0f2-7817-9567-a14ec7dc1f10","019ce7a0-0965-7aa7-a556-174d32a8e773","","759","
                    <div class=""stimulus-container"">
                        <img src=""images/causal_sequence/coin_causal/coin_causal_7.png"" class=""exp-image"">
                        <div class=""question-area"">
                            <p style=""font-size: 20px; font-weight: bold; margin: 0;"">Is there a person in this image?</p>
                        </div>
                    </div>","1","main_causal_task","7","coin_causal","","","",""
"","","","","","html-keyboard-response","30","84621","0.0-30.0","112C874A37CE4F2F82B72F0D85A39016","019ce7b8-b0f2-7817-9567-a14ec7dc1f10","019ce7a0-0965-7aa7-a556-174d32a8e773","","null","
                    <div class=""stimulus-container"">
                        <img src=""images/causal_sequence/coin_causal/coin_causal_8.png"" class=""exp-image"">
                        <div class=""question-area""></div> 
                    </div>","null","","","","","","",""
"","","","","","html-button-response","31","85403","0.0-31.0","112C874A37CE4F2F82B72F0D85A39016","019ce7b8-b0f2-7817-9567-a14ec7dc1f10","019ce7a0-0965-7aa7-a556-174d32a8e773","","780","
                    <div class=""stimulus-container"">
                        <img src=""images/causal_sequence/coin_causal/coin_causal_8.png"" class=""exp-image"">
                        <div class=""question-area"">
                            <p style=""font-size: 20px; font-weight: bold; margin: 0;"">Is there a person in this image?</p>
                        </div>
                    </div>","0","main_causal_task","8","coin_causal","","","",""
"","","","","","html-keyboard-response","32","90405","0.0-32.0","112C874A37CE4F2F82B72F0D85A39016","019ce7b8-b0f2-7817-9567-a14ec7dc1f10","019ce7a0-0965-7aa7-a556-174d32a8e773","","null","
                    <div class=""stimulus-container"">
                        <img src=""images/causal_sequence/coin_causal/coin_causal_9.png"" class=""exp-image"">
                        <div class=""question-area""></div> 
                    </div>","null","","","","","","",""
"","","","","","html-button-response","33","93398","0.0-33.0","112C874A37CE4F2F82B72F0D85A39016","019ce7b8-b0f2-7817-9567-a14ec7dc1f10","019ce7a0-0965-7aa7-a556-174d32a8e773","","2991","
                    <div class=""stimulus-container"">
                        <img src=""images/causal_sequence/coin_causal/coin_causal_9.png"" class=""exp-image"">
                        <div class=""question-area"">
                            <p style=""font-size: 20px; font-weight: bold; margin: 0;"">Is there a person in this image?</p>
                        </div>
                    </div>","0","main_causal_task","9","coin_causal","","","",""
"","","","","","html-keyboard-response","34","94410","0.0-34.0","112C874A37CE4F2F82B72F0D85A39016","019ce7b8-b0f2-7817-9567-a14ec7dc1f10","019ce7a0-0965-7aa7-a556-174d32a8e773","","null","<div style=""background-color: gray; width: 100vw; height: 100vh;""></div>","null","","","","","","",""
"","","","","","html-keyboard-response","35","99413","0.0-35.0","112C874A37CE4F2F82B72F0D85A39016","019ce7b8-b0f2-7817-9567-a14ec7dc1f10","019ce7a0-0965-7aa7-a556-174d32a8e773","","null","
                    <div class=""stimulus-container"">
                        <img src=""images/causal_sequence/package_causal/package_causal_1.png"" class=""exp-image"">
                        <div class=""question-area""></div> 
                    </div>","null","","","","","","",""
"","","","","","html-button-response","36","100469","0.0-36.0","112C874A37CE4F2F82B72F0D85A39016","019ce7b8-b0f2-7817-9567-a14ec7dc1f10","019ce7a0-0965-7aa7-a556-174d32a8e773","","1053","
                    <div class=""stimulus-container"">
                        <img src=""images/causal_sequence/package_causal/package_causal_1.png"" class=""exp-image"">
                        <div class=""question-area"">
                            <p style=""font-size: 20px; font-weight: bold; margin: 0;"">Is there a person in this image?</p>
                        </div>
                    </div>","0","main_causal_task","1","package_causal","","","",""
"","","","","","html-keyboard-response","37","105479","0.0-37.0","112C874A37CE4F2F82B72F0D85A39016","019ce7b8-b0f2-7817-9567-a14ec7dc1f10","019ce7a0-0965-7aa7-a556-174d32a8e773","","null","
                    <div class=""stimulus-container"">
                        <img src=""images/causal_sequence/package_causal/package_causal_2.png"" class=""exp-image"">
                        <div class=""question-area""></div> 
                    </div>","null","","","","","","",""
"","","","","","html-button-response","38","106369","0.0-38.0","112C874A37CE4F2F82B72F0D85A39016","019ce7b8-b0f2-7817-9567-a14ec7dc1f10","019ce7a0-0965-7aa7-a556-174d32a8e773","","888","
                    <div class=""stimulus-container"">
                        <img src=""images/causal_sequence/package_causal/package_causal_2.png"" class=""exp-image"">
                        <div class=""question-area"">
                            <p style=""font-size: 20px; font-weight: bold; margin: 0;"">Is there a person in this image?</p>
                        </div>
                    </div>","0","main_causal_task","2","package_causal","","","",""
"","","","","","html-keyboard-response","39","111373","0.0-39.0","112C874A37CE4F2F82B72F0D85A39016","019ce7b8-b0f2-7817-9567-a14ec7dc1f10","019ce7a0-0965-7aa7-a556-174d32a8e773","","null","
                    <div class=""stimulus-container"">
                        <img src=""images/causal_sequence/package_causal/package_causal_3.png"" class=""exp-image"">
                        <div class=""question-area""></div> 
                    </div>","null","","","","","","",""
"","","","","","html-button-response","40","111888","0.0-40.0","112C874A37CE4F2F82B72F0D85A39016","019ce7b8-b0f2-7817-9567-a14ec7dc1f10","019ce7a0-0965-7aa7-a556-174d32a8e773","","513","
                    <div class=""stimulus-container"">
                        <img src=""images/causal_sequence/package_causal/package_causal_3.png"" class=""exp-image"">
                        <div class=""question-area"">
                            <p style=""font-size: 20px; font-weight: bold; margin: 0;"">Is there a person in this image?</p>
                        </div>
                    </div>","0","main_causal_task","3","package_causal","","","",""
"","","","","","html-keyboard-response","41","116895","0.0-41.0","112C874A37CE4F2F82B72F0D85A39016","019ce7b8-b0f2-7817-9567-a14ec7dc1f10","019ce7a0-0965-7aa7-a556-174d32a8e773","","null","
                    <div class=""stimulus-container"">
                        <img src=""images/causal_sequence/package_causal/package_causal_4.png"" class=""exp-image"">
                        <div class=""question-area""></div> 
                    </div>","null","","","","","","",""
"","","","","","html-button-response","42","117694","0.0-42.0","112C874A37CE4F2F82B72F0D85A39016","019ce7b8-b0f2-7817-9567-a14ec7dc1f10","019ce7a0-0965-7aa7-a556-174d32a8e773","","798","
                    <div class=""stimulus-container"">
                        <img src=""images/causal_sequence/package_causal/package_causal_4.png"" class=""exp-image"">
                        <div class=""question-area"">
                            <p style=""font-size: 20px; font-weight: bold; margin: 0;"">Is there a person in this image?</p>
                        </div>
                    </div>","1","main_causal_task","4","package_causal","","","",""
"","","","","","html-keyboard-response","43","122700","0.0-43.0","112C874A37CE4F2F82B72F0D85A39016","019ce7b8-b0f2-7817-9567-a14ec7dc1f10","019ce7a0-0965-7aa7-a556-174d32a8e773","","null","
                    <div class=""stimulus-container"">
                        <img src=""images/causal_sequence/package_causal/package_causal_5.png"" class=""exp-image"">
                        <div class=""question-area""></div> 
                    </div>","null","","","","","","",""
"","","","","","html-button-response","44","123512","0.0-44.0","112C874A37CE4F2F82B72F0D85A39016","019ce7b8-b0f2-7817-9567-a14ec7dc1f10","019ce7a0-0965-7aa7-a556-174d32a8e773","","809","
                    <div class=""stimulus-container"">
                        <img src=""images/causal_sequence/package_causal/package_causal_5.png"" class=""exp-image"">
                        <div class=""question-area"">
                            <p style=""font-size: 20px; font-weight: bold; margin: 0;"">Is there a person in this image?</p>
                        </div>
                    </div>","0","main_causal_task","5","package_causal","","","",""
"","","","","","html-keyboard-response","45","128521","0.0-45.0","112C874A37CE4F2F82B72F0D85A39016","019ce7b8-b0f2-7817-9567-a14ec7dc1f10","019ce7a0-0965-7aa7-a556-174d32a8e773","","null","
                    <div class=""stimulus-container"">
                        <img src=""images/causal_sequence/package_causal/package_causal_6.png"" class=""exp-image"">
                        <div class=""question-area""></div> 
                    </div>","null","","","","","","",""
"","","","","","html-button-response","46","130161","0.0-46.0","112C874A37CE4F2F82B72F0D85A39016","019ce7b8-b0f2-7817-9567-a14ec7dc1f10","019ce7a0-0965-7aa7-a556-174d32a8e773","","1638","
                    <div class=""stimulus-container"">
                        <img src=""images/causal_sequence/package_causal/package_causal_6.png"" class=""exp-image"">
                        <div class=""question-area"">
                            <p style=""font-size: 20px; font-weight: bold; margin: 0;"">Is there a person in this image?</p>
                        </div>
                    </div>","0","main_causal_task","6","package_causal","","","",""
"","","","","","html-keyboard-response","47","135167","0.0-47.0","112C874A37CE4F2F82B72F0D85A39016","019ce7b8-b0f2-7817-9567-a14ec7dc1f10","019ce7a0-0965-7aa7-a556-174d32a8e773","","null","
                    <div class=""stimulus-container"">
                        <img src=""images/causal_sequence/package_causal/package_causal_7.png"" class=""exp-image"">
                        <div class=""question-area""></div> 
                    </div>","null","","","","","","",""
"","","","","","html-button-response","48","135652","0.0-48.0","112C874A37CE4F2F82B72F0D85A39016","019ce7b8-b0f2-7817-9567-a14ec7dc1f10","019ce7a0-0965-7aa7-a556-174d32a8e773","","483","
                    <div class=""stimulus-container"">
                        <img src=""images/causal_sequence/package_causal/package_causal_7.png"" class=""exp-image"">
                        <div class=""question-area"">
                            <p style=""font-size: 20px; font-weight: bold; margin: 0;"">Is there a person in this image?</p>
                        </div>
                    </div>","0","main_causal_task","7","package_causal","","","",""
"","","","","","html-keyboard-response","49","140669","0.0-49.0","112C874A37CE4F2F82B72F0D85A39016","019ce7b8-b0f2-7817-9567-a14ec7dc1f10","019ce7a0-0965-7aa7-a556-174d32a8e773","","null","
                    <div class=""stimulus-container"">
                        <img src=""images/causal_sequence/package_causal/package_causal_8.png"" class=""exp-image"">
                        <div class=""question-area""></div> 
                    </div>","null","","","","","","",""
"","","","","","html-button-response","50","141054","0.0-50.0","112C874A37CE4F2F82B72F0D85A39016","019ce7b8-b0f2-7817-9567-a14ec7dc1f10","019ce7a0-0965-7aa7-a556-174d32a8e773","","383","
                    <div class=""stimulus-container"">
                        <img src=""images/causal_sequence/package_causal/package_causal_8.png"" class=""exp-image"">
                        <div class=""question-area"">
                            <p style=""font-size: 20px; font-weight: bold; margin: 0;"">Is there a person in this image?</p>
                        </div>
                    </div>","0","main_causal_task","8","package_causal","","","",""
"","","","","","html-keyboard-response","51","146068","0.0-51.0","112C874A37CE4F2F82B72F0D85A39016","019ce7b8-b0f2-7817-9567-a14ec7dc1f10","019ce7a0-0965-7aa7-a556-174d32a8e773","","null","
                    <div class=""stimulus-container"">
                        <img src=""images/causal_sequence/package_causal/package_causal_9.png"" class=""exp-image"">
                        <div class=""question-area""></div> 
                    </div>","null","","","","","","",""
"","","","","","html-button-response","52","146527","0.0-52.0","112C874A37CE4F2F82B72F0D85A39016","019ce7b8-b0f2-7817-9567-a14ec7dc1f10","019ce7a0-0965-7aa7-a556-174d32a8e773","","457","
                    <div class=""stimulus-container"">
                        <img src=""images/causal_sequence/package_causal/package_causal_9.png"" class=""exp-image"">
                        <div class=""question-area"">
                            <p style=""font-size: 20px; font-weight: bold; margin: 0;"">Is there a person in this image?</p>
                        </div>
                    </div>","0","main_causal_task","9","package_causal","","","",""
"","","","","","html-keyboard-response","53","147533","0.0-53.0","112C874A37CE4F2F82B72F0D85A39016","019ce7b8-b0f2-7817-9567-a14ec7dc1f10","019ce7a0-0965-7aa7-a556-174d32a8e773","","null","<div style=""background-color: gray; width: 100vw; height: 100vh;""></div>","null","","","","","","",""
"","","","","","html-keyboard-response","54","152540","0.0-54.0","112C874A37CE4F2F82B72F0D85A39016","019ce7b8-b0f2-7817-9567-a14ec7dc1f10","019ce7a0-0965-7aa7-a556-174d32a8e773","","null","
                    <div class=""stimulus-container"">
                        <img src=""images/causal_sequence/saving_a_cat_causal/saving_a_cat_causal_1.png"" class=""exp-image"">
                        <div class=""question-area""></div> 
                    </div>","null","","","","","","",""
"","","","","","html-button-response","55","153707","0.0-55.0","112C874A37CE4F2F82B72F0D85A39016","019ce7b8-b0f2-7817-9567-a14ec7dc1f10","019ce7a0-0965-7aa7-a556-174d32a8e773","","1165","
                    <div class=""stimulus-container"">
                        <img src=""images/causal_sequence/saving_a_cat_causal/saving_a_cat_causal_1.png"" class=""exp-image"">
                        <div class=""question-area"">
                            <p style=""font-size: 20px; font-weight: bold; margin: 0;"">Is there a person in this image?</p>
                        </div>
                    </div>","0","main_causal_task","1","saving_a_cat_causal","","","",""
"","","","","","html-keyboard-response","56","158708","0.0-56.0","112C874A37CE4F2F82B72F0D85A39016","019ce7b8-b0f2-7817-9567-a14ec7dc1f10","019ce7a0-0965-7aa7-a556-174d32a8e773","","null","
                    <div class=""stimulus-container"">
                        <img src=""images/causal_sequence/saving_a_cat_causal/saving_a_cat_causal_2.png"" class=""exp-image"">
                        <div class=""question-area""></div> 
                    </div>","null","","","","","","",""
"","","","","","html-button-response","57","159313","0.0-57.0","112C874A37CE4F2F82B72F0D85A39016","019ce7b8-b0f2-7817-9567-a14ec7dc1f10","019ce7a0-0965-7aa7-a556-174d32a8e773","","602","
                    <div class=""stimulus-container"">
                        <img src=""images/causal_sequence/saving_a_cat_causal/saving_a_cat_causal_2.png"" class=""exp-image"">
                        <div class=""question-area"">
                            <p style=""font-size: 20px; font-weight: bold; margin: 0;"">Is there a person in this image?</p>
                        </div>
                    </div>","1","main_causal_task","2","saving_a_cat_causal","","","",""
"","","","","","html-keyboard-response","58","164326","0.0-58.0","112C874A37CE4F2F82B72F0D85A39016","019ce7b8-b0f2-7817-9567-a14ec7dc1f10","019ce7a0-0965-7aa7-a556-174d32a8e773","","null","
                    <div class=""stimulus-container"">
                        <img src=""images/causal_sequence/saving_a_cat_causal/saving_a_cat_causal_3.png"" class=""exp-image"">
                        <div class=""question-area""></div> 
                    </div>","null","","","","","","",""
"","","","","","html-button-response","59","165078","0.0-59.0","112C874A37CE4F2F82B72F0D85A39016","019ce7b8-b0f2-7817-9567-a14ec7dc1f10","019ce7a0-0965-7aa7-a556-174d32a8e773","","750","
                    <div class=""stimulus-container"">
                        <img src=""images/causal_sequence/saving_a_cat_causal/saving_a_cat_causal_3.png"" class=""exp-image"">
                        <div class=""question-area"">
                            <p style=""font-size: 20px; font-weight: bold; margin: 0;"">Is there a person in this image?</p>
                        </div>
                    </div>","1","main_causal_task","3","saving_a_cat_causal","","","",""
"","","","","","html-keyboard-response","60","170087","0.0-60.0","112C874A37CE4F2F82B72F0D85A39016","019ce7b8-b0f2-7817-9567-a14ec7dc1f10","019ce7a0-0965-7aa7-a556-174d32a8e773","","null","
                    <div class=""stimulus-container"">
                        <img src=""images/causal_sequence/saving_a_cat_causal/saving_a_cat_causal_4.png"" class=""exp-image"">
                        <div class=""question-area""></div> 
                    </div>","null","","","","","","",""
"","","","","","html-button-response","61","170624","0.0-61.0","112C874A37CE4F2F82B72F0D85A39016","019ce7b8-b0f2-7817-9567-a14ec7dc1f10","019ce7a0-0965-7aa7-a556-174d32a8e773","","535","
                    <div class=""stimulus-container"">
                        <img src=""images/causal_sequence/saving_a_cat_causal/saving_a_cat_causal_4.png"" class=""exp-image"">
                        <div class=""question-area"">
                            <p style=""font-size: 20px; font-weight: bold; margin: 0;"">Is there a person in this image?</p>
                        </div>
                    </div>","0","main_causal_task","4","saving_a_cat_causal","","","",""
"","","","","","html-keyboard-response","62","175631","0.0-62.0","112C874A37CE4F2F82B72F0D85A39016","019ce7b8-b0f2-7817-9567-a14ec7dc1f10","019ce7a0-0965-7aa7-a556-174d32a8e773","","null","
                    <div class=""stimulus-container"">
                        <img src=""images/causal_sequence/saving_a_cat_causal/saving_a_cat_causal_5.png"" class=""exp-image"">
                        <div class=""question-area""></div> 
                    </div>","null","","","","","","",""
"","","","","","html-button-response","63","176378","0.0-63.0","112C874A37CE4F2F82B72F0D85A39016","019ce7b8-b0f2-7817-9567-a14ec7dc1f10","019ce7a0-0965-7aa7-a556-174d32a8e773","","745","
                    <div class=""stimulus-container"">
                        <img src=""images/causal_sequence/saving_a_cat_causal/saving_a_cat_causal_5.png"" class=""exp-image"">
                        <div class=""question-area"">
                            <p style=""font-size: 20px; font-weight: bold; margin: 0;"">Is there a person in this image?</p>
                        </div>
                    </div>","0","main_causal_task","5","saving_a_cat_causal","","","",""
"","","","","","html-keyboard-response","64","181381","0.0-64.0","112C874A37CE4F2F82B72F0D85A39016","019ce7b8-b0f2-7817-9567-a14ec7dc1f10","019ce7a0-0965-7aa7-a556-174d32a8e773","","null","
                    <div class=""stimulus-container"">
                        <img src=""images/causal_sequence/saving_a_cat_causal/saving_a_cat_causal_6.png"" class=""exp-image"">
                        <div class=""question-area""></div> 
                    </div>","null","","","","","","",""
"","","","","","html-button-response","65","182070","0.0-65.0","112C874A37CE4F2F82B72F0D85A39016","019ce7b8-b0f2-7817-9567-a14ec7dc1f10","019ce7a0-0965-7aa7-a556-174d32a8e773","","687","
                    <div class=""stimulus-container"">
                        <img src=""images/causal_sequence/saving_a_cat_causal/saving_a_cat_causal_6.png"" class=""exp-image"">
                        <div class=""question-area"">
                            <p style=""font-size: 20px; font-weight: bold; margin: 0;"">Is there a person in this image?</p>
                        </div>
                    </div>","0","main_causal_task","6","saving_a_cat_causal","","","",""
"","","","","","html-keyboard-response","66","187086","0.0-66.0","112C874A37CE4F2F82B72F0D85A39016","019ce7b8-b0f2-7817-9567-a14ec7dc1f10","019ce7a0-0965-7aa7-a556-174d32a8e773","","null","
                    <div class=""stimulus-container"">
                        <img src=""images/causal_sequence/saving_a_cat_causal/saving_a_cat_causal_7.png"" class=""exp-image"">
                        <div class=""question-area""></div> 
                    </div>","null","","","","","","",""
"","","","","","html-button-response","67","187888","0.0-67.0","112C874A37CE4F2F82B72F0D85A39016","019ce7b8-b0f2-7817-9567-a14ec7dc1f10","019ce7a0-0965-7aa7-a556-174d32a8e773","","800","
                    <div class=""stimulus-container"">
                        <img src=""images/causal_sequence/saving_a_cat_causal/saving_a_cat_causal_7.png"" class=""exp-image"">
                        <div class=""question-area"">
                            <p style=""font-size: 20px; font-weight: bold; margin: 0;"">Is there a person in this image?</p>
                        </div>
                    </div>","0","main_causal_task","7","saving_a_cat_causal","","","",""
"","","","","","html-keyboard-response","68","192899","0.0-68.0","112C874A37CE4F2F82B72F0D85A39016","019ce7b8-b0f2-7817-9567-a14ec7dc1f10","019ce7a0-0965-7aa7-a556-174d32a8e773","","null","
                    <div class=""stimulus-container"">
                        <img src=""images/causal_sequence/saving_a_cat_causal/saving_a_cat_causal_8.png"" class=""exp-image"">
                        <div class=""question-area""></div> 
                    </div>","null","","","","","","",""
"","","","","","html-button-response","69","193379","0.0-69.0","112C874A37CE4F2F82B72F0D85A39016","019ce7b8-b0f2-7817-9567-a14ec7dc1f10","019ce7a0-0965-7aa7-a556-174d32a8e773","","478","
                    <div class=""stimulus-container"">
                        <img src=""images/causal_sequence/saving_a_cat_causal/saving_a_cat_causal_8.png"" class=""exp-image"">
                        <div class=""question-area"">
                            <p style=""font-size: 20px; font-weight: bold; margin: 0;"">Is there a person in this image?</p>
                        </div>
                    </div>","0","main_causal_task","8","saving_a_cat_causal","","","",""
"","","","","","html-keyboard-response","70","198392","0.0-70.0","112C874A37CE4F2F82B72F0D85A39016","019ce7b8-b0f2-7817-9567-a14ec7dc1f10","019ce7a0-0965-7aa7-a556-174d32a8e773","","null","
                    <div class=""stimulus-container"">
                        <img src=""images/causal_sequence/saving_a_cat_causal/saving_a_cat_causal_9.png"" class=""exp-image"">
                        <div class=""question-area""></div> 
                    </div>","null","","","","","","",""
"","","","","","html-button-response","71","198955","0.0-71.0","112C874A37CE4F2F82B72F0D85A39016","019ce7b8-b0f2-7817-9567-a14ec7dc1f10","019ce7a0-0965-7aa7-a556-174d32a8e773","","561","
                    <div class=""stimulus-container"">
                        <img src=""images/causal_sequence/saving_a_cat_causal/saving_a_cat_causal_9.png"" class=""exp-image"">
                        <div class=""question-area"">
                            <p style=""font-size: 20px; font-weight: bold; margin: 0;"">Is there a person in this image?</p>
                        </div>
                    </div>","0","main_causal_task","9","saving_a_cat_causal","","","",""
"","","","","","html-keyboard-response","72","199966","0.0-72.0","112C874A37CE4F2F82B72F0D85A39016","019ce7b8-b0f2-7817-9567-a14ec7dc1f10","019ce7a0-0965-7aa7-a556-174d32a8e773","","null","<div style=""background-color: gray; width: 100vw; height: 100vh;""></div>","null","","","","","","",""
"","","","","","html-keyboard-response","73","204979","0.0-73.0","112C874A37CE4F2F82B72F0D85A39016","019ce7b8-b0f2-7817-9567-a14ec7dc1f10","019ce7a0-0965-7aa7-a556-174d32a8e773","","null","
                    <div class=""stimulus-container"">
                        <img src=""images/causal_sequence/the_performance_causal/the_performance_causal_1.png"" class=""exp-image"">
                        <div class=""question-area""></div> 
                    </div>","null","","","","","","",""
"","","","","","html-button-response","74","205858","0.0-74.0","112C874A37CE4F2F82B72F0D85A39016","019ce7b8-b0f2-7817-9567-a14ec7dc1f10","019ce7a0-0965-7aa7-a556-174d32a8e773","","877","
                    <div class=""stimulus-container"">
                        <img src=""images/causal_sequence/the_performance_causal/the_performance_causal_1.png"" class=""exp-image"">
                        <div class=""question-area"">
                            <p style=""font-size: 20px; font-weight: bold; margin: 0;"">Is there a person in this image?</p>
                        </div>
                    </div>","0","main_causal_task","1","the_performance_causal","","","",""
"","","","","","html-keyboard-response","75","210868","0.0-75.0","112C874A37CE4F2F82B72F0D85A39016","019ce7b8-b0f2-7817-9567-a14ec7dc1f10","019ce7a0-0965-7aa7-a556-174d32a8e773","","null","
                    <div class=""stimulus-container"">
                        <img src=""images/causal_sequence/the_performance_causal/the_performance_causal_2.png"" class=""exp-image"">
                        <div class=""question-area""></div> 
                    </div>","null","","","","","","",""
"","","","","","html-button-response","76","211398","0.0-76.0","112C874A37CE4F2F82B72F0D85A39016","019ce7b8-b0f2-7817-9567-a14ec7dc1f10","019ce7a0-0965-7aa7-a556-174d32a8e773","","529","
                    <div class=""stimulus-container"">
                        <img src=""images/causal_sequence/the_performance_causal/the_performance_causal_2.png"" class=""exp-image"">
                        <div class=""question-area"">
                            <p style=""font-size: 20px; font-weight: bold; margin: 0;"">Is there a person in this image?</p>
                        </div>
                    </div>","0","main_causal_task","2","the_performance_causal","","","",""
"","","","","","html-keyboard-response","77","216406","0.0-77.0","112C874A37CE4F2F82B72F0D85A39016","019ce7b8-b0f2-7817-9567-a14ec7dc1f10","019ce7a0-0965-7aa7-a556-174d32a8e773","","null","
                    <div class=""stimulus-container"">
                        <img src=""images/causal_sequence/the_performance_causal/the_performance_causal_3.png"" class=""exp-image"">
                        <div class=""question-area""></div> 
                    </div>","null","","","","","","",""
"","","","","","html-button-response","78","217233","0.0-78.0","112C874A37CE4F2F82B72F0D85A39016","019ce7b8-b0f2-7817-9567-a14ec7dc1f10","019ce7a0-0965-7aa7-a556-174d32a8e773","","826","
                    <div class=""stimulus-container"">
                        <img src=""images/causal_sequence/the_performance_causal/the_performance_causal_3.png"" class=""exp-image"">
                        <div class=""question-area"">
                            <p style=""font-size: 20px; font-weight: bold; margin: 0;"">Is there a person in this image?</p>
                        </div>
                    </div>","0","main_causal_task","3","the_performance_causal","","","",""
"","","","","","html-keyboard-response","79","222250","0.0-79.0","112C874A37CE4F2F82B72F0D85A39016","019ce7b8-b0f2-7817-9567-a14ec7dc1f10","019ce7a0-0965-7aa7-a556-174d32a8e773","","null","
                    <div class=""stimulus-container"">
                        <img src=""images/causal_sequence/the_performance_causal/the_performance_causal_4.png"" class=""exp-image"">
                        <div class=""question-area""></div> 
                    </div>","null","","","","","","",""
"","","","","","html-button-response","80","223019","0.0-80.0","112C874A37CE4F2F82B72F0D85A39016","019ce7b8-b0f2-7817-9567-a14ec7dc1f10","019ce7a0-0965-7aa7-a556-174d32a8e773","","767","
                    <div class=""stimulus-container"">
                        <img src=""images/causal_sequence/the_performance_causal/the_performance_causal_4.png"" class=""exp-image"">
                        <div class=""question-area"">
                            <p style=""font-size: 20px; font-weight: bold; margin: 0;"">Is there a person in this image?</p>
                        </div>
                    </div>","0","main_causal_task","4","the_performance_causal","","","",""
"","","","","","html-keyboard-response","81","228023","0.0-81.0","112C874A37CE4F2F82B72F0D85A39016","019ce7b8-b0f2-7817-9567-a14ec7dc1f10","019ce7a0-0965-7aa7-a556-174d32a8e773","","null","
                    <div class=""stimulus-container"">
                        <img src=""images/causal_sequence/the_performance_causal/the_performance_causal_5.png"" class=""exp-image"">
                        <div class=""question-area""></div> 
                    </div>","null","","","","","","",""
"","","","","","html-button-response","82","228632","0.0-82.0","112C874A37CE4F2F82B72F0D85A39016","019ce7b8-b0f2-7817-9567-a14ec7dc1f10","019ce7a0-0965-7aa7-a556-174d32a8e773","","607","
                    <div class=""stimulus-container"">
                        <img src=""images/causal_sequence/the_performance_causal/the_performance_causal_5.png"" class=""exp-image"">
                        <div class=""question-area"">
                            <p style=""font-size: 20px; font-weight: bold; margin: 0;"">Is there a person in this image?</p>
                        </div>
                    </div>","0","main_causal_task","5","the_performance_causal","","","",""
"","","","","","html-keyboard-response","83","233648","0.0-83.0","112C874A37CE4F2F82B72F0D85A39016","019ce7b8-b0f2-7817-9567-a14ec7dc1f10","019ce7a0-0965-7aa7-a556-174d32a8e773","","null","
                    <div class=""stimulus-container"">
                        <img src=""images/causal_sequence/the_performance_causal/the_performance_causal_6.png"" class=""exp-image"">
                        <div class=""question-area""></div> 
                    </div>","null","","","","","","",""
"","","","","","html-button-response","84","234881","0.0-84.0","112C874A37CE4F2F82B72F0D85A39016","019ce7b8-b0f2-7817-9567-a14ec7dc1f10","019ce7a0-0965-7aa7-a556-174d32a8e773","","1230","
                    <div class=""stimulus-container"">
                        <img src=""images/causal_sequence/the_performance_causal/the_performance_causal_6.png"" class=""exp-image"">
                        <div class=""question-area"">
                            <p style=""font-size: 20px; font-weight: bold; margin: 0;"">Is there a person in this image?</p>
                        </div>
                    </div>","0","main_causal_task","6","the_performance_causal","","","",""
"","","","","","html-keyboard-response","85","239884","0.0-85.0","112C874A37CE4F2F82B72F0D85A39016","019ce7b8-b0f2-7817-9567-a14ec7dc1f10","019ce7a0-0965-7aa7-a556-174d32a8e773","","null","
                    <div class=""stimulus-container"">
                        <img src=""images/causal_sequence/the_performance_causal/the_performance_causal_7.png"" class=""exp-image"">
                        <div class=""question-area""></div> 
                    </div>","null","","","","","","",""
"","","","","","html-button-response","86","240698","0.0-86.0","112C874A37CE4F2F82B72F0D85A39016","019ce7b8-b0f2-7817-9567-a14ec7dc1f10","019ce7a0-0965-7aa7-a556-174d32a8e773","","812","
                    <div class=""stimulus-container"">
                        <img src=""images/causal_sequence/the_performance_causal/the_performance_causal_7.png"" class=""exp-image"">
                        <div class=""question-area"">
                            <p style=""font-size: 20px; font-weight: bold; margin: 0;"">Is there a person in this image?</p>
                        </div>
                    </div>","0","main_causal_task","7","the_performance_causal","","","",""
"","","","","","html-keyboard-response","87","245710","0.0-87.0","112C874A37CE4F2F82B72F0D85A39016","019ce7b8-b0f2-7817-9567-a14ec7dc1f10","019ce7a0-0965-7aa7-a556-174d32a8e773","","null","
                    <div class=""stimulus-container"">
                        <img src=""images/causal_sequence/the_performance_causal/the_performance_causal_8.png"" class=""exp-image"">
                        <div class=""question-area""></div> 
                    </div>","null","","","","","","",""
"","","","","","html-button-response","88","246542","0.0-88.0","112C874A37CE4F2F82B72F0D85A39016","019ce7b8-b0f2-7817-9567-a14ec7dc1f10","019ce7a0-0965-7aa7-a556-174d32a8e773","","831","
                    <div class=""stimulus-container"">
                        <img src=""images/causal_sequence/the_performance_causal/the_performance_causal_8.png"" class=""exp-image"">
                        <div class=""question-area"">
                            <p style=""font-size: 20px; font-weight: bold; margin: 0;"">Is there a person in this image?</p>
                        </div>
                    </div>","0","main_causal_task","8","the_performance_causal","","","",""
"","","","","","html-keyboard-response","89","251555","0.0-89.0","112C874A37CE4F2F82B72F0D85A39016","019ce7b8-b0f2-7817-9567-a14ec7dc1f10","019ce7a0-0965-7aa7-a556-174d32a8e773","","null","
                    <div class=""stimulus-container"">
                        <img src=""images/causal_sequence/the_performance_causal/the_performance_causal_9.png"" class=""exp-image"">
                        <div class=""question-area""></div> 
                    </div>","null","","","","","","",""
"","","","","","html-button-response","90","252449","0.0-90.0","112C874A37CE4F2F82B72F0D85A39016","019ce7b8-b0f2-7817-9567-a14ec7dc1f10","019ce7a0-0965-7aa7-a556-174d32a8e773","","891","
                    <div class=""stimulus-container"">
                        <img src=""images/causal_sequence/the_performance_causal/the_performance_causal_9.png"" class=""exp-image"">
                        <div class=""question-area"">
                            <p style=""font-size: 20px; font-weight: bold; margin: 0;"">Is there a person in this image?</p>
                        </div>
                    </div>","0","main_causal_task","9","the_performance_causal","","","",""
"","","","","","html-keyboard-response","91","253460","0.0-91.0","112C874A37CE4F2F82B72F0D85A39016","019ce7b8-b0f2-7817-9567-a14ec7dc1f10","019ce7a0-0965-7aa7-a556-174d32a8e773","","null","<div style=""background-color: gray; width: 100vw; height: 100vh;""></div>","null","","","","","","",""
"","","","","","html-keyboard-response","92","258471","0.0-92.0","112C874A37CE4F2F82B72F0D85A39016","019ce7b8-b0f2-7817-9567-a14ec7dc1f10","019ce7a0-0965-7aa7-a556-174d32a8e773","","null","
                    <div class=""stimulus-container"">
                        <img src=""images/causal_sequence/dog_causal/dog_causal_1.png"" class=""exp-image"">
                        <div class=""question-area""></div> 
                    </div>","null","","","","","","",""
"","","","","","html-button-response","93","259178","0.0-93.0","112C874A37CE4F2F82B72F0D85A39016","019ce7b8-b0f2-7817-9567-a14ec7dc1f10","019ce7a0-0965-7aa7-a556-174d32a8e773","","706","
                    <div class=""stimulus-container"">
                        <img src=""images/causal_sequence/dog_causal/dog_causal_1.png"" class=""exp-image"">
                        <div class=""question-area"">
                            <p style=""font-size: 20px; font-weight: bold; margin: 0;"">Is there a person in this image?</p>
                        </div>
                    </div>","0","main_causal_task","1","dog_causal","","","",""
"","","","","","html-keyboard-response","94","264194","0.0-94.0","112C874A37CE4F2F82B72F0D85A39016","019ce7b8-b0f2-7817-9567-a14ec7dc1f10","019ce7a0-0965-7aa7-a556-174d32a8e773","","null","
                    <div class=""stimulus-container"">
                        <img src=""images/causal_sequence/dog_causal/dog_causal_2.png"" class=""exp-image"">
                        <div class=""question-area""></div> 
                    </div>","null","","","","","","",""
"","","","","","html-button-response","95","264708","0.0-95.0","112C874A37CE4F2F82B72F0D85A39016","019ce7b8-b0f2-7817-9567-a14ec7dc1f10","019ce7a0-0965-7aa7-a556-174d32a8e773","","511","
                    <div class=""stimulus-container"">
                        <img src=""images/causal_sequence/dog_causal/dog_causal_2.png"" class=""exp-image"">
                        <div class=""question-area"">
                            <p style=""font-size: 20px; font-weight: bold; margin: 0;"">Is there a person in this image?</p>
                        </div>
                    </div>","0","main_causal_task","2","dog_causal","","","",""
"","","","","","html-keyboard-response","96","269713","0.0-96.0","112C874A37CE4F2F82B72F0D85A39016","019ce7b8-b0f2-7817-9567-a14ec7dc1f10","019ce7a0-0965-7aa7-a556-174d32a8e773","","null","
                    <div class=""stimulus-container"">
                        <img src=""images/causal_sequence/dog_causal/dog_causal_3.png"" class=""exp-image"">
                        <div class=""question-area""></div> 
                    </div>","null","","","","","","",""
"","","","","","html-button-response","97","270573","0.0-97.0","112C874A37CE4F2F82B72F0D85A39016","019ce7b8-b0f2-7817-9567-a14ec7dc1f10","019ce7a0-0965-7aa7-a556-174d32a8e773","","858","
                    <div class=""stimulus-container"">
                        <img src=""images/causal_sequence/dog_causal/dog_causal_3.png"" class=""exp-image"">
                        <div class=""question-area"">
                            <p style=""font-size: 20px; font-weight: bold; margin: 0;"">Is there a person in this image?</p>
                        </div>
                    </div>","0","main_causal_task","3","dog_causal","","","",""
"","","","","","html-keyboard-response","98","275583","0.0-98.0","112C874A37CE4F2F82B72F0D85A39016","019ce7b8-b0f2-7817-9567-a14ec7dc1f10","019ce7a0-0965-7aa7-a556-174d32a8e773","","null","
                    <div class=""stimulus-container"">
                        <img src=""images/causal_sequence/dog_causal/dog_causal_4.png"" class=""exp-image"">
                        <div class=""question-area""></div> 
                    </div>","null","","","","","","",""
"","","","","","html-button-response","99","276430","0.0-99.0","112C874A37CE4F2F82B72F0D85A39016","019ce7b8-b0f2-7817-9567-a14ec7dc1f10","019ce7a0-0965-7aa7-a556-174d32a8e773","","844","
                    <div class=""stimulus-container"">
                        <img src=""images/causal_sequence/dog_causal/dog_causal_4.png"" class=""exp-image"">
                        <div class=""question-area"">
                            <p style=""font-size: 20px; font-weight: bold; margin: 0;"">Is there a person in this image?</p>
                        </div>
                    </div>","0","main_causal_task","4","dog_causal","","","",""
"","","","","","html-keyboard-response","100","281436","0.0-100.0","112C874A37CE4F2F82B72F0D85A39016","019ce7b8-b0f2-7817-9567-a14ec7dc1f10","019ce7a0-0965-7aa7-a556-174d32a8e773","","null","
                    <div class=""stimulus-container"">
                        <img src=""images/causal_sequence/dog_causal/dog_causal_5.png"" class=""exp-image"">
                        <div class=""question-area""></div> 
                    </div>","null","","","","","","",""
"","","","","","html-button-response","101","282233","0.0-101.0","112C874A37CE4F2F82B72F0D85A39016","019ce7b8-b0f2-7817-9567-a14ec7dc1f10","019ce7a0-0965-7aa7-a556-174d32a8e773","","794","
                    <div class=""stimulus-container"">
                        <img src=""images/causal_sequence/dog_causal/dog_causal_5.png"" class=""exp-image"">
                        <div class=""question-area"">
                            <p style=""font-size: 20px; font-weight: bold; margin: 0;"">Is there a person in this image?</p>
                        </div>
                    </div>","0","main_causal_task","5","dog_causal","","","",""
"","","","","","html-keyboard-response","102","287244","0.0-102.0","112C874A37CE4F2F82B72F0D85A39016","019ce7b8-b0f2-7817-9567-a14ec7dc1f10","019ce7a0-0965-7aa7-a556-174d32a8e773","","null","
                    <div class=""stimulus-container"">
                        <img src=""images/causal_sequence/dog_causal/dog_causal_6.png"" class=""exp-image"">
                        <div class=""question-area""></div> 
                    </div>","null","","","","","","",""
"","","","","","html-button-response","103","287727","0.0-103.0","112C874A37CE4F2F82B72F0D85A39016","019ce7b8-b0f2-7817-9567-a14ec7dc1f10","019ce7a0-0965-7aa7-a556-174d32a8e773","","481","
                    <div class=""stimulus-container"">
                        <img src=""images/causal_sequence/dog_causal/dog_causal_6.png"" class=""exp-image"">
                        <div class=""question-area"">
                            <p style=""font-size: 20px; font-weight: bold; margin: 0;"">Is there a person in this image?</p>
                        </div>
                    </div>","0","main_causal_task","6","dog_causal","","","",""
"","","","","","html-keyboard-response","104","292728","0.0-104.0","112C874A37CE4F2F82B72F0D85A39016","019ce7b8-b0f2-7817-9567-a14ec7dc1f10","019ce7a0-0965-7aa7-a556-174d32a8e773","","null","
                    <div class=""stimulus-container"">
                        <img src=""images/causal_sequence/dog_causal/dog_causal_7.png"" class=""exp-image"">
                        <div class=""question-area""></div> 
                    </div>","null","","","","","","",""
"","","","","","html-button-response","105","293540","0.0-105.0","112C874A37CE4F2F82B72F0D85A39016","019ce7b8-b0f2-7817-9567-a14ec7dc1f10","019ce7a0-0965-7aa7-a556-174d32a8e773","","809","
                    <div class=""stimulus-container"">
                        <img src=""images/causal_sequence/dog_causal/dog_causal_7.png"" class=""exp-image"">
                        <div class=""question-area"">
                            <p style=""font-size: 20px; font-weight: bold; margin: 0;"">Is there a person in this image?</p>
                        </div>
                    </div>","0","main_causal_task","7","dog_causal","","","",""
"","","","","","html-keyboard-response","106","298547","0.0-106.0","112C874A37CE4F2F82B72F0D85A39016","019ce7b8-b0f2-7817-9567-a14ec7dc1f10","019ce7a0-0965-7aa7-a556-174d32a8e773","","null","
                    <div class=""stimulus-container"">
                        <img src=""images/causal_sequence/dog_causal/dog_causal_8.png"" class=""exp-image"">
                        <div class=""question-area""></div> 
                    </div>","null","","","","","","",""
"","","","","","html-button-response","107","299159","0.0-107.0","112C874A37CE4F2F82B72F0D85A39016","019ce7b8-b0f2-7817-9567-a14ec7dc1f10","019ce7a0-0965-7aa7-a556-174d32a8e773","","611","
                    <div class=""stimulus-container"">
                        <img src=""images/causal_sequence/dog_causal/dog_causal_8.png"" class=""exp-image"">
                        <div class=""question-area"">
                            <p style=""font-size: 20px; font-weight: bold; margin: 0;"">Is there a person in this image?</p>
                        </div>
                    </div>","0","main_causal_task","8","dog_causal","","","",""
"","","","","","html-keyboard-response","108","304173","0.0-108.0","112C874A37CE4F2F82B72F0D85A39016","019ce7b8-b0f2-7817-9567-a14ec7dc1f10","019ce7a0-0965-7aa7-a556-174d32a8e773","","null","
                    <div class=""stimulus-container"">
                        <img src=""images/causal_sequence/dog_causal/dog_causal_9.png"" class=""exp-image"">
                        <div class=""question-area""></div> 
                    </div>","null","","","","","","",""
"","","","","","html-button-response","109","304942","0.0-109.0","112C874A37CE4F2F82B72F0D85A39016","019ce7b8-b0f2-7817-9567-a14ec7dc1f10","019ce7a0-0965-7aa7-a556-174d32a8e773","","767","
                    <div class=""stimulus-container"">
                        <img src=""images/causal_sequence/dog_causal/dog_causal_9.png"" class=""exp-image"">
                        <div class=""question-area"">
                            <p style=""font-size: 20px; font-weight: bold; margin: 0;"">Is there a person in this image?</p>
                        </div>
                    </div>","0","main_causal_task","9","dog_causal","","","",""
"","","","","","html-keyboard-response","110","305951","0.0-110.0","112C874A37CE4F2F82B72F0D85A39016","019ce7b8-b0f2-7817-9567-a14ec7dc1f10","019ce7a0-0965-7aa7-a556-174d32a8e773","","null","<div style=""background-color: gray; width: 100vw; height: 100vh;""></div>","null","","","","","","",""
"","","","","","html-keyboard-response","111","310961","0.0-111.0","112C874A37CE4F2F82B72F0D85A39016","019ce7b8-b0f2-7817-9567-a14ec7dc1f10","019ce7a0-0965-7aa7-a556-174d32a8e773","","null","
                    <div class=""stimulus-container"">
                        <img src=""images/causal_sequence/museum_causal/museum_causal_1.png"" class=""exp-image"">
                        <div class=""question-area""></div> 
                    </div>","null","","","","","","",""
"","","","","","html-button-response","112","312107","0.0-112.0","112C874A37CE4F2F82B72F0D85A39016","019ce7b8-b0f2-7817-9567-a14ec7dc1f10","019ce7a0-0965-7aa7-a556-174d32a8e773","","1143","
                    <div class=""stimulus-container"">
                        <img src=""images/causal_sequence/museum_causal/museum_causal_1.png"" class=""exp-image"">
                        <div class=""question-area"">
                            <p style=""font-size: 20px; font-weight: bold; margin: 0;"">Is there a person in this image?</p>
                        </div>
                    </div>","0","main_causal_task","1","museum_causal","","","",""
"","","","","","html-keyboard-response","113","317112","0.0-113.0","112C874A37CE4F2F82B72F0D85A39016","019ce7b8-b0f2-7817-9567-a14ec7dc1f10","019ce7a0-0965-7aa7-a556-174d32a8e773","","null","
                    <div class=""stimulus-container"">
                        <img src=""images/causal_sequence/museum_causal/museum_causal_2.png"" class=""exp-image"">
                        <div class=""question-area""></div> 
                    </div>","null","","","","","","",""
"","","","","","html-button-response","114","318160","0.0-114.0","112C874A37CE4F2F82B72F0D85A39016","019ce7b8-b0f2-7817-9567-a14ec7dc1f10","019ce7a0-0965-7aa7-a556-174d32a8e773","","1046","
                    <div class=""stimulus-container"">
                        <img src=""images/causal_sequence/museum_causal/museum_causal_2.png"" class=""exp-image"">
                        <div class=""question-area"">
                            <p style=""font-size: 20px; font-weight: bold; margin: 0;"">Is there a person in this image?</p>
                        </div>
                    </div>","0","main_causal_task","2","museum_causal","","","",""
"","","","","","html-keyboard-response","115","323172","0.0-115.0","112C874A37CE4F2F82B72F0D85A39016","019ce7b8-b0f2-7817-9567-a14ec7dc1f10","019ce7a0-0965-7aa7-a556-174d32a8e773","","null","
                    <div class=""stimulus-container"">
                        <img src=""images/causal_sequence/museum_causal/museum_causal_3.png"" class=""exp-image"">
                        <div class=""question-area""></div> 
                    </div>","null","","","","","","",""
"","","","","","html-button-response","116","323959","0.0-116.0","112C874A37CE4F2F82B72F0D85A39016","019ce7b8-b0f2-7817-9567-a14ec7dc1f10","019ce7a0-0965-7aa7-a556-174d32a8e773","","784","
                    <div class=""stimulus-container"">
                        <img src=""images/causal_sequence/museum_causal/museum_causal_3.png"" class=""exp-image"">
                        <div class=""question-area"">
                            <p style=""font-size: 20px; font-weight: bold; margin: 0;"">Is there a person in this image?</p>
                        </div>
                    </div>","0","main_causal_task","3","museum_causal","","","",""
"","","","","","html-keyboard-response","117","328965","0.0-117.0","112C874A37CE4F2F82B72F0D85A39016","019ce7b8-b0f2-7817-9567-a14ec7dc1f10","019ce7a0-0965-7aa7-a556-174d32a8e773","","null","
                    <div class=""stimulus-container"">
                        <img src=""images/causal_sequence/museum_causal/museum_causal_4.png"" class=""exp-image"">
                        <div class=""question-area""></div> 
                    </div>","null","","","","","","",""
"","","","","","html-button-response","118","330009","0.0-118.0","112C874A37CE4F2F82B72F0D85A39016","019ce7b8-b0f2-7817-9567-a14ec7dc1f10","019ce7a0-0965-7aa7-a556-174d32a8e773","","1042","
                    <div class=""stimulus-container"">
                        <img src=""images/causal_sequence/museum_causal/museum_causal_4.png"" class=""exp-image"">
                        <div class=""question-area"">
                            <p style=""font-size: 20px; font-weight: bold; margin: 0;"">Is there a person in this image?</p>
                        </div>
                    </div>","1","main_causal_task","4","museum_causal","","","",""
"","","","","","html-keyboard-response","119","335027","0.0-119.0","112C874A37CE4F2F82B72F0D85A39016","019ce7b8-b0f2-7817-9567-a14ec7dc1f10","019ce7a0-0965-7aa7-a556-174d32a8e773","","null","
                    <div class=""stimulus-container"">
                        <img src=""images/causal_sequence/museum_causal/museum_causal_5.png"" class=""exp-image"">
                        <div class=""question-area""></div> 
                    </div>","null","","","","","","",""
"","","","","","html-button-response","120","335781","0.0-120.0","112C874A37CE4F2F82B72F0D85A39016","019ce7b8-b0f2-7817-9567-a14ec7dc1f10","019ce7a0-0965-7aa7-a556-174d32a8e773","","753","
                    <div class=""stimulus-container"">
                        <img src=""images/causal_sequence/museum_causal/museum_causal_5.png"" class=""exp-image"">
                        <div class=""question-area"">
                            <p style=""font-size: 20px; font-weight: bold; margin: 0;"">Is there a person in this image?</p>
                        </div>
                    </div>","0","main_causal_task","5","museum_causal","","","",""
"","","","","","html-keyboard-response","121","340796","0.0-121.0","112C874A37CE4F2F82B72F0D85A39016","019ce7b8-b0f2-7817-9567-a14ec7dc1f10","019ce7a0-0965-7aa7-a556-174d32a8e773","","null","
                    <div class=""stimulus-container"">
                        <img src=""images/causal_sequence/museum_causal/museum_causal_6.png"" class=""exp-image"">
                        <div class=""question-area""></div> 
                    </div>","null","","","","","","",""
"","","","","","html-button-response","122","341623","0.0-122.0","112C874A37CE4F2F82B72F0D85A39016","019ce7b8-b0f2-7817-9567-a14ec7dc1f10","019ce7a0-0965-7aa7-a556-174d32a8e773","","825","
                    <div class=""stimulus-container"">
                        <img src=""images/causal_sequence/museum_causal/museum_causal_6.png"" class=""exp-image"">
                        <div class=""question-area"">
                            <p style=""font-size: 20px; font-weight: bold; margin: 0;"">Is there a person in this image?</p>
                        </div>
                    </div>","0","main_causal_task","6","museum_causal","","","",""
"","","","","","html-keyboard-response","123","346634","0.0-123.0","112C874A37CE4F2F82B72F0D85A39016","019ce7b8-b0f2-7817-9567-a14ec7dc1f10","019ce7a0-0965-7aa7-a556-174d32a8e773","","null","
                    <div class=""stimulus-container"">
                        <img src=""images/causal_sequence/museum_causal/museum_causal_7.png"" class=""exp-image"">
                        <div class=""question-area""></div> 
                    </div>","null","","","","","","",""
"","","","","","html-button-response","124","347373","0.0-124.0","112C874A37CE4F2F82B72F0D85A39016","019ce7b8-b0f2-7817-9567-a14ec7dc1f10","019ce7a0-0965-7aa7-a556-174d32a8e773","","737","
                    <div class=""stimulus-container"">
                        <img src=""images/causal_sequence/museum_causal/museum_causal_7.png"" class=""exp-image"">
                        <div class=""question-area"">
                            <p style=""font-size: 20px; font-weight: bold; margin: 0;"">Is there a person in this image?</p>
                        </div>
                    </div>","1","main_causal_task","7","museum_causal","","","",""
"","","","","","html-keyboard-response","125","352381","0.0-125.0","112C874A37CE4F2F82B72F0D85A39016","019ce7b8-b0f2-7817-9567-a14ec7dc1f10","019ce7a0-0965-7aa7-a556-174d32a8e773","","null","
                    <div class=""stimulus-container"">
                        <img src=""images/causal_sequence/museum_causal/museum_causal_8.png"" class=""exp-image"">
                        <div class=""question-area""></div> 
                    </div>","null","","","","","","",""
"","","","","","html-button-response","126","353473","0.0-126.0","112C874A37CE4F2F82B72F0D85A39016","019ce7b8-b0f2-7817-9567-a14ec7dc1f10","019ce7a0-0965-7aa7-a556-174d32a8e773","","1090","
                    <div class=""stimulus-container"">
                        <img src=""images/causal_sequence/museum_causal/museum_causal_8.png"" class=""exp-image"">
                        <div class=""question-area"">
                            <p style=""font-size: 20px; font-weight: bold; margin: 0;"">Is there a person in this image?</p>
                        </div>
                    </div>","0","main_causal_task","8","museum_causal","","","",""
"","","","","","html-keyboard-response","127","358479","0.0-127.0","112C874A37CE4F2F82B72F0D85A39016","019ce7b8-b0f2-7817-9567-a14ec7dc1f10","019ce7a0-0965-7aa7-a556-174d32a8e773","","null","
                    <div class=""stimulus-container"">
                        <img src=""images/causal_sequence/museum_causal/museum_causal_9.png"" class=""exp-image"">
                        <div class=""question-area""></div> 
                    </div>","null","","","","","","",""
"","","","","","html-button-response","128","359814","0.0-128.0","112C874A37CE4F2F82B72F0D85A39016","019ce7b8-b0f2-7817-9567-a14ec7dc1f10","019ce7a0-0965-7aa7-a556-174d32a8e773","","1332","
                    <div class=""stimulus-container"">
                        <img src=""images/causal_sequence/museum_causal/museum_causal_9.png"" class=""exp-image"">
                        <div class=""question-area"">
                            <p style=""font-size: 20px; font-weight: bold; margin: 0;"">Is there a person in this image?</p>
                        </div>
                    </div>","1","main_causal_task","9","museum_causal","","","",""
"","","","","","instructions","129","361356","0.0-129.0","112C874A37CE4F2F82B72F0D85A39016","019ce7b8-b0f2-7817-9567-a14ec7dc1f10","019ce7a0-0965-7aa7-a556-174d32a8e773","[{""page_index"":0,""viewing_time"":1540}]","1541","","","","","","","","",""
"","","","","","instructions","130","363408","0.0-130.0","112C874A37CE4F2F82B72F0D85A39016","019ce7b8-b0f2-7817-9567-a14ec7dc1f10","019ce7a0-0965-7aa7-a556-174d32a8e773","[{""page_index"":0,""viewing_time"":2050}]","2051","","","","","","","","",""
"","","","","","html-keyboard-response","131","364837","0.0-131.0","112C874A37CE4F2F82B72F0D85A39016","019ce7b8-b0f2-7817-9567-a14ec7dc1f10","019ce7a0-0965-7aa7-a556-174d32a8e773","","null","
        <div class=""stimulus-container"" style=""display: flex; align-items: center; justify-content: center; gap: 30px;"">
            <img src=""images/instructions/movie_1.png"" class=""exp-image"">
            <div style=""font-size: 40px; font-weight: bold; color: green; border: 5px solid green; padding: 25px; border-radius: 15px; background-color: #f0fff0;"">
                WORTH<br>$1
            </div>
        </div>
        <div class=""question-area""></div>","null","","","","","","",""
"","","","","","html-button-response","132","367697","0.0-132.0","112C874A37CE4F2F82B72F0D85A39016","019ce7b8-b0f2-7817-9567-a14ec7dc1f10","019ce7a0-0965-7aa7-a556-174d32a8e773","","2859","
        <div class=""stimulus-container"" style=""display: flex; align-items: center; justify-content: center; gap: 30px;"">
            <img src=""images/instructions/movie_1.png"" class=""exp-image"">
            <div style=""font-size: 40px; font-weight: bold; color: green; border: 5px solid green; padding: 25px; border-radius: 15px; background-color: #f0fff0;"">
                WORTH<br>$1
            </div>
        </div>
        <div class=""question-area"">
            <p style=""font-size: 20px; font-weight: bold; margin: 0;"">Was there a person in this image?</p>
        </div>","0","","","","","","",""
"","","","","","instructions","133","369562","0.0-133.0","112C874A37CE4F2F82B72F0D85A39016","019ce7b8-b0f2-7817-9567-a14ec7dc1f10","019ce7a0-0965-7aa7-a556-174d32a8e773","[{""page_index"":0,""viewing_time"":1863}]","1863","","","","","","","","",""
"","","","","","html-keyboard-response","134","379568","0.0-134.0","112C874A37CE4F2F82B72F0D85A39016","019ce7b8-b0f2-7817-9567-a14ec7dc1f10","019ce7a0-0965-7aa7-a556-174d32a8e773","","null","
            <div class=""stimulus-container"" style=""display: flex; align-items: center; justify-content: center; gap: 30px;"">
                <img src=""images/causal_sequence/the_performance_causal/the_performance_causal_7.png"" class=""exp-image"">
                <div style=""font-size: 40px; font-weight: bold; color: green; border: 5px solid green; padding: 25px; border-radius: 15px; background-color: #f0fff0;"">
                    WORTH<br>$1
                </div>
            </div>
            <div class=""question-area""></div>","null","","","","","","",""
"","","","","","html-button-response","135","380643","0.0-135.0","112C874A37CE4F2F82B72F0D85A39016","019ce7b8-b0f2-7817-9567-a14ec7dc1f10","019ce7a0-0965-7aa7-a556-174d32a8e773","","1072","
            <div class=""stimulus-container"" style=""display: flex; align-items: center; justify-content: center; gap: 30px;"">
                <img src=""images/causal_sequence/the_performance_causal/the_performance_causal_7.png"" class=""exp-image"">
                <div style=""font-size: 40px; font-weight: bold; color: green; border: 5px solid green; padding: 25px; border-radius: 15px; background-color: #f0fff0;"">
                    WORTH<br>$1
                </div>
            </div>
            <div class=""question-area"">
                <p style=""font-size: 20px; font-weight: bold; margin: 0;"">Was there a person in this image?</p>
            </div>","0","part2_value_learning","","the_performance_causal","7","","",""
"","","","","","html-keyboard-response","136","390655","0.0-136.0","112C874A37CE4F2F82B72F0D85A39016","019ce7b8-b0f2-7817-9567-a14ec7dc1f10","019ce7a0-0965-7aa7-a556-174d32a8e773","","null","
            <div class=""stimulus-container"" style=""display: flex; align-items: center; justify-content: center; gap: 30px;"">
                <img src=""images/causal_sequence/coin_causal/coin_causal_4.png"" class=""exp-image"">
                <div style=""font-size: 40px; font-weight: bold; color: green; border: 5px solid green; padding: 25px; border-radius: 15px; background-color: #f0fff0;"">
                    WORTH<br>$1
                </div>
            </div>
            <div class=""question-area""></div>","null","","","","","","",""
"","","","","","html-button-response","137","391621","0.0-137.0","112C874A37CE4F2F82B72F0D85A39016","019ce7b8-b0f2-7817-9567-a14ec7dc1f10","019ce7a0-0965-7aa7-a556-174d32a8e773","","964","
            <div class=""stimulus-container"" style=""display: flex; align-items: center; justify-content: center; gap: 30px;"">
                <img src=""images/causal_sequence/coin_causal/coin_causal_4.png"" class=""exp-image"">
                <div style=""font-size: 40px; font-weight: bold; color: green; border: 5px solid green; padding: 25px; border-radius: 15px; background-color: #f0fff0;"">
                    WORTH<br>$1
                </div>
            </div>
            <div class=""question-area"">
                <p style=""font-size: 20px; font-weight: bold; margin: 0;"">Was there a person in this image?</p>
            </div>","0","part2_value_learning","","coin_causal","4","","",""
"","","","","","html-keyboard-response","138","401628","0.0-138.0","112C874A37CE4F2F82B72F0D85A39016","019ce7b8-b0f2-7817-9567-a14ec7dc1f10","019ce7a0-0965-7aa7-a556-174d32a8e773","","null","
            <div class=""stimulus-container"" style=""display: flex; align-items: center; justify-content: center; gap: 30px;"">
                <img src=""images/causal_sequence/saving_a_cat_causal/saving_a_cat_causal_4.png"" class=""exp-image"">
                <div style=""font-size: 40px; font-weight: bold; color: green; border: 5px solid green; padding: 25px; border-radius: 15px; background-color: #f0fff0;"">
                    WORTH<br>$1
                </div>
            </div>
            <div class=""question-area""></div>","null","","","","","","",""
"","","","","","html-button-response","139","402446","0.0-139.0","112C874A37CE4F2F82B72F0D85A39016","019ce7b8-b0f2-7817-9567-a14ec7dc1f10","019ce7a0-0965-7aa7-a556-174d32a8e773","","816","
            <div class=""stimulus-container"" style=""display: flex; align-items: center; justify-content: center; gap: 30px;"">
                <img src=""images/causal_sequence/saving_a_cat_causal/saving_a_cat_causal_4.png"" class=""exp-image"">
                <div style=""font-size: 40px; font-weight: bold; color: green; border: 5px solid green; padding: 25px; border-radius: 15px; background-color: #f0fff0;"">
                    WORTH<br>$1
                </div>
            </div>
            <div class=""question-area"">
                <p style=""font-size: 20px; font-weight: bold; margin: 0;"">Was there a person in this image?</p>
            </div>","0","part2_value_learning","","saving_a_cat_causal","4","","",""
"","","","","","html-keyboard-response","140","412453","0.0-140.0","112C874A37CE4F2F82B72F0D85A39016","019ce7b8-b0f2-7817-9567-a14ec7dc1f10","019ce7a0-0965-7aa7-a556-174d32a8e773","","null","
            <div class=""stimulus-container"" style=""display: flex; align-items: center; justify-content: center; gap: 30px;"">
                <img src=""images/causal_sequence/dog_causal/dog_causal_6.png"" class=""exp-image"">
                <div style=""font-size: 40px; font-weight: bold; color: green; border: 5px solid green; padding: 25px; border-radius: 15px; background-color: #f0fff0;"">
                    WORTH<br>$1
                </div>
            </div>
            <div class=""question-area""></div>","null","","","","","","",""
"","","","","","html-button-response","141","413298","0.0-141.0","112C874A37CE4F2F82B72F0D85A39016","019ce7b8-b0f2-7817-9567-a14ec7dc1f10","019ce7a0-0965-7aa7-a556-174d32a8e773","","844","
            <div class=""stimulus-container"" style=""display: flex; align-items: center; justify-content: center; gap: 30px;"">
                <img src=""images/causal_sequence/dog_causal/dog_causal_6.png"" class=""exp-image"">
                <div style=""font-size: 40px; font-weight: bold; color: green; border: 5px solid green; padding: 25px; border-radius: 15px; background-color: #f0fff0;"">
                    WORTH<br>$1
                </div>
            </div>
            <div class=""question-area"">
                <p style=""font-size: 20px; font-weight: bold; margin: 0;"">Was there a person in this image?</p>
            </div>","0","part2_value_learning","","dog_causal","6","","",""
"","","","","","html-keyboard-response","142","423313","0.0-142.0","112C874A37CE4F2F82B72F0D85A39016","019ce7b8-b0f2-7817-9567-a14ec7dc1f10","019ce7a0-0965-7aa7-a556-174d32a8e773","","null","
            <div class=""stimulus-container"" style=""display: flex; align-items: center; justify-content: center; gap: 30px;"">
                <img src=""images/causal_sequence/package_causal/package_causal_6.png"" class=""exp-image"">
                <div style=""font-size: 40px; font-weight: bold; color: green; border: 5px solid green; padding: 25px; border-radius: 15px; background-color: #f0fff0;"">
                    WORTH<br>$1
                </div>
            </div>
            <div class=""question-area""></div>","null","","","","","","",""
"","","","","","html-button-response","143","424035","0.0-143.0","112C874A37CE4F2F82B72F0D85A39016","019ce7b8-b0f2-7817-9567-a14ec7dc1f10","019ce7a0-0965-7aa7-a556-174d32a8e773","","719","
            <div class=""stimulus-container"" style=""display: flex; align-items: center; justify-content: center; gap: 30px;"">
                <img src=""images/causal_sequence/package_causal/package_causal_6.png"" class=""exp-image"">
                <div style=""font-size: 40px; font-weight: bold; color: green; border: 5px solid green; padding: 25px; border-radius: 15px; background-color: #f0fff0;"">
                    WORTH<br>$1
                </div>
            </div>
            <div class=""question-area"">
                <p style=""font-size: 20px; font-weight: bold; margin: 0;"">Was there a person in this image?</p>
            </div>","0","part2_value_learning","","package_causal","6","","",""
"","","","","","html-keyboard-response","144","434050","0.0-144.0","112C874A37CE4F2F82B72F0D85A39016","019ce7b8-b0f2-7817-9567-a14ec7dc1f10","019ce7a0-0965-7aa7-a556-174d32a8e773","","null","
            <div class=""stimulus-container"" style=""display: flex; align-items: center; justify-content: center; gap: 30px;"">
                <img src=""images/causal_sequence/museum_causal/museum_causal_7.png"" class=""exp-image"">
                <div style=""font-size: 40px; font-weight: bold; color: green; border: 5px solid green; padding: 25px; border-radius: 15px; background-color: #f0fff0;"">
                    WORTH<br>$1
                </div>
            </div>
            <div class=""question-area""></div>","null","","","","","","",""
"","","","","","html-button-response","145","434943","0.0-145.0","112C874A37CE4F2F82B72F0D85A39016","019ce7b8-b0f2-7817-9567-a14ec7dc1f10","019ce7a0-0965-7aa7-a556-174d32a8e773","","891","
            <div class=""stimulus-container"" style=""display: flex; align-items: center; justify-content: center; gap: 30px;"">
                <img src=""images/causal_sequence/museum_causal/museum_causal_7.png"" class=""exp-image"">
                <div style=""font-size: 40px; font-weight: bold; color: green; border: 5px solid green; padding: 25px; border-radius: 15px; background-color: #f0fff0;"">
                    WORTH<br>$1
                </div>
            </div>
            <div class=""question-area"">
                <p style=""font-size: 20px; font-weight: bold; margin: 0;"">Was there a person in this image?</p>
            </div>","1","part2_value_learning","","museum_causal","7","","",""
"","","","","","instructions","146","436393","0.0-146.0","112C874A37CE4F2F82B72F0D85A39016","019ce7b8-b0f2-7817-9567-a14ec7dc1f10","019ce7a0-0965-7aa7-a556-174d32a8e773","[{""page_index"":0,""viewing_time"":1448}]","1449","","","","","","","","",""
"","","","","","instructions","147","437309","0.0-147.0","112C874A37CE4F2F82B72F0D85A39016","019ce7b8-b0f2-7817-9567-a14ec7dc1f10","019ce7a0-0965-7aa7-a556-174d32a8e773","[{""page_index"":0,""viewing_time"":915}]","916","","","","","","","","",""
"","","","","","html-keyboard-response","148","447327","0.0-148.0-0.0","112C874A37CE4F2F82B72F0D85A39016","019ce7b8-b0f2-7817-9567-a14ec7dc1f10","019ce7a0-0965-7aa7-a556-174d32a8e773","","null","
                        <div style=""font-family: Arial; margin-bottom: 20px;""><h3>Which image is more valuable?</h3></div>
                        <div class=""stimulus-container"" style=""display: flex; width: 1100px; justify-content: center; gap: 50px;"">
                            <img src=""images/causal_sequence/package_causal/package_causal_4.png"" class=""exp-image"">
                            <img src=""images/causal_sequence/package_causal/package_causal_8.png"" class=""exp-image"">
                        </div>","null","","","","","","",""
"","","","","","html-button-response","149","448603","0.0-148.0-1.0","112C874A37CE4F2F82B72F0D85A39016","019ce7b8-b0f2-7817-9567-a14ec7dc1f10","019ce7a0-0965-7aa7-a556-174d32a8e773","","1275","
                        <div style=""font-family: Arial; margin-bottom: 20px;""><h3>Which image is more valuable?</h3></div>
                        <div class=""stimulus-container"" style=""display: flex; width: 1100px; justify-content: center; gap: 50px;"">
                            <img src=""images/causal_sequence/package_causal/package_causal_4.png"" class=""exp-image"">
                            <img src=""images/causal_sequence/package_causal/package_causal_8.png"" class=""exp-image"">
                        </div>","1","part3_final_choice","","package_causal","","6","8","2"
"","","","","","html-keyboard-response","150","458615","0.0-149.0-0.0","112C874A37CE4F2F82B72F0D85A39016","019ce7b8-b0f2-7817-9567-a14ec7dc1f10","019ce7a0-0965-7aa7-a556-174d32a8e773","","null","
                        <div style=""font-family: Arial; margin-bottom: 20px;""><h3>Which image is more valuable?</h3></div>
                        <div class=""stimulus-container"" style=""display: flex; width: 1100px; justify-content: center; gap: 50px;"">
                            <img src=""images/causal_sequence/museum_causal/museum_causal_9.png"" class=""exp-image"">
                            <img src=""images/causal_sequence/museum_causal/museum_causal_5.png"" class=""exp-image"">
                        </div>","null","","","","","","",""
"","","","","","html-button-response","151","459808","0.0-149.0-1.0","112C874A37CE4F2F82B72F0D85A39016","019ce7b8-b0f2-7817-9567-a14ec7dc1f10","019ce7a0-0965-7aa7-a556-174d32a8e773","","1191","
                        <div style=""font-family: Arial; margin-bottom: 20px;""><h3>Which image is more valuable?</h3></div>
                        <div class=""stimulus-container"" style=""display: flex; width: 1100px; justify-content: center; gap: 50px;"">
                            <img src=""images/causal_sequence/museum_causal/museum_causal_9.png"" class=""exp-image"">
                            <img src=""images/causal_sequence/museum_causal/museum_causal_5.png"" class=""exp-image"">
                        </div>","0","part3_final_choice","","museum_causal","","7","9","2"
"","","","","","html-keyboard-response","152","469817","0.0-150.0-0.0","112C874A37CE4F2F82B72F0D85A39016","019ce7b8-b0f2-7817-9567-a14ec7dc1f10","019ce7a0-0965-7aa7-a556-174d32a8e773","","null","
                        <div style=""font-family: Arial; margin-bottom: 20px;""><h3>Which image is more valuable?</h3></div>
                        <div class=""stimulus-container"" style=""display: flex; width: 1100px; justify-content: center; gap: 50px;"">
                            <img src=""images/causal_sequence/dog_causal/dog_causal_4.png"" class=""exp-image"">
                            <img src=""images/causal_sequence/dog_causal/dog_causal_8.png"" class=""exp-image"">
                        </div>","null","","","","","","",""
"","","","","","html-button-response","153","471019","0.0-150.0-1.0","112C874A37CE4F2F82B72F0D85A39016","019ce7b8-b0f2-7817-9567-a14ec7dc1f10","019ce7a0-0965-7aa7-a556-174d32a8e773","","1200","
                        <div style=""font-family: Arial; margin-bottom: 20px;""><h3>Which image is more valuable?</h3></div>
                        <div class=""stimulus-container"" style=""display: flex; width: 1100px; justify-content: center; gap: 50px;"">
                            <img src=""images/causal_sequence/dog_causal/dog_causal_4.png"" class=""exp-image"">
                            <img src=""images/causal_sequence/dog_causal/dog_causal_8.png"" class=""exp-image"">
                        </div>","0","part3_final_choice","","dog_causal","","6","4","-2"
"","","","","","html-keyboard-response","154","481027","0.0-151.0-0.0","112C874A37CE4F2F82B72F0D85A39016","019ce7b8-b0f2-7817-9567-a14ec7dc1f10","019ce7a0-0965-7aa7-a556-174d32a8e773","","null","
                        <div style=""font-family: Arial; margin-bottom: 20px;""><h3>Which image is more valuable?</h3></div>
                        <div class=""stimulus-container"" style=""display: flex; width: 1100px; justify-content: center; gap: 50px;"">
                            <img src=""images/causal_sequence/coin_causal/coin_causal_6.png"" class=""exp-image"">
                            <img src=""images/causal_sequence/coin_causal/coin_causal_2.png"" class=""exp-image"">
                        </div>","null","","","","","","",""
"","","","","","html-button-response","155","482070","0.0-151.0-1.0","112C874A37CE4F2F82B72F0D85A39016","019ce7b8-b0f2-7817-9567-a14ec7dc1f10","019ce7a0-0965-7aa7-a556-174d32a8e773","","1040","
                        <div style=""font-family: Arial; margin-bottom: 20px;""><h3>Which image is more valuable?</h3></div>
                        <div class=""stimulus-container"" style=""display: flex; width: 1100px; justify-content: center; gap: 50px;"">
                            <img src=""images/causal_sequence/coin_causal/coin_causal_6.png"" class=""exp-image"">
                            <img src=""images/causal_sequence/coin_causal/coin_causal_2.png"" class=""exp-image"">
                        </div>","1","part3_final_choice","","coin_causal","","4","2","-2"
"","","","","","html-keyboard-response","156","492080","0.0-152.0-0.0","112C874A37CE4F2F82B72F0D85A39016","019ce7b8-b0f2-7817-9567-a14ec7dc1f10","019ce7a0-0965-7aa7-a556-174d32a8e773","","null","
                        <div style=""font-family: Arial; margin-bottom: 20px;""><h3>Which image is more valuable?</h3></div>
                        <div class=""stimulus-container"" style=""display: flex; width: 1100px; justify-content: center; gap: 50px;"">
                            <img src=""images/causal_sequence/the_performance_causal/the_performance_causal_5.png"" class=""exp-image"">
                            <img src=""images/causal_sequence/the_performance_causal/the_performance_causal_9.png"" class=""exp-image"">
                        </div>","null","","","","","","",""
"","","","","","html-button-response","157","493317","0.0-152.0-1.0","112C874A37CE4F2F82B72F0D85A39016","019ce7b8-b0f2-7817-9567-a14ec7dc1f10","019ce7a0-0965-7aa7-a556-174d32a8e773","","1234","
                        <div style=""font-family: Arial; margin-bottom: 20px;""><h3>Which image is more valuable?</h3></div>
                        <div class=""stimulus-container"" style=""display: flex; width: 1100px; justify-content: center; gap: 50px;"">
                            <img src=""images/causal_sequence/the_performance_causal/the_performance_causal_5.png"" class=""exp-image"">
                            <img src=""images/causal_sequence/the_performance_causal/the_performance_causal_9.png"" class=""exp-image"">
                        </div>","0","part3_final_choice","","the_performance_causal","","7","5","-2"
"","","","","","html-keyboard-response","158","503320","0.0-153.0-0.0","112C874A37CE4F2F82B72F0D85A39016","019ce7b8-b0f2-7817-9567-a14ec7dc1f10","019ce7a0-0965-7aa7-a556-174d32a8e773","","null","
                        <div style=""font-family: Arial; margin-bottom: 20px;""><h3>Which image is more valuable?</h3></div>
                        <div class=""stimulus-container"" style=""display: flex; width: 1100px; justify-content: center; gap: 50px;"">
                            <img src=""images/causal_sequence/saving_a_cat_causal/saving_a_cat_causal_6.png"" class=""exp-image"">
                            <img src=""images/causal_sequence/saving_a_cat_causal/saving_a_cat_causal_2.png"" class=""exp-image"">
                        </div>","null","","","","","","",""
"","","","","","html-button-response","159","504554","0.0-153.0-1.0","112C874A37CE4F2F82B72F0D85A39016","019ce7b8-b0f2-7817-9567-a14ec7dc1f10","019ce7a0-0965-7aa7-a556-174d32a8e773","","1231","
                        <div style=""font-family: Arial; margin-bottom: 20px;""><h3>Which image is more valuable?</h3></div>
                        <div class=""stimulus-container"" style=""display: flex; width: 1100px; justify-content: center; gap: 50px;"">
                            <img src=""images/causal_sequence/saving_a_cat_causal/saving_a_cat_causal_6.png"" class=""exp-image"">
                            <img src=""images/causal_sequence/saving_a_cat_causal/saving_a_cat_causal_2.png"" class=""exp-image"">
                        </div>","1","part3_final_choice","","saving_a_cat_causal","","4","2","-2"
"","","","","","survey-text","160","517925","0.0-154.0","112C874A37CE4F2F82B72F0D85A39016","019ce7b8-b0f2-7817-9567-a14ec7dc1f10","019ce7a0-0965-7aa7-a556-174d32a8e773","","13354","","{""gender"":""MALE"",""age"":""26"",""decision_strategy"":""memory"",""consistency_check"":""same logic""}","demographics_and_strategy","","","","","",""
"","","","","","instructions","161","521221","0.0-155.0","112C874A37CE4F2F82B72F0D85A39016","019ce7b8-b0f2-7817-9567-a14ec7dc1f10","019ce7a0-0965-7aa7-a556-174d32a8e773","[{""page_index"":0,""viewing_time"":3293}]","3294","","","","","","","","",""
