"success","timeout","failed_images","failed_audio","failed_video","trial_type","trial_index","time_elapsed","internal_node_id","subject_id","study_id","session_id","view_history","rt","stimulus","response","task","image_index","folder","sequence_type","valuable_image_index","reward_type","chosen_image_index","correct_choice"
"true","false","[]","[]","[]","preload","0","8049","0.0-0.0","F2664AC33EEC478A8FE2273B08C538EE","019cef8a-ae0c-7a18-8edf-ce7960b5a1ea","019cef87-c56d-7b55-9135-c5814367ec25","","","","","","","","","","","",""
"","","","","","instructions","1","10508","0.0-1.0","F2664AC33EEC478A8FE2273B08C538EE","019cef8a-ae0c-7a18-8edf-ce7960b5a1ea","019cef87-c56d-7b55-9135-c5814367ec25","[{""page_index"":0,""viewing_time"":2456}]","2457","","","","","","","","","",""
"","","","","","instructions","2","112789","0.0-2.0","F2664AC33EEC478A8FE2273B08C538EE","019cef8a-ae0c-7a18-8edf-ce7960b5a1ea","019cef87-c56d-7b55-9135-c5814367ec25","[{""page_index"":0,""viewing_time"":102280}]","102280","","","","","","","","","",""
"true","","","","","fullscreen","3","154460","0.0-3.0","F2664AC33EEC478A8FE2273B08C538EE","019cef8a-ae0c-7a18-8edf-ce7960b5a1ea","019cef87-c56d-7b55-9135-c5814367ec25","","40665","","","","","","","","","",""
"","","","","","instructions","4","159979","0.0-4.0","F2664AC33EEC478A8FE2273B08C538EE","019cef8a-ae0c-7a18-8edf-ce7960b5a1ea","019cef87-c56d-7b55-9135-c5814367ec25","[{""page_index"":0,""viewing_time"":5517}]","5518","","","","","","","","","",""
"","","","","","instructions","5","164295","0.0-5.0","F2664AC33EEC478A8FE2273B08C538EE","019cef8a-ae0c-7a18-8edf-ce7960b5a1ea","019cef87-c56d-7b55-9135-c5814367ec25","[{""page_index"":0,""viewing_time"":4315}]","4316","","","","","","","","","",""
"","","","","","html-keyboard-response","6","168313","0.0-6.0","F2664AC33EEC478A8FE2273B08C538EE","019cef8a-ae0c-7a18-8edf-ce7960b5a1ea","019cef87-c56d-7b55-9135-c5814367ec25","","null","
                <div class=""stimulus-container"">
                    <img src=""images/instructions/movie_1.png"" class=""exp-image"">
                    <div class=""question-area""></div> 
                </div>","null","","","","","","","",""
"","","","","","html-button-response","7","170113","0.0-7.0","F2664AC33EEC478A8FE2273B08C538EE","019cef8a-ae0c-7a18-8edf-ce7960b5a1ea","019cef87-c56d-7b55-9135-c5814367ec25","","1799","
                <div class=""stimulus-container"">
                    <img src=""images/instructions/movie_1.png"" class=""exp-image"">
                    <div class=""question-area"">
                        <p style=""font-size: 20px; font-weight: bold; margin: 0;"">Was there a person in this image?</p>
                    </div>
                </div>","0","example_question","1","","","","","",""
"","","","","","html-keyboard-response","8","174122","0.0-8.0","F2664AC33EEC478A8FE2273B08C538EE","019cef8a-ae0c-7a18-8edf-ce7960b5a1ea","019cef87-c56d-7b55-9135-c5814367ec25","","null","
                <div class=""stimulus-container"">
                    <img src=""images/instructions/movie_2.png"" class=""exp-image"">
                    <div class=""question-area""></div> 
                </div>","null","","","","","","","",""
"","","","","","html-button-response","9","174845","0.0-9.0","F2664AC33EEC478A8FE2273B08C538EE","019cef8a-ae0c-7a18-8edf-ce7960b5a1ea","019cef87-c56d-7b55-9135-c5814367ec25","","722","
                <div class=""stimulus-container"">
                    <img src=""images/instructions/movie_2.png"" class=""exp-image"">
                    <div class=""question-area"">
                        <p style=""font-size: 20px; font-weight: bold; margin: 0;"">Was there a person in this image?</p>
                    </div>
                </div>","0","example_question","2","","","","","",""
"","","","","","html-keyboard-response","10","178846","0.0-10.0","F2664AC33EEC478A8FE2273B08C538EE","019cef8a-ae0c-7a18-8edf-ce7960b5a1ea","019cef87-c56d-7b55-9135-c5814367ec25","","null","
                <div class=""stimulus-container"">
                    <img src=""images/instructions/movie_3.png"" class=""exp-image"">
                    <div class=""question-area""></div> 
                </div>","null","","","","","","","",""
"","","","","","html-button-response","11","179691","0.0-11.0","F2664AC33EEC478A8FE2273B08C538EE","019cef8a-ae0c-7a18-8edf-ce7960b5a1ea","019cef87-c56d-7b55-9135-c5814367ec25","","843","
                <div class=""stimulus-container"">
                    <img src=""images/instructions/movie_3.png"" class=""exp-image"">
                    <div class=""question-area"">
                        <p style=""font-size: 20px; font-weight: bold; margin: 0;"">Was there a person in this image?</p>
                    </div>
                </div>","0","example_question","3","","","","","",""
"","","","","","html-keyboard-response","12","183704","0.0-12.0","F2664AC33EEC478A8FE2273B08C538EE","019cef8a-ae0c-7a18-8edf-ce7960b5a1ea","019cef87-c56d-7b55-9135-c5814367ec25","","null","
                <div class=""stimulus-container"">
                    <img src=""images/instructions/movie_4.png"" class=""exp-image"">
                    <div class=""question-area""></div> 
                </div>","null","","","","","","","",""
"","","","","","html-button-response","13","184453","0.0-13.0","F2664AC33EEC478A8FE2273B08C538EE","019cef8a-ae0c-7a18-8edf-ce7960b5a1ea","019cef87-c56d-7b55-9135-c5814367ec25","","748","
                <div class=""stimulus-container"">
                    <img src=""images/instructions/movie_4.png"" class=""exp-image"">
                    <div class=""question-area"">
                        <p style=""font-size: 20px; font-weight: bold; margin: 0;"">Was there a person in this image?</p>
                    </div>
                </div>","0","example_question","4","","","","","",""
"","","","","","instructions","14","185908","0.0-14.0","F2664AC33EEC478A8FE2273B08C538EE","019cef8a-ae0c-7a18-8edf-ce7960b5a1ea","019cef87-c56d-7b55-9135-c5814367ec25","[{""page_index"":0,""viewing_time"":1454}]","1455","","","","","","","","","",""
"","","","","","instructions","15","189645","0.0-15.0","F2664AC33EEC478A8FE2273B08C538EE","019cef8a-ae0c-7a18-8edf-ce7960b5a1ea","019cef87-c56d-7b55-9135-c5814367ec25","[{""page_index"":0,""viewing_time"":3736}]","3736","","","","","","","","","",""
"","","","","","html-keyboard-response","16","190654","0.0-16.0","F2664AC33EEC478A8FE2273B08C538EE","019cef8a-ae0c-7a18-8edf-ce7960b5a1ea","019cef87-c56d-7b55-9135-c5814367ec25","","null","<div style=""background-color: white; width: 100vw; height: 100vh;""></div>","null","","","","","","","",""
"","","","","","html-keyboard-response","17","195663","0.0-17.0","F2664AC33EEC478A8FE2273B08C538EE","019cef8a-ae0c-7a18-8edf-ce7960b5a1ea","019cef87-c56d-7b55-9135-c5814367ec25","","null","
                <div class=""stimulus-container"">
                    <img src=""images/causal_sequence/the_performance_causal/the_performance_causal_1.png"" class=""exp-image"">
                    <div class=""question-area""></div> 
                </div>","null","","","","","","","",""
"","","","","","html-button-response","18","197347","0.0-18.0","F2664AC33EEC478A8FE2273B08C538EE","019cef8a-ae0c-7a18-8edf-ce7960b5a1ea","019cef87-c56d-7b55-9135-c5814367ec25","","1683","
                <div class=""stimulus-container"">
                    <img src=""images/causal_sequence/the_performance_causal/the_performance_causal_1.png"" class=""exp-image"">
                    <div class=""question-area"">
                        <p style=""font-size: 20px; font-weight: bold; margin: 0;"">Is there a person in this image?</p>
                    </div>
                </div>","0","main_experiment_trial","1","the_performance_causal","causal_sequence","","","",""
"","","","","","html-keyboard-response","19","202361","0.0-19.0","F2664AC33EEC478A8FE2273B08C538EE","019cef8a-ae0c-7a18-8edf-ce7960b5a1ea","019cef87-c56d-7b55-9135-c5814367ec25","","null","
                <div class=""stimulus-container"">
                    <img src=""images/causal_sequence/the_performance_causal/the_performance_causal_2.png"" class=""exp-image"">
                    <div class=""question-area""></div> 
                </div>","null","","","","","","","",""
"","","","","","html-button-response","20","203289","0.0-20.0","F2664AC33EEC478A8FE2273B08C538EE","019cef8a-ae0c-7a18-8edf-ce7960b5a1ea","019cef87-c56d-7b55-9135-c5814367ec25","","926","
                <div class=""stimulus-container"">
                    <img src=""images/causal_sequence/the_performance_causal/the_performance_causal_2.png"" class=""exp-image"">
                    <div class=""question-area"">
                        <p style=""font-size: 20px; font-weight: bold; margin: 0;"">Is there a person in this image?</p>
                    </div>
                </div>","0","main_experiment_trial","2","the_performance_causal","causal_sequence","","","",""
"","","","","","html-keyboard-response","21","208293","0.0-21.0","F2664AC33EEC478A8FE2273B08C538EE","019cef8a-ae0c-7a18-8edf-ce7960b5a1ea","019cef87-c56d-7b55-9135-c5814367ec25","","null","
                <div class=""stimulus-container"">
                    <img src=""images/causal_sequence/the_performance_causal/the_performance_causal_3.png"" class=""exp-image"">
                    <div class=""question-area""></div> 
                </div>","null","","","","","","","",""
"","","","","","html-button-response","22","209035","0.0-22.0","F2664AC33EEC478A8FE2273B08C538EE","019cef8a-ae0c-7a18-8edf-ce7960b5a1ea","019cef87-c56d-7b55-9135-c5814367ec25","","741","
                <div class=""stimulus-container"">
                    <img src=""images/causal_sequence/the_performance_causal/the_performance_causal_3.png"" class=""exp-image"">
                    <div class=""question-area"">
                        <p style=""font-size: 20px; font-weight: bold; margin: 0;"">Is there a person in this image?</p>
                    </div>
                </div>","0","main_experiment_trial","3","the_performance_causal","causal_sequence","","","",""
"","","","","","html-keyboard-response","23","214040","0.0-23.0","F2664AC33EEC478A8FE2273B08C538EE","019cef8a-ae0c-7a18-8edf-ce7960b5a1ea","019cef87-c56d-7b55-9135-c5814367ec25","","null","
                <div class=""stimulus-container"">
                    <img src=""images/causal_sequence/the_performance_causal/the_performance_causal_4.png"" class=""exp-image"">
                    <div class=""question-area""></div> 
                </div>","null","","","","","","","",""
"","","","","","html-button-response","24","215197","0.0-24.0","F2664AC33EEC478A8FE2273B08C538EE","019cef8a-ae0c-7a18-8edf-ce7960b5a1ea","019cef87-c56d-7b55-9135-c5814367ec25","","1155","
                <div class=""stimulus-container"">
                    <img src=""images/causal_sequence/the_performance_causal/the_performance_causal_4.png"" class=""exp-image"">
                    <div class=""question-area"">
                        <p style=""font-size: 20px; font-weight: bold; margin: 0;"">Is there a person in this image?</p>
                    </div>
                </div>","0","main_experiment_trial","4","the_performance_causal","causal_sequence","","","",""
"","","","","","html-keyboard-response","25","220205","0.0-25.0","F2664AC33EEC478A8FE2273B08C538EE","019cef8a-ae0c-7a18-8edf-ce7960b5a1ea","019cef87-c56d-7b55-9135-c5814367ec25","","null","
                <div class=""stimulus-container"">
                    <img src=""images/causal_sequence/the_performance_causal/the_performance_causal_5.png"" class=""exp-image"">
                    <div class=""question-area""></div> 
                </div>","null","","","","","","","",""
"","","","","","html-button-response","26","221263","0.0-26.0","F2664AC33EEC478A8FE2273B08C538EE","019cef8a-ae0c-7a18-8edf-ce7960b5a1ea","019cef87-c56d-7b55-9135-c5814367ec25","","1057","
                <div class=""stimulus-container"">
                    <img src=""images/causal_sequence/the_performance_causal/the_performance_causal_5.png"" class=""exp-image"">
                    <div class=""question-area"">
                        <p style=""font-size: 20px; font-weight: bold; margin: 0;"">Is there a person in this image?</p>
                    </div>
                </div>","0","main_experiment_trial","5","the_performance_causal","causal_sequence","","","",""
"","","","","","html-keyboard-response","27","226273","0.0-27.0","F2664AC33EEC478A8FE2273B08C538EE","019cef8a-ae0c-7a18-8edf-ce7960b5a1ea","019cef87-c56d-7b55-9135-c5814367ec25","","null","
                <div class=""stimulus-container"">
                    <img src=""images/causal_sequence/the_performance_causal/the_performance_causal_6.png"" class=""exp-image"">
                    <div class=""question-area""></div> 
                </div>","null","","","","","","","",""
"","","","","","html-button-response","28","226699","0.0-28.0","F2664AC33EEC478A8FE2273B08C538EE","019cef8a-ae0c-7a18-8edf-ce7960b5a1ea","019cef87-c56d-7b55-9135-c5814367ec25","","424","
                <div class=""stimulus-container"">
                    <img src=""images/causal_sequence/the_performance_causal/the_performance_causal_6.png"" class=""exp-image"">
                    <div class=""question-area"">
                        <p style=""font-size: 20px; font-weight: bold; margin: 0;"">Is there a person in this image?</p>
                    </div>
                </div>","0","main_experiment_trial","6","the_performance_causal","causal_sequence","","","",""
"","","","","","html-keyboard-response","29","231700","0.0-29.0","F2664AC33EEC478A8FE2273B08C538EE","019cef8a-ae0c-7a18-8edf-ce7960b5a1ea","019cef87-c56d-7b55-9135-c5814367ec25","","null","
                <div class=""stimulus-container"">
                    <img src=""images/causal_sequence/the_performance_causal/the_performance_causal_7.png"" class=""exp-image"">
                    <div class=""question-area""></div> 
                </div>","null","","","","","","","",""
"","","","","","html-button-response","30","232509","0.0-30.0","F2664AC33EEC478A8FE2273B08C538EE","019cef8a-ae0c-7a18-8edf-ce7960b5a1ea","019cef87-c56d-7b55-9135-c5814367ec25","","807","
                <div class=""stimulus-container"">
                    <img src=""images/causal_sequence/the_performance_causal/the_performance_causal_7.png"" class=""exp-image"">
                    <div class=""question-area"">
                        <p style=""font-size: 20px; font-weight: bold; margin: 0;"">Is there a person in this image?</p>
                    </div>
                </div>","0","main_experiment_trial","7","the_performance_causal","causal_sequence","","","",""
"","","","","","html-keyboard-response","31","237514","0.0-31.0","F2664AC33EEC478A8FE2273B08C538EE","019cef8a-ae0c-7a18-8edf-ce7960b5a1ea","019cef87-c56d-7b55-9135-c5814367ec25","","null","
                <div class=""stimulus-container"">
                    <img src=""images/causal_sequence/the_performance_causal/the_performance_causal_8.png"" class=""exp-image"">
                    <div class=""question-area""></div> 
                </div>","null","","","","","","","",""
"","","","","","html-button-response","32","238099","0.0-32.0","F2664AC33EEC478A8FE2273B08C538EE","019cef8a-ae0c-7a18-8edf-ce7960b5a1ea","019cef87-c56d-7b55-9135-c5814367ec25","","584","
                <div class=""stimulus-container"">
                    <img src=""images/causal_sequence/the_performance_causal/the_performance_causal_8.png"" class=""exp-image"">
                    <div class=""question-area"">
                        <p style=""font-size: 20px; font-weight: bold; margin: 0;"">Is there a person in this image?</p>
                    </div>
                </div>","0","main_experiment_trial","8","the_performance_causal","causal_sequence","","","",""
"","","","","","html-keyboard-response","33","243111","0.0-33.0","F2664AC33EEC478A8FE2273B08C538EE","019cef8a-ae0c-7a18-8edf-ce7960b5a1ea","019cef87-c56d-7b55-9135-c5814367ec25","","null","
                <div class=""stimulus-container"">
                    <img src=""images/causal_sequence/the_performance_causal/the_performance_causal_9.png"" class=""exp-image"">
                    <div class=""question-area""></div> 
                </div>","null","","","","","","","",""
"","","","","","html-button-response","34","244293","0.0-34.0","F2664AC33EEC478A8FE2273B08C538EE","019cef8a-ae0c-7a18-8edf-ce7960b5a1ea","019cef87-c56d-7b55-9135-c5814367ec25","","1181","
                <div class=""stimulus-container"">
                    <img src=""images/causal_sequence/the_performance_causal/the_performance_causal_9.png"" class=""exp-image"">
                    <div class=""question-area"">
                        <p style=""font-size: 20px; font-weight: bold; margin: 0;"">Is there a person in this image?</p>
                    </div>
                </div>","0","main_experiment_trial","9","the_performance_causal","causal_sequence","","","",""
"","","","","","html-keyboard-response","35","249297","0.0-35.0","F2664AC33EEC478A8FE2273B08C538EE","019cef8a-ae0c-7a18-8edf-ce7960b5a1ea","019cef87-c56d-7b55-9135-c5814367ec25","","null","
                <div class=""stimulus-container"">
                    <img src=""images/causal_sequence/the_performance_causal/the_performance_causal_ten.png"" class=""exp-image"">
                    <div class=""question-area""></div> 
                </div>","null","","","","","","","",""
"","","","","","html-button-response","36","250113","0.0-36.0","F2664AC33EEC478A8FE2273B08C538EE","019cef8a-ae0c-7a18-8edf-ce7960b5a1ea","019cef87-c56d-7b55-9135-c5814367ec25","","815","
                <div class=""stimulus-container"">
                    <img src=""images/causal_sequence/the_performance_causal/the_performance_causal_ten.png"" class=""exp-image"">
                    <div class=""question-area"">
                        <p style=""font-size: 20px; font-weight: bold; margin: 0;"">Is there a person in this image?</p>
                    </div>
                </div>","0","main_experiment_trial","ten","the_performance_causal","causal_sequence","","","",""
"","","","","","html-keyboard-response","37","251116","0.0-37.0","F2664AC33EEC478A8FE2273B08C538EE","019cef8a-ae0c-7a18-8edf-ce7960b5a1ea","019cef87-c56d-7b55-9135-c5814367ec25","","null","<div style=""background-color: white; width: 100vw; height: 100vh;""></div>","null","","","","","","","",""
"","","","","","html-keyboard-response","38","256122","0.0-38.0","F2664AC33EEC478A8FE2273B08C538EE","019cef8a-ae0c-7a18-8edf-ce7960b5a1ea","019cef87-c56d-7b55-9135-c5814367ec25","","null","
                <div class=""stimulus-container"">
                    <img src=""images/causal_sequence/saving_a_cat_causal/saving_a_cat_causal_1.png"" class=""exp-image"">
                    <div class=""question-area""></div> 
                </div>","null","","","","","","","",""
"","","","","","html-button-response","39","256771","0.0-39.0","F2664AC33EEC478A8FE2273B08C538EE","019cef8a-ae0c-7a18-8edf-ce7960b5a1ea","019cef87-c56d-7b55-9135-c5814367ec25","","647","
                <div class=""stimulus-container"">
                    <img src=""images/causal_sequence/saving_a_cat_causal/saving_a_cat_causal_1.png"" class=""exp-image"">
                    <div class=""question-area"">
                        <p style=""font-size: 20px; font-weight: bold; margin: 0;"">Is there a person in this image?</p>
                    </div>
                </div>","0","main_experiment_trial","1","saving_a_cat_causal","causal_sequence","","","",""
"","","","","","html-keyboard-response","40","261774","0.0-40.0","F2664AC33EEC478A8FE2273B08C538EE","019cef8a-ae0c-7a18-8edf-ce7960b5a1ea","019cef87-c56d-7b55-9135-c5814367ec25","","null","
                <div class=""stimulus-container"">
                    <img src=""images/causal_sequence/saving_a_cat_causal/saving_a_cat_causal_2.png"" class=""exp-image"">
                    <div class=""question-area""></div> 
                </div>","null","","","","","","","",""
"","","","","","html-button-response","41","262769","0.0-41.0","F2664AC33EEC478A8FE2273B08C538EE","019cef8a-ae0c-7a18-8edf-ce7960b5a1ea","019cef87-c56d-7b55-9135-c5814367ec25","","994","
                <div class=""stimulus-container"">
                    <img src=""images/causal_sequence/saving_a_cat_causal/saving_a_cat_causal_2.png"" class=""exp-image"">
                    <div class=""question-area"">
                        <p style=""font-size: 20px; font-weight: bold; margin: 0;"">Is there a person in this image?</p>
                    </div>
                </div>","0","main_experiment_trial","2","saving_a_cat_causal","causal_sequence","","","",""
"","","","","","html-keyboard-response","42","267771","0.0-42.0","F2664AC33EEC478A8FE2273B08C538EE","019cef8a-ae0c-7a18-8edf-ce7960b5a1ea","019cef87-c56d-7b55-9135-c5814367ec25","","null","
                <div class=""stimulus-container"">
                    <img src=""images/causal_sequence/saving_a_cat_causal/saving_a_cat_causal_3.png"" class=""exp-image"">
                    <div class=""question-area""></div> 
                </div>","null","","","","","","","",""
"","","","","","html-button-response","43","268455","0.0-43.0","F2664AC33EEC478A8FE2273B08C538EE","019cef8a-ae0c-7a18-8edf-ce7960b5a1ea","019cef87-c56d-7b55-9135-c5814367ec25","","683","
                <div class=""stimulus-container"">
                    <img src=""images/causal_sequence/saving_a_cat_causal/saving_a_cat_causal_3.png"" class=""exp-image"">
                    <div class=""question-area"">
                        <p style=""font-size: 20px; font-weight: bold; margin: 0;"">Is there a person in this image?</p>
                    </div>
                </div>","1","main_experiment_trial","3","saving_a_cat_causal","causal_sequence","","","",""
"","","","","","html-keyboard-response","44","273459","0.0-44.0","F2664AC33EEC478A8FE2273B08C538EE","019cef8a-ae0c-7a18-8edf-ce7960b5a1ea","019cef87-c56d-7b55-9135-c5814367ec25","","null","
                <div class=""stimulus-container"">
                    <img src=""images/causal_sequence/saving_a_cat_causal/saving_a_cat_causal_4.png"" class=""exp-image"">
                    <div class=""question-area""></div> 
                </div>","null","","","","","","","",""
"","","","","","html-button-response","45","274106","0.0-45.0","F2664AC33EEC478A8FE2273B08C538EE","019cef8a-ae0c-7a18-8edf-ce7960b5a1ea","019cef87-c56d-7b55-9135-c5814367ec25","","645","
                <div class=""stimulus-container"">
                    <img src=""images/causal_sequence/saving_a_cat_causal/saving_a_cat_causal_4.png"" class=""exp-image"">
                    <div class=""question-area"">
                        <p style=""font-size: 20px; font-weight: bold; margin: 0;"">Is there a person in this image?</p>
                    </div>
                </div>","0","main_experiment_trial","4","saving_a_cat_causal","causal_sequence","","","",""
"","","","","","html-keyboard-response","46","279113","0.0-46.0","F2664AC33EEC478A8FE2273B08C538EE","019cef8a-ae0c-7a18-8edf-ce7960b5a1ea","019cef87-c56d-7b55-9135-c5814367ec25","","null","
                <div class=""stimulus-container"">
                    <img src=""images/causal_sequence/saving_a_cat_causal/saving_a_cat_causal_5.png"" class=""exp-image"">
                    <div class=""question-area""></div> 
                </div>","null","","","","","","","",""
"","","","","","html-button-response","47","279733","0.0-47.0","F2664AC33EEC478A8FE2273B08C538EE","019cef8a-ae0c-7a18-8edf-ce7960b5a1ea","019cef87-c56d-7b55-9135-c5814367ec25","","619","
                <div class=""stimulus-container"">
                    <img src=""images/causal_sequence/saving_a_cat_causal/saving_a_cat_causal_5.png"" class=""exp-image"">
                    <div class=""question-area"">
                        <p style=""font-size: 20px; font-weight: bold; margin: 0;"">Is there a person in this image?</p>
                    </div>
                </div>","0","main_experiment_trial","5","saving_a_cat_causal","causal_sequence","","","",""
"","","","","","html-keyboard-response","48","284738","0.0-48.0","F2664AC33EEC478A8FE2273B08C538EE","019cef8a-ae0c-7a18-8edf-ce7960b5a1ea","019cef87-c56d-7b55-9135-c5814367ec25","","null","
                <div class=""stimulus-container"">
                    <img src=""images/causal_sequence/saving_a_cat_causal/saving_a_cat_causal_6.png"" class=""exp-image"">
                    <div class=""question-area""></div> 
                </div>","null","","","","","","","",""
"","","","","","html-button-response","49","285295","0.0-49.0","F2664AC33EEC478A8FE2273B08C538EE","019cef8a-ae0c-7a18-8edf-ce7960b5a1ea","019cef87-c56d-7b55-9135-c5814367ec25","","556","
                <div class=""stimulus-container"">
                    <img src=""images/causal_sequence/saving_a_cat_causal/saving_a_cat_causal_6.png"" class=""exp-image"">
                    <div class=""question-area"">
                        <p style=""font-size: 20px; font-weight: bold; margin: 0;"">Is there a person in this image?</p>
                    </div>
                </div>","0","main_experiment_trial","6","saving_a_cat_causal","causal_sequence","","","",""
"","","","","","html-keyboard-response","50","290305","0.0-50.0","F2664AC33EEC478A8FE2273B08C538EE","019cef8a-ae0c-7a18-8edf-ce7960b5a1ea","019cef87-c56d-7b55-9135-c5814367ec25","","null","
                <div class=""stimulus-container"">
                    <img src=""images/causal_sequence/saving_a_cat_causal/saving_a_cat_causal_7.png"" class=""exp-image"">
                    <div class=""question-area""></div> 
                </div>","null","","","","","","","",""
"","","","","","html-button-response","51","291297","0.0-51.0","F2664AC33EEC478A8FE2273B08C538EE","019cef8a-ae0c-7a18-8edf-ce7960b5a1ea","019cef87-c56d-7b55-9135-c5814367ec25","","991","
                <div class=""stimulus-container"">
                    <img src=""images/causal_sequence/saving_a_cat_causal/saving_a_cat_causal_7.png"" class=""exp-image"">
                    <div class=""question-area"">
                        <p style=""font-size: 20px; font-weight: bold; margin: 0;"">Is there a person in this image?</p>
                    </div>
                </div>","0","main_experiment_trial","7","saving_a_cat_causal","causal_sequence","","","",""
"","","","","","html-keyboard-response","52","296302","0.0-52.0","F2664AC33EEC478A8FE2273B08C538EE","019cef8a-ae0c-7a18-8edf-ce7960b5a1ea","019cef87-c56d-7b55-9135-c5814367ec25","","null","
                <div class=""stimulus-container"">
                    <img src=""images/causal_sequence/saving_a_cat_causal/saving_a_cat_causal_8.png"" class=""exp-image"">
                    <div class=""question-area""></div> 
                </div>","null","","","","","","","",""
"","","","","","html-button-response","53","297077","0.0-53.0","F2664AC33EEC478A8FE2273B08C538EE","019cef8a-ae0c-7a18-8edf-ce7960b5a1ea","019cef87-c56d-7b55-9135-c5814367ec25","","774","
                <div class=""stimulus-container"">
                    <img src=""images/causal_sequence/saving_a_cat_causal/saving_a_cat_causal_8.png"" class=""exp-image"">
                    <div class=""question-area"">
                        <p style=""font-size: 20px; font-weight: bold; margin: 0;"">Is there a person in this image?</p>
                    </div>
                </div>","0","main_experiment_trial","8","saving_a_cat_causal","causal_sequence","","","",""
"","","","","","html-keyboard-response","54","302082","0.0-54.0","F2664AC33EEC478A8FE2273B08C538EE","019cef8a-ae0c-7a18-8edf-ce7960b5a1ea","019cef87-c56d-7b55-9135-c5814367ec25","","null","
                <div class=""stimulus-container"">
                    <img src=""images/causal_sequence/saving_a_cat_causal/saving_a_cat_causal_9.png"" class=""exp-image"">
                    <div class=""question-area""></div> 
                </div>","null","","","","","","","",""
"","","","","","html-button-response","55","302591","0.0-55.0","F2664AC33EEC478A8FE2273B08C538EE","019cef8a-ae0c-7a18-8edf-ce7960b5a1ea","019cef87-c56d-7b55-9135-c5814367ec25","","508","
                <div class=""stimulus-container"">
                    <img src=""images/causal_sequence/saving_a_cat_causal/saving_a_cat_causal_9.png"" class=""exp-image"">
                    <div class=""question-area"">
                        <p style=""font-size: 20px; font-weight: bold; margin: 0;"">Is there a person in this image?</p>
                    </div>
                </div>","0","main_experiment_trial","9","saving_a_cat_causal","causal_sequence","","","",""
"","","","","","html-keyboard-response","56","307601","0.0-56.0","F2664AC33EEC478A8FE2273B08C538EE","019cef8a-ae0c-7a18-8edf-ce7960b5a1ea","019cef87-c56d-7b55-9135-c5814367ec25","","null","
                <div class=""stimulus-container"">
                    <img src=""images/causal_sequence/saving_a_cat_causal/saving_a_cat_causal_ten.png"" class=""exp-image"">
                    <div class=""question-area""></div> 
                </div>","null","","","","","","","",""
"","","","","","html-button-response","57","308001","0.0-57.0","F2664AC33EEC478A8FE2273B08C538EE","019cef8a-ae0c-7a18-8edf-ce7960b5a1ea","019cef87-c56d-7b55-9135-c5814367ec25","","399","
                <div class=""stimulus-container"">
                    <img src=""images/causal_sequence/saving_a_cat_causal/saving_a_cat_causal_ten.png"" class=""exp-image"">
                    <div class=""question-area"">
                        <p style=""font-size: 20px; font-weight: bold; margin: 0;"">Is there a person in this image?</p>
                    </div>
                </div>","0","main_experiment_trial","ten","saving_a_cat_causal","causal_sequence","","","",""
"","","","","","html-keyboard-response","58","309014","0.0-58.0","F2664AC33EEC478A8FE2273B08C538EE","019cef8a-ae0c-7a18-8edf-ce7960b5a1ea","019cef87-c56d-7b55-9135-c5814367ec25","","null","<div style=""background-color: white; width: 100vw; height: 100vh;""></div>","null","","","","","","","",""
"","","","","","html-keyboard-response","59","314019","0.0-59.0","F2664AC33EEC478A8FE2273B08C538EE","019cef8a-ae0c-7a18-8edf-ce7960b5a1ea","019cef87-c56d-7b55-9135-c5814367ec25","","null","
                <div class=""stimulus-container"">
                    <img src=""images/causal_sequence/coin_causal/coin_causal_1.png"" class=""exp-image"">
                    <div class=""question-area""></div> 
                </div>","null","","","","","","","",""
"","","","","","html-button-response","60","315143","0.0-60.0","F2664AC33EEC478A8FE2273B08C538EE","019cef8a-ae0c-7a18-8edf-ce7960b5a1ea","019cef87-c56d-7b55-9135-c5814367ec25","","1122","
                <div class=""stimulus-container"">
                    <img src=""images/causal_sequence/coin_causal/coin_causal_1.png"" class=""exp-image"">
                    <div class=""question-area"">
                        <p style=""font-size: 20px; font-weight: bold; margin: 0;"">Is there a person in this image?</p>
                    </div>
                </div>","0","main_experiment_trial","1","coin_causal","causal_sequence","","","",""
"","","","","","html-keyboard-response","61","320153","0.0-61.0","F2664AC33EEC478A8FE2273B08C538EE","019cef8a-ae0c-7a18-8edf-ce7960b5a1ea","019cef87-c56d-7b55-9135-c5814367ec25","","null","
                <div class=""stimulus-container"">
                    <img src=""images/causal_sequence/coin_causal/coin_causal_2.png"" class=""exp-image"">
                    <div class=""question-area""></div> 
                </div>","null","","","","","","","",""
"","","","","","html-button-response","62","320917","0.0-62.0","F2664AC33EEC478A8FE2273B08C538EE","019cef8a-ae0c-7a18-8edf-ce7960b5a1ea","019cef87-c56d-7b55-9135-c5814367ec25","","763","
                <div class=""stimulus-container"">
                    <img src=""images/causal_sequence/coin_causal/coin_causal_2.png"" class=""exp-image"">
                    <div class=""question-area"">
                        <p style=""font-size: 20px; font-weight: bold; margin: 0;"">Is there a person in this image?</p>
                    </div>
                </div>","0","main_experiment_trial","2","coin_causal","causal_sequence","","","",""
"","","","","","html-keyboard-response","63","325930","0.0-63.0","F2664AC33EEC478A8FE2273B08C538EE","019cef8a-ae0c-7a18-8edf-ce7960b5a1ea","019cef87-c56d-7b55-9135-c5814367ec25","","null","
                <div class=""stimulus-container"">
                    <img src=""images/causal_sequence/coin_causal/coin_causal_3.png"" class=""exp-image"">
                    <div class=""question-area""></div> 
                </div>","null","","","","","","","",""
"","","","","","html-button-response","64","326657","0.0-64.0","F2664AC33EEC478A8FE2273B08C538EE","019cef8a-ae0c-7a18-8edf-ce7960b5a1ea","019cef87-c56d-7b55-9135-c5814367ec25","","726","
                <div class=""stimulus-container"">
                    <img src=""images/causal_sequence/coin_causal/coin_causal_3.png"" class=""exp-image"">
                    <div class=""question-area"">
                        <p style=""font-size: 20px; font-weight: bold; margin: 0;"">Is there a person in this image?</p>
                    </div>
                </div>","0","main_experiment_trial","3","coin_causal","causal_sequence","","","",""
"","","","","","html-keyboard-response","65","331660","0.0-65.0","F2664AC33EEC478A8FE2273B08C538EE","019cef8a-ae0c-7a18-8edf-ce7960b5a1ea","019cef87-c56d-7b55-9135-c5814367ec25","","null","
                <div class=""stimulus-container"">
                    <img src=""images/causal_sequence/coin_causal/coin_causal_4.png"" class=""exp-image"">
                    <div class=""question-area""></div> 
                </div>","null","","","","","","","",""
"","","","","","html-button-response","66","332807","0.0-66.0","F2664AC33EEC478A8FE2273B08C538EE","019cef8a-ae0c-7a18-8edf-ce7960b5a1ea","019cef87-c56d-7b55-9135-c5814367ec25","","1146","
                <div class=""stimulus-container"">
                    <img src=""images/causal_sequence/coin_causal/coin_causal_4.png"" class=""exp-image"">
                    <div class=""question-area"">
                        <p style=""font-size: 20px; font-weight: bold; margin: 0;"">Is there a person in this image?</p>
                    </div>
                </div>","0","main_experiment_trial","4","coin_causal","causal_sequence","","","",""
"","","","","","html-keyboard-response","67","337809","0.0-67.0","F2664AC33EEC478A8FE2273B08C538EE","019cef8a-ae0c-7a18-8edf-ce7960b5a1ea","019cef87-c56d-7b55-9135-c5814367ec25","","null","
                <div class=""stimulus-container"">
                    <img src=""images/causal_sequence/coin_causal/coin_causal_5.png"" class=""exp-image"">
                    <div class=""question-area""></div> 
                </div>","null","","","","","","","",""
"","","","","","html-button-response","68","339069","0.0-68.0","F2664AC33EEC478A8FE2273B08C538EE","019cef8a-ae0c-7a18-8edf-ce7960b5a1ea","019cef87-c56d-7b55-9135-c5814367ec25","","1259","
                <div class=""stimulus-container"">
                    <img src=""images/causal_sequence/coin_causal/coin_causal_5.png"" class=""exp-image"">
                    <div class=""question-area"">
                        <p style=""font-size: 20px; font-weight: bold; margin: 0;"">Is there a person in this image?</p>
                    </div>
                </div>","0","main_experiment_trial","5","coin_causal","causal_sequence","","","",""
"","","","","","html-keyboard-response","69","344082","0.0-69.0","F2664AC33EEC478A8FE2273B08C538EE","019cef8a-ae0c-7a18-8edf-ce7960b5a1ea","019cef87-c56d-7b55-9135-c5814367ec25","","null","
                <div class=""stimulus-container"">
                    <img src=""images/causal_sequence/coin_causal/coin_causal_6.png"" class=""exp-image"">
                    <div class=""question-area""></div> 
                </div>","null","","","","","","","",""
"","","","","","html-button-response","70","344795","0.0-70.0","F2664AC33EEC478A8FE2273B08C538EE","019cef8a-ae0c-7a18-8edf-ce7960b5a1ea","019cef87-c56d-7b55-9135-c5814367ec25","","712","
                <div class=""stimulus-container"">
                    <img src=""images/causal_sequence/coin_causal/coin_causal_6.png"" class=""exp-image"">
                    <div class=""question-area"">
                        <p style=""font-size: 20px; font-weight: bold; margin: 0;"">Is there a person in this image?</p>
                    </div>
                </div>","0","main_experiment_trial","6","coin_causal","causal_sequence","","","",""
"","","","","","html-keyboard-response","71","349805","0.0-71.0","F2664AC33EEC478A8FE2273B08C538EE","019cef8a-ae0c-7a18-8edf-ce7960b5a1ea","019cef87-c56d-7b55-9135-c5814367ec25","","null","
                <div class=""stimulus-container"">
                    <img src=""images/causal_sequence/coin_causal/coin_causal_7.png"" class=""exp-image"">
                    <div class=""question-area""></div> 
                </div>","null","","","","","","","",""
"","","","","","html-button-response","72","352816","0.0-72.0","F2664AC33EEC478A8FE2273B08C538EE","019cef8a-ae0c-7a18-8edf-ce7960b5a1ea","019cef87-c56d-7b55-9135-c5814367ec25","","null","
                <div class=""stimulus-container"">
                    <img src=""images/causal_sequence/coin_causal/coin_causal_7.png"" class=""exp-image"">
                    <div class=""question-area"">
                        <p style=""font-size: 20px; font-weight: bold; margin: 0;"">Is there a person in this image?</p>
                    </div>
                </div>","null","main_experiment_trial","7","coin_causal","causal_sequence","","","",""
"","","","","","html-keyboard-response","73","357819","0.0-73.0","F2664AC33EEC478A8FE2273B08C538EE","019cef8a-ae0c-7a18-8edf-ce7960b5a1ea","019cef87-c56d-7b55-9135-c5814367ec25","","null","
                <div class=""stimulus-container"">
                    <img src=""images/causal_sequence/coin_causal/coin_causal_8.png"" class=""exp-image"">
                    <div class=""question-area""></div> 
                </div>","null","","","","","","","",""
"","","","","","html-button-response","74","358535","0.0-74.0","F2664AC33EEC478A8FE2273B08C538EE","019cef8a-ae0c-7a18-8edf-ce7960b5a1ea","019cef87-c56d-7b55-9135-c5814367ec25","","715","
                <div class=""stimulus-container"">
                    <img src=""images/causal_sequence/coin_causal/coin_causal_8.png"" class=""exp-image"">
                    <div class=""question-area"">
                        <p style=""font-size: 20px; font-weight: bold; margin: 0;"">Is there a person in this image?</p>
                    </div>
                </div>","0","main_experiment_trial","8","coin_causal","causal_sequence","","","",""
"","","","","","html-keyboard-response","75","363537","0.0-75.0","F2664AC33EEC478A8FE2273B08C538EE","019cef8a-ae0c-7a18-8edf-ce7960b5a1ea","019cef87-c56d-7b55-9135-c5814367ec25","","null","
                <div class=""stimulus-container"">
                    <img src=""images/causal_sequence/coin_causal/coin_causal_9.png"" class=""exp-image"">
                    <div class=""question-area""></div> 
                </div>","null","","","","","","","",""
"","","","","","html-button-response","76","364175","0.0-76.0","F2664AC33EEC478A8FE2273B08C538EE","019cef8a-ae0c-7a18-8edf-ce7960b5a1ea","019cef87-c56d-7b55-9135-c5814367ec25","","637","
                <div class=""stimulus-container"">
                    <img src=""images/causal_sequence/coin_causal/coin_causal_9.png"" class=""exp-image"">
                    <div class=""question-area"">
                        <p style=""font-size: 20px; font-weight: bold; margin: 0;"">Is there a person in this image?</p>
                    </div>
                </div>","0","main_experiment_trial","9","coin_causal","causal_sequence","","","",""
"","","","","","html-keyboard-response","77","369181","0.0-77.0","F2664AC33EEC478A8FE2273B08C538EE","019cef8a-ae0c-7a18-8edf-ce7960b5a1ea","019cef87-c56d-7b55-9135-c5814367ec25","","null","
                <div class=""stimulus-container"">
                    <img src=""images/causal_sequence/coin_causal/coin_causal_ten.png"" class=""exp-image"">
                    <div class=""question-area""></div> 
                </div>","null","","","","","","","",""
"","","","","","html-button-response","78","370357","0.0-78.0","F2664AC33EEC478A8FE2273B08C538EE","019cef8a-ae0c-7a18-8edf-ce7960b5a1ea","019cef87-c56d-7b55-9135-c5814367ec25","","1175","
                <div class=""stimulus-container"">
                    <img src=""images/causal_sequence/coin_causal/coin_causal_ten.png"" class=""exp-image"">
                    <div class=""question-area"">
                        <p style=""font-size: 20px; font-weight: bold; margin: 0;"">Is there a person in this image?</p>
                    </div>
                </div>","0","main_experiment_trial","ten","coin_causal","causal_sequence","","","",""
"","","","","","html-keyboard-response","79","371361","0.0-79.0","F2664AC33EEC478A8FE2273B08C538EE","019cef8a-ae0c-7a18-8edf-ce7960b5a1ea","019cef87-c56d-7b55-9135-c5814367ec25","","null","<div style=""background-color: white; width: 100vw; height: 100vh;""></div>","null","","","","","","","",""
"","","","","","html-keyboard-response","80","376363","0.0-80.0","F2664AC33EEC478A8FE2273B08C538EE","019cef8a-ae0c-7a18-8edf-ce7960b5a1ea","019cef87-c56d-7b55-9135-c5814367ec25","","null","
                <div class=""stimulus-container"">
                    <img src=""images/schematic_sequence/restaurant_scheme/restaurant_scheme_1.png"" class=""exp-image"">
                    <div class=""question-area""></div> 
                </div>","null","","","","","","","",""
"","","","","","html-button-response","81","376771","0.0-81.0","F2664AC33EEC478A8FE2273B08C538EE","019cef8a-ae0c-7a18-8edf-ce7960b5a1ea","019cef87-c56d-7b55-9135-c5814367ec25","","407","
                <div class=""stimulus-container"">
                    <img src=""images/schematic_sequence/restaurant_scheme/restaurant_scheme_1.png"" class=""exp-image"">
                    <div class=""question-area"">
                        <p style=""font-size: 20px; font-weight: bold; margin: 0;"">Is there a person in this image?</p>
                    </div>
                </div>","0","main_experiment_trial","1","restaurant_scheme","schematic_sequence","","","",""
"","","","","","html-keyboard-response","82","381772","0.0-82.0","F2664AC33EEC478A8FE2273B08C538EE","019cef8a-ae0c-7a18-8edf-ce7960b5a1ea","019cef87-c56d-7b55-9135-c5814367ec25","","null","
                <div class=""stimulus-container"">
                    <img src=""images/schematic_sequence/restaurant_scheme/restaurant_scheme_2.png"" class=""exp-image"">
                    <div class=""question-area""></div> 
                </div>","null","","","","","","","",""
"","","","","","html-button-response","83","382409","0.0-83.0","F2664AC33EEC478A8FE2273B08C538EE","019cef8a-ae0c-7a18-8edf-ce7960b5a1ea","019cef87-c56d-7b55-9135-c5814367ec25","","636","
                <div class=""stimulus-container"">
                    <img src=""images/schematic_sequence/restaurant_scheme/restaurant_scheme_2.png"" class=""exp-image"">
                    <div class=""question-area"">
                        <p style=""font-size: 20px; font-weight: bold; margin: 0;"">Is there a person in this image?</p>
                    </div>
                </div>","1","main_experiment_trial","2","restaurant_scheme","schematic_sequence","","","",""
"","","","","","html-keyboard-response","84","387415","0.0-84.0","F2664AC33EEC478A8FE2273B08C538EE","019cef8a-ae0c-7a18-8edf-ce7960b5a1ea","019cef87-c56d-7b55-9135-c5814367ec25","","null","
                <div class=""stimulus-container"">
                    <img src=""images/schematic_sequence/restaurant_scheme/restaurant_scheme_3.png"" class=""exp-image"">
                    <div class=""question-area""></div> 
                </div>","null","","","","","","","",""
"","","","","","html-button-response","85","388077","0.0-85.0","F2664AC33EEC478A8FE2273B08C538EE","019cef8a-ae0c-7a18-8edf-ce7960b5a1ea","019cef87-c56d-7b55-9135-c5814367ec25","","660","
                <div class=""stimulus-container"">
                    <img src=""images/schematic_sequence/restaurant_scheme/restaurant_scheme_3.png"" class=""exp-image"">
                    <div class=""question-area"">
                        <p style=""font-size: 20px; font-weight: bold; margin: 0;"">Is there a person in this image?</p>
                    </div>
                </div>","1","main_experiment_trial","3","restaurant_scheme","schematic_sequence","","","",""
"","","","","","html-keyboard-response","86","393079","0.0-86.0","F2664AC33EEC478A8FE2273B08C538EE","019cef8a-ae0c-7a18-8edf-ce7960b5a1ea","019cef87-c56d-7b55-9135-c5814367ec25","","null","
                <div class=""stimulus-container"">
                    <img src=""images/schematic_sequence/restaurant_scheme/restaurant_scheme_4.png"" class=""exp-image"">
                    <div class=""question-area""></div> 
                </div>","null","","","","","","","",""
"","","","","","html-button-response","87","393687","0.0-87.0","F2664AC33EEC478A8FE2273B08C538EE","019cef8a-ae0c-7a18-8edf-ce7960b5a1ea","019cef87-c56d-7b55-9135-c5814367ec25","","607","
                <div class=""stimulus-container"">
                    <img src=""images/schematic_sequence/restaurant_scheme/restaurant_scheme_4.png"" class=""exp-image"">
                    <div class=""question-area"">
                        <p style=""font-size: 20px; font-weight: bold; margin: 0;"">Is there a person in this image?</p>
                    </div>
                </div>","0","main_experiment_trial","4","restaurant_scheme","schematic_sequence","","","",""
"","","","","","html-keyboard-response","88","398696","0.0-88.0","F2664AC33EEC478A8FE2273B08C538EE","019cef8a-ae0c-7a18-8edf-ce7960b5a1ea","019cef87-c56d-7b55-9135-c5814367ec25","","null","
                <div class=""stimulus-container"">
                    <img src=""images/schematic_sequence/restaurant_scheme/restaurant_scheme_5.png"" class=""exp-image"">
                    <div class=""question-area""></div> 
                </div>","null","","","","","","","",""
"","","","","","html-button-response","89","399517","0.0-89.0","F2664AC33EEC478A8FE2273B08C538EE","019cef8a-ae0c-7a18-8edf-ce7960b5a1ea","019cef87-c56d-7b55-9135-c5814367ec25","","819","
                <div class=""stimulus-container"">
                    <img src=""images/schematic_sequence/restaurant_scheme/restaurant_scheme_5.png"" class=""exp-image"">
                    <div class=""question-area"">
                        <p style=""font-size: 20px; font-weight: bold; margin: 0;"">Is there a person in this image?</p>
                    </div>
                </div>","0","main_experiment_trial","5","restaurant_scheme","schematic_sequence","","","",""
"","","","","","html-keyboard-response","90","404518","0.0-90.0","F2664AC33EEC478A8FE2273B08C538EE","019cef8a-ae0c-7a18-8edf-ce7960b5a1ea","019cef87-c56d-7b55-9135-c5814367ec25","","null","
                <div class=""stimulus-container"">
                    <img src=""images/schematic_sequence/restaurant_scheme/restaurant_scheme_6.png"" class=""exp-image"">
                    <div class=""question-area""></div> 
                </div>","null","","","","","","","",""
"","","","","","html-button-response","91","405543","0.0-91.0","F2664AC33EEC478A8FE2273B08C538EE","019cef8a-ae0c-7a18-8edf-ce7960b5a1ea","019cef87-c56d-7b55-9135-c5814367ec25","","1023","
                <div class=""stimulus-container"">
                    <img src=""images/schematic_sequence/restaurant_scheme/restaurant_scheme_6.png"" class=""exp-image"">
                    <div class=""question-area"">
                        <p style=""font-size: 20px; font-weight: bold; margin: 0;"">Is there a person in this image?</p>
                    </div>
                </div>","1","main_experiment_trial","6","restaurant_scheme","schematic_sequence","","","",""
"","","","","","html-keyboard-response","92","410547","0.0-92.0","F2664AC33EEC478A8FE2273B08C538EE","019cef8a-ae0c-7a18-8edf-ce7960b5a1ea","019cef87-c56d-7b55-9135-c5814367ec25","","null","
                <div class=""stimulus-container"">
                    <img src=""images/schematic_sequence/restaurant_scheme/restaurant_scheme_7.png"" class=""exp-image"">
                    <div class=""question-area""></div> 
                </div>","null","","","","","","","",""
"","","","","","html-button-response","93","411223","0.0-93.0","F2664AC33EEC478A8FE2273B08C538EE","019cef8a-ae0c-7a18-8edf-ce7960b5a1ea","019cef87-c56d-7b55-9135-c5814367ec25","","675","
                <div class=""stimulus-container"">
                    <img src=""images/schematic_sequence/restaurant_scheme/restaurant_scheme_7.png"" class=""exp-image"">
                    <div class=""question-area"">
                        <p style=""font-size: 20px; font-weight: bold; margin: 0;"">Is there a person in this image?</p>
                    </div>
                </div>","1","main_experiment_trial","7","restaurant_scheme","schematic_sequence","","","",""
"","","","","","html-keyboard-response","94","416229","0.0-94.0","F2664AC33EEC478A8FE2273B08C538EE","019cef8a-ae0c-7a18-8edf-ce7960b5a1ea","019cef87-c56d-7b55-9135-c5814367ec25","","null","
                <div class=""stimulus-container"">
                    <img src=""images/schematic_sequence/restaurant_scheme/restaurant_scheme_8.png"" class=""exp-image"">
                    <div class=""question-area""></div> 
                </div>","null","","","","","","","",""
"","","","","","html-button-response","95","418697","0.0-95.0","F2664AC33EEC478A8FE2273B08C538EE","019cef8a-ae0c-7a18-8edf-ce7960b5a1ea","019cef87-c56d-7b55-9135-c5814367ec25","","2467","
                <div class=""stimulus-container"">
                    <img src=""images/schematic_sequence/restaurant_scheme/restaurant_scheme_8.png"" class=""exp-image"">
                    <div class=""question-area"">
                        <p style=""font-size: 20px; font-weight: bold; margin: 0;"">Is there a person in this image?</p>
                    </div>
                </div>","1","main_experiment_trial","8","restaurant_scheme","schematic_sequence","","","",""
"","","","","","html-keyboard-response","96","423703","0.0-96.0","F2664AC33EEC478A8FE2273B08C538EE","019cef8a-ae0c-7a18-8edf-ce7960b5a1ea","019cef87-c56d-7b55-9135-c5814367ec25","","null","
                <div class=""stimulus-container"">
                    <img src=""images/schematic_sequence/restaurant_scheme/restaurant_scheme_9.png"" class=""exp-image"">
                    <div class=""question-area""></div> 
                </div>","null","","","","","","","",""
"","","","","","html-button-response","97","424491","0.0-97.0","F2664AC33EEC478A8FE2273B08C538EE","019cef8a-ae0c-7a18-8edf-ce7960b5a1ea","019cef87-c56d-7b55-9135-c5814367ec25","","787","
                <div class=""stimulus-container"">
                    <img src=""images/schematic_sequence/restaurant_scheme/restaurant_scheme_9.png"" class=""exp-image"">
                    <div class=""question-area"">
                        <p style=""font-size: 20px; font-weight: bold; margin: 0;"">Is there a person in this image?</p>
                    </div>
                </div>","0","main_experiment_trial","9","restaurant_scheme","schematic_sequence","","","",""
"","","","","","html-keyboard-response","98","429493","0.0-98.0","F2664AC33EEC478A8FE2273B08C538EE","019cef8a-ae0c-7a18-8edf-ce7960b5a1ea","019cef87-c56d-7b55-9135-c5814367ec25","","null","
                <div class=""stimulus-container"">
                    <img src=""images/schematic_sequence/restaurant_scheme/restaurant_scheme_ten.png"" class=""exp-image"">
                    <div class=""question-area""></div> 
                </div>","null","","","","","","","",""
"","","","","","html-button-response","99","429990","0.0-99.0","F2664AC33EEC478A8FE2273B08C538EE","019cef8a-ae0c-7a18-8edf-ce7960b5a1ea","019cef87-c56d-7b55-9135-c5814367ec25","","495","
                <div class=""stimulus-container"">
                    <img src=""images/schematic_sequence/restaurant_scheme/restaurant_scheme_ten.png"" class=""exp-image"">
                    <div class=""question-area"">
                        <p style=""font-size: 20px; font-weight: bold; margin: 0;"">Is there a person in this image?</p>
                    </div>
                </div>","0","main_experiment_trial","ten","restaurant_scheme","schematic_sequence","","","",""
"","","","","","html-keyboard-response","100","431001","0.0-100.0","F2664AC33EEC478A8FE2273B08C538EE","019cef8a-ae0c-7a18-8edf-ce7960b5a1ea","019cef87-c56d-7b55-9135-c5814367ec25","","null","<div style=""background-color: white; width: 100vw; height: 100vh;""></div>","null","","","","","","","",""
"","","","","","html-keyboard-response","101","436003","0.0-101.0","F2664AC33EEC478A8FE2273B08C538EE","019cef8a-ae0c-7a18-8edf-ce7960b5a1ea","019cef87-c56d-7b55-9135-c5814367ec25","","null","
                <div class=""stimulus-container"">
                    <img src=""images/schematic_sequence/dinner_party_scheme/dinner_party_scheme_1.png"" class=""exp-image"">
                    <div class=""question-area""></div> 
                </div>","null","","","","","","","",""
"","","","","","html-button-response","102","436455","0.0-102.0","F2664AC33EEC478A8FE2273B08C538EE","019cef8a-ae0c-7a18-8edf-ce7960b5a1ea","019cef87-c56d-7b55-9135-c5814367ec25","","451","
                <div class=""stimulus-container"">
                    <img src=""images/schematic_sequence/dinner_party_scheme/dinner_party_scheme_1.png"" class=""exp-image"">
                    <div class=""question-area"">
                        <p style=""font-size: 20px; font-weight: bold; margin: 0;"">Is there a person in this image?</p>
                    </div>
                </div>","0","main_experiment_trial","1","dinner_party_scheme","schematic_sequence","","","",""
"","","","","","html-keyboard-response","103","441460","0.0-103.0","F2664AC33EEC478A8FE2273B08C538EE","019cef8a-ae0c-7a18-8edf-ce7960b5a1ea","019cef87-c56d-7b55-9135-c5814367ec25","","null","
                <div class=""stimulus-container"">
                    <img src=""images/schematic_sequence/dinner_party_scheme/dinner_party_scheme_2.png"" class=""exp-image"">
                    <div class=""question-area""></div> 
                </div>","null","","","","","","","",""
"","","","","","html-button-response","104","442043","0.0-104.0","F2664AC33EEC478A8FE2273B08C538EE","019cef8a-ae0c-7a18-8edf-ce7960b5a1ea","019cef87-c56d-7b55-9135-c5814367ec25","","581","
                <div class=""stimulus-container"">
                    <img src=""images/schematic_sequence/dinner_party_scheme/dinner_party_scheme_2.png"" class=""exp-image"">
                    <div class=""question-area"">
                        <p style=""font-size: 20px; font-weight: bold; margin: 0;"">Is there a person in this image?</p>
                    </div>
                </div>","0","main_experiment_trial","2","dinner_party_scheme","schematic_sequence","","","",""
"","","","","","html-keyboard-response","105","447046","0.0-105.0","F2664AC33EEC478A8FE2273B08C538EE","019cef8a-ae0c-7a18-8edf-ce7960b5a1ea","019cef87-c56d-7b55-9135-c5814367ec25","","null","
                <div class=""stimulus-container"">
                    <img src=""images/schematic_sequence/dinner_party_scheme/dinner_party_scheme_3.png"" class=""exp-image"">
                    <div class=""question-area""></div> 
                </div>","null","","","","","","","",""
"","","","","","html-button-response","106","448009","0.0-106.0","F2664AC33EEC478A8FE2273B08C538EE","019cef8a-ae0c-7a18-8edf-ce7960b5a1ea","019cef87-c56d-7b55-9135-c5814367ec25","","962","
                <div class=""stimulus-container"">
                    <img src=""images/schematic_sequence/dinner_party_scheme/dinner_party_scheme_3.png"" class=""exp-image"">
                    <div class=""question-area"">
                        <p style=""font-size: 20px; font-weight: bold; margin: 0;"">Is there a person in this image?</p>
                    </div>
                </div>","0","main_experiment_trial","3","dinner_party_scheme","schematic_sequence","","","",""
"","","","","","html-keyboard-response","107","453011","0.0-107.0","F2664AC33EEC478A8FE2273B08C538EE","019cef8a-ae0c-7a18-8edf-ce7960b5a1ea","019cef87-c56d-7b55-9135-c5814367ec25","","null","
                <div class=""stimulus-container"">
                    <img src=""images/schematic_sequence/dinner_party_scheme/dinner_party_scheme_4.png"" class=""exp-image"">
                    <div class=""question-area""></div> 
                </div>","null","","","","","","","",""
"","","","","","html-button-response","108","453427","0.0-108.0","F2664AC33EEC478A8FE2273B08C538EE","019cef8a-ae0c-7a18-8edf-ce7960b5a1ea","019cef87-c56d-7b55-9135-c5814367ec25","","415","
                <div class=""stimulus-container"">
                    <img src=""images/schematic_sequence/dinner_party_scheme/dinner_party_scheme_4.png"" class=""exp-image"">
                    <div class=""question-area"">
                        <p style=""font-size: 20px; font-weight: bold; margin: 0;"">Is there a person in this image?</p>
                    </div>
                </div>","0","main_experiment_trial","4","dinner_party_scheme","schematic_sequence","","","",""
"","","","","","html-keyboard-response","109","458429","0.0-109.0","F2664AC33EEC478A8FE2273B08C538EE","019cef8a-ae0c-7a18-8edf-ce7960b5a1ea","019cef87-c56d-7b55-9135-c5814367ec25","","null","
                <div class=""stimulus-container"">
                    <img src=""images/schematic_sequence/dinner_party_scheme/dinner_party_scheme_5.png"" class=""exp-image"">
                    <div class=""question-area""></div> 
                </div>","null","","","","","","","",""
"","","","","","html-button-response","110","458829","0.0-110.0","F2664AC33EEC478A8FE2273B08C538EE","019cef8a-ae0c-7a18-8edf-ce7960b5a1ea","019cef87-c56d-7b55-9135-c5814367ec25","","399","
                <div class=""stimulus-container"">
                    <img src=""images/schematic_sequence/dinner_party_scheme/dinner_party_scheme_5.png"" class=""exp-image"">
                    <div class=""question-area"">
                        <p style=""font-size: 20px; font-weight: bold; margin: 0;"">Is there a person in this image?</p>
                    </div>
                </div>","0","main_experiment_trial","5","dinner_party_scheme","schematic_sequence","","","",""
"","","","","","html-keyboard-response","111","463841","0.0-111.0","F2664AC33EEC478A8FE2273B08C538EE","019cef8a-ae0c-7a18-8edf-ce7960b5a1ea","019cef87-c56d-7b55-9135-c5814367ec25","","null","
                <div class=""stimulus-container"">
                    <img src=""images/schematic_sequence/dinner_party_scheme/dinner_party_scheme_6.png"" class=""exp-image"">
                    <div class=""question-area""></div> 
                </div>","null","","","","","","","",""
"","","","","","html-button-response","112","464297","0.0-112.0","F2664AC33EEC478A8FE2273B08C538EE","019cef8a-ae0c-7a18-8edf-ce7960b5a1ea","019cef87-c56d-7b55-9135-c5814367ec25","","455","
                <div class=""stimulus-container"">
                    <img src=""images/schematic_sequence/dinner_party_scheme/dinner_party_scheme_6.png"" class=""exp-image"">
                    <div class=""question-area"">
                        <p style=""font-size: 20px; font-weight: bold; margin: 0;"">Is there a person in this image?</p>
                    </div>
                </div>","0","main_experiment_trial","6","dinner_party_scheme","schematic_sequence","","","",""
"","","","","","html-keyboard-response","113","469298","0.0-113.0","F2664AC33EEC478A8FE2273B08C538EE","019cef8a-ae0c-7a18-8edf-ce7960b5a1ea","019cef87-c56d-7b55-9135-c5814367ec25","","null","
                <div class=""stimulus-container"">
                    <img src=""images/schematic_sequence/dinner_party_scheme/dinner_party_scheme_7.png"" class=""exp-image"">
                    <div class=""question-area""></div> 
                </div>","null","","","","","","","",""
"","","","","","html-button-response","114","469999","0.0-114.0","F2664AC33EEC478A8FE2273B08C538EE","019cef8a-ae0c-7a18-8edf-ce7960b5a1ea","019cef87-c56d-7b55-9135-c5814367ec25","","700","
                <div class=""stimulus-container"">
                    <img src=""images/schematic_sequence/dinner_party_scheme/dinner_party_scheme_7.png"" class=""exp-image"">
                    <div class=""question-area"">
                        <p style=""font-size: 20px; font-weight: bold; margin: 0;"">Is there a person in this image?</p>
                    </div>
                </div>","0","main_experiment_trial","7","dinner_party_scheme","schematic_sequence","","","",""
"","","","","","html-keyboard-response","115","475001","0.0-115.0","F2664AC33EEC478A8FE2273B08C538EE","019cef8a-ae0c-7a18-8edf-ce7960b5a1ea","019cef87-c56d-7b55-9135-c5814367ec25","","null","
                <div class=""stimulus-container"">
                    <img src=""images/schematic_sequence/dinner_party_scheme/dinner_party_scheme_8.png"" class=""exp-image"">
                    <div class=""question-area""></div> 
                </div>","null","","","","","","","",""
"","","","","","html-button-response","116","475749","0.0-116.0","F2664AC33EEC478A8FE2273B08C538EE","019cef8a-ae0c-7a18-8edf-ce7960b5a1ea","019cef87-c56d-7b55-9135-c5814367ec25","","747","
                <div class=""stimulus-container"">
                    <img src=""images/schematic_sequence/dinner_party_scheme/dinner_party_scheme_8.png"" class=""exp-image"">
                    <div class=""question-area"">
                        <p style=""font-size: 20px; font-weight: bold; margin: 0;"">Is there a person in this image?</p>
                    </div>
                </div>","0","main_experiment_trial","8","dinner_party_scheme","schematic_sequence","","","",""
"","","","","","html-keyboard-response","117","480758","0.0-117.0","F2664AC33EEC478A8FE2273B08C538EE","019cef8a-ae0c-7a18-8edf-ce7960b5a1ea","019cef87-c56d-7b55-9135-c5814367ec25","","null","
                <div class=""stimulus-container"">
                    <img src=""images/schematic_sequence/dinner_party_scheme/dinner_party_scheme_9.png"" class=""exp-image"">
                    <div class=""question-area""></div> 
                </div>","null","","","","","","","",""
"","","","","","html-button-response","118","481179","0.0-118.0","F2664AC33EEC478A8FE2273B08C538EE","019cef8a-ae0c-7a18-8edf-ce7960b5a1ea","019cef87-c56d-7b55-9135-c5814367ec25","","420","
                <div class=""stimulus-container"">
                    <img src=""images/schematic_sequence/dinner_party_scheme/dinner_party_scheme_9.png"" class=""exp-image"">
                    <div class=""question-area"">
                        <p style=""font-size: 20px; font-weight: bold; margin: 0;"">Is there a person in this image?</p>
                    </div>
                </div>","0","main_experiment_trial","9","dinner_party_scheme","schematic_sequence","","","",""
"","","","","","html-keyboard-response","119","486187","0.0-119.0","F2664AC33EEC478A8FE2273B08C538EE","019cef8a-ae0c-7a18-8edf-ce7960b5a1ea","019cef87-c56d-7b55-9135-c5814367ec25","","null","
                <div class=""stimulus-container"">
                    <img src=""images/schematic_sequence/dinner_party_scheme/dinner_party_scheme_ten.png"" class=""exp-image"">
                    <div class=""question-area""></div> 
                </div>","null","","","","","","","",""
"","","","","","html-button-response","120","486695","0.0-120.0","F2664AC33EEC478A8FE2273B08C538EE","019cef8a-ae0c-7a18-8edf-ce7960b5a1ea","019cef87-c56d-7b55-9135-c5814367ec25","","507","
                <div class=""stimulus-container"">
                    <img src=""images/schematic_sequence/dinner_party_scheme/dinner_party_scheme_ten.png"" class=""exp-image"">
                    <div class=""question-area"">
                        <p style=""font-size: 20px; font-weight: bold; margin: 0;"">Is there a person in this image?</p>
                    </div>
                </div>","0","main_experiment_trial","ten","dinner_party_scheme","schematic_sequence","","","",""
"","","","","","html-keyboard-response","121","487697","0.0-121.0","F2664AC33EEC478A8FE2273B08C538EE","019cef8a-ae0c-7a18-8edf-ce7960b5a1ea","019cef87-c56d-7b55-9135-c5814367ec25","","null","<div style=""background-color: white; width: 100vw; height: 100vh;""></div>","null","","","","","","","",""
"","","","","","html-keyboard-response","122","492713","0.0-122.0","F2664AC33EEC478A8FE2273B08C538EE","019cef8a-ae0c-7a18-8edf-ce7960b5a1ea","019cef87-c56d-7b55-9135-c5814367ec25","","null","
                <div class=""stimulus-container"">
                    <img src=""images/causal_sequence/museum_causal/museum_causal_1.png"" class=""exp-image"">
                    <div class=""question-area""></div> 
                </div>","null","","","","","","","",""
"","","","","","html-button-response","123","495261","0.0-123.0","F2664AC33EEC478A8FE2273B08C538EE","019cef8a-ae0c-7a18-8edf-ce7960b5a1ea","019cef87-c56d-7b55-9135-c5814367ec25","","2547","
                <div class=""stimulus-container"">
                    <img src=""images/causal_sequence/museum_causal/museum_causal_1.png"" class=""exp-image"">
                    <div class=""question-area"">
                        <p style=""font-size: 20px; font-weight: bold; margin: 0;"">Is there a person in this image?</p>
                    </div>
                </div>","0","main_experiment_trial","1","museum_causal","causal_sequence","","","",""
"","","","","","html-keyboard-response","124","500266","0.0-124.0","F2664AC33EEC478A8FE2273B08C538EE","019cef8a-ae0c-7a18-8edf-ce7960b5a1ea","019cef87-c56d-7b55-9135-c5814367ec25","","null","
                <div class=""stimulus-container"">
                    <img src=""images/causal_sequence/museum_causal/museum_causal_2.png"" class=""exp-image"">
                    <div class=""question-area""></div> 
                </div>","null","","","","","","","",""
"","","","","","html-button-response","125","500903","0.0-125.0","F2664AC33EEC478A8FE2273B08C538EE","019cef8a-ae0c-7a18-8edf-ce7960b5a1ea","019cef87-c56d-7b55-9135-c5814367ec25","","636","
                <div class=""stimulus-container"">
                    <img src=""images/causal_sequence/museum_causal/museum_causal_2.png"" class=""exp-image"">
                    <div class=""question-area"">
                        <p style=""font-size: 20px; font-weight: bold; margin: 0;"">Is there a person in this image?</p>
                    </div>
                </div>","0","main_experiment_trial","2","museum_causal","causal_sequence","","","",""
"","","","","","html-keyboard-response","126","505909","0.0-126.0","F2664AC33EEC478A8FE2273B08C538EE","019cef8a-ae0c-7a18-8edf-ce7960b5a1ea","019cef87-c56d-7b55-9135-c5814367ec25","","null","
                <div class=""stimulus-container"">
                    <img src=""images/causal_sequence/museum_causal/museum_causal_3.png"" class=""exp-image"">
                    <div class=""question-area""></div> 
                </div>","null","","","","","","","",""
"","","","","","html-button-response","127","506369","0.0-127.0","F2664AC33EEC478A8FE2273B08C538EE","019cef8a-ae0c-7a18-8edf-ce7960b5a1ea","019cef87-c56d-7b55-9135-c5814367ec25","","459","
                <div class=""stimulus-container"">
                    <img src=""images/causal_sequence/museum_causal/museum_causal_3.png"" class=""exp-image"">
                    <div class=""question-area"">
                        <p style=""font-size: 20px; font-weight: bold; margin: 0;"">Is there a person in this image?</p>
                    </div>
                </div>","0","main_experiment_trial","3","museum_causal","causal_sequence","","","",""
"","","","","","html-keyboard-response","128","511370","0.0-128.0","F2664AC33EEC478A8FE2273B08C538EE","019cef8a-ae0c-7a18-8edf-ce7960b5a1ea","019cef87-c56d-7b55-9135-c5814367ec25","","null","
                <div class=""stimulus-container"">
                    <img src=""images/causal_sequence/museum_causal/museum_causal_4.png"" class=""exp-image"">
                    <div class=""question-area""></div> 
                </div>","null","","","","","","","",""
"","","","","","html-button-response","129","512239","0.0-129.0","F2664AC33EEC478A8FE2273B08C538EE","019cef8a-ae0c-7a18-8edf-ce7960b5a1ea","019cef87-c56d-7b55-9135-c5814367ec25","","867","
                <div class=""stimulus-container"">
                    <img src=""images/causal_sequence/museum_causal/museum_causal_4.png"" class=""exp-image"">
                    <div class=""question-area"">
                        <p style=""font-size: 20px; font-weight: bold; margin: 0;"">Is there a person in this image?</p>
                    </div>
                </div>","1","main_experiment_trial","4","museum_causal","causal_sequence","","","",""
"","","","","","html-keyboard-response","130","517240","0.0-130.0","F2664AC33EEC478A8FE2273B08C538EE","019cef8a-ae0c-7a18-8edf-ce7960b5a1ea","019cef87-c56d-7b55-9135-c5814367ec25","","null","
                <div class=""stimulus-container"">
                    <img src=""images/causal_sequence/museum_causal/museum_causal_5.png"" class=""exp-image"">
                    <div class=""question-area""></div> 
                </div>","null","","","","","","","",""
"","","","","","html-button-response","131","517839","0.0-131.0","F2664AC33EEC478A8FE2273B08C538EE","019cef8a-ae0c-7a18-8edf-ce7960b5a1ea","019cef87-c56d-7b55-9135-c5814367ec25","","597","
                <div class=""stimulus-container"">
                    <img src=""images/causal_sequence/museum_causal/museum_causal_5.png"" class=""exp-image"">
                    <div class=""question-area"">
                        <p style=""font-size: 20px; font-weight: bold; margin: 0;"">Is there a person in this image?</p>
                    </div>
                </div>","0","main_experiment_trial","5","museum_causal","causal_sequence","","","",""
"","","","","","html-keyboard-response","132","522841","0.0-132.0","F2664AC33EEC478A8FE2273B08C538EE","019cef8a-ae0c-7a18-8edf-ce7960b5a1ea","019cef87-c56d-7b55-9135-c5814367ec25","","null","
                <div class=""stimulus-container"">
                    <img src=""images/causal_sequence/museum_causal/museum_causal_6.png"" class=""exp-image"">
                    <div class=""question-area""></div> 
                </div>","null","","","","","","","",""
"","","","","","html-button-response","133","524109","0.0-133.0","F2664AC33EEC478A8FE2273B08C538EE","019cef8a-ae0c-7a18-8edf-ce7960b5a1ea","019cef87-c56d-7b55-9135-c5814367ec25","","1267","
                <div class=""stimulus-container"">
                    <img src=""images/causal_sequence/museum_causal/museum_causal_6.png"" class=""exp-image"">
                    <div class=""question-area"">
                        <p style=""font-size: 20px; font-weight: bold; margin: 0;"">Is there a person in this image?</p>
                    </div>
                </div>","0","main_experiment_trial","6","museum_causal","causal_sequence","","","",""
"","","","","","html-keyboard-response","134","529120","0.0-134.0","F2664AC33EEC478A8FE2273B08C538EE","019cef8a-ae0c-7a18-8edf-ce7960b5a1ea","019cef87-c56d-7b55-9135-c5814367ec25","","null","
                <div class=""stimulus-container"">
                    <img src=""images/causal_sequence/museum_causal/museum_causal_7.png"" class=""exp-image"">
                    <div class=""question-area""></div> 
                </div>","null","","","","","","","",""
"","","","","","html-button-response","135","530443","0.0-135.0","F2664AC33EEC478A8FE2273B08C538EE","019cef8a-ae0c-7a18-8edf-ce7960b5a1ea","019cef87-c56d-7b55-9135-c5814367ec25","","1322","
                <div class=""stimulus-container"">
                    <img src=""images/causal_sequence/museum_causal/museum_causal_7.png"" class=""exp-image"">
                    <div class=""question-area"">
                        <p style=""font-size: 20px; font-weight: bold; margin: 0;"">Is there a person in this image?</p>
                    </div>
                </div>","1","main_experiment_trial","7","museum_causal","causal_sequence","","","",""
"","","","","","html-keyboard-response","136","535449","0.0-136.0","F2664AC33EEC478A8FE2273B08C538EE","019cef8a-ae0c-7a18-8edf-ce7960b5a1ea","019cef87-c56d-7b55-9135-c5814367ec25","","null","
                <div class=""stimulus-container"">
                    <img src=""images/causal_sequence/museum_causal/museum_causal_8.png"" class=""exp-image"">
                    <div class=""question-area""></div> 
                </div>","null","","","","","","","",""
"","","","","","html-button-response","137","536737","0.0-137.0","F2664AC33EEC478A8FE2273B08C538EE","019cef8a-ae0c-7a18-8edf-ce7960b5a1ea","019cef87-c56d-7b55-9135-c5814367ec25","","1287","
                <div class=""stimulus-container"">
                    <img src=""images/causal_sequence/museum_causal/museum_causal_8.png"" class=""exp-image"">
                    <div class=""question-area"">
                        <p style=""font-size: 20px; font-weight: bold; margin: 0;"">Is there a person in this image?</p>
                    </div>
                </div>","0","main_experiment_trial","8","museum_causal","causal_sequence","","","",""
"","","","","","html-keyboard-response","138","541740","0.0-138.0","F2664AC33EEC478A8FE2273B08C538EE","019cef8a-ae0c-7a18-8edf-ce7960b5a1ea","019cef87-c56d-7b55-9135-c5814367ec25","","null","
                <div class=""stimulus-container"">
                    <img src=""images/causal_sequence/museum_causal/museum_causal_9.png"" class=""exp-image"">
                    <div class=""question-area""></div> 
                </div>","null","","","","","","","",""
"","","","","","html-button-response","139","542915","0.0-139.0","F2664AC33EEC478A8FE2273B08C538EE","019cef8a-ae0c-7a18-8edf-ce7960b5a1ea","019cef87-c56d-7b55-9135-c5814367ec25","","1174","
                <div class=""stimulus-container"">
                    <img src=""images/causal_sequence/museum_causal/museum_causal_9.png"" class=""exp-image"">
                    <div class=""question-area"">
                        <p style=""font-size: 20px; font-weight: bold; margin: 0;"">Is there a person in this image?</p>
                    </div>
                </div>","1","main_experiment_trial","9","museum_causal","causal_sequence","","","",""
"","","","","","html-keyboard-response","140","547928","0.0-140.0","F2664AC33EEC478A8FE2273B08C538EE","019cef8a-ae0c-7a18-8edf-ce7960b5a1ea","019cef87-c56d-7b55-9135-c5814367ec25","","null","
                <div class=""stimulus-container"">
                    <img src=""images/causal_sequence/museum_causal/museum_causal_ten.png"" class=""exp-image"">
                    <div class=""question-area""></div> 
                </div>","null","","","","","","","",""
"","","","","","html-button-response","141","548955","0.0-141.0","F2664AC33EEC478A8FE2273B08C538EE","019cef8a-ae0c-7a18-8edf-ce7960b5a1ea","019cef87-c56d-7b55-9135-c5814367ec25","","1026","
                <div class=""stimulus-container"">
                    <img src=""images/causal_sequence/museum_causal/museum_causal_ten.png"" class=""exp-image"">
                    <div class=""question-area"">
                        <p style=""font-size: 20px; font-weight: bold; margin: 0;"">Is there a person in this image?</p>
                    </div>
                </div>","0","main_experiment_trial","ten","museum_causal","causal_sequence","","","",""
"","","","","","html-keyboard-response","142","549970","0.0-142.0","F2664AC33EEC478A8FE2273B08C538EE","019cef8a-ae0c-7a18-8edf-ce7960b5a1ea","019cef87-c56d-7b55-9135-c5814367ec25","","null","<div style=""background-color: white; width: 100vw; height: 100vh;""></div>","null","","","","","","","",""
"","","","","","html-keyboard-response","143","554972","0.0-143.0","F2664AC33EEC478A8FE2273B08C538EE","019cef8a-ae0c-7a18-8edf-ce7960b5a1ea","019cef87-c56d-7b55-9135-c5814367ec25","","null","
                <div class=""stimulus-container"">
                    <img src=""images/schematic_sequence/interview_scheme/interview_scheme_1.png"" class=""exp-image"">
                    <div class=""question-area""></div> 
                </div>","null","","","","","","","",""
"","","","","","html-button-response","144","556085","0.0-144.0","F2664AC33EEC478A8FE2273B08C538EE","019cef8a-ae0c-7a18-8edf-ce7960b5a1ea","019cef87-c56d-7b55-9135-c5814367ec25","","1112","
                <div class=""stimulus-container"">
                    <img src=""images/schematic_sequence/interview_scheme/interview_scheme_1.png"" class=""exp-image"">
                    <div class=""question-area"">
                        <p style=""font-size: 20px; font-weight: bold; margin: 0;"">Is there a person in this image?</p>
                    </div>
                </div>","1","main_experiment_trial","1","interview_scheme","schematic_sequence","","","",""
"","","","","","html-keyboard-response","145","561087","0.0-145.0","F2664AC33EEC478A8FE2273B08C538EE","019cef8a-ae0c-7a18-8edf-ce7960b5a1ea","019cef87-c56d-7b55-9135-c5814367ec25","","null","
                <div class=""stimulus-container"">
                    <img src=""images/schematic_sequence/interview_scheme/interview_scheme_2.png"" class=""exp-image"">
                    <div class=""question-area""></div> 
                </div>","null","","","","","","","",""
"","","","","","html-button-response","146","561851","0.0-146.0","F2664AC33EEC478A8FE2273B08C538EE","019cef8a-ae0c-7a18-8edf-ce7960b5a1ea","019cef87-c56d-7b55-9135-c5814367ec25","","764","
                <div class=""stimulus-container"">
                    <img src=""images/schematic_sequence/interview_scheme/interview_scheme_2.png"" class=""exp-image"">
                    <div class=""question-area"">
                        <p style=""font-size: 20px; font-weight: bold; margin: 0;"">Is there a person in this image?</p>
                    </div>
                </div>","0","main_experiment_trial","2","interview_scheme","schematic_sequence","","","",""
"","","","","","html-keyboard-response","147","566854","0.0-147.0","F2664AC33EEC478A8FE2273B08C538EE","019cef8a-ae0c-7a18-8edf-ce7960b5a1ea","019cef87-c56d-7b55-9135-c5814367ec25","","null","
                <div class=""stimulus-container"">
                    <img src=""images/schematic_sequence/interview_scheme/interview_scheme_3.png"" class=""exp-image"">
                    <div class=""question-area""></div> 
                </div>","null","","","","","","","",""
"","","","","","html-button-response","148","567329","0.0-148.0","F2664AC33EEC478A8FE2273B08C538EE","019cef8a-ae0c-7a18-8edf-ce7960b5a1ea","019cef87-c56d-7b55-9135-c5814367ec25","","474","
                <div class=""stimulus-container"">
                    <img src=""images/schematic_sequence/interview_scheme/interview_scheme_3.png"" class=""exp-image"">
                    <div class=""question-area"">
                        <p style=""font-size: 20px; font-weight: bold; margin: 0;"">Is there a person in this image?</p>
                    </div>
                </div>","1","main_experiment_trial","3","interview_scheme","schematic_sequence","","","",""
"","","","","","html-keyboard-response","149","572336","0.0-149.0","F2664AC33EEC478A8FE2273B08C538EE","019cef8a-ae0c-7a18-8edf-ce7960b5a1ea","019cef87-c56d-7b55-9135-c5814367ec25","","null","
                <div class=""stimulus-container"">
                    <img src=""images/schematic_sequence/interview_scheme/interview_scheme_4.png"" class=""exp-image"">
                    <div class=""question-area""></div> 
                </div>","null","","","","","","","",""
"","","","","","html-button-response","150","572911","0.0-150.0","F2664AC33EEC478A8FE2273B08C538EE","019cef8a-ae0c-7a18-8edf-ce7960b5a1ea","019cef87-c56d-7b55-9135-c5814367ec25","","574","
                <div class=""stimulus-container"">
                    <img src=""images/schematic_sequence/interview_scheme/interview_scheme_4.png"" class=""exp-image"">
                    <div class=""question-area"">
                        <p style=""font-size: 20px; font-weight: bold; margin: 0;"">Is there a person in this image?</p>
                    </div>
                </div>","1","main_experiment_trial","4","interview_scheme","schematic_sequence","","","",""
"","","","","","html-keyboard-response","151","577922","0.0-151.0","F2664AC33EEC478A8FE2273B08C538EE","019cef8a-ae0c-7a18-8edf-ce7960b5a1ea","019cef87-c56d-7b55-9135-c5814367ec25","","null","
                <div class=""stimulus-container"">
                    <img src=""images/schematic_sequence/interview_scheme/interview_scheme_5.png"" class=""exp-image"">
                    <div class=""question-area""></div> 
                </div>","null","","","","","","","",""
"","","","","","html-button-response","152","578579","0.0-152.0","F2664AC33EEC478A8FE2273B08C538EE","019cef8a-ae0c-7a18-8edf-ce7960b5a1ea","019cef87-c56d-7b55-9135-c5814367ec25","","656","
                <div class=""stimulus-container"">
                    <img src=""images/schematic_sequence/interview_scheme/interview_scheme_5.png"" class=""exp-image"">
                    <div class=""question-area"">
                        <p style=""font-size: 20px; font-weight: bold; margin: 0;"">Is there a person in this image?</p>
                    </div>
                </div>","0","main_experiment_trial","5","interview_scheme","schematic_sequence","","","",""
"","","","","","html-keyboard-response","153","583581","0.0-153.0","F2664AC33EEC478A8FE2273B08C538EE","019cef8a-ae0c-7a18-8edf-ce7960b5a1ea","019cef87-c56d-7b55-9135-c5814367ec25","","null","
                <div class=""stimulus-container"">
                    <img src=""images/schematic_sequence/interview_scheme/interview_scheme_6.png"" class=""exp-image"">
                    <div class=""question-area""></div> 
                </div>","null","","","","","","","",""
"","","","","","html-button-response","154","584029","0.0-154.0","F2664AC33EEC478A8FE2273B08C538EE","019cef8a-ae0c-7a18-8edf-ce7960b5a1ea","019cef87-c56d-7b55-9135-c5814367ec25","","446","
                <div class=""stimulus-container"">
                    <img src=""images/schematic_sequence/interview_scheme/interview_scheme_6.png"" class=""exp-image"">
                    <div class=""question-area"">
                        <p style=""font-size: 20px; font-weight: bold; margin: 0;"">Is there a person in this image?</p>
                    </div>
                </div>","0","main_experiment_trial","6","interview_scheme","schematic_sequence","","","",""
"","","","","","html-keyboard-response","155","589038","0.0-155.0","F2664AC33EEC478A8FE2273B08C538EE","019cef8a-ae0c-7a18-8edf-ce7960b5a1ea","019cef87-c56d-7b55-9135-c5814367ec25","","null","
                <div class=""stimulus-container"">
                    <img src=""images/schematic_sequence/interview_scheme/interview_scheme_7.png"" class=""exp-image"">
                    <div class=""question-area""></div> 
                </div>","null","","","","","","","",""
"","","","","","html-button-response","156","589683","0.0-156.0","F2664AC33EEC478A8FE2273B08C538EE","019cef8a-ae0c-7a18-8edf-ce7960b5a1ea","019cef87-c56d-7b55-9135-c5814367ec25","","643","
                <div class=""stimulus-container"">
                    <img src=""images/schematic_sequence/interview_scheme/interview_scheme_7.png"" class=""exp-image"">
                    <div class=""question-area"">
                        <p style=""font-size: 20px; font-weight: bold; margin: 0;"">Is there a person in this image?</p>
                    </div>
                </div>","0","main_experiment_trial","7","interview_scheme","schematic_sequence","","","",""
"","","","","","html-keyboard-response","157","594696","0.0-157.0","F2664AC33EEC478A8FE2273B08C538EE","019cef8a-ae0c-7a18-8edf-ce7960b5a1ea","019cef87-c56d-7b55-9135-c5814367ec25","","null","
                <div class=""stimulus-container"">
                    <img src=""images/schematic_sequence/interview_scheme/interview_scheme_8.png"" class=""exp-image"">
                    <div class=""question-area""></div> 
                </div>","null","","","","","","","",""
"","","","","","html-button-response","158","595690","0.0-158.0","F2664AC33EEC478A8FE2273B08C538EE","019cef8a-ae0c-7a18-8edf-ce7960b5a1ea","019cef87-c56d-7b55-9135-c5814367ec25","","992","
                <div class=""stimulus-container"">
                    <img src=""images/schematic_sequence/interview_scheme/interview_scheme_8.png"" class=""exp-image"">
                    <div class=""question-area"">
                        <p style=""font-size: 20px; font-weight: bold; margin: 0;"">Is there a person in this image?</p>
                    </div>
                </div>","0","main_experiment_trial","8","interview_scheme","schematic_sequence","","","",""
"","","","","","html-keyboard-response","159","600691","0.0-159.0","F2664AC33EEC478A8FE2273B08C538EE","019cef8a-ae0c-7a18-8edf-ce7960b5a1ea","019cef87-c56d-7b55-9135-c5814367ec25","","null","
                <div class=""stimulus-container"">
                    <img src=""images/schematic_sequence/interview_scheme/interview_scheme_9.png"" class=""exp-image"">
                    <div class=""question-area""></div> 
                </div>","null","","","","","","","",""
"","","","","","html-button-response","160","601125","0.0-160.0","F2664AC33EEC478A8FE2273B08C538EE","019cef8a-ae0c-7a18-8edf-ce7960b5a1ea","019cef87-c56d-7b55-9135-c5814367ec25","","433","
                <div class=""stimulus-container"">
                    <img src=""images/schematic_sequence/interview_scheme/interview_scheme_9.png"" class=""exp-image"">
                    <div class=""question-area"">
                        <p style=""font-size: 20px; font-weight: bold; margin: 0;"">Is there a person in this image?</p>
                    </div>
                </div>","0","main_experiment_trial","9","interview_scheme","schematic_sequence","","","",""
"","","","","","html-keyboard-response","161","606134","0.0-161.0","F2664AC33EEC478A8FE2273B08C538EE","019cef8a-ae0c-7a18-8edf-ce7960b5a1ea","019cef87-c56d-7b55-9135-c5814367ec25","","null","
                <div class=""stimulus-container"">
                    <img src=""images/schematic_sequence/interview_scheme/interview_scheme_ten.png"" class=""exp-image"">
                    <div class=""question-area""></div> 
                </div>","null","","","","","","","",""
"","","","","","html-button-response","162","606599","0.0-162.0","F2664AC33EEC478A8FE2273B08C538EE","019cef8a-ae0c-7a18-8edf-ce7960b5a1ea","019cef87-c56d-7b55-9135-c5814367ec25","","464","
                <div class=""stimulus-container"">
                    <img src=""images/schematic_sequence/interview_scheme/interview_scheme_ten.png"" class=""exp-image"">
                    <div class=""question-area"">
                        <p style=""font-size: 20px; font-weight: bold; margin: 0;"">Is there a person in this image?</p>
                    </div>
                </div>","0","main_experiment_trial","ten","interview_scheme","schematic_sequence","","","",""
"","","","","","html-keyboard-response","163","607602","0.0-163.0","F2664AC33EEC478A8FE2273B08C538EE","019cef8a-ae0c-7a18-8edf-ce7960b5a1ea","019cef87-c56d-7b55-9135-c5814367ec25","","null","<div style=""background-color: white; width: 100vw; height: 100vh;""></div>","null","","","","","","","",""
"","","","","","html-keyboard-response","164","612603","0.0-164.0","F2664AC33EEC478A8FE2273B08C538EE","019cef8a-ae0c-7a18-8edf-ce7960b5a1ea","019cef87-c56d-7b55-9135-c5814367ec25","","null","
                <div class=""stimulus-container"">
                    <img src=""images/schematic_sequence/hotel_scheme/hotel_scheme_1.png"" class=""exp-image"">
                    <div class=""question-area""></div> 
                </div>","null","","","","","","","",""
"","","","","","html-button-response","165","613633","0.0-165.0","F2664AC33EEC478A8FE2273B08C538EE","019cef8a-ae0c-7a18-8edf-ce7960b5a1ea","019cef87-c56d-7b55-9135-c5814367ec25","","1029","
                <div class=""stimulus-container"">
                    <img src=""images/schematic_sequence/hotel_scheme/hotel_scheme_1.png"" class=""exp-image"">
                    <div class=""question-area"">
                        <p style=""font-size: 20px; font-weight: bold; margin: 0;"">Is there a person in this image?</p>
                    </div>
                </div>","1","main_experiment_trial","1","hotel_scheme","schematic_sequence","","","",""
"","","","","","html-keyboard-response","166","618636","0.0-166.0","F2664AC33EEC478A8FE2273B08C538EE","019cef8a-ae0c-7a18-8edf-ce7960b5a1ea","019cef87-c56d-7b55-9135-c5814367ec25","","null","
                <div class=""stimulus-container"">
                    <img src=""images/schematic_sequence/hotel_scheme/hotel_scheme_2.png"" class=""exp-image"">
                    <div class=""question-area""></div> 
                </div>","null","","","","","","","",""
"","","","","","html-button-response","167","619159","0.0-167.0","F2664AC33EEC478A8FE2273B08C538EE","019cef8a-ae0c-7a18-8edf-ce7960b5a1ea","019cef87-c56d-7b55-9135-c5814367ec25","","522","
                <div class=""stimulus-container"">
                    <img src=""images/schematic_sequence/hotel_scheme/hotel_scheme_2.png"" class=""exp-image"">
                    <div class=""question-area"">
                        <p style=""font-size: 20px; font-weight: bold; margin: 0;"">Is there a person in this image?</p>
                    </div>
                </div>","0","main_experiment_trial","2","hotel_scheme","schematic_sequence","","","",""
"","","","","","html-keyboard-response","168","624170","0.0-168.0","F2664AC33EEC478A8FE2273B08C538EE","019cef8a-ae0c-7a18-8edf-ce7960b5a1ea","019cef87-c56d-7b55-9135-c5814367ec25","","null","
                <div class=""stimulus-container"">
                    <img src=""images/schematic_sequence/hotel_scheme/hotel_scheme_3.png"" class=""exp-image"">
                    <div class=""question-area""></div> 
                </div>","null","","","","","","","",""
"","","","","","html-button-response","169","624727","0.0-169.0","F2664AC33EEC478A8FE2273B08C538EE","019cef8a-ae0c-7a18-8edf-ce7960b5a1ea","019cef87-c56d-7b55-9135-c5814367ec25","","556","
                <div class=""stimulus-container"">
                    <img src=""images/schematic_sequence/hotel_scheme/hotel_scheme_3.png"" class=""exp-image"">
                    <div class=""question-area"">
                        <p style=""font-size: 20px; font-weight: bold; margin: 0;"">Is there a person in this image?</p>
                    </div>
                </div>","0","main_experiment_trial","3","hotel_scheme","schematic_sequence","","","",""
"","","","","","html-keyboard-response","170","629733","0.0-170.0","F2664AC33EEC478A8FE2273B08C538EE","019cef8a-ae0c-7a18-8edf-ce7960b5a1ea","019cef87-c56d-7b55-9135-c5814367ec25","","null","
                <div class=""stimulus-container"">
                    <img src=""images/schematic_sequence/hotel_scheme/hotel_scheme_4.png"" class=""exp-image"">
                    <div class=""question-area""></div> 
                </div>","null","","","","","","","",""
"","","","","","html-button-response","171","630185","0.0-171.0","F2664AC33EEC478A8FE2273B08C538EE","019cef8a-ae0c-7a18-8edf-ce7960b5a1ea","019cef87-c56d-7b55-9135-c5814367ec25","","451","
                <div class=""stimulus-container"">
                    <img src=""images/schematic_sequence/hotel_scheme/hotel_scheme_4.png"" class=""exp-image"">
                    <div class=""question-area"">
                        <p style=""font-size: 20px; font-weight: bold; margin: 0;"">Is there a person in this image?</p>
                    </div>
                </div>","1","main_experiment_trial","4","hotel_scheme","schematic_sequence","","","",""
"","","","","","html-keyboard-response","172","635191","0.0-172.0","F2664AC33EEC478A8FE2273B08C538EE","019cef8a-ae0c-7a18-8edf-ce7960b5a1ea","019cef87-c56d-7b55-9135-c5814367ec25","","null","
                <div class=""stimulus-container"">
                    <img src=""images/schematic_sequence/hotel_scheme/hotel_scheme_5.png"" class=""exp-image"">
                    <div class=""question-area""></div> 
                </div>","null","","","","","","","",""
"","","","","","html-button-response","173","635799","0.0-173.0","F2664AC33EEC478A8FE2273B08C538EE","019cef8a-ae0c-7a18-8edf-ce7960b5a1ea","019cef87-c56d-7b55-9135-c5814367ec25","","607","
                <div class=""stimulus-container"">
                    <img src=""images/schematic_sequence/hotel_scheme/hotel_scheme_5.png"" class=""exp-image"">
                    <div class=""question-area"">
                        <p style=""font-size: 20px; font-weight: bold; margin: 0;"">Is there a person in this image?</p>
                    </div>
                </div>","0","main_experiment_trial","5","hotel_scheme","schematic_sequence","","","",""
"","","","","","html-keyboard-response","174","640815","0.0-174.0","F2664AC33EEC478A8FE2273B08C538EE","019cef8a-ae0c-7a18-8edf-ce7960b5a1ea","019cef87-c56d-7b55-9135-c5814367ec25","","null","
                <div class=""stimulus-container"">
                    <img src=""images/schematic_sequence/hotel_scheme/hotel_scheme_6.png"" class=""exp-image"">
                    <div class=""question-area""></div> 
                </div>","null","","","","","","","",""
"","","","","","html-button-response","175","641251","0.0-175.0","F2664AC33EEC478A8FE2273B08C538EE","019cef8a-ae0c-7a18-8edf-ce7960b5a1ea","019cef87-c56d-7b55-9135-c5814367ec25","","435","
                <div class=""stimulus-container"">
                    <img src=""images/schematic_sequence/hotel_scheme/hotel_scheme_6.png"" class=""exp-image"">
                    <div class=""question-area"">
                        <p style=""font-size: 20px; font-weight: bold; margin: 0;"">Is there a person in this image?</p>
                    </div>
                </div>","0","main_experiment_trial","6","hotel_scheme","schematic_sequence","","","",""
"","","","","","html-keyboard-response","176","646255","0.0-176.0","F2664AC33EEC478A8FE2273B08C538EE","019cef8a-ae0c-7a18-8edf-ce7960b5a1ea","019cef87-c56d-7b55-9135-c5814367ec25","","null","
                <div class=""stimulus-container"">
                    <img src=""images/schematic_sequence/hotel_scheme/hotel_scheme_7.png"" class=""exp-image"">
                    <div class=""question-area""></div> 
                </div>","null","","","","","","","",""
"","","","","","html-button-response","177","647377","0.0-177.0","F2664AC33EEC478A8FE2273B08C538EE","019cef8a-ae0c-7a18-8edf-ce7960b5a1ea","019cef87-c56d-7b55-9135-c5814367ec25","","1121","
                <div class=""stimulus-container"">
                    <img src=""images/schematic_sequence/hotel_scheme/hotel_scheme_7.png"" class=""exp-image"">
                    <div class=""question-area"">
                        <p style=""font-size: 20px; font-weight: bold; margin: 0;"">Is there a person in this image?</p>
                    </div>
                </div>","0","main_experiment_trial","7","hotel_scheme","schematic_sequence","","","",""
"","","","","","html-keyboard-response","178","652383","0.0-178.0","F2664AC33EEC478A8FE2273B08C538EE","019cef8a-ae0c-7a18-8edf-ce7960b5a1ea","019cef87-c56d-7b55-9135-c5814367ec25","","null","
                <div class=""stimulus-container"">
                    <img src=""images/schematic_sequence/hotel_scheme/hotel_scheme_8.png"" class=""exp-image"">
                    <div class=""question-area""></div> 
                </div>","null","","","","","","","",""
"","","","","","html-button-response","179","653751","0.0-179.0","F2664AC33EEC478A8FE2273B08C538EE","019cef8a-ae0c-7a18-8edf-ce7960b5a1ea","019cef87-c56d-7b55-9135-c5814367ec25","","1367","
                <div class=""stimulus-container"">
                    <img src=""images/schematic_sequence/hotel_scheme/hotel_scheme_8.png"" class=""exp-image"">
                    <div class=""question-area"">
                        <p style=""font-size: 20px; font-weight: bold; margin: 0;"">Is there a person in this image?</p>
                    </div>
                </div>","0","main_experiment_trial","8","hotel_scheme","schematic_sequence","","","",""
"","","","","","html-keyboard-response","180","658759","0.0-180.0","F2664AC33EEC478A8FE2273B08C538EE","019cef8a-ae0c-7a18-8edf-ce7960b5a1ea","019cef87-c56d-7b55-9135-c5814367ec25","","null","
                <div class=""stimulus-container"">
                    <img src=""images/schematic_sequence/hotel_scheme/hotel_scheme_9.png"" class=""exp-image"">
                    <div class=""question-area""></div> 
                </div>","null","","","","","","","",""
"","","","","","html-button-response","181","659949","0.0-181.0","F2664AC33EEC478A8FE2273B08C538EE","019cef8a-ae0c-7a18-8edf-ce7960b5a1ea","019cef87-c56d-7b55-9135-c5814367ec25","","1189","
                <div class=""stimulus-container"">
                    <img src=""images/schematic_sequence/hotel_scheme/hotel_scheme_9.png"" class=""exp-image"">
                    <div class=""question-area"">
                        <p style=""font-size: 20px; font-weight: bold; margin: 0;"">Is there a person in this image?</p>
                    </div>
                </div>","0","main_experiment_trial","9","hotel_scheme","schematic_sequence","","","",""
"","","","","","html-keyboard-response","182","664956","0.0-182.0","F2664AC33EEC478A8FE2273B08C538EE","019cef8a-ae0c-7a18-8edf-ce7960b5a1ea","019cef87-c56d-7b55-9135-c5814367ec25","","null","
                <div class=""stimulus-container"">
                    <img src=""images/schematic_sequence/hotel_scheme/hotel_scheme_ten.png"" class=""exp-image"">
                    <div class=""question-area""></div> 
                </div>","null","","","","","","","",""
"","","","","","html-button-response","183","665996","0.0-183.0","F2664AC33EEC478A8FE2273B08C538EE","019cef8a-ae0c-7a18-8edf-ce7960b5a1ea","019cef87-c56d-7b55-9135-c5814367ec25","","1039","
                <div class=""stimulus-container"">
                    <img src=""images/schematic_sequence/hotel_scheme/hotel_scheme_ten.png"" class=""exp-image"">
                    <div class=""question-area"">
                        <p style=""font-size: 20px; font-weight: bold; margin: 0;"">Is there a person in this image?</p>
                    </div>
                </div>","0","main_experiment_trial","ten","hotel_scheme","schematic_sequence","","","",""
