"success","timeout","failed_images","failed_audio","failed_video","trial_type","trial_index","time_elapsed","internal_node_id","subject_id","study_id","session_id","view_history","rt","stimulus","response","task","image_index","folder","sequence_type","presentation_order","valuable_image_index","reward_type","distance_from_x","target_X","chosen_image_index","is_x_plus_dist","correct_choice"
"true","false","[]","[]","[]","preload","0","7831","0.0-0.0","CCCF452ED19D4E7F8435D6F203B41531","019d6c12-a438-796e-912d-366783cd3912","019d6b6d-d11f-7233-9b95-7a424dbf389f","","","","","","","","","","","","","","","",""
"","","","","","instructions","1","59374","0.0-1.0","CCCF452ED19D4E7F8435D6F203B41531","019d6c12-a438-796e-912d-366783cd3912","019d6b6d-d11f-7233-9b95-7a424dbf389f","[{""page_index"":0,""viewing_time"":51543}]","51543","","","","","","","","","","","","","",""
"","","","","","instructions","2","61407","0.0-2.0","CCCF452ED19D4E7F8435D6F203B41531","019d6c12-a438-796e-912d-366783cd3912","019d6b6d-d11f-7233-9b95-7a424dbf389f","[{""page_index"":0,""viewing_time"":2033}]","2033","","","","","","","","","","","","","",""
"true","","","","","fullscreen","3","64558","0.0-3.0","CCCF452ED19D4E7F8435D6F203B41531","019d6c12-a438-796e-912d-366783cd3912","019d6b6d-d11f-7233-9b95-7a424dbf389f","","2149","","","","","","","","","","","","","",""
"","","","","","instructions","4","80977","0.0-4.0","CCCF452ED19D4E7F8435D6F203B41531","019d6c12-a438-796e-912d-366783cd3912","019d6b6d-d11f-7233-9b95-7a424dbf389f","[{""page_index"":0,""viewing_time"":16419}]","16419","","","","","","","","","","","","","",""
"","","","","","instructions","5","91405","0.0-5.0","CCCF452ED19D4E7F8435D6F203B41531","019d6c12-a438-796e-912d-366783cd3912","019d6b6d-d11f-7233-9b95-7a424dbf389f","[{""page_index"":0,""viewing_time"":10428}]","10428","","","","","","","","","","","","","",""
"","","","","","html-keyboard-response","6","95406","0.0-6.0","CCCF452ED19D4E7F8435D6F203B41531","019d6c12-a438-796e-912d-366783cd3912","019d6b6d-d11f-7233-9b95-7a424dbf389f","","null","
            <div class=""stimulus-container"">
                <img src=""images/instructions/movie_1.png"" class=""exp-image"">
                <div class=""question-area""></div> 
            </div>","null","","","","","","","","","","","",""
"","","","","","html-button-response","7","97912","0.0-7.0","CCCF452ED19D4E7F8435D6F203B41531","019d6c12-a438-796e-912d-366783cd3912","019d6b6d-d11f-7233-9b95-7a424dbf389f","","2504","
            <div class=""stimulus-container"">
                <img src=""images/instructions/movie_1.png"" class=""exp-image"">
                <div class=""question-area"">
                    <p style=""font-size: 20px; font-weight: bold; margin: 0;"">Was there a person in this image?</p>
                </div>
            </div>","0","example_question","1","","","","","","","","","",""
"","","","","","html-keyboard-response","8","101913","0.0-8.0","CCCF452ED19D4E7F8435D6F203B41531","019d6c12-a438-796e-912d-366783cd3912","019d6b6d-d11f-7233-9b95-7a424dbf389f","","null","
            <div class=""stimulus-container"">
                <img src=""images/instructions/movie_2.png"" class=""exp-image"">
                <div class=""question-area""></div> 
            </div>","null","","","","","","","","","","","",""
"","","","","","html-button-response","9","102554","0.0-9.0","CCCF452ED19D4E7F8435D6F203B41531","019d6c12-a438-796e-912d-366783cd3912","019d6b6d-d11f-7233-9b95-7a424dbf389f","","640","
            <div class=""stimulus-container"">
                <img src=""images/instructions/movie_2.png"" class=""exp-image"">
                <div class=""question-area"">
                    <p style=""font-size: 20px; font-weight: bold; margin: 0;"">Was there a person in this image?</p>
                </div>
            </div>","0","example_question","2","","","","","","","","","",""
"","","","","","html-keyboard-response","10","106554","0.0-10.0","CCCF452ED19D4E7F8435D6F203B41531","019d6c12-a438-796e-912d-366783cd3912","019d6b6d-d11f-7233-9b95-7a424dbf389f","","null","
            <div class=""stimulus-container"">
                <img src=""images/instructions/movie_3.png"" class=""exp-image"">
                <div class=""question-area""></div> 
            </div>","null","","","","","","","","","","","",""
"","","","","","html-button-response","11","107254","0.0-11.0","CCCF452ED19D4E7F8435D6F203B41531","019d6c12-a438-796e-912d-366783cd3912","019d6b6d-d11f-7233-9b95-7a424dbf389f","","699","
            <div class=""stimulus-container"">
                <img src=""images/instructions/movie_3.png"" class=""exp-image"">
                <div class=""question-area"">
                    <p style=""font-size: 20px; font-weight: bold; margin: 0;"">Was there a person in this image?</p>
                </div>
            </div>","0","example_question","3","","","","","","","","","",""
"","","","","","html-keyboard-response","12","111254","0.0-12.0","CCCF452ED19D4E7F8435D6F203B41531","019d6c12-a438-796e-912d-366783cd3912","019d6b6d-d11f-7233-9b95-7a424dbf389f","","null","
            <div class=""stimulus-container"">
                <img src=""images/instructions/movie_4.png"" class=""exp-image"">
                <div class=""question-area""></div> 
            </div>","null","","","","","","","","","","","",""
"","","","","","html-button-response","13","111728","0.0-13.0","CCCF452ED19D4E7F8435D6F203B41531","019d6c12-a438-796e-912d-366783cd3912","019d6b6d-d11f-7233-9b95-7a424dbf389f","","473","
            <div class=""stimulus-container"">
                <img src=""images/instructions/movie_4.png"" class=""exp-image"">
                <div class=""question-area"">
                    <p style=""font-size: 20px; font-weight: bold; margin: 0;"">Was there a person in this image?</p>
                </div>
            </div>","0","example_question","4","","","","","","","","","",""
"","","","","","instructions","14","114565","0.0-14.0","CCCF452ED19D4E7F8435D6F203B41531","019d6c12-a438-796e-912d-366783cd3912","019d6b6d-d11f-7233-9b95-7a424dbf389f","[{""page_index"":0,""viewing_time"":2837}]","2837","","","","","","","","","","","","","",""
"","","","","","instructions","15","121778","0.0-15.0","CCCF452ED19D4E7F8435D6F203B41531","019d6c12-a438-796e-912d-366783cd3912","019d6b6d-d11f-7233-9b95-7a424dbf389f","[{""page_index"":0,""viewing_time"":7213}]","7213","","","","","","","","","","","","","",""
"","","","","","html-keyboard-response","16","126778","0.0-16.0","CCCF452ED19D4E7F8435D6F203B41531","019d6c12-a438-796e-912d-366783cd3912","019d6b6d-d11f-7233-9b95-7a424dbf389f","","null","<div style=""background-color: white; width: 100vw; height: 100vh;""></div>","null","","","","","","","","","","","",""
"","","","","","html-keyboard-response","17","131779","0.0-17.0","CCCF452ED19D4E7F8435D6F203B41531","019d6c12-a438-796e-912d-366783cd3912","019d6b6d-d11f-7233-9b95-7a424dbf389f","","null","
                <div class=""stimulus-container"">
                    <img src=""semantic_sequence_notimeline/household_objects_semantic/household_objects_semantic_1.png"" class=""exp-image"">
                    <div class=""question-area""></div> 
                </div>","null","","","","","","","","","","","",""
"","","","","","html-button-response","18","134780","0.0-18.0","CCCF452ED19D4E7F8435D6F203B41531","019d6c12-a438-796e-912d-366783cd3912","019d6b6d-d11f-7233-9b95-7a424dbf389f","","null","
                <div class=""stimulus-container"">
                    <img src=""semantic_sequence_notimeline/household_objects_semantic/household_objects_semantic_1.png"" class=""exp-image"">
                    <div class=""question-area"">
                        <p style=""font-size: 20px; font-weight: bold; margin: 0;"">Is there a person in this image?</p>
                    </div>
                </div>","null","main_experiment_trial","1","household_objects_semantic","semantic_sequence_notimeline","chronological","","","","","","",""
"","","","","","html-keyboard-response","19","139781","0.0-19.0","CCCF452ED19D4E7F8435D6F203B41531","019d6c12-a438-796e-912d-366783cd3912","019d6b6d-d11f-7233-9b95-7a424dbf389f","","null","
                <div class=""stimulus-container"">
                    <img src=""semantic_sequence_notimeline/household_objects_semantic/household_objects_semantic_2.png"" class=""exp-image"">
                    <div class=""question-area""></div> 
                </div>","null","","","","","","","","","","","",""
"","","","","","html-button-response","20","142781","0.0-20.0","CCCF452ED19D4E7F8435D6F203B41531","019d6c12-a438-796e-912d-366783cd3912","019d6b6d-d11f-7233-9b95-7a424dbf389f","","null","
                <div class=""stimulus-container"">
                    <img src=""semantic_sequence_notimeline/household_objects_semantic/household_objects_semantic_2.png"" class=""exp-image"">
                    <div class=""question-area"">
                        <p style=""font-size: 20px; font-weight: bold; margin: 0;"">Is there a person in this image?</p>
                    </div>
                </div>","null","main_experiment_trial","2","household_objects_semantic","semantic_sequence_notimeline","chronological","","","","","","",""
"","","","","","html-keyboard-response","21","147782","0.0-21.0","CCCF452ED19D4E7F8435D6F203B41531","019d6c12-a438-796e-912d-366783cd3912","019d6b6d-d11f-7233-9b95-7a424dbf389f","","null","
                <div class=""stimulus-container"">
                    <img src=""semantic_sequence_notimeline/household_objects_semantic/household_objects_semantic_3.png"" class=""exp-image"">
                    <div class=""question-area""></div> 
                </div>","null","","","","","","","","","","","",""
"","","","","","html-button-response","22","150783","0.0-22.0","CCCF452ED19D4E7F8435D6F203B41531","019d6c12-a438-796e-912d-366783cd3912","019d6b6d-d11f-7233-9b95-7a424dbf389f","","null","
                <div class=""stimulus-container"">
                    <img src=""semantic_sequence_notimeline/household_objects_semantic/household_objects_semantic_3.png"" class=""exp-image"">
                    <div class=""question-area"">
                        <p style=""font-size: 20px; font-weight: bold; margin: 0;"">Is there a person in this image?</p>
                    </div>
                </div>","null","main_experiment_trial","3","household_objects_semantic","semantic_sequence_notimeline","chronological","","","","","","",""
"","","","","","html-keyboard-response","23","155783","0.0-23.0","CCCF452ED19D4E7F8435D6F203B41531","019d6c12-a438-796e-912d-366783cd3912","019d6b6d-d11f-7233-9b95-7a424dbf389f","","null","
                <div class=""stimulus-container"">
                    <img src=""semantic_sequence_notimeline/household_objects_semantic/household_objects_semantic_4.png"" class=""exp-image"">
                    <div class=""question-area""></div> 
                </div>","null","","","","","","","","","","","",""
"","","","","","html-button-response","24","158784","0.0-24.0","CCCF452ED19D4E7F8435D6F203B41531","019d6c12-a438-796e-912d-366783cd3912","019d6b6d-d11f-7233-9b95-7a424dbf389f","","null","
                <div class=""stimulus-container"">
                    <img src=""semantic_sequence_notimeline/household_objects_semantic/household_objects_semantic_4.png"" class=""exp-image"">
                    <div class=""question-area"">
                        <p style=""font-size: 20px; font-weight: bold; margin: 0;"">Is there a person in this image?</p>
                    </div>
                </div>","null","main_experiment_trial","4","household_objects_semantic","semantic_sequence_notimeline","chronological","","","","","","",""
"","","","","","html-keyboard-response","25","163784","0.0-25.0","CCCF452ED19D4E7F8435D6F203B41531","019d6c12-a438-796e-912d-366783cd3912","019d6b6d-d11f-7233-9b95-7a424dbf389f","","null","
                <div class=""stimulus-container"">
                    <img src=""semantic_sequence_notimeline/household_objects_semantic/household_objects_semantic_5.png"" class=""exp-image"">
                    <div class=""question-area""></div> 
                </div>","null","","","","","","","","","","","",""
"","","","","","html-button-response","26","166785","0.0-26.0","CCCF452ED19D4E7F8435D6F203B41531","019d6c12-a438-796e-912d-366783cd3912","019d6b6d-d11f-7233-9b95-7a424dbf389f","","null","
                <div class=""stimulus-container"">
                    <img src=""semantic_sequence_notimeline/household_objects_semantic/household_objects_semantic_5.png"" class=""exp-image"">
                    <div class=""question-area"">
                        <p style=""font-size: 20px; font-weight: bold; margin: 0;"">Is there a person in this image?</p>
                    </div>
                </div>","null","main_experiment_trial","5","household_objects_semantic","semantic_sequence_notimeline","chronological","","","","","","",""
"","","","","","html-keyboard-response","27","171785","0.0-27.0","CCCF452ED19D4E7F8435D6F203B41531","019d6c12-a438-796e-912d-366783cd3912","019d6b6d-d11f-7233-9b95-7a424dbf389f","","null","
                <div class=""stimulus-container"">
                    <img src=""semantic_sequence_notimeline/household_objects_semantic/household_objects_semantic_6.png"" class=""exp-image"">
                    <div class=""question-area""></div> 
                </div>","null","","","","","","","","","","","",""
"","","","","","html-button-response","28","174786","0.0-28.0","CCCF452ED19D4E7F8435D6F203B41531","019d6c12-a438-796e-912d-366783cd3912","019d6b6d-d11f-7233-9b95-7a424dbf389f","","null","
                <div class=""stimulus-container"">
                    <img src=""semantic_sequence_notimeline/household_objects_semantic/household_objects_semantic_6.png"" class=""exp-image"">
                    <div class=""question-area"">
                        <p style=""font-size: 20px; font-weight: bold; margin: 0;"">Is there a person in this image?</p>
                    </div>
                </div>","null","main_experiment_trial","6","household_objects_semantic","semantic_sequence_notimeline","chronological","","","","","","",""
"","","","","","html-keyboard-response","29","179787","0.0-29.0","CCCF452ED19D4E7F8435D6F203B41531","019d6c12-a438-796e-912d-366783cd3912","019d6b6d-d11f-7233-9b95-7a424dbf389f","","null","
                <div class=""stimulus-container"">
                    <img src=""semantic_sequence_notimeline/household_objects_semantic/household_objects_semantic_7.png"" class=""exp-image"">
                    <div class=""question-area""></div> 
                </div>","null","","","","","","","","","","","",""
"","","","","","html-button-response","30","182787","0.0-30.0","CCCF452ED19D4E7F8435D6F203B41531","019d6c12-a438-796e-912d-366783cd3912","019d6b6d-d11f-7233-9b95-7a424dbf389f","","null","
                <div class=""stimulus-container"">
                    <img src=""semantic_sequence_notimeline/household_objects_semantic/household_objects_semantic_7.png"" class=""exp-image"">
                    <div class=""question-area"">
                        <p style=""font-size: 20px; font-weight: bold; margin: 0;"">Is there a person in this image?</p>
                    </div>
                </div>","null","main_experiment_trial","7","household_objects_semantic","semantic_sequence_notimeline","chronological","","","","","","",""
"","","","","","html-keyboard-response","31","187788","0.0-31.0","CCCF452ED19D4E7F8435D6F203B41531","019d6c12-a438-796e-912d-366783cd3912","019d6b6d-d11f-7233-9b95-7a424dbf389f","","null","
                <div class=""stimulus-container"">
                    <img src=""semantic_sequence_notimeline/household_objects_semantic/household_objects_semantic_8.png"" class=""exp-image"">
                    <div class=""question-area""></div> 
                </div>","null","","","","","","","","","","","",""
"","","","","","html-button-response","32","190789","0.0-32.0","CCCF452ED19D4E7F8435D6F203B41531","019d6c12-a438-796e-912d-366783cd3912","019d6b6d-d11f-7233-9b95-7a424dbf389f","","null","
                <div class=""stimulus-container"">
                    <img src=""semantic_sequence_notimeline/household_objects_semantic/household_objects_semantic_8.png"" class=""exp-image"">
                    <div class=""question-area"">
                        <p style=""font-size: 20px; font-weight: bold; margin: 0;"">Is there a person in this image?</p>
                    </div>
                </div>","null","main_experiment_trial","8","household_objects_semantic","semantic_sequence_notimeline","chronological","","","","","","",""
"","","","","","html-keyboard-response","33","195789","0.0-33.0","CCCF452ED19D4E7F8435D6F203B41531","019d6c12-a438-796e-912d-366783cd3912","019d6b6d-d11f-7233-9b95-7a424dbf389f","","null","
                <div class=""stimulus-container"">
                    <img src=""semantic_sequence_notimeline/household_objects_semantic/household_objects_semantic_9.png"" class=""exp-image"">
                    <div class=""question-area""></div> 
                </div>","null","","","","","","","","","","","",""
"","","","","","html-button-response","34","198790","0.0-34.0","CCCF452ED19D4E7F8435D6F203B41531","019d6c12-a438-796e-912d-366783cd3912","019d6b6d-d11f-7233-9b95-7a424dbf389f","","null","
                <div class=""stimulus-container"">
                    <img src=""semantic_sequence_notimeline/household_objects_semantic/household_objects_semantic_9.png"" class=""exp-image"">
                    <div class=""question-area"">
                        <p style=""font-size: 20px; font-weight: bold; margin: 0;"">Is there a person in this image?</p>
                    </div>
                </div>","null","main_experiment_trial","9","household_objects_semantic","semantic_sequence_notimeline","chronological","","","","","","",""
"","","","","","html-keyboard-response","35","203790","0.0-35.0","CCCF452ED19D4E7F8435D6F203B41531","019d6c12-a438-796e-912d-366783cd3912","019d6b6d-d11f-7233-9b95-7a424dbf389f","","null","
                <div class=""stimulus-container"">
                    <img src=""semantic_sequence_notimeline/household_objects_semantic/household_objects_semantic_ten.png"" class=""exp-image"">
                    <div class=""question-area""></div> 
                </div>","null","","","","","","","","","","","",""
"","","","","","html-button-response","36","206791","0.0-36.0","CCCF452ED19D4E7F8435D6F203B41531","019d6c12-a438-796e-912d-366783cd3912","019d6b6d-d11f-7233-9b95-7a424dbf389f","","null","
                <div class=""stimulus-container"">
                    <img src=""semantic_sequence_notimeline/household_objects_semantic/household_objects_semantic_ten.png"" class=""exp-image"">
                    <div class=""question-area"">
                        <p style=""font-size: 20px; font-weight: bold; margin: 0;"">Is there a person in this image?</p>
                    </div>
                </div>","null","main_experiment_trial","ten","household_objects_semantic","semantic_sequence_notimeline","chronological","","","","","","",""
"","","","","","html-keyboard-response","37","211792","0.0-37.0","CCCF452ED19D4E7F8435D6F203B41531","019d6c12-a438-796e-912d-366783cd3912","019d6b6d-d11f-7233-9b95-7a424dbf389f","","null","<div style=""background-color: white; width: 100vw; height: 100vh;""></div>","null","","","","","","","","","","","",""
"","","","","","html-keyboard-response","38","216792","0.0-38.0","CCCF452ED19D4E7F8435D6F203B41531","019d6c12-a438-796e-912d-366783cd3912","019d6b6d-d11f-7233-9b95-7a424dbf389f","","null","
                <div class=""stimulus-container"">
                    <img src=""semantic_sequence_notimeline/professions_semantic/professions_semantic_1.png"" class=""exp-image"">
                    <div class=""question-area""></div> 
                </div>","null","","","","","","","","","","","",""
"","","","","","html-button-response","39","217734","0.0-39.0","CCCF452ED19D4E7F8435D6F203B41531","019d6c12-a438-796e-912d-366783cd3912","019d6b6d-d11f-7233-9b95-7a424dbf389f","","941","
                <div class=""stimulus-container"">
                    <img src=""semantic_sequence_notimeline/professions_semantic/professions_semantic_1.png"" class=""exp-image"">
                    <div class=""question-area"">
                        <p style=""font-size: 20px; font-weight: bold; margin: 0;"">Is there a person in this image?</p>
                    </div>
                </div>","0","main_experiment_trial","1","professions_semantic","semantic_sequence_notimeline","chronological","","","","","","",""
"","","","","","html-keyboard-response","40","222734","0.0-40.0","CCCF452ED19D4E7F8435D6F203B41531","019d6c12-a438-796e-912d-366783cd3912","019d6b6d-d11f-7233-9b95-7a424dbf389f","","null","
                <div class=""stimulus-container"">
                    <img src=""semantic_sequence_notimeline/professions_semantic/professions_semantic_2.png"" class=""exp-image"">
                    <div class=""question-area""></div> 
                </div>","null","","","","","","","","","","","",""
"","","","","","html-button-response","41","223107","0.0-41.0","CCCF452ED19D4E7F8435D6F203B41531","019d6c12-a438-796e-912d-366783cd3912","019d6b6d-d11f-7233-9b95-7a424dbf389f","","372","
                <div class=""stimulus-container"">
                    <img src=""semantic_sequence_notimeline/professions_semantic/professions_semantic_2.png"" class=""exp-image"">
                    <div class=""question-area"">
                        <p style=""font-size: 20px; font-weight: bold; margin: 0;"">Is there a person in this image?</p>
                    </div>
                </div>","0","main_experiment_trial","2","professions_semantic","semantic_sequence_notimeline","chronological","","","","","","",""
"","","","","","html-keyboard-response","42","228107","0.0-42.0","CCCF452ED19D4E7F8435D6F203B41531","019d6c12-a438-796e-912d-366783cd3912","019d6b6d-d11f-7233-9b95-7a424dbf389f","","null","
                <div class=""stimulus-container"">
                    <img src=""semantic_sequence_notimeline/professions_semantic/professions_semantic_3.png"" class=""exp-image"">
                    <div class=""question-area""></div> 
                </div>","null","","","","","","","","","","","",""
"","","","","","html-button-response","43","228532","0.0-43.0","CCCF452ED19D4E7F8435D6F203B41531","019d6c12-a438-796e-912d-366783cd3912","019d6b6d-d11f-7233-9b95-7a424dbf389f","","424","
                <div class=""stimulus-container"">
                    <img src=""semantic_sequence_notimeline/professions_semantic/professions_semantic_3.png"" class=""exp-image"">
                    <div class=""question-area"">
                        <p style=""font-size: 20px; font-weight: bold; margin: 0;"">Is there a person in this image?</p>
                    </div>
                </div>","0","main_experiment_trial","3","professions_semantic","semantic_sequence_notimeline","chronological","","","","","","",""
"","","","","","html-keyboard-response","44","233532","0.0-44.0","CCCF452ED19D4E7F8435D6F203B41531","019d6c12-a438-796e-912d-366783cd3912","019d6b6d-d11f-7233-9b95-7a424dbf389f","","null","
                <div class=""stimulus-container"">
                    <img src=""semantic_sequence_notimeline/professions_semantic/professions_semantic_4.png"" class=""exp-image"">
                    <div class=""question-area""></div> 
                </div>","null","","","","","","","","","","","",""
"","","","","","html-button-response","45","233948","0.0-45.0","CCCF452ED19D4E7F8435D6F203B41531","019d6c12-a438-796e-912d-366783cd3912","019d6b6d-d11f-7233-9b95-7a424dbf389f","","415","
                <div class=""stimulus-container"">
                    <img src=""semantic_sequence_notimeline/professions_semantic/professions_semantic_4.png"" class=""exp-image"">
                    <div class=""question-area"">
                        <p style=""font-size: 20px; font-weight: bold; margin: 0;"">Is there a person in this image?</p>
                    </div>
                </div>","0","main_experiment_trial","4","professions_semantic","semantic_sequence_notimeline","chronological","","","","","","",""
"","","","","","html-keyboard-response","46","238948","0.0-46.0","CCCF452ED19D4E7F8435D6F203B41531","019d6c12-a438-796e-912d-366783cd3912","019d6b6d-d11f-7233-9b95-7a424dbf389f","","null","
                <div class=""stimulus-container"">
                    <img src=""semantic_sequence_notimeline/professions_semantic/professions_semantic_5.png"" class=""exp-image"">
                    <div class=""question-area""></div> 
                </div>","null","","","","","","","","","","","",""
"","","","","","html-button-response","47","239511","0.0-47.0","CCCF452ED19D4E7F8435D6F203B41531","019d6c12-a438-796e-912d-366783cd3912","019d6b6d-d11f-7233-9b95-7a424dbf389f","","562","
                <div class=""stimulus-container"">
                    <img src=""semantic_sequence_notimeline/professions_semantic/professions_semantic_5.png"" class=""exp-image"">
                    <div class=""question-area"">
                        <p style=""font-size: 20px; font-weight: bold; margin: 0;"">Is there a person in this image?</p>
                    </div>
                </div>","0","main_experiment_trial","5","professions_semantic","semantic_sequence_notimeline","chronological","","","","","","",""
"","","","","","html-keyboard-response","48","244511","0.0-48.0","CCCF452ED19D4E7F8435D6F203B41531","019d6c12-a438-796e-912d-366783cd3912","019d6b6d-d11f-7233-9b95-7a424dbf389f","","null","
                <div class=""stimulus-container"">
                    <img src=""semantic_sequence_notimeline/professions_semantic/professions_semantic_6.png"" class=""exp-image"">
                    <div class=""question-area""></div> 
                </div>","null","","","","","","","","","","","",""
"","","","","","html-button-response","49","244878","0.0-49.0","CCCF452ED19D4E7F8435D6F203B41531","019d6c12-a438-796e-912d-366783cd3912","019d6b6d-d11f-7233-9b95-7a424dbf389f","","366","
                <div class=""stimulus-container"">
                    <img src=""semantic_sequence_notimeline/professions_semantic/professions_semantic_6.png"" class=""exp-image"">
                    <div class=""question-area"">
                        <p style=""font-size: 20px; font-weight: bold; margin: 0;"">Is there a person in this image?</p>
                    </div>
                </div>","0","main_experiment_trial","6","professions_semantic","semantic_sequence_notimeline","chronological","","","","","","",""
"","","","","","html-keyboard-response","50","249878","0.0-50.0","CCCF452ED19D4E7F8435D6F203B41531","019d6c12-a438-796e-912d-366783cd3912","019d6b6d-d11f-7233-9b95-7a424dbf389f","","null","
                <div class=""stimulus-container"">
                    <img src=""semantic_sequence_notimeline/professions_semantic/professions_semantic_7.png"" class=""exp-image"">
                    <div class=""question-area""></div> 
                </div>","null","","","","","","","","","","","",""
"","","","","","html-button-response","51","250302","0.0-51.0","CCCF452ED19D4E7F8435D6F203B41531","019d6c12-a438-796e-912d-366783cd3912","019d6b6d-d11f-7233-9b95-7a424dbf389f","","423","
                <div class=""stimulus-container"">
                    <img src=""semantic_sequence_notimeline/professions_semantic/professions_semantic_7.png"" class=""exp-image"">
                    <div class=""question-area"">
                        <p style=""font-size: 20px; font-weight: bold; margin: 0;"">Is there a person in this image?</p>
                    </div>
                </div>","0","main_experiment_trial","7","professions_semantic","semantic_sequence_notimeline","chronological","","","","","","",""
"","","","","","html-keyboard-response","52","255302","0.0-52.0","CCCF452ED19D4E7F8435D6F203B41531","019d6c12-a438-796e-912d-366783cd3912","019d6b6d-d11f-7233-9b95-7a424dbf389f","","null","
                <div class=""stimulus-container"">
                    <img src=""semantic_sequence_notimeline/professions_semantic/professions_semantic_8.png"" class=""exp-image"">
                    <div class=""question-area""></div> 
                </div>","null","","","","","","","","","","","",""
"","","","","","html-button-response","53","255930","0.0-53.0","CCCF452ED19D4E7F8435D6F203B41531","019d6c12-a438-796e-912d-366783cd3912","019d6b6d-d11f-7233-9b95-7a424dbf389f","","627","
                <div class=""stimulus-container"">
                    <img src=""semantic_sequence_notimeline/professions_semantic/professions_semantic_8.png"" class=""exp-image"">
                    <div class=""question-area"">
                        <p style=""font-size: 20px; font-weight: bold; margin: 0;"">Is there a person in this image?</p>
                    </div>
                </div>","0","main_experiment_trial","8","professions_semantic","semantic_sequence_notimeline","chronological","","","","","","",""
"","","","","","html-keyboard-response","54","260930","0.0-54.0","CCCF452ED19D4E7F8435D6F203B41531","019d6c12-a438-796e-912d-366783cd3912","019d6b6d-d11f-7233-9b95-7a424dbf389f","","null","
                <div class=""stimulus-container"">
                    <img src=""semantic_sequence_notimeline/professions_semantic/professions_semantic_9.png"" class=""exp-image"">
                    <div class=""question-area""></div> 
                </div>","null","","","","","","","","","","","",""
"","","","","","html-button-response","55","261398","0.0-55.0","CCCF452ED19D4E7F8435D6F203B41531","019d6c12-a438-796e-912d-366783cd3912","019d6b6d-d11f-7233-9b95-7a424dbf389f","","467","
                <div class=""stimulus-container"">
                    <img src=""semantic_sequence_notimeline/professions_semantic/professions_semantic_9.png"" class=""exp-image"">
                    <div class=""question-area"">
                        <p style=""font-size: 20px; font-weight: bold; margin: 0;"">Is there a person in this image?</p>
                    </div>
                </div>","0","main_experiment_trial","9","professions_semantic","semantic_sequence_notimeline","chronological","","","","","","",""
"","","","","","html-keyboard-response","56","266399","0.0-56.0","CCCF452ED19D4E7F8435D6F203B41531","019d6c12-a438-796e-912d-366783cd3912","019d6b6d-d11f-7233-9b95-7a424dbf389f","","null","
                <div class=""stimulus-container"">
                    <img src=""semantic_sequence_notimeline/professions_semantic/professions_semantic_ten.png"" class=""exp-image"">
                    <div class=""question-area""></div> 
                </div>","null","","","","","","","","","","","",""
"","","","","","html-button-response","57","266921","0.0-57.0","CCCF452ED19D4E7F8435D6F203B41531","019d6c12-a438-796e-912d-366783cd3912","019d6b6d-d11f-7233-9b95-7a424dbf389f","","522","
                <div class=""stimulus-container"">
                    <img src=""semantic_sequence_notimeline/professions_semantic/professions_semantic_ten.png"" class=""exp-image"">
                    <div class=""question-area"">
                        <p style=""font-size: 20px; font-weight: bold; margin: 0;"">Is there a person in this image?</p>
                    </div>
                </div>","0","main_experiment_trial","ten","professions_semantic","semantic_sequence_notimeline","chronological","","","","","","",""
"","","","","","html-keyboard-response","58","271921","0.0-58.0","CCCF452ED19D4E7F8435D6F203B41531","019d6c12-a438-796e-912d-366783cd3912","019d6b6d-d11f-7233-9b95-7a424dbf389f","","null","<div style=""background-color: white; width: 100vw; height: 100vh;""></div>","null","","","","","","","","","","","",""
"","","","","","html-keyboard-response","59","276922","0.0-59.0","CCCF452ED19D4E7F8435D6F203B41531","019d6c12-a438-796e-912d-366783cd3912","019d6b6d-d11f-7233-9b95-7a424dbf389f","","null","
                <div class=""stimulus-container"">
                    <img src=""images/causal_sequence/museum_causal/museum_causal_1.png"" class=""exp-image"">
                    <div class=""question-area""></div> 
                </div>","null","","","","","","","","","","","",""
"","","","","","html-button-response","60","277560","0.0-60.0","CCCF452ED19D4E7F8435D6F203B41531","019d6c12-a438-796e-912d-366783cd3912","019d6b6d-d11f-7233-9b95-7a424dbf389f","","637","
                <div class=""stimulus-container"">
                    <img src=""images/causal_sequence/museum_causal/museum_causal_1.png"" class=""exp-image"">
                    <div class=""question-area"">
                        <p style=""font-size: 20px; font-weight: bold; margin: 0;"">Is there a person in this image?</p>
                    </div>
                </div>","0","main_experiment_trial","1","museum_causal","causal_sequence","chronological","","","","","","",""
"","","","","","html-keyboard-response","61","282560","0.0-61.0","CCCF452ED19D4E7F8435D6F203B41531","019d6c12-a438-796e-912d-366783cd3912","019d6b6d-d11f-7233-9b95-7a424dbf389f","","null","
                <div class=""stimulus-container"">
                    <img src=""images/causal_sequence/museum_causal/museum_causal_2.png"" class=""exp-image"">
                    <div class=""question-area""></div> 
                </div>","null","","","","","","","","","","","",""
"","","","","","html-button-response","62","283145","0.0-62.0","CCCF452ED19D4E7F8435D6F203B41531","019d6c12-a438-796e-912d-366783cd3912","019d6b6d-d11f-7233-9b95-7a424dbf389f","","584","
                <div class=""stimulus-container"">
                    <img src=""images/causal_sequence/museum_causal/museum_causal_2.png"" class=""exp-image"">
                    <div class=""question-area"">
                        <p style=""font-size: 20px; font-weight: bold; margin: 0;"">Is there a person in this image?</p>
                    </div>
                </div>","0","main_experiment_trial","2","museum_causal","causal_sequence","chronological","","","","","","",""
"","","","","","html-keyboard-response","63","288145","0.0-63.0","CCCF452ED19D4E7F8435D6F203B41531","019d6c12-a438-796e-912d-366783cd3912","019d6b6d-d11f-7233-9b95-7a424dbf389f","","null","
                <div class=""stimulus-container"">
                    <img src=""images/causal_sequence/museum_causal/museum_causal_3.png"" class=""exp-image"">
                    <div class=""question-area""></div> 
                </div>","null","","","","","","","","","","","",""
"","","","","","html-button-response","64","288884","0.0-64.0","CCCF452ED19D4E7F8435D6F203B41531","019d6c12-a438-796e-912d-366783cd3912","019d6b6d-d11f-7233-9b95-7a424dbf389f","","738","
                <div class=""stimulus-container"">
                    <img src=""images/causal_sequence/museum_causal/museum_causal_3.png"" class=""exp-image"">
                    <div class=""question-area"">
                        <p style=""font-size: 20px; font-weight: bold; margin: 0;"">Is there a person in this image?</p>
                    </div>
                </div>","0","main_experiment_trial","3","museum_causal","causal_sequence","chronological","","","","","","",""
"","","","","","html-keyboard-response","65","293884","0.0-65.0","CCCF452ED19D4E7F8435D6F203B41531","019d6c12-a438-796e-912d-366783cd3912","019d6b6d-d11f-7233-9b95-7a424dbf389f","","null","
                <div class=""stimulus-container"">
                    <img src=""images/causal_sequence/museum_causal/museum_causal_4.png"" class=""exp-image"">
                    <div class=""question-area""></div> 
                </div>","null","","","","","","","","","","","",""
"","","","","","html-button-response","66","296885","0.0-66.0","CCCF452ED19D4E7F8435D6F203B41531","019d6c12-a438-796e-912d-366783cd3912","019d6b6d-d11f-7233-9b95-7a424dbf389f","","null","
                <div class=""stimulus-container"">
                    <img src=""images/causal_sequence/museum_causal/museum_causal_4.png"" class=""exp-image"">
                    <div class=""question-area"">
                        <p style=""font-size: 20px; font-weight: bold; margin: 0;"">Is there a person in this image?</p>
                    </div>
                </div>","null","main_experiment_trial","4","museum_causal","causal_sequence","chronological","","","","","","",""
"","","","","","html-keyboard-response","67","301885","0.0-67.0","CCCF452ED19D4E7F8435D6F203B41531","019d6c12-a438-796e-912d-366783cd3912","019d6b6d-d11f-7233-9b95-7a424dbf389f","","null","
                <div class=""stimulus-container"">
                    <img src=""images/causal_sequence/museum_causal/museum_causal_5.png"" class=""exp-image"">
                    <div class=""question-area""></div> 
                </div>","null","","","","","","","","","","","",""
"","","","","","html-button-response","68","303189","0.0-68.0","CCCF452ED19D4E7F8435D6F203B41531","019d6c12-a438-796e-912d-366783cd3912","019d6b6d-d11f-7233-9b95-7a424dbf389f","","1303","
                <div class=""stimulus-container"">
                    <img src=""images/causal_sequence/museum_causal/museum_causal_5.png"" class=""exp-image"">
                    <div class=""question-area"">
                        <p style=""font-size: 20px; font-weight: bold; margin: 0;"">Is there a person in this image?</p>
                    </div>
                </div>","0","main_experiment_trial","5","museum_causal","causal_sequence","chronological","","","","","","",""
"","","","","","html-keyboard-response","69","308189","0.0-69.0","CCCF452ED19D4E7F8435D6F203B41531","019d6c12-a438-796e-912d-366783cd3912","019d6b6d-d11f-7233-9b95-7a424dbf389f","","null","
                <div class=""stimulus-container"">
                    <img src=""images/causal_sequence/museum_causal/museum_causal_6.png"" class=""exp-image"">
                    <div class=""question-area""></div> 
                </div>","null","","","","","","","","","","","",""
"","","","","","html-button-response","70","308807","0.0-70.0","CCCF452ED19D4E7F8435D6F203B41531","019d6c12-a438-796e-912d-366783cd3912","019d6b6d-d11f-7233-9b95-7a424dbf389f","","617","
                <div class=""stimulus-container"">
                    <img src=""images/causal_sequence/museum_causal/museum_causal_6.png"" class=""exp-image"">
                    <div class=""question-area"">
                        <p style=""font-size: 20px; font-weight: bold; margin: 0;"">Is there a person in this image?</p>
                    </div>
                </div>","0","main_experiment_trial","6","museum_causal","causal_sequence","chronological","","","","","","",""
"","","","","","html-keyboard-response","71","313807","0.0-71.0","CCCF452ED19D4E7F8435D6F203B41531","019d6c12-a438-796e-912d-366783cd3912","019d6b6d-d11f-7233-9b95-7a424dbf389f","","null","
                <div class=""stimulus-container"">
                    <img src=""images/causal_sequence/museum_causal/museum_causal_7.png"" class=""exp-image"">
                    <div class=""question-area""></div> 
                </div>","null","","","","","","","","","","","",""
"","","","","","html-button-response","72","316808","0.0-72.0","CCCF452ED19D4E7F8435D6F203B41531","019d6c12-a438-796e-912d-366783cd3912","019d6b6d-d11f-7233-9b95-7a424dbf389f","","null","
                <div class=""stimulus-container"">
                    <img src=""images/causal_sequence/museum_causal/museum_causal_7.png"" class=""exp-image"">
                    <div class=""question-area"">
                        <p style=""font-size: 20px; font-weight: bold; margin: 0;"">Is there a person in this image?</p>
                    </div>
                </div>","null","main_experiment_trial","7","museum_causal","causal_sequence","chronological","","","","","","",""
"","","","","","html-keyboard-response","73","321808","0.0-73.0","CCCF452ED19D4E7F8435D6F203B41531","019d6c12-a438-796e-912d-366783cd3912","019d6b6d-d11f-7233-9b95-7a424dbf389f","","null","
                <div class=""stimulus-container"">
                    <img src=""images/causal_sequence/museum_causal/museum_causal_8.png"" class=""exp-image"">
                    <div class=""question-area""></div> 
                </div>","null","","","","","","","","","","","",""
"","","","","","html-button-response","74","322440","0.0-74.0","CCCF452ED19D4E7F8435D6F203B41531","019d6c12-a438-796e-912d-366783cd3912","019d6b6d-d11f-7233-9b95-7a424dbf389f","","631","
                <div class=""stimulus-container"">
                    <img src=""images/causal_sequence/museum_causal/museum_causal_8.png"" class=""exp-image"">
                    <div class=""question-area"">
                        <p style=""font-size: 20px; font-weight: bold; margin: 0;"">Is there a person in this image?</p>
                    </div>
                </div>","0","main_experiment_trial","8","museum_causal","causal_sequence","chronological","","","","","","",""
"","","","","","html-keyboard-response","75","327440","0.0-75.0","CCCF452ED19D4E7F8435D6F203B41531","019d6c12-a438-796e-912d-366783cd3912","019d6b6d-d11f-7233-9b95-7a424dbf389f","","null","
                <div class=""stimulus-container"">
                    <img src=""images/causal_sequence/museum_causal/museum_causal_9.png"" class=""exp-image"">
                    <div class=""question-area""></div> 
                </div>","null","","","","","","","","","","","",""
"","","","","","html-button-response","76","330441","0.0-76.0","CCCF452ED19D4E7F8435D6F203B41531","019d6c12-a438-796e-912d-366783cd3912","019d6b6d-d11f-7233-9b95-7a424dbf389f","","null","
                <div class=""stimulus-container"">
                    <img src=""images/causal_sequence/museum_causal/museum_causal_9.png"" class=""exp-image"">
                    <div class=""question-area"">
                        <p style=""font-size: 20px; font-weight: bold; margin: 0;"">Is there a person in this image?</p>
                    </div>
                </div>","null","main_experiment_trial","9","museum_causal","causal_sequence","chronological","","","","","","",""
"","","","","","html-keyboard-response","77","335442","0.0-77.0","CCCF452ED19D4E7F8435D6F203B41531","019d6c12-a438-796e-912d-366783cd3912","019d6b6d-d11f-7233-9b95-7a424dbf389f","","null","
                <div class=""stimulus-container"">
                    <img src=""images/causal_sequence/museum_causal/museum_causal_ten.png"" class=""exp-image"">
                    <div class=""question-area""></div> 
                </div>","null","","","","","","","","","","","",""
"","","","","","html-button-response","78","336176","0.0-78.0","CCCF452ED19D4E7F8435D6F203B41531","019d6c12-a438-796e-912d-366783cd3912","019d6b6d-d11f-7233-9b95-7a424dbf389f","","733","
                <div class=""stimulus-container"">
                    <img src=""images/causal_sequence/museum_causal/museum_causal_ten.png"" class=""exp-image"">
                    <div class=""question-area"">
                        <p style=""font-size: 20px; font-weight: bold; margin: 0;"">Is there a person in this image?</p>
                    </div>
                </div>","0","main_experiment_trial","ten","museum_causal","causal_sequence","chronological","","","","","","",""
"","","","","","html-keyboard-response","79","341176","0.0-79.0","CCCF452ED19D4E7F8435D6F203B41531","019d6c12-a438-796e-912d-366783cd3912","019d6b6d-d11f-7233-9b95-7a424dbf389f","","null","<div style=""background-color: white; width: 100vw; height: 100vh;""></div>","null","","","","","","","","","","","",""
"","","","","","html-keyboard-response","80","346177","0.0-80.0","CCCF452ED19D4E7F8435D6F203B41531","019d6c12-a438-796e-912d-366783cd3912","019d6b6d-d11f-7233-9b95-7a424dbf389f","","null","
                <div class=""stimulus-container"">
                    <img src=""semantic_sequence_notimeline/transportation_semantic/transportation_semantic_1.png"" class=""exp-image"">
                    <div class=""question-area""></div> 
                </div>","null","","","","","","","","","","","",""
"","","","","","html-button-response","81","349177","0.0-81.0","CCCF452ED19D4E7F8435D6F203B41531","019d6c12-a438-796e-912d-366783cd3912","019d6b6d-d11f-7233-9b95-7a424dbf389f","","null","
                <div class=""stimulus-container"">
                    <img src=""semantic_sequence_notimeline/transportation_semantic/transportation_semantic_1.png"" class=""exp-image"">
                    <div class=""question-area"">
                        <p style=""font-size: 20px; font-weight: bold; margin: 0;"">Is there a person in this image?</p>
                    </div>
                </div>","null","main_experiment_trial","1","transportation_semantic","semantic_sequence_notimeline","chronological","","","","","","",""
"","","","","","html-keyboard-response","82","354178","0.0-82.0","CCCF452ED19D4E7F8435D6F203B41531","019d6c12-a438-796e-912d-366783cd3912","019d6b6d-d11f-7233-9b95-7a424dbf389f","","null","
                <div class=""stimulus-container"">
                    <img src=""semantic_sequence_notimeline/transportation_semantic/transportation_semantic_2.png"" class=""exp-image"">
                    <div class=""question-area""></div> 
                </div>","null","","","","","","","","","","","",""
"","","","","","html-button-response","83","357178","0.0-83.0","CCCF452ED19D4E7F8435D6F203B41531","019d6c12-a438-796e-912d-366783cd3912","019d6b6d-d11f-7233-9b95-7a424dbf389f","","null","
                <div class=""stimulus-container"">
                    <img src=""semantic_sequence_notimeline/transportation_semantic/transportation_semantic_2.png"" class=""exp-image"">
                    <div class=""question-area"">
                        <p style=""font-size: 20px; font-weight: bold; margin: 0;"">Is there a person in this image?</p>
                    </div>
                </div>","null","main_experiment_trial","2","transportation_semantic","semantic_sequence_notimeline","chronological","","","","","","",""
"","","","","","html-keyboard-response","84","362179","0.0-84.0","CCCF452ED19D4E7F8435D6F203B41531","019d6c12-a438-796e-912d-366783cd3912","019d6b6d-d11f-7233-9b95-7a424dbf389f","","null","
                <div class=""stimulus-container"">
                    <img src=""semantic_sequence_notimeline/transportation_semantic/transportation_semantic_3.png"" class=""exp-image"">
                    <div class=""question-area""></div> 
                </div>","null","","","","","","","","","","","",""
"","","","","","html-button-response","85","365180","0.0-85.0","CCCF452ED19D4E7F8435D6F203B41531","019d6c12-a438-796e-912d-366783cd3912","019d6b6d-d11f-7233-9b95-7a424dbf389f","","null","
                <div class=""stimulus-container"">
                    <img src=""semantic_sequence_notimeline/transportation_semantic/transportation_semantic_3.png"" class=""exp-image"">
                    <div class=""question-area"">
                        <p style=""font-size: 20px; font-weight: bold; margin: 0;"">Is there a person in this image?</p>
                    </div>
                </div>","null","main_experiment_trial","3","transportation_semantic","semantic_sequence_notimeline","chronological","","","","","","",""
"","","","","","html-keyboard-response","86","370180","0.0-86.0","CCCF452ED19D4E7F8435D6F203B41531","019d6c12-a438-796e-912d-366783cd3912","019d6b6d-d11f-7233-9b95-7a424dbf389f","","null","
                <div class=""stimulus-container"">
                    <img src=""semantic_sequence_notimeline/transportation_semantic/transportation_semantic_4.png"" class=""exp-image"">
                    <div class=""question-area""></div> 
                </div>","null","","","","","","","","","","","",""
"","","","","","html-button-response","87","373181","0.0-87.0","CCCF452ED19D4E7F8435D6F203B41531","019d6c12-a438-796e-912d-366783cd3912","019d6b6d-d11f-7233-9b95-7a424dbf389f","","null","
                <div class=""stimulus-container"">
                    <img src=""semantic_sequence_notimeline/transportation_semantic/transportation_semantic_4.png"" class=""exp-image"">
                    <div class=""question-area"">
                        <p style=""font-size: 20px; font-weight: bold; margin: 0;"">Is there a person in this image?</p>
                    </div>
                </div>","null","main_experiment_trial","4","transportation_semantic","semantic_sequence_notimeline","chronological","","","","","","",""
"","","","","","html-keyboard-response","88","378182","0.0-88.0","CCCF452ED19D4E7F8435D6F203B41531","019d6c12-a438-796e-912d-366783cd3912","019d6b6d-d11f-7233-9b95-7a424dbf389f","","null","
                <div class=""stimulus-container"">
                    <img src=""semantic_sequence_notimeline/transportation_semantic/transportation_semantic_5.png"" class=""exp-image"">
                    <div class=""question-area""></div> 
                </div>","null","","","","","","","","","","","",""
"","","","","","html-button-response","89","381182","0.0-89.0","CCCF452ED19D4E7F8435D6F203B41531","019d6c12-a438-796e-912d-366783cd3912","019d6b6d-d11f-7233-9b95-7a424dbf389f","","null","
                <div class=""stimulus-container"">
                    <img src=""semantic_sequence_notimeline/transportation_semantic/transportation_semantic_5.png"" class=""exp-image"">
                    <div class=""question-area"">
                        <p style=""font-size: 20px; font-weight: bold; margin: 0;"">Is there a person in this image?</p>
                    </div>
                </div>","null","main_experiment_trial","5","transportation_semantic","semantic_sequence_notimeline","chronological","","","","","","",""
"","","","","","html-keyboard-response","90","386183","0.0-90.0","CCCF452ED19D4E7F8435D6F203B41531","019d6c12-a438-796e-912d-366783cd3912","019d6b6d-d11f-7233-9b95-7a424dbf389f","","null","
                <div class=""stimulus-container"">
                    <img src=""semantic_sequence_notimeline/transportation_semantic/transportation_semantic_6.png"" class=""exp-image"">
                    <div class=""question-area""></div> 
                </div>","null","","","","","","","","","","","",""
"","","","","","html-button-response","91","386750","0.0-91.0","CCCF452ED19D4E7F8435D6F203B41531","019d6c12-a438-796e-912d-366783cd3912","019d6b6d-d11f-7233-9b95-7a424dbf389f","","567","
                <div class=""stimulus-container"">
                    <img src=""semantic_sequence_notimeline/transportation_semantic/transportation_semantic_6.png"" class=""exp-image"">
                    <div class=""question-area"">
                        <p style=""font-size: 20px; font-weight: bold; margin: 0;"">Is there a person in this image?</p>
                    </div>
                </div>","0","main_experiment_trial","6","transportation_semantic","semantic_sequence_notimeline","chronological","","","","","","",""
"","","","","","html-keyboard-response","92","391750","0.0-92.0","CCCF452ED19D4E7F8435D6F203B41531","019d6c12-a438-796e-912d-366783cd3912","019d6b6d-d11f-7233-9b95-7a424dbf389f","","null","
                <div class=""stimulus-container"">
                    <img src=""semantic_sequence_notimeline/transportation_semantic/transportation_semantic_7.png"" class=""exp-image"">
                    <div class=""question-area""></div> 
                </div>","null","","","","","","","","","","","",""
"","","","","","html-button-response","93","394751","0.0-93.0","CCCF452ED19D4E7F8435D6F203B41531","019d6c12-a438-796e-912d-366783cd3912","019d6b6d-d11f-7233-9b95-7a424dbf389f","","null","
                <div class=""stimulus-container"">
                    <img src=""semantic_sequence_notimeline/transportation_semantic/transportation_semantic_7.png"" class=""exp-image"">
                    <div class=""question-area"">
                        <p style=""font-size: 20px; font-weight: bold; margin: 0;"">Is there a person in this image?</p>
                    </div>
                </div>","null","main_experiment_trial","7","transportation_semantic","semantic_sequence_notimeline","chronological","","","","","","",""
"","","","","","html-keyboard-response","94","399751","0.0-94.0","CCCF452ED19D4E7F8435D6F203B41531","019d6c12-a438-796e-912d-366783cd3912","019d6b6d-d11f-7233-9b95-7a424dbf389f","","null","
                <div class=""stimulus-container"">
                    <img src=""semantic_sequence_notimeline/transportation_semantic/transportation_semantic_8.png"" class=""exp-image"">
                    <div class=""question-area""></div> 
                </div>","null","","","","","","","","","","","",""
"","","","","","html-button-response","95","402752","0.0-95.0","CCCF452ED19D4E7F8435D6F203B41531","019d6c12-a438-796e-912d-366783cd3912","019d6b6d-d11f-7233-9b95-7a424dbf389f","","null","
                <div class=""stimulus-container"">
                    <img src=""semantic_sequence_notimeline/transportation_semantic/transportation_semantic_8.png"" class=""exp-image"">
                    <div class=""question-area"">
                        <p style=""font-size: 20px; font-weight: bold; margin: 0;"">Is there a person in this image?</p>
                    </div>
                </div>","null","main_experiment_trial","8","transportation_semantic","semantic_sequence_notimeline","chronological","","","","","","",""
"","","","","","html-keyboard-response","96","407753","0.0-96.0","CCCF452ED19D4E7F8435D6F203B41531","019d6c12-a438-796e-912d-366783cd3912","019d6b6d-d11f-7233-9b95-7a424dbf389f","","null","
                <div class=""stimulus-container"">
                    <img src=""semantic_sequence_notimeline/transportation_semantic/transportation_semantic_9.png"" class=""exp-image"">
                    <div class=""question-area""></div> 
                </div>","null","","","","","","","","","","","",""
"","","","","","html-button-response","97","410753","0.0-97.0","CCCF452ED19D4E7F8435D6F203B41531","019d6c12-a438-796e-912d-366783cd3912","019d6b6d-d11f-7233-9b95-7a424dbf389f","","null","
                <div class=""stimulus-container"">
                    <img src=""semantic_sequence_notimeline/transportation_semantic/transportation_semantic_9.png"" class=""exp-image"">
                    <div class=""question-area"">
                        <p style=""font-size: 20px; font-weight: bold; margin: 0;"">Is there a person in this image?</p>
                    </div>
                </div>","null","main_experiment_trial","9","transportation_semantic","semantic_sequence_notimeline","chronological","","","","","","",""
"","","","","","html-keyboard-response","98","415754","0.0-98.0","CCCF452ED19D4E7F8435D6F203B41531","019d6c12-a438-796e-912d-366783cd3912","019d6b6d-d11f-7233-9b95-7a424dbf389f","","null","
                <div class=""stimulus-container"">
                    <img src=""semantic_sequence_notimeline/transportation_semantic/transportation_semantic_ten.png"" class=""exp-image"">
                    <div class=""question-area""></div> 
                </div>","null","","","","","","","","","","","",""
"","","","","","html-button-response","99","418755","0.0-99.0","CCCF452ED19D4E7F8435D6F203B41531","019d6c12-a438-796e-912d-366783cd3912","019d6b6d-d11f-7233-9b95-7a424dbf389f","","null","
                <div class=""stimulus-container"">
                    <img src=""semantic_sequence_notimeline/transportation_semantic/transportation_semantic_ten.png"" class=""exp-image"">
                    <div class=""question-area"">
                        <p style=""font-size: 20px; font-weight: bold; margin: 0;"">Is there a person in this image?</p>
                    </div>
                </div>","null","main_experiment_trial","ten","transportation_semantic","semantic_sequence_notimeline","chronological","","","","","","",""
"","","","","","html-keyboard-response","100","423755","0.0-100.0","CCCF452ED19D4E7F8435D6F203B41531","019d6c12-a438-796e-912d-366783cd3912","019d6b6d-d11f-7233-9b95-7a424dbf389f","","null","<div style=""background-color: white; width: 100vw; height: 100vh;""></div>","null","","","","","","","","","","","",""
"","","","","","html-keyboard-response","101","428756","0.0-101.0","CCCF452ED19D4E7F8435D6F203B41531","019d6c12-a438-796e-912d-366783cd3912","019d6b6d-d11f-7233-9b95-7a424dbf389f","","null","
                <div class=""stimulus-container"">
                    <img src=""images/causal_sequence/package_causal/package_causal_1.png"" class=""exp-image"">
                    <div class=""question-area""></div> 
                </div>","null","","","","","","","","","","","",""
"","","","","","html-button-response","102","429693","0.0-102.0","CCCF452ED19D4E7F8435D6F203B41531","019d6c12-a438-796e-912d-366783cd3912","019d6b6d-d11f-7233-9b95-7a424dbf389f","","937","
                <div class=""stimulus-container"">
                    <img src=""images/causal_sequence/package_causal/package_causal_1.png"" class=""exp-image"">
                    <div class=""question-area"">
                        <p style=""font-size: 20px; font-weight: bold; margin: 0;"">Is there a person in this image?</p>
                    </div>
                </div>","0","main_experiment_trial","1","package_causal","causal_sequence","chronological","","","","","","",""
"","","","","","html-keyboard-response","103","434693","0.0-103.0","CCCF452ED19D4E7F8435D6F203B41531","019d6c12-a438-796e-912d-366783cd3912","019d6b6d-d11f-7233-9b95-7a424dbf389f","","null","
                <div class=""stimulus-container"">
                    <img src=""images/causal_sequence/package_causal/package_causal_2.png"" class=""exp-image"">
                    <div class=""question-area""></div> 
                </div>","null","","","","","","","","","","","",""
"","","","","","html-button-response","104","435889","0.0-104.0","CCCF452ED19D4E7F8435D6F203B41531","019d6c12-a438-796e-912d-366783cd3912","019d6b6d-d11f-7233-9b95-7a424dbf389f","","1195","
                <div class=""stimulus-container"">
                    <img src=""images/causal_sequence/package_causal/package_causal_2.png"" class=""exp-image"">
                    <div class=""question-area"">
                        <p style=""font-size: 20px; font-weight: bold; margin: 0;"">Is there a person in this image?</p>
                    </div>
                </div>","0","main_experiment_trial","2","package_causal","causal_sequence","chronological","","","","","","",""
"","","","","","html-keyboard-response","105","440890","0.0-105.0","CCCF452ED19D4E7F8435D6F203B41531","019d6c12-a438-796e-912d-366783cd3912","019d6b6d-d11f-7233-9b95-7a424dbf389f","","null","
                <div class=""stimulus-container"">
                    <img src=""images/causal_sequence/package_causal/package_causal_3.png"" class=""exp-image"">
                    <div class=""question-area""></div> 
                </div>","null","","","","","","","","","","","",""
"","","","","","html-button-response","106","441738","0.0-106.0","CCCF452ED19D4E7F8435D6F203B41531","019d6c12-a438-796e-912d-366783cd3912","019d6b6d-d11f-7233-9b95-7a424dbf389f","","848","
                <div class=""stimulus-container"">
                    <img src=""images/causal_sequence/package_causal/package_causal_3.png"" class=""exp-image"">
                    <div class=""question-area"">
                        <p style=""font-size: 20px; font-weight: bold; margin: 0;"">Is there a person in this image?</p>
                    </div>
                </div>","0","main_experiment_trial","3","package_causal","causal_sequence","chronological","","","","","","",""
"","","","","","html-keyboard-response","107","446738","0.0-107.0","CCCF452ED19D4E7F8435D6F203B41531","019d6c12-a438-796e-912d-366783cd3912","019d6b6d-d11f-7233-9b95-7a424dbf389f","","null","
                <div class=""stimulus-container"">
                    <img src=""images/causal_sequence/package_causal/package_causal_4.png"" class=""exp-image"">
                    <div class=""question-area""></div> 
                </div>","null","","","","","","","","","","","",""
"","","","","","html-button-response","108","449739","0.0-108.0","CCCF452ED19D4E7F8435D6F203B41531","019d6c12-a438-796e-912d-366783cd3912","019d6b6d-d11f-7233-9b95-7a424dbf389f","","null","
                <div class=""stimulus-container"">
                    <img src=""images/causal_sequence/package_causal/package_causal_4.png"" class=""exp-image"">
                    <div class=""question-area"">
                        <p style=""font-size: 20px; font-weight: bold; margin: 0;"">Is there a person in this image?</p>
                    </div>
                </div>","null","main_experiment_trial","4","package_causal","causal_sequence","chronological","","","","","","",""
"","","","","","html-keyboard-response","109","454740","0.0-109.0","CCCF452ED19D4E7F8435D6F203B41531","019d6c12-a438-796e-912d-366783cd3912","019d6b6d-d11f-7233-9b95-7a424dbf389f","","null","
                <div class=""stimulus-container"">
                    <img src=""images/causal_sequence/package_causal/package_causal_5.png"" class=""exp-image"">
                    <div class=""question-area""></div> 
                </div>","null","","","","","","","","","","","",""
"","","","","","html-button-response","110","456099","0.0-110.0","CCCF452ED19D4E7F8435D6F203B41531","019d6c12-a438-796e-912d-366783cd3912","019d6b6d-d11f-7233-9b95-7a424dbf389f","","1359","
                <div class=""stimulus-container"">
                    <img src=""images/causal_sequence/package_causal/package_causal_5.png"" class=""exp-image"">
                    <div class=""question-area"">
                        <p style=""font-size: 20px; font-weight: bold; margin: 0;"">Is there a person in this image?</p>
                    </div>
                </div>","0","main_experiment_trial","5","package_causal","causal_sequence","chronological","","","","","","",""
"","","","","","html-keyboard-response","111","461099","0.0-111.0","CCCF452ED19D4E7F8435D6F203B41531","019d6c12-a438-796e-912d-366783cd3912","019d6b6d-d11f-7233-9b95-7a424dbf389f","","null","
                <div class=""stimulus-container"">
                    <img src=""images/causal_sequence/package_causal/package_causal_6.png"" class=""exp-image"">
                    <div class=""question-area""></div> 
                </div>","null","","","","","","","","","","","",""
"","","","","","html-button-response","112","462350","0.0-112.0","CCCF452ED19D4E7F8435D6F203B41531","019d6c12-a438-796e-912d-366783cd3912","019d6b6d-d11f-7233-9b95-7a424dbf389f","","1250","
                <div class=""stimulus-container"">
                    <img src=""images/causal_sequence/package_causal/package_causal_6.png"" class=""exp-image"">
                    <div class=""question-area"">
                        <p style=""font-size: 20px; font-weight: bold; margin: 0;"">Is there a person in this image?</p>
                    </div>
                </div>","0","main_experiment_trial","6","package_causal","causal_sequence","chronological","","","","","","",""
"","","","","","html-keyboard-response","113","467351","0.0-113.0","CCCF452ED19D4E7F8435D6F203B41531","019d6c12-a438-796e-912d-366783cd3912","019d6b6d-d11f-7233-9b95-7a424dbf389f","","null","
                <div class=""stimulus-container"">
                    <img src=""images/causal_sequence/package_causal/package_causal_7.png"" class=""exp-image"">
                    <div class=""question-area""></div> 
                </div>","null","","","","","","","","","","","",""
"","","","","","html-button-response","114","468589","0.0-114.0","CCCF452ED19D4E7F8435D6F203B41531","019d6c12-a438-796e-912d-366783cd3912","019d6b6d-d11f-7233-9b95-7a424dbf389f","","1238","
                <div class=""stimulus-container"">
                    <img src=""images/causal_sequence/package_causal/package_causal_7.png"" class=""exp-image"">
                    <div class=""question-area"">
                        <p style=""font-size: 20px; font-weight: bold; margin: 0;"">Is there a person in this image?</p>
                    </div>
                </div>","0","main_experiment_trial","7","package_causal","causal_sequence","chronological","","","","","","",""
"","","","","","html-keyboard-response","115","473589","0.0-115.0","CCCF452ED19D4E7F8435D6F203B41531","019d6c12-a438-796e-912d-366783cd3912","019d6b6d-d11f-7233-9b95-7a424dbf389f","","null","
                <div class=""stimulus-container"">
                    <img src=""images/causal_sequence/package_causal/package_causal_8.png"" class=""exp-image"">
                    <div class=""question-area""></div> 
                </div>","null","","","","","","","","","","","",""
"","","","","","html-button-response","116","474584","0.0-116.0","CCCF452ED19D4E7F8435D6F203B41531","019d6c12-a438-796e-912d-366783cd3912","019d6b6d-d11f-7233-9b95-7a424dbf389f","","994","
                <div class=""stimulus-container"">
                    <img src=""images/causal_sequence/package_causal/package_causal_8.png"" class=""exp-image"">
                    <div class=""question-area"">
                        <p style=""font-size: 20px; font-weight: bold; margin: 0;"">Is there a person in this image?</p>
                    </div>
                </div>","0","main_experiment_trial","8","package_causal","causal_sequence","chronological","","","","","","",""
"","","","","","html-keyboard-response","117","479585","0.0-117.0","CCCF452ED19D4E7F8435D6F203B41531","019d6c12-a438-796e-912d-366783cd3912","019d6b6d-d11f-7233-9b95-7a424dbf389f","","null","
                <div class=""stimulus-container"">
                    <img src=""images/causal_sequence/package_causal/package_causal_9.png"" class=""exp-image"">
                    <div class=""question-area""></div> 
                </div>","null","","","","","","","","","","","",""
"","","","","","html-button-response","118","480878","0.0-118.0","CCCF452ED19D4E7F8435D6F203B41531","019d6c12-a438-796e-912d-366783cd3912","019d6b6d-d11f-7233-9b95-7a424dbf389f","","1293","
                <div class=""stimulus-container"">
                    <img src=""images/causal_sequence/package_causal/package_causal_9.png"" class=""exp-image"">
                    <div class=""question-area"">
                        <p style=""font-size: 20px; font-weight: bold; margin: 0;"">Is there a person in this image?</p>
                    </div>
                </div>","0","main_experiment_trial","9","package_causal","causal_sequence","chronological","","","","","","",""
"","","","","","html-keyboard-response","119","485878","0.0-119.0","CCCF452ED19D4E7F8435D6F203B41531","019d6c12-a438-796e-912d-366783cd3912","019d6b6d-d11f-7233-9b95-7a424dbf389f","","null","
                <div class=""stimulus-container"">
                    <img src=""images/causal_sequence/package_causal/package_causal_ten.png"" class=""exp-image"">
                    <div class=""question-area""></div> 
                </div>","null","","","","","","","","","","","",""
"","","","","","html-button-response","120","486563","0.0-120.0","CCCF452ED19D4E7F8435D6F203B41531","019d6c12-a438-796e-912d-366783cd3912","019d6b6d-d11f-7233-9b95-7a424dbf389f","","684","
                <div class=""stimulus-container"">
                    <img src=""images/causal_sequence/package_causal/package_causal_ten.png"" class=""exp-image"">
                    <div class=""question-area"">
                        <p style=""font-size: 20px; font-weight: bold; margin: 0;"">Is there a person in this image?</p>
                    </div>
                </div>","0","main_experiment_trial","ten","package_causal","causal_sequence","chronological","","","","","","",""
"","","","","","html-keyboard-response","121","491563","0.0-121.0","CCCF452ED19D4E7F8435D6F203B41531","019d6c12-a438-796e-912d-366783cd3912","019d6b6d-d11f-7233-9b95-7a424dbf389f","","null","<div style=""background-color: white; width: 100vw; height: 100vh;""></div>","null","","","","","","","","","","","",""
"","","","","","html-keyboard-response","122","496564","0.0-122.0","CCCF452ED19D4E7F8435D6F203B41531","019d6c12-a438-796e-912d-366783cd3912","019d6b6d-d11f-7233-9b95-7a424dbf389f","","null","
                <div class=""stimulus-container"">
                    <img src=""images/causal_sequence/coin_causal/coin_causal_1.png"" class=""exp-image"">
                    <div class=""question-area""></div> 
                </div>","null","","","","","","","","","","","",""
"","","","","","html-button-response","123","497716","0.0-123.0","CCCF452ED19D4E7F8435D6F203B41531","019d6c12-a438-796e-912d-366783cd3912","019d6b6d-d11f-7233-9b95-7a424dbf389f","","1151","
                <div class=""stimulus-container"">
                    <img src=""images/causal_sequence/coin_causal/coin_causal_1.png"" class=""exp-image"">
                    <div class=""question-area"">
                        <p style=""font-size: 20px; font-weight: bold; margin: 0;"">Is there a person in this image?</p>
                    </div>
                </div>","0","main_experiment_trial","1","coin_causal","causal_sequence","chronological","","","","","","",""
"","","","","","html-keyboard-response","124","502716","0.0-124.0","CCCF452ED19D4E7F8435D6F203B41531","019d6c12-a438-796e-912d-366783cd3912","019d6b6d-d11f-7233-9b95-7a424dbf389f","","null","
                <div class=""stimulus-container"">
                    <img src=""images/causal_sequence/coin_causal/coin_causal_2.png"" class=""exp-image"">
                    <div class=""question-area""></div> 
                </div>","null","","","","","","","","","","","",""
"","","","","","html-button-response","125","503575","0.0-125.0","CCCF452ED19D4E7F8435D6F203B41531","019d6c12-a438-796e-912d-366783cd3912","019d6b6d-d11f-7233-9b95-7a424dbf389f","","858","
                <div class=""stimulus-container"">
                    <img src=""images/causal_sequence/coin_causal/coin_causal_2.png"" class=""exp-image"">
                    <div class=""question-area"">
                        <p style=""font-size: 20px; font-weight: bold; margin: 0;"">Is there a person in this image?</p>
                    </div>
                </div>","0","main_experiment_trial","2","coin_causal","causal_sequence","chronological","","","","","","",""
"","","","","","html-keyboard-response","126","508575","0.0-126.0","CCCF452ED19D4E7F8435D6F203B41531","019d6c12-a438-796e-912d-366783cd3912","019d6b6d-d11f-7233-9b95-7a424dbf389f","","null","
                <div class=""stimulus-container"">
                    <img src=""images/causal_sequence/coin_causal/coin_causal_3.png"" class=""exp-image"">
                    <div class=""question-area""></div> 
                </div>","null","","","","","","","","","","","",""
"","","","","","html-button-response","127","509346","0.0-127.0","CCCF452ED19D4E7F8435D6F203B41531","019d6c12-a438-796e-912d-366783cd3912","019d6b6d-d11f-7233-9b95-7a424dbf389f","","770","
                <div class=""stimulus-container"">
                    <img src=""images/causal_sequence/coin_causal/coin_causal_3.png"" class=""exp-image"">
                    <div class=""question-area"">
                        <p style=""font-size: 20px; font-weight: bold; margin: 0;"">Is there a person in this image?</p>
                    </div>
                </div>","0","main_experiment_trial","3","coin_causal","causal_sequence","chronological","","","","","","",""
"","","","","","html-keyboard-response","128","514346","0.0-128.0","CCCF452ED19D4E7F8435D6F203B41531","019d6c12-a438-796e-912d-366783cd3912","019d6b6d-d11f-7233-9b95-7a424dbf389f","","null","
                <div class=""stimulus-container"">
                    <img src=""images/causal_sequence/coin_causal/coin_causal_4.png"" class=""exp-image"">
                    <div class=""question-area""></div> 
                </div>","null","","","","","","","","","","","",""
"","","","","","html-button-response","129","514899","0.0-129.0","CCCF452ED19D4E7F8435D6F203B41531","019d6c12-a438-796e-912d-366783cd3912","019d6b6d-d11f-7233-9b95-7a424dbf389f","","552","
                <div class=""stimulus-container"">
                    <img src=""images/causal_sequence/coin_causal/coin_causal_4.png"" class=""exp-image"">
                    <div class=""question-area"">
                        <p style=""font-size: 20px; font-weight: bold; margin: 0;"">Is there a person in this image?</p>
                    </div>
                </div>","0","main_experiment_trial","4","coin_causal","causal_sequence","chronological","","","","","","",""
"","","","","","html-keyboard-response","130","519900","0.0-130.0","CCCF452ED19D4E7F8435D6F203B41531","019d6c12-a438-796e-912d-366783cd3912","019d6b6d-d11f-7233-9b95-7a424dbf389f","","null","
                <div class=""stimulus-container"">
                    <img src=""images/causal_sequence/coin_causal/coin_causal_5.png"" class=""exp-image"">
                    <div class=""question-area""></div> 
                </div>","null","","","","","","","","","","","",""
"","","","","","html-button-response","131","520753","0.0-131.0","CCCF452ED19D4E7F8435D6F203B41531","019d6c12-a438-796e-912d-366783cd3912","019d6b6d-d11f-7233-9b95-7a424dbf389f","","853","
                <div class=""stimulus-container"">
                    <img src=""images/causal_sequence/coin_causal/coin_causal_5.png"" class=""exp-image"">
                    <div class=""question-area"">
                        <p style=""font-size: 20px; font-weight: bold; margin: 0;"">Is there a person in this image?</p>
                    </div>
                </div>","0","main_experiment_trial","5","coin_causal","causal_sequence","chronological","","","","","","",""
"","","","","","html-keyboard-response","132","525753","0.0-132.0","CCCF452ED19D4E7F8435D6F203B41531","019d6c12-a438-796e-912d-366783cd3912","019d6b6d-d11f-7233-9b95-7a424dbf389f","","null","
                <div class=""stimulus-container"">
                    <img src=""images/causal_sequence/coin_causal/coin_causal_6.png"" class=""exp-image"">
                    <div class=""question-area""></div> 
                </div>","null","","","","","","","","","","","",""
"","","","","","html-button-response","133","526967","0.0-133.0","CCCF452ED19D4E7F8435D6F203B41531","019d6c12-a438-796e-912d-366783cd3912","019d6b6d-d11f-7233-9b95-7a424dbf389f","","1213","
                <div class=""stimulus-container"">
                    <img src=""images/causal_sequence/coin_causal/coin_causal_6.png"" class=""exp-image"">
                    <div class=""question-area"">
                        <p style=""font-size: 20px; font-weight: bold; margin: 0;"">Is there a person in this image?</p>
                    </div>
                </div>","0","main_experiment_trial","6","coin_causal","causal_sequence","chronological","","","","","","",""
"","","","","","html-keyboard-response","134","531968","0.0-134.0","CCCF452ED19D4E7F8435D6F203B41531","019d6c12-a438-796e-912d-366783cd3912","019d6b6d-d11f-7233-9b95-7a424dbf389f","","null","
                <div class=""stimulus-container"">
                    <img src=""images/causal_sequence/coin_causal/coin_causal_7.png"" class=""exp-image"">
                    <div class=""question-area""></div> 
                </div>","null","","","","","","","","","","","",""
"","","","","","html-button-response","135","534969","0.0-135.0","CCCF452ED19D4E7F8435D6F203B41531","019d6c12-a438-796e-912d-366783cd3912","019d6b6d-d11f-7233-9b95-7a424dbf389f","","null","
                <div class=""stimulus-container"">
                    <img src=""images/causal_sequence/coin_causal/coin_causal_7.png"" class=""exp-image"">
                    <div class=""question-area"">
                        <p style=""font-size: 20px; font-weight: bold; margin: 0;"">Is there a person in this image?</p>
                    </div>
                </div>","null","main_experiment_trial","7","coin_causal","causal_sequence","chronological","","","","","","",""
"","","","","","html-keyboard-response","136","539969","0.0-136.0","CCCF452ED19D4E7F8435D6F203B41531","019d6c12-a438-796e-912d-366783cd3912","019d6b6d-d11f-7233-9b95-7a424dbf389f","","null","
                <div class=""stimulus-container"">
                    <img src=""images/causal_sequence/coin_causal/coin_causal_8.png"" class=""exp-image"">
                    <div class=""question-area""></div> 
                </div>","null","","","","","","","","","","","",""
"","","","","","html-button-response","137","542970","0.0-137.0","CCCF452ED19D4E7F8435D6F203B41531","019d6c12-a438-796e-912d-366783cd3912","019d6b6d-d11f-7233-9b95-7a424dbf389f","","null","
                <div class=""stimulus-container"">
                    <img src=""images/causal_sequence/coin_causal/coin_causal_8.png"" class=""exp-image"">
                    <div class=""question-area"">
                        <p style=""font-size: 20px; font-weight: bold; margin: 0;"">Is there a person in this image?</p>
                    </div>
                </div>","null","main_experiment_trial","8","coin_causal","causal_sequence","chronological","","","","","","",""
"","","","","","html-keyboard-response","138","547971","0.0-138.0","CCCF452ED19D4E7F8435D6F203B41531","019d6c12-a438-796e-912d-366783cd3912","019d6b6d-d11f-7233-9b95-7a424dbf389f","","null","
                <div class=""stimulus-container"">
                    <img src=""images/causal_sequence/coin_causal/coin_causal_9.png"" class=""exp-image"">
                    <div class=""question-area""></div> 
                </div>","null","","","","","","","","","","","",""
"","","","","","html-button-response","139","548796","0.0-139.0","CCCF452ED19D4E7F8435D6F203B41531","019d6c12-a438-796e-912d-366783cd3912","019d6b6d-d11f-7233-9b95-7a424dbf389f","","825","
                <div class=""stimulus-container"">
                    <img src=""images/causal_sequence/coin_causal/coin_causal_9.png"" class=""exp-image"">
                    <div class=""question-area"">
                        <p style=""font-size: 20px; font-weight: bold; margin: 0;"">Is there a person in this image?</p>
                    </div>
                </div>","0","main_experiment_trial","9","coin_causal","causal_sequence","chronological","","","","","","",""
"","","","","","html-keyboard-response","140","553796","0.0-140.0","CCCF452ED19D4E7F8435D6F203B41531","019d6c12-a438-796e-912d-366783cd3912","019d6b6d-d11f-7233-9b95-7a424dbf389f","","null","
                <div class=""stimulus-container"">
                    <img src=""images/causal_sequence/coin_causal/coin_causal_ten.png"" class=""exp-image"">
                    <div class=""question-area""></div> 
                </div>","null","","","","","","","","","","","",""
"","","","","","html-button-response","141","556607","0.0-141.0","CCCF452ED19D4E7F8435D6F203B41531","019d6c12-a438-796e-912d-366783cd3912","019d6b6d-d11f-7233-9b95-7a424dbf389f","","2810","
                <div class=""stimulus-container"">
                    <img src=""images/causal_sequence/coin_causal/coin_causal_ten.png"" class=""exp-image"">
                    <div class=""question-area"">
                        <p style=""font-size: 20px; font-weight: bold; margin: 0;"">Is there a person in this image?</p>
                    </div>
                </div>","0","main_experiment_trial","ten","coin_causal","causal_sequence","chronological","","","","","","",""
"","","","","","html-keyboard-response","142","561607","0.0-142.0","CCCF452ED19D4E7F8435D6F203B41531","019d6c12-a438-796e-912d-366783cd3912","019d6b6d-d11f-7233-9b95-7a424dbf389f","","null","<div style=""background-color: white; width: 100vw; height: 100vh;""></div>","null","","","","","","","","","","","",""
"","","","","","html-keyboard-response","143","566608","0.0-143.0","CCCF452ED19D4E7F8435D6F203B41531","019d6c12-a438-796e-912d-366783cd3912","019d6b6d-d11f-7233-9b95-7a424dbf389f","","null","
                <div class=""stimulus-container"">
                    <img src=""semantic_sequence_notimeline/fruits_semantic/fruits_semantic_1.png"" class=""exp-image"">
                    <div class=""question-area""></div> 
                </div>","null","","","","","","","","","","","",""
"","","","","","html-button-response","144","569608","0.0-144.0","CCCF452ED19D4E7F8435D6F203B41531","019d6c12-a438-796e-912d-366783cd3912","019d6b6d-d11f-7233-9b95-7a424dbf389f","","null","
                <div class=""stimulus-container"">
                    <img src=""semantic_sequence_notimeline/fruits_semantic/fruits_semantic_1.png"" class=""exp-image"">
                    <div class=""question-area"">
                        <p style=""font-size: 20px; font-weight: bold; margin: 0;"">Is there a person in this image?</p>
                    </div>
                </div>","null","main_experiment_trial","1","fruits_semantic","semantic_sequence_notimeline","chronological","","","","","","",""
"","","","","","html-keyboard-response","145","574609","0.0-145.0","CCCF452ED19D4E7F8435D6F203B41531","019d6c12-a438-796e-912d-366783cd3912","019d6b6d-d11f-7233-9b95-7a424dbf389f","","null","
                <div class=""stimulus-container"">
                    <img src=""semantic_sequence_notimeline/fruits_semantic/fruits_semantic_2.png"" class=""exp-image"">
                    <div class=""question-area""></div> 
                </div>","null","","","","","","","","","","","",""
"","","","","","html-button-response","146","577609","0.0-146.0","CCCF452ED19D4E7F8435D6F203B41531","019d6c12-a438-796e-912d-366783cd3912","019d6b6d-d11f-7233-9b95-7a424dbf389f","","null","
                <div class=""stimulus-container"">
                    <img src=""semantic_sequence_notimeline/fruits_semantic/fruits_semantic_2.png"" class=""exp-image"">
                    <div class=""question-area"">
                        <p style=""font-size: 20px; font-weight: bold; margin: 0;"">Is there a person in this image?</p>
                    </div>
                </div>","null","main_experiment_trial","2","fruits_semantic","semantic_sequence_notimeline","chronological","","","","","","",""
"","","","","","html-keyboard-response","147","582610","0.0-147.0","CCCF452ED19D4E7F8435D6F203B41531","019d6c12-a438-796e-912d-366783cd3912","019d6b6d-d11f-7233-9b95-7a424dbf389f","","null","
                <div class=""stimulus-container"">
                    <img src=""semantic_sequence_notimeline/fruits_semantic/fruits_semantic_3.png"" class=""exp-image"">
                    <div class=""question-area""></div> 
                </div>","null","","","","","","","","","","","",""
"","","","","","html-button-response","148","585611","0.0-148.0","CCCF452ED19D4E7F8435D6F203B41531","019d6c12-a438-796e-912d-366783cd3912","019d6b6d-d11f-7233-9b95-7a424dbf389f","","null","
                <div class=""stimulus-container"">
                    <img src=""semantic_sequence_notimeline/fruits_semantic/fruits_semantic_3.png"" class=""exp-image"">
                    <div class=""question-area"">
                        <p style=""font-size: 20px; font-weight: bold; margin: 0;"">Is there a person in this image?</p>
                    </div>
                </div>","null","main_experiment_trial","3","fruits_semantic","semantic_sequence_notimeline","chronological","","","","","","",""
"","","","","","html-keyboard-response","149","590612","0.0-149.0","CCCF452ED19D4E7F8435D6F203B41531","019d6c12-a438-796e-912d-366783cd3912","019d6b6d-d11f-7233-9b95-7a424dbf389f","","null","
                <div class=""stimulus-container"">
                    <img src=""semantic_sequence_notimeline/fruits_semantic/fruits_semantic_4.png"" class=""exp-image"">
                    <div class=""question-area""></div> 
                </div>","null","","","","","","","","","","","",""
"","","","","","html-button-response","150","593612","0.0-150.0","CCCF452ED19D4E7F8435D6F203B41531","019d6c12-a438-796e-912d-366783cd3912","019d6b6d-d11f-7233-9b95-7a424dbf389f","","null","
                <div class=""stimulus-container"">
                    <img src=""semantic_sequence_notimeline/fruits_semantic/fruits_semantic_4.png"" class=""exp-image"">
                    <div class=""question-area"">
                        <p style=""font-size: 20px; font-weight: bold; margin: 0;"">Is there a person in this image?</p>
                    </div>
                </div>","null","main_experiment_trial","4","fruits_semantic","semantic_sequence_notimeline","chronological","","","","","","",""
"","","","","","html-keyboard-response","151","598613","0.0-151.0","CCCF452ED19D4E7F8435D6F203B41531","019d6c12-a438-796e-912d-366783cd3912","019d6b6d-d11f-7233-9b95-7a424dbf389f","","null","
                <div class=""stimulus-container"">
                    <img src=""semantic_sequence_notimeline/fruits_semantic/fruits_semantic_5.png"" class=""exp-image"">
                    <div class=""question-area""></div> 
                </div>","null","","","","","","","","","","","",""
"","","","","","html-button-response","152","601613","0.0-152.0","CCCF452ED19D4E7F8435D6F203B41531","019d6c12-a438-796e-912d-366783cd3912","019d6b6d-d11f-7233-9b95-7a424dbf389f","","null","
                <div class=""stimulus-container"">
                    <img src=""semantic_sequence_notimeline/fruits_semantic/fruits_semantic_5.png"" class=""exp-image"">
                    <div class=""question-area"">
                        <p style=""font-size: 20px; font-weight: bold; margin: 0;"">Is there a person in this image?</p>
                    </div>
                </div>","null","main_experiment_trial","5","fruits_semantic","semantic_sequence_notimeline","chronological","","","","","","",""
"","","","","","html-keyboard-response","153","606614","0.0-153.0","CCCF452ED19D4E7F8435D6F203B41531","019d6c12-a438-796e-912d-366783cd3912","019d6b6d-d11f-7233-9b95-7a424dbf389f","","null","
                <div class=""stimulus-container"">
                    <img src=""semantic_sequence_notimeline/fruits_semantic/fruits_semantic_6.png"" class=""exp-image"">
                    <div class=""question-area""></div> 
                </div>","null","","","","","","","","","","","",""
"","","","","","html-button-response","154","609615","0.0-154.0","CCCF452ED19D4E7F8435D6F203B41531","019d6c12-a438-796e-912d-366783cd3912","019d6b6d-d11f-7233-9b95-7a424dbf389f","","null","
                <div class=""stimulus-container"">
                    <img src=""semantic_sequence_notimeline/fruits_semantic/fruits_semantic_6.png"" class=""exp-image"">
                    <div class=""question-area"">
                        <p style=""font-size: 20px; font-weight: bold; margin: 0;"">Is there a person in this image?</p>
                    </div>
                </div>","null","main_experiment_trial","6","fruits_semantic","semantic_sequence_notimeline","chronological","","","","","","",""
"","","","","","html-keyboard-response","155","614615","0.0-155.0","CCCF452ED19D4E7F8435D6F203B41531","019d6c12-a438-796e-912d-366783cd3912","019d6b6d-d11f-7233-9b95-7a424dbf389f","","null","
                <div class=""stimulus-container"">
                    <img src=""semantic_sequence_notimeline/fruits_semantic/fruits_semantic_7.png"" class=""exp-image"">
                    <div class=""question-area""></div> 
                </div>","null","","","","","","","","","","","",""
"","","","","","html-button-response","156","617616","0.0-156.0","CCCF452ED19D4E7F8435D6F203B41531","019d6c12-a438-796e-912d-366783cd3912","019d6b6d-d11f-7233-9b95-7a424dbf389f","","null","
                <div class=""stimulus-container"">
                    <img src=""semantic_sequence_notimeline/fruits_semantic/fruits_semantic_7.png"" class=""exp-image"">
                    <div class=""question-area"">
                        <p style=""font-size: 20px; font-weight: bold; margin: 0;"">Is there a person in this image?</p>
                    </div>
                </div>","null","main_experiment_trial","7","fruits_semantic","semantic_sequence_notimeline","chronological","","","","","","",""
"","","","","","html-keyboard-response","157","622616","0.0-157.0","CCCF452ED19D4E7F8435D6F203B41531","019d6c12-a438-796e-912d-366783cd3912","019d6b6d-d11f-7233-9b95-7a424dbf389f","","null","
                <div class=""stimulus-container"">
                    <img src=""semantic_sequence_notimeline/fruits_semantic/fruits_semantic_8.png"" class=""exp-image"">
                    <div class=""question-area""></div> 
                </div>","null","","","","","","","","","","","",""
"","","","","","html-button-response","158","625617","0.0-158.0","CCCF452ED19D4E7F8435D6F203B41531","019d6c12-a438-796e-912d-366783cd3912","019d6b6d-d11f-7233-9b95-7a424dbf389f","","null","
                <div class=""stimulus-container"">
                    <img src=""semantic_sequence_notimeline/fruits_semantic/fruits_semantic_8.png"" class=""exp-image"">
                    <div class=""question-area"">
                        <p style=""font-size: 20px; font-weight: bold; margin: 0;"">Is there a person in this image?</p>
                    </div>
                </div>","null","main_experiment_trial","8","fruits_semantic","semantic_sequence_notimeline","chronological","","","","","","",""
"","","","","","html-keyboard-response","159","630617","0.0-159.0","CCCF452ED19D4E7F8435D6F203B41531","019d6c12-a438-796e-912d-366783cd3912","019d6b6d-d11f-7233-9b95-7a424dbf389f","","null","
                <div class=""stimulus-container"">
                    <img src=""semantic_sequence_notimeline/fruits_semantic/fruits_semantic_9.png"" class=""exp-image"">
                    <div class=""question-area""></div> 
                </div>","null","","","","","","","","","","","",""
"","","","","","html-button-response","160","633618","0.0-160.0","CCCF452ED19D4E7F8435D6F203B41531","019d6c12-a438-796e-912d-366783cd3912","019d6b6d-d11f-7233-9b95-7a424dbf389f","","null","
                <div class=""stimulus-container"">
                    <img src=""semantic_sequence_notimeline/fruits_semantic/fruits_semantic_9.png"" class=""exp-image"">
                    <div class=""question-area"">
                        <p style=""font-size: 20px; font-weight: bold; margin: 0;"">Is there a person in this image?</p>
                    </div>
                </div>","null","main_experiment_trial","9","fruits_semantic","semantic_sequence_notimeline","chronological","","","","","","",""
"","","","","","html-keyboard-response","161","638618","0.0-161.0","CCCF452ED19D4E7F8435D6F203B41531","019d6c12-a438-796e-912d-366783cd3912","019d6b6d-d11f-7233-9b95-7a424dbf389f","","null","
                <div class=""stimulus-container"">
                    <img src=""semantic_sequence_notimeline/fruits_semantic/fruits_semantic_ten.png"" class=""exp-image"">
                    <div class=""question-area""></div> 
                </div>","null","","","","","","","","","","","",""
"","","","","","html-button-response","162","641619","0.0-162.0","CCCF452ED19D4E7F8435D6F203B41531","019d6c12-a438-796e-912d-366783cd3912","019d6b6d-d11f-7233-9b95-7a424dbf389f","","null","
                <div class=""stimulus-container"">
                    <img src=""semantic_sequence_notimeline/fruits_semantic/fruits_semantic_ten.png"" class=""exp-image"">
                    <div class=""question-area"">
                        <p style=""font-size: 20px; font-weight: bold; margin: 0;"">Is there a person in this image?</p>
                    </div>
                </div>","null","main_experiment_trial","ten","fruits_semantic","semantic_sequence_notimeline","chronological","","","","","","",""
"","","","","","html-keyboard-response","163","646619","0.0-163.0","CCCF452ED19D4E7F8435D6F203B41531","019d6c12-a438-796e-912d-366783cd3912","019d6b6d-d11f-7233-9b95-7a424dbf389f","","null","<div style=""background-color: white; width: 100vw; height: 100vh;""></div>","null","","","","","","","","","","","",""
"","","","","","html-keyboard-response","164","651620","0.0-164.0","CCCF452ED19D4E7F8435D6F203B41531","019d6c12-a438-796e-912d-366783cd3912","019d6b6d-d11f-7233-9b95-7a424dbf389f","","null","
                <div class=""stimulus-container"">
                    <img src=""images/causal_sequence/the_performance_causal/the_performance_causal_1.png"" class=""exp-image"">
                    <div class=""question-area""></div> 
                </div>","null","","","","","","","","","","","",""
"","","","","","html-button-response","165","652334","0.0-165.0","CCCF452ED19D4E7F8435D6F203B41531","019d6c12-a438-796e-912d-366783cd3912","019d6b6d-d11f-7233-9b95-7a424dbf389f","","713","
                <div class=""stimulus-container"">
                    <img src=""images/causal_sequence/the_performance_causal/the_performance_causal_1.png"" class=""exp-image"">
                    <div class=""question-area"">
                        <p style=""font-size: 20px; font-weight: bold; margin: 0;"">Is there a person in this image?</p>
                    </div>
                </div>","0","main_experiment_trial","1","the_performance_causal","causal_sequence","chronological","","","","","","",""
"","","","","","html-keyboard-response","166","657335","0.0-166.0","CCCF452ED19D4E7F8435D6F203B41531","019d6c12-a438-796e-912d-366783cd3912","019d6b6d-d11f-7233-9b95-7a424dbf389f","","null","
                <div class=""stimulus-container"">
                    <img src=""images/causal_sequence/the_performance_causal/the_performance_causal_2.png"" class=""exp-image"">
                    <div class=""question-area""></div> 
                </div>","null","","","","","","","","","","","",""
"","","","","","html-button-response","167","658648","0.0-167.0","CCCF452ED19D4E7F8435D6F203B41531","019d6c12-a438-796e-912d-366783cd3912","019d6b6d-d11f-7233-9b95-7a424dbf389f","","1313","
                <div class=""stimulus-container"">
                    <img src=""images/causal_sequence/the_performance_causal/the_performance_causal_2.png"" class=""exp-image"">
                    <div class=""question-area"">
                        <p style=""font-size: 20px; font-weight: bold; margin: 0;"">Is there a person in this image?</p>
                    </div>
                </div>","0","main_experiment_trial","2","the_performance_causal","causal_sequence","chronological","","","","","","",""
"","","","","","html-keyboard-response","168","663649","0.0-168.0","CCCF452ED19D4E7F8435D6F203B41531","019d6c12-a438-796e-912d-366783cd3912","019d6b6d-d11f-7233-9b95-7a424dbf389f","","null","
                <div class=""stimulus-container"">
                    <img src=""images/causal_sequence/the_performance_causal/the_performance_causal_3.png"" class=""exp-image"">
                    <div class=""question-area""></div> 
                </div>","null","","","","","","","","","","","",""
"","","","","","html-button-response","169","664676","0.0-169.0","CCCF452ED19D4E7F8435D6F203B41531","019d6c12-a438-796e-912d-366783cd3912","019d6b6d-d11f-7233-9b95-7a424dbf389f","","1027","
                <div class=""stimulus-container"">
                    <img src=""images/causal_sequence/the_performance_causal/the_performance_causal_3.png"" class=""exp-image"">
                    <div class=""question-area"">
                        <p style=""font-size: 20px; font-weight: bold; margin: 0;"">Is there a person in this image?</p>
                    </div>
                </div>","0","main_experiment_trial","3","the_performance_causal","causal_sequence","chronological","","","","","","",""
"","","","","","html-keyboard-response","170","669677","0.0-170.0","CCCF452ED19D4E7F8435D6F203B41531","019d6c12-a438-796e-912d-366783cd3912","019d6b6d-d11f-7233-9b95-7a424dbf389f","","null","
                <div class=""stimulus-container"">
                    <img src=""images/causal_sequence/the_performance_causal/the_performance_causal_4.png"" class=""exp-image"">
                    <div class=""question-area""></div> 
                </div>","null","","","","","","","","","","","",""
"","","","","","html-button-response","171","670891","0.0-171.0","CCCF452ED19D4E7F8435D6F203B41531","019d6c12-a438-796e-912d-366783cd3912","019d6b6d-d11f-7233-9b95-7a424dbf389f","","1214","
                <div class=""stimulus-container"">
                    <img src=""images/causal_sequence/the_performance_causal/the_performance_causal_4.png"" class=""exp-image"">
                    <div class=""question-area"">
                        <p style=""font-size: 20px; font-weight: bold; margin: 0;"">Is there a person in this image?</p>
                    </div>
                </div>","0","main_experiment_trial","4","the_performance_causal","causal_sequence","chronological","","","","","","",""
"","","","","","html-keyboard-response","172","675892","0.0-172.0","CCCF452ED19D4E7F8435D6F203B41531","019d6c12-a438-796e-912d-366783cd3912","019d6b6d-d11f-7233-9b95-7a424dbf389f","","null","
                <div class=""stimulus-container"">
                    <img src=""images/causal_sequence/the_performance_causal/the_performance_causal_5.png"" class=""exp-image"">
                    <div class=""question-area""></div> 
                </div>","null","","","","","","","","","","","",""
"","","","","","html-button-response","173","678892","0.0-173.0","CCCF452ED19D4E7F8435D6F203B41531","019d6c12-a438-796e-912d-366783cd3912","019d6b6d-d11f-7233-9b95-7a424dbf389f","","null","
                <div class=""stimulus-container"">
                    <img src=""images/causal_sequence/the_performance_causal/the_performance_causal_5.png"" class=""exp-image"">
                    <div class=""question-area"">
                        <p style=""font-size: 20px; font-weight: bold; margin: 0;"">Is there a person in this image?</p>
                    </div>
                </div>","null","main_experiment_trial","5","the_performance_causal","causal_sequence","chronological","","","","","","",""
"","","","","","html-keyboard-response","174","683893","0.0-174.0","CCCF452ED19D4E7F8435D6F203B41531","019d6c12-a438-796e-912d-366783cd3912","019d6b6d-d11f-7233-9b95-7a424dbf389f","","null","
                <div class=""stimulus-container"">
                    <img src=""images/causal_sequence/the_performance_causal/the_performance_causal_6.png"" class=""exp-image"">
                    <div class=""question-area""></div> 
                </div>","null","","","","","","","","","","","",""
"","","","","","html-button-response","175","684507","0.0-175.0","CCCF452ED19D4E7F8435D6F203B41531","019d6c12-a438-796e-912d-366783cd3912","019d6b6d-d11f-7233-9b95-7a424dbf389f","","614","
                <div class=""stimulus-container"">
                    <img src=""images/causal_sequence/the_performance_causal/the_performance_causal_6.png"" class=""exp-image"">
                    <div class=""question-area"">
                        <p style=""font-size: 20px; font-weight: bold; margin: 0;"">Is there a person in this image?</p>
                    </div>
                </div>","0","main_experiment_trial","6","the_performance_causal","causal_sequence","chronological","","","","","","",""
"","","","","","html-keyboard-response","176","689508","0.0-176.0","CCCF452ED19D4E7F8435D6F203B41531","019d6c12-a438-796e-912d-366783cd3912","019d6b6d-d11f-7233-9b95-7a424dbf389f","","null","
                <div class=""stimulus-container"">
