"success","timeout","failed_images","failed_audio","failed_video","trial_type","trial_index","time_elapsed","internal_node_id","subject_id","study_id","session_id","view_history","rt","stimulus","response","task","image_index","folder","sequence_type","presentation_order","valuable_image_index","reward_type","distance_from_x","target_X","chosen_image_index","is_x_plus_dist","correct_choice"
"true","false","[]","[]","[]","preload","0","7862","0.0-0.0","18E1996B15B84267BC302904369C8A2D","019cfc33-7eee-756a-8101-f5c7566b8a52","019cfc28-2143-7934-89cc-ce6402563331","","","","","","","","","","","","","","","",""
"","","","","","instructions","1","31019","0.0-1.0","18E1996B15B84267BC302904369C8A2D","019cfc33-7eee-756a-8101-f5c7566b8a52","019cfc28-2143-7934-89cc-ce6402563331","[{""page_index"":0,""viewing_time"":23156}]","23157","","","","","","","","","","","","","",""
"","","","","","instructions","2","50935","0.0-2.0","18E1996B15B84267BC302904369C8A2D","019cfc33-7eee-756a-8101-f5c7566b8a52","019cfc28-2143-7934-89cc-ce6402563331","[{""page_index"":0,""viewing_time"":19915}]","19915","","","","","","","","","","","","","",""
"true","","","","","fullscreen","3","54538","0.0-3.0","18E1996B15B84267BC302904369C8A2D","019cfc33-7eee-756a-8101-f5c7566b8a52","019cfc28-2143-7934-89cc-ce6402563331","","2598","","","","","","","","","","","","","",""
"","","","","","instructions","4","58852","0.0-4.0","18E1996B15B84267BC302904369C8A2D","019cfc33-7eee-756a-8101-f5c7566b8a52","019cfc28-2143-7934-89cc-ce6402563331","[{""page_index"":0,""viewing_time"":4313}]","4313","","","","","","","","","","","","","",""
"","","","","","instructions","5","67485","0.0-5.0","18E1996B15B84267BC302904369C8A2D","019cfc33-7eee-756a-8101-f5c7566b8a52","019cfc28-2143-7934-89cc-ce6402563331","[{""page_index"":0,""viewing_time"":8632}]","8633","","","","","","","","","","","","","",""
"","","","","","html-keyboard-response","6","71488","0.0-6.0","18E1996B15B84267BC302904369C8A2D","019cfc33-7eee-756a-8101-f5c7566b8a52","019cfc28-2143-7934-89cc-ce6402563331","","null","
                <div class=""stimulus-container"">
                    <img src=""images/instructions/movie_1.png"" class=""exp-image"">
                    <div class=""question-area""></div> 
                </div>","null","","","","","","","","","","","",""
"","","","","","html-button-response","7","74492","0.0-7.0","18E1996B15B84267BC302904369C8A2D","019cfc33-7eee-756a-8101-f5c7566b8a52","019cfc28-2143-7934-89cc-ce6402563331","","null","
                <div class=""stimulus-container"">
                    <img src=""images/instructions/movie_1.png"" class=""exp-image"">
                    <div class=""question-area"">
                        <p style=""font-size: 20px; font-weight: bold; margin: 0;"">Was there a person in this image?</p>
                    </div>
                </div>","null","example_question","1","","","","","","","","","",""
"","","","","","html-keyboard-response","8","78494","0.0-8.0","18E1996B15B84267BC302904369C8A2D","019cfc33-7eee-756a-8101-f5c7566b8a52","019cfc28-2143-7934-89cc-ce6402563331","","null","
                <div class=""stimulus-container"">
                    <img src=""images/instructions/movie_2.png"" class=""exp-image"">
                    <div class=""question-area""></div> 
                </div>","null","","","","","","","","","","","",""
"","","","","","html-button-response","9","79720","0.0-9.0","18E1996B15B84267BC302904369C8A2D","019cfc33-7eee-756a-8101-f5c7566b8a52","019cfc28-2143-7934-89cc-ce6402563331","","1224","
                <div class=""stimulus-container"">
                    <img src=""images/instructions/movie_2.png"" class=""exp-image"">
                    <div class=""question-area"">
                        <p style=""font-size: 20px; font-weight: bold; margin: 0;"">Was there a person in this image?</p>
                    </div>
                </div>","1","example_question","2","","","","","","","","","",""
"","","","","","html-keyboard-response","10","83723","0.0-10.0","18E1996B15B84267BC302904369C8A2D","019cfc33-7eee-756a-8101-f5c7566b8a52","019cfc28-2143-7934-89cc-ce6402563331","","null","
                <div class=""stimulus-container"">
                    <img src=""images/instructions/movie_3.png"" class=""exp-image"">
                    <div class=""question-area""></div> 
                </div>","null","","","","","","","","","","","",""
"","","","","","html-button-response","11","85001","0.0-11.0","18E1996B15B84267BC302904369C8A2D","019cfc33-7eee-756a-8101-f5c7566b8a52","019cfc28-2143-7934-89cc-ce6402563331","","1277","
                <div class=""stimulus-container"">
                    <img src=""images/instructions/movie_3.png"" class=""exp-image"">
                    <div class=""question-area"">
                        <p style=""font-size: 20px; font-weight: bold; margin: 0;"">Was there a person in this image?</p>
                    </div>
                </div>","0","example_question","3","","","","","","","","","",""
"","","","","","html-keyboard-response","12","89005","0.0-12.0","18E1996B15B84267BC302904369C8A2D","019cfc33-7eee-756a-8101-f5c7566b8a52","019cfc28-2143-7934-89cc-ce6402563331","","null","
                <div class=""stimulus-container"">
                    <img src=""images/instructions/movie_4.png"" class=""exp-image"">
                    <div class=""question-area""></div> 
                </div>","null","","","","","","","","","","","",""
"","","","","","html-button-response","13","89802","0.0-13.0","18E1996B15B84267BC302904369C8A2D","019cfc33-7eee-756a-8101-f5c7566b8a52","019cfc28-2143-7934-89cc-ce6402563331","","796","
                <div class=""stimulus-container"">
                    <img src=""images/instructions/movie_4.png"" class=""exp-image"">
                    <div class=""question-area"">
                        <p style=""font-size: 20px; font-weight: bold; margin: 0;"">Was there a person in this image?</p>
                    </div>
                </div>","0","example_question","4","","","","","","","","","",""
"","","","","","instructions","14","95851","0.0-14.0","18E1996B15B84267BC302904369C8A2D","019cfc33-7eee-756a-8101-f5c7566b8a52","019cfc28-2143-7934-89cc-ce6402563331","[{""page_index"":0,""viewing_time"":6048}]","6049","","","","","","","","","","","","","",""
"","","","","","instructions","15","101102","0.0-15.0","18E1996B15B84267BC302904369C8A2D","019cfc33-7eee-756a-8101-f5c7566b8a52","019cfc28-2143-7934-89cc-ce6402563331","[{""page_index"":0,""viewing_time"":5249}]","5250","","","","","","","","","","","","","",""
"","","","","","html-keyboard-response","16","106104","0.0-16.0","18E1996B15B84267BC302904369C8A2D","019cfc33-7eee-756a-8101-f5c7566b8a52","019cfc28-2143-7934-89cc-ce6402563331","","null","<div style=""background-color: white; width: 100vw; height: 100vh;""></div>","null","","","","","","","","","","","",""
"","","","","","html-keyboard-response","17","111107","0.0-17.0","18E1996B15B84267BC302904369C8A2D","019cfc33-7eee-756a-8101-f5c7566b8a52","019cfc28-2143-7934-89cc-ce6402563331","","null","
                <div class=""stimulus-container"">
                    <img src=""images/semantic_sequence/maintaining_a_car_semantic/maintaining_a_car_semantic_1.png"" class=""exp-image"">
                    <div class=""question-area""></div> 
                </div>","null","","","","","","","","","","","",""
"","","","","","html-button-response","18","112119","0.0-18.0","18E1996B15B84267BC302904369C8A2D","019cfc33-7eee-756a-8101-f5c7566b8a52","019cfc28-2143-7934-89cc-ce6402563331","","1009","
                <div class=""stimulus-container"">
                    <img src=""images/semantic_sequence/maintaining_a_car_semantic/maintaining_a_car_semantic_1.png"" class=""exp-image"">
                    <div class=""question-area"">
                        <p style=""font-size: 20px; font-weight: bold; margin: 0;"">Is there a person in this image?</p>
                    </div>
                </div>","0","main_experiment_trial","1","maintaining_a_car_semantic","semantic_sequence","chronological","","","","","","",""
"","","","","","html-keyboard-response","19","117122","0.0-19.0","18E1996B15B84267BC302904369C8A2D","019cfc33-7eee-756a-8101-f5c7566b8a52","019cfc28-2143-7934-89cc-ce6402563331","","null","
                <div class=""stimulus-container"">
                    <img src=""images/semantic_sequence/maintaining_a_car_semantic/maintaining_a_car_semantic_2.png"" class=""exp-image"">
                    <div class=""question-area""></div> 
                </div>","null","","","","","","","","","","","",""
"","","","","","html-button-response","20","118218","0.0-20.0","18E1996B15B84267BC302904369C8A2D","019cfc33-7eee-756a-8101-f5c7566b8a52","019cfc28-2143-7934-89cc-ce6402563331","","1095","
                <div class=""stimulus-container"">
                    <img src=""images/semantic_sequence/maintaining_a_car_semantic/maintaining_a_car_semantic_2.png"" class=""exp-image"">
                    <div class=""question-area"">
                        <p style=""font-size: 20px; font-weight: bold; margin: 0;"">Is there a person in this image?</p>
                    </div>
                </div>","0","main_experiment_trial","2","maintaining_a_car_semantic","semantic_sequence","chronological","","","","","","",""
"","","","","","html-keyboard-response","21","123221","0.0-21.0","18E1996B15B84267BC302904369C8A2D","019cfc33-7eee-756a-8101-f5c7566b8a52","019cfc28-2143-7934-89cc-ce6402563331","","null","
                <div class=""stimulus-container"">
                    <img src=""images/semantic_sequence/maintaining_a_car_semantic/maintaining_a_car_semantic_3.png"" class=""exp-image"">
                    <div class=""question-area""></div> 
                </div>","null","","","","","","","","","","","",""
"","","","","","html-button-response","22","124052","0.0-22.0","18E1996B15B84267BC302904369C8A2D","019cfc33-7eee-756a-8101-f5c7566b8a52","019cfc28-2143-7934-89cc-ce6402563331","","829","
                <div class=""stimulus-container"">
                    <img src=""images/semantic_sequence/maintaining_a_car_semantic/maintaining_a_car_semantic_3.png"" class=""exp-image"">
                    <div class=""question-area"">
                        <p style=""font-size: 20px; font-weight: bold; margin: 0;"">Is there a person in this image?</p>
                    </div>
                </div>","0","main_experiment_trial","3","maintaining_a_car_semantic","semantic_sequence","chronological","","","","","","",""
"","","","","","html-keyboard-response","23","129053","0.0-23.0","18E1996B15B84267BC302904369C8A2D","019cfc33-7eee-756a-8101-f5c7566b8a52","019cfc28-2143-7934-89cc-ce6402563331","","null","
                <div class=""stimulus-container"">
                    <img src=""images/semantic_sequence/maintaining_a_car_semantic/maintaining_a_car_semantic_4.png"" class=""exp-image"">
                    <div class=""question-area""></div> 
                </div>","null","","","","","","","","","","","",""
"","","","","","html-button-response","24","129985","0.0-24.0","18E1996B15B84267BC302904369C8A2D","019cfc33-7eee-756a-8101-f5c7566b8a52","019cfc28-2143-7934-89cc-ce6402563331","","930","
                <div class=""stimulus-container"">
                    <img src=""images/semantic_sequence/maintaining_a_car_semantic/maintaining_a_car_semantic_4.png"" class=""exp-image"">
                    <div class=""question-area"">
                        <p style=""font-size: 20px; font-weight: bold; margin: 0;"">Is there a person in this image?</p>
                    </div>
                </div>","0","main_experiment_trial","4","maintaining_a_car_semantic","semantic_sequence","chronological","","","","","","",""
"","","","","","html-keyboard-response","25","134988","0.0-25.0","18E1996B15B84267BC302904369C8A2D","019cfc33-7eee-756a-8101-f5c7566b8a52","019cfc28-2143-7934-89cc-ce6402563331","","null","
                <div class=""stimulus-container"">
                    <img src=""images/semantic_sequence/maintaining_a_car_semantic/maintaining_a_car_semantic_5.png"" class=""exp-image"">
                    <div class=""question-area""></div> 
                </div>","null","","","","","","","","","","","",""
"","","","","","html-button-response","26","135785","0.0-26.0","18E1996B15B84267BC302904369C8A2D","019cfc33-7eee-756a-8101-f5c7566b8a52","019cfc28-2143-7934-89cc-ce6402563331","","796","
                <div class=""stimulus-container"">
                    <img src=""images/semantic_sequence/maintaining_a_car_semantic/maintaining_a_car_semantic_5.png"" class=""exp-image"">
                    <div class=""question-area"">
                        <p style=""font-size: 20px; font-weight: bold; margin: 0;"">Is there a person in this image?</p>
                    </div>
                </div>","0","main_experiment_trial","5","maintaining_a_car_semantic","semantic_sequence","chronological","","","","","","",""
"","","","","","html-keyboard-response","27","140788","0.0-27.0","18E1996B15B84267BC302904369C8A2D","019cfc33-7eee-756a-8101-f5c7566b8a52","019cfc28-2143-7934-89cc-ce6402563331","","null","
                <div class=""stimulus-container"">
                    <img src=""images/semantic_sequence/maintaining_a_car_semantic/maintaining_a_car_semantic_6.png"" class=""exp-image"">
                    <div class=""question-area""></div> 
                </div>","null","","","","","","","","","","","",""
"","","","","","html-button-response","28","142252","0.0-28.0","18E1996B15B84267BC302904369C8A2D","019cfc33-7eee-756a-8101-f5c7566b8a52","019cfc28-2143-7934-89cc-ce6402563331","","1462","
                <div class=""stimulus-container"">
                    <img src=""images/semantic_sequence/maintaining_a_car_semantic/maintaining_a_car_semantic_6.png"" class=""exp-image"">
                    <div class=""question-area"">
                        <p style=""font-size: 20px; font-weight: bold; margin: 0;"">Is there a person in this image?</p>
                    </div>
                </div>","0","main_experiment_trial","6","maintaining_a_car_semantic","semantic_sequence","chronological","","","","","","",""
"","","","","","html-keyboard-response","29","147255","0.0-29.0","18E1996B15B84267BC302904369C8A2D","019cfc33-7eee-756a-8101-f5c7566b8a52","019cfc28-2143-7934-89cc-ce6402563331","","null","
                <div class=""stimulus-container"">
                    <img src=""images/semantic_sequence/maintaining_a_car_semantic/maintaining_a_car_semantic_7.png"" class=""exp-image"">
                    <div class=""question-area""></div> 
                </div>","null","","","","","","","","","","","",""
"","","","","","html-button-response","30","148219","0.0-30.0","18E1996B15B84267BC302904369C8A2D","019cfc33-7eee-756a-8101-f5c7566b8a52","019cfc28-2143-7934-89cc-ce6402563331","","962","
                <div class=""stimulus-container"">
                    <img src=""images/semantic_sequence/maintaining_a_car_semantic/maintaining_a_car_semantic_7.png"" class=""exp-image"">
                    <div class=""question-area"">
                        <p style=""font-size: 20px; font-weight: bold; margin: 0;"">Is there a person in this image?</p>
                    </div>
                </div>","0","main_experiment_trial","7","maintaining_a_car_semantic","semantic_sequence","chronological","","","","","","",""
"","","","","","html-keyboard-response","31","153222","0.0-31.0","18E1996B15B84267BC302904369C8A2D","019cfc33-7eee-756a-8101-f5c7566b8a52","019cfc28-2143-7934-89cc-ce6402563331","","null","
                <div class=""stimulus-container"">
                    <img src=""images/semantic_sequence/maintaining_a_car_semantic/maintaining_a_car_semantic_8.png"" class=""exp-image"">
                    <div class=""question-area""></div> 
                </div>","null","","","","","","","","","","","",""
"","","","","","html-button-response","32","154218","0.0-32.0","18E1996B15B84267BC302904369C8A2D","019cfc33-7eee-756a-8101-f5c7566b8a52","019cfc28-2143-7934-89cc-ce6402563331","","995","
                <div class=""stimulus-container"">
                    <img src=""images/semantic_sequence/maintaining_a_car_semantic/maintaining_a_car_semantic_8.png"" class=""exp-image"">
                    <div class=""question-area"">
                        <p style=""font-size: 20px; font-weight: bold; margin: 0;"">Is there a person in this image?</p>
                    </div>
                </div>","0","main_experiment_trial","8","maintaining_a_car_semantic","semantic_sequence","chronological","","","","","","",""
"","","","","","html-keyboard-response","33","159221","0.0-33.0","18E1996B15B84267BC302904369C8A2D","019cfc33-7eee-756a-8101-f5c7566b8a52","019cfc28-2143-7934-89cc-ce6402563331","","null","
                <div class=""stimulus-container"">
                    <img src=""images/semantic_sequence/maintaining_a_car_semantic/maintaining_a_car_semantic_9.png"" class=""exp-image"">
                    <div class=""question-area""></div> 
                </div>","null","","","","","","","","","","","",""
"","","","","","html-button-response","34","160452","0.0-34.0","18E1996B15B84267BC302904369C8A2D","019cfc33-7eee-756a-8101-f5c7566b8a52","019cfc28-2143-7934-89cc-ce6402563331","","1230","
                <div class=""stimulus-container"">
                    <img src=""images/semantic_sequence/maintaining_a_car_semantic/maintaining_a_car_semantic_9.png"" class=""exp-image"">
                    <div class=""question-area"">
                        <p style=""font-size: 20px; font-weight: bold; margin: 0;"">Is there a person in this image?</p>
                    </div>
                </div>","0","main_experiment_trial","9","maintaining_a_car_semantic","semantic_sequence","chronological","","","","","","",""
"","","","","","html-keyboard-response","35","165455","0.0-35.0","18E1996B15B84267BC302904369C8A2D","019cfc33-7eee-756a-8101-f5c7566b8a52","019cfc28-2143-7934-89cc-ce6402563331","","null","
                <div class=""stimulus-container"">
                    <img src=""images/semantic_sequence/maintaining_a_car_semantic/maintaining_a_car_semantic_ten.png"" class=""exp-image"">
                    <div class=""question-area""></div> 
                </div>","null","","","","","","","","","","","",""
"","","","","","html-button-response","36","167102","0.0-36.0","18E1996B15B84267BC302904369C8A2D","019cfc33-7eee-756a-8101-f5c7566b8a52","019cfc28-2143-7934-89cc-ce6402563331","","1645","
                <div class=""stimulus-container"">
                    <img src=""images/semantic_sequence/maintaining_a_car_semantic/maintaining_a_car_semantic_ten.png"" class=""exp-image"">
                    <div class=""question-area"">
                        <p style=""font-size: 20px; font-weight: bold; margin: 0;"">Is there a person in this image?</p>
                    </div>
                </div>","0","main_experiment_trial","ten","maintaining_a_car_semantic","semantic_sequence","chronological","","","","","","",""
"","","","","","html-keyboard-response","37","172104","0.0-37.0","18E1996B15B84267BC302904369C8A2D","019cfc33-7eee-756a-8101-f5c7566b8a52","019cfc28-2143-7934-89cc-ce6402563331","","null","<div style=""background-color: white; width: 100vw; height: 100vh;""></div>","null","","","","","","","","","","","",""
"","","","","","html-keyboard-response","38","177107","0.0-38.0","18E1996B15B84267BC302904369C8A2D","019cfc33-7eee-756a-8101-f5c7566b8a52","019cfc28-2143-7934-89cc-ce6402563331","","null","
                <div class=""stimulus-container"">
                    <img src=""images/schematic_sequence/dinner_party_scheme/dinner_party_scheme_1.png"" class=""exp-image"">
                    <div class=""question-area""></div> 
                </div>","null","","","","","","","","","","","",""
"","","","","","html-button-response","39","178218","0.0-39.0","18E1996B15B84267BC302904369C8A2D","019cfc33-7eee-756a-8101-f5c7566b8a52","019cfc28-2143-7934-89cc-ce6402563331","","1110","
                <div class=""stimulus-container"">
                    <img src=""images/schematic_sequence/dinner_party_scheme/dinner_party_scheme_1.png"" class=""exp-image"">
                    <div class=""question-area"">
                        <p style=""font-size: 20px; font-weight: bold; margin: 0;"">Is there a person in this image?</p>
                    </div>
                </div>","0","main_experiment_trial","1","dinner_party_scheme","schematic_sequence","chronological","","","","","","",""
"","","","","","html-keyboard-response","40","183222","0.0-40.0","18E1996B15B84267BC302904369C8A2D","019cfc33-7eee-756a-8101-f5c7566b8a52","019cfc28-2143-7934-89cc-ce6402563331","","null","
                <div class=""stimulus-container"">
                    <img src=""images/schematic_sequence/dinner_party_scheme/dinner_party_scheme_2.png"" class=""exp-image"">
                    <div class=""question-area""></div> 
                </div>","null","","","","","","","","","","","",""
"","","","","","html-button-response","41","184485","0.0-41.0","18E1996B15B84267BC302904369C8A2D","019cfc33-7eee-756a-8101-f5c7566b8a52","019cfc28-2143-7934-89cc-ce6402563331","","1262","
                <div class=""stimulus-container"">
                    <img src=""images/schematic_sequence/dinner_party_scheme/dinner_party_scheme_2.png"" class=""exp-image"">
                    <div class=""question-area"">
                        <p style=""font-size: 20px; font-weight: bold; margin: 0;"">Is there a person in this image?</p>
                    </div>
                </div>","0","main_experiment_trial","2","dinner_party_scheme","schematic_sequence","chronological","","","","","","",""
"","","","","","html-keyboard-response","42","189488","0.0-42.0","18E1996B15B84267BC302904369C8A2D","019cfc33-7eee-756a-8101-f5c7566b8a52","019cfc28-2143-7934-89cc-ce6402563331","","null","
                <div class=""stimulus-container"">
                    <img src=""images/schematic_sequence/dinner_party_scheme/dinner_party_scheme_3.png"" class=""exp-image"">
                    <div class=""question-area""></div> 
                </div>","null","","","","","","","","","","","",""
"","","","","","html-button-response","43","190135","0.0-43.0","18E1996B15B84267BC302904369C8A2D","019cfc33-7eee-756a-8101-f5c7566b8a52","019cfc28-2143-7934-89cc-ce6402563331","","646","
                <div class=""stimulus-container"">
                    <img src=""images/schematic_sequence/dinner_party_scheme/dinner_party_scheme_3.png"" class=""exp-image"">
                    <div class=""question-area"">
                        <p style=""font-size: 20px; font-weight: bold; margin: 0;"">Is there a person in this image?</p>
                    </div>
                </div>","0","main_experiment_trial","3","dinner_party_scheme","schematic_sequence","chronological","","","","","","",""
"","","","","","html-keyboard-response","44","195138","0.0-44.0","18E1996B15B84267BC302904369C8A2D","019cfc33-7eee-756a-8101-f5c7566b8a52","019cfc28-2143-7934-89cc-ce6402563331","","null","
                <div class=""stimulus-container"">
                    <img src=""images/schematic_sequence/dinner_party_scheme/dinner_party_scheme_4.png"" class=""exp-image"">
                    <div class=""question-area""></div> 
                </div>","null","","","","","","","","","","","",""
"","","","","","html-button-response","45","196168","0.0-45.0","18E1996B15B84267BC302904369C8A2D","019cfc33-7eee-756a-8101-f5c7566b8a52","019cfc28-2143-7934-89cc-ce6402563331","","1029","
                <div class=""stimulus-container"">
                    <img src=""images/schematic_sequence/dinner_party_scheme/dinner_party_scheme_4.png"" class=""exp-image"">
                    <div class=""question-area"">
                        <p style=""font-size: 20px; font-weight: bold; margin: 0;"">Is there a person in this image?</p>
                    </div>
                </div>","0","main_experiment_trial","4","dinner_party_scheme","schematic_sequence","chronological","","","","","","",""
"","","","","","html-keyboard-response","46","201172","0.0-46.0","18E1996B15B84267BC302904369C8A2D","019cfc33-7eee-756a-8101-f5c7566b8a52","019cfc28-2143-7934-89cc-ce6402563331","","null","
                <div class=""stimulus-container"">
                    <img src=""images/schematic_sequence/dinner_party_scheme/dinner_party_scheme_5.png"" class=""exp-image"">
                    <div class=""question-area""></div> 
                </div>","null","","","","","","","","","","","",""
"","","","","","html-button-response","47","201835","0.0-47.0","18E1996B15B84267BC302904369C8A2D","019cfc33-7eee-756a-8101-f5c7566b8a52","019cfc28-2143-7934-89cc-ce6402563331","","662","
                <div class=""stimulus-container"">
                    <img src=""images/schematic_sequence/dinner_party_scheme/dinner_party_scheme_5.png"" class=""exp-image"">
                    <div class=""question-area"">
                        <p style=""font-size: 20px; font-weight: bold; margin: 0;"">Is there a person in this image?</p>
                    </div>
                </div>","0","main_experiment_trial","5","dinner_party_scheme","schematic_sequence","chronological","","","","","","",""
"","","","","","html-keyboard-response","48","206838","0.0-48.0","18E1996B15B84267BC302904369C8A2D","019cfc33-7eee-756a-8101-f5c7566b8a52","019cfc28-2143-7934-89cc-ce6402563331","","null","
                <div class=""stimulus-container"">
                    <img src=""images/schematic_sequence/dinner_party_scheme/dinner_party_scheme_6.png"" class=""exp-image"">
                    <div class=""question-area""></div> 
                </div>","null","","","","","","","","","","","",""
"","","","","","html-button-response","49","207819","0.0-49.0","18E1996B15B84267BC302904369C8A2D","019cfc33-7eee-756a-8101-f5c7566b8a52","019cfc28-2143-7934-89cc-ce6402563331","","979","
                <div class=""stimulus-container"">
                    <img src=""images/schematic_sequence/dinner_party_scheme/dinner_party_scheme_6.png"" class=""exp-image"">
                    <div class=""question-area"">
                        <p style=""font-size: 20px; font-weight: bold; margin: 0;"">Is there a person in this image?</p>
                    </div>
                </div>","0","main_experiment_trial","6","dinner_party_scheme","schematic_sequence","chronological","","","","","","",""
"","","","","","html-keyboard-response","50","212821","0.0-50.0","18E1996B15B84267BC302904369C8A2D","019cfc33-7eee-756a-8101-f5c7566b8a52","019cfc28-2143-7934-89cc-ce6402563331","","null","
                <div class=""stimulus-container"">
                    <img src=""images/schematic_sequence/dinner_party_scheme/dinner_party_scheme_7.png"" class=""exp-image"">
                    <div class=""question-area""></div> 
                </div>","null","","","","","","","","","","","",""
"","","","","","html-button-response","51","213602","0.0-51.0","18E1996B15B84267BC302904369C8A2D","019cfc33-7eee-756a-8101-f5c7566b8a52","019cfc28-2143-7934-89cc-ce6402563331","","779","
                <div class=""stimulus-container"">
                    <img src=""images/schematic_sequence/dinner_party_scheme/dinner_party_scheme_7.png"" class=""exp-image"">
                    <div class=""question-area"">
                        <p style=""font-size: 20px; font-weight: bold; margin: 0;"">Is there a person in this image?</p>
                    </div>
                </div>","0","main_experiment_trial","7","dinner_party_scheme","schematic_sequence","chronological","","","","","","",""
"","","","","","html-keyboard-response","52","218605","0.0-52.0","18E1996B15B84267BC302904369C8A2D","019cfc33-7eee-756a-8101-f5c7566b8a52","019cfc28-2143-7934-89cc-ce6402563331","","null","
                <div class=""stimulus-container"">
                    <img src=""images/schematic_sequence/dinner_party_scheme/dinner_party_scheme_8.png"" class=""exp-image"">
                    <div class=""question-area""></div> 
                </div>","null","","","","","","","","","","","",""
"","","","","","html-button-response","53","219669","0.0-53.0","18E1996B15B84267BC302904369C8A2D","019cfc33-7eee-756a-8101-f5c7566b8a52","019cfc28-2143-7934-89cc-ce6402563331","","1062","
                <div class=""stimulus-container"">
                    <img src=""images/schematic_sequence/dinner_party_scheme/dinner_party_scheme_8.png"" class=""exp-image"">
                    <div class=""question-area"">
                        <p style=""font-size: 20px; font-weight: bold; margin: 0;"">Is there a person in this image?</p>
                    </div>
                </div>","0","main_experiment_trial","8","dinner_party_scheme","schematic_sequence","chronological","","","","","","",""
"","","","","","html-keyboard-response","54","224672","0.0-54.0","18E1996B15B84267BC302904369C8A2D","019cfc33-7eee-756a-8101-f5c7566b8a52","019cfc28-2143-7934-89cc-ce6402563331","","null","
                <div class=""stimulus-container"">
                    <img src=""images/schematic_sequence/dinner_party_scheme/dinner_party_scheme_9.png"" class=""exp-image"">
                    <div class=""question-area""></div> 
                </div>","null","","","","","","","","","","","",""
"","","","","","html-button-response","55","225885","0.0-55.0","18E1996B15B84267BC302904369C8A2D","019cfc33-7eee-756a-8101-f5c7566b8a52","019cfc28-2143-7934-89cc-ce6402563331","","1212","
                <div class=""stimulus-container"">
                    <img src=""images/schematic_sequence/dinner_party_scheme/dinner_party_scheme_9.png"" class=""exp-image"">
                    <div class=""question-area"">
                        <p style=""font-size: 20px; font-weight: bold; margin: 0;"">Is there a person in this image?</p>
                    </div>
                </div>","0","main_experiment_trial","9","dinner_party_scheme","schematic_sequence","chronological","","","","","","",""
"","","","","","html-keyboard-response","56","230888","0.0-56.0","18E1996B15B84267BC302904369C8A2D","019cfc33-7eee-756a-8101-f5c7566b8a52","019cfc28-2143-7934-89cc-ce6402563331","","null","
                <div class=""stimulus-container"">
                    <img src=""images/schematic_sequence/dinner_party_scheme/dinner_party_scheme_ten.png"" class=""exp-image"">
                    <div class=""question-area""></div> 
                </div>","null","","","","","","","","","","","",""
"","","","","","html-button-response","57","232035","0.0-57.0","18E1996B15B84267BC302904369C8A2D","019cfc33-7eee-756a-8101-f5c7566b8a52","019cfc28-2143-7934-89cc-ce6402563331","","1145","
                <div class=""stimulus-container"">
                    <img src=""images/schematic_sequence/dinner_party_scheme/dinner_party_scheme_ten.png"" class=""exp-image"">
                    <div class=""question-area"">
                        <p style=""font-size: 20px; font-weight: bold; margin: 0;"">Is there a person in this image?</p>
                    </div>
                </div>","0","main_experiment_trial","ten","dinner_party_scheme","schematic_sequence","chronological","","","","","","",""
"","","","","","html-keyboard-response","58","237037","0.0-58.0","18E1996B15B84267BC302904369C8A2D","019cfc33-7eee-756a-8101-f5c7566b8a52","019cfc28-2143-7934-89cc-ce6402563331","","null","<div style=""background-color: white; width: 100vw; height: 100vh;""></div>","null","","","","","","","","","","","",""
"","","","","","html-keyboard-response","59","242040","0.0-59.0","18E1996B15B84267BC302904369C8A2D","019cfc33-7eee-756a-8101-f5c7566b8a52","019cfc28-2143-7934-89cc-ce6402563331","","null","
                <div class=""stimulus-container"">
                    <img src=""images/semantic_sequence/self_care_activities_semantic/self_care_activities_semantic_1.png"" class=""exp-image"">
                    <div class=""question-area""></div> 
                </div>","null","","","","","","","","","","","",""
"","","","","","html-button-response","60","243135","0.0-60.0","18E1996B15B84267BC302904369C8A2D","019cfc33-7eee-756a-8101-f5c7566b8a52","019cfc28-2143-7934-89cc-ce6402563331","","1094","
                <div class=""stimulus-container"">
                    <img src=""images/semantic_sequence/self_care_activities_semantic/self_care_activities_semantic_1.png"" class=""exp-image"">
                    <div class=""question-area"">
                        <p style=""font-size: 20px; font-weight: bold; margin: 0;"">Is there a person in this image?</p>
                    </div>
                </div>","0","main_experiment_trial","1","self_care_activities_semantic","semantic_sequence","chronological","","","","","","",""
"","","","","","html-keyboard-response","61","248138","0.0-61.0","18E1996B15B84267BC302904369C8A2D","019cfc33-7eee-756a-8101-f5c7566b8a52","019cfc28-2143-7934-89cc-ce6402563331","","null","
                <div class=""stimulus-container"">
                    <img src=""images/semantic_sequence/self_care_activities_semantic/self_care_activities_semantic_2.png"" class=""exp-image"">
                    <div class=""question-area""></div> 
                </div>","null","","","","","","","","","","","",""
"","","","","","html-button-response","62","251141","0.0-62.0","18E1996B15B84267BC302904369C8A2D","019cfc33-7eee-756a-8101-f5c7566b8a52","019cfc28-2143-7934-89cc-ce6402563331","","null","
                <div class=""stimulus-container"">
                    <img src=""images/semantic_sequence/self_care_activities_semantic/self_care_activities_semantic_2.png"" class=""exp-image"">
                    <div class=""question-area"">
                        <p style=""font-size: 20px; font-weight: bold; margin: 0;"">Is there a person in this image?</p>
                    </div>
                </div>","null","main_experiment_trial","2","self_care_activities_semantic","semantic_sequence","chronological","","","","","","",""
"","","","","","html-keyboard-response","63","256144","0.0-63.0","18E1996B15B84267BC302904369C8A2D","019cfc33-7eee-756a-8101-f5c7566b8a52","019cfc28-2143-7934-89cc-ce6402563331","","null","
                <div class=""stimulus-container"">
                    <img src=""images/semantic_sequence/self_care_activities_semantic/self_care_activities_semantic_3.png"" class=""exp-image"">
                    <div class=""question-area""></div> 
                </div>","null","","","","","","","","","","","",""
"","","","","","html-button-response","64","257668","0.0-64.0","18E1996B15B84267BC302904369C8A2D","019cfc33-7eee-756a-8101-f5c7566b8a52","019cfc28-2143-7934-89cc-ce6402563331","","1523","
                <div class=""stimulus-container"">
                    <img src=""images/semantic_sequence/self_care_activities_semantic/self_care_activities_semantic_3.png"" class=""exp-image"">
                    <div class=""question-area"">
                        <p style=""font-size: 20px; font-weight: bold; margin: 0;"">Is there a person in this image?</p>
                    </div>
                </div>","0","main_experiment_trial","3","self_care_activities_semantic","semantic_sequence","chronological","","","","","","",""
"","","","","","html-keyboard-response","65","262671","0.0-65.0","18E1996B15B84267BC302904369C8A2D","019cfc33-7eee-756a-8101-f5c7566b8a52","019cfc28-2143-7934-89cc-ce6402563331","","null","
                <div class=""stimulus-container"">
                    <img src=""images/semantic_sequence/self_care_activities_semantic/self_care_activities_semantic_4.png"" class=""exp-image"">
                    <div class=""question-area""></div> 
                </div>","null","","","","","","","","","","","",""
"","","","","","html-button-response","66","263918","0.0-66.0","18E1996B15B84267BC302904369C8A2D","019cfc33-7eee-756a-8101-f5c7566b8a52","019cfc28-2143-7934-89cc-ce6402563331","","1246","
                <div class=""stimulus-container"">
                    <img src=""images/semantic_sequence/self_care_activities_semantic/self_care_activities_semantic_4.png"" class=""exp-image"">
                    <div class=""question-area"">
                        <p style=""font-size: 20px; font-weight: bold; margin: 0;"">Is there a person in this image?</p>
                    </div>
                </div>","0","main_experiment_trial","4","self_care_activities_semantic","semantic_sequence","chronological","","","","","","",""
"","","","","","html-keyboard-response","67","268922","0.0-67.0","18E1996B15B84267BC302904369C8A2D","019cfc33-7eee-756a-8101-f5c7566b8a52","019cfc28-2143-7934-89cc-ce6402563331","","null","
                <div class=""stimulus-container"">
                    <img src=""images/semantic_sequence/self_care_activities_semantic/self_care_activities_semantic_5.png"" class=""exp-image"">
                    <div class=""question-area""></div> 
                </div>","null","","","","","","","","","","","",""
"","","","","","html-button-response","68","269552","0.0-68.0","18E1996B15B84267BC302904369C8A2D","019cfc33-7eee-756a-8101-f5c7566b8a52","019cfc28-2143-7934-89cc-ce6402563331","","628","
                <div class=""stimulus-container"">
                    <img src=""images/semantic_sequence/self_care_activities_semantic/self_care_activities_semantic_5.png"" class=""exp-image"">
                    <div class=""question-area"">
                        <p style=""font-size: 20px; font-weight: bold; margin: 0;"">Is there a person in this image?</p>
                    </div>
                </div>","0","main_experiment_trial","5","self_care_activities_semantic","semantic_sequence","chronological","","","","","","",""
"","","","","","html-keyboard-response","69","274553","0.0-69.0","18E1996B15B84267BC302904369C8A2D","019cfc33-7eee-756a-8101-f5c7566b8a52","019cfc28-2143-7934-89cc-ce6402563331","","null","
                <div class=""stimulus-container"">
                    <img src=""images/semantic_sequence/self_care_activities_semantic/self_care_activities_semantic_6.png"" class=""exp-image"">
                    <div class=""question-area""></div> 
                </div>","null","","","","","","","","","","","",""
"","","","","","html-button-response","70","275369","0.0-70.0","18E1996B15B84267BC302904369C8A2D","019cfc33-7eee-756a-8101-f5c7566b8a52","019cfc28-2143-7934-89cc-ce6402563331","","814","
                <div class=""stimulus-container"">
                    <img src=""images/semantic_sequence/self_care_activities_semantic/self_care_activities_semantic_6.png"" class=""exp-image"">
                    <div class=""question-area"">
                        <p style=""font-size: 20px; font-weight: bold; margin: 0;"">Is there a person in this image?</p>
                    </div>
                </div>","1","main_experiment_trial","6","self_care_activities_semantic","semantic_sequence","chronological","","","","","","",""
"","","","","","html-keyboard-response","71","280371","0.0-71.0","18E1996B15B84267BC302904369C8A2D","019cfc33-7eee-756a-8101-f5c7566b8a52","019cfc28-2143-7934-89cc-ce6402563331","","null","
                <div class=""stimulus-container"">
                    <img src=""images/semantic_sequence/self_care_activities_semantic/self_care_activities_semantic_7.png"" class=""exp-image"">
                    <div class=""question-area""></div> 
                </div>","null","","","","","","","","","","","",""
"","","","","","html-button-response","72","281619","0.0-72.0","18E1996B15B84267BC302904369C8A2D","019cfc33-7eee-756a-8101-f5c7566b8a52","019cfc28-2143-7934-89cc-ce6402563331","","1246","
                <div class=""stimulus-container"">
                    <img src=""images/semantic_sequence/self_care_activities_semantic/self_care_activities_semantic_7.png"" class=""exp-image"">
                    <div class=""question-area"">
                        <p style=""font-size: 20px; font-weight: bold; margin: 0;"">Is there a person in this image?</p>
                    </div>
                </div>","0","main_experiment_trial","7","self_care_activities_semantic","semantic_sequence","chronological","","","","","","",""
"","","","","","html-keyboard-response","73","286622","0.0-73.0","18E1996B15B84267BC302904369C8A2D","019cfc33-7eee-756a-8101-f5c7566b8a52","019cfc28-2143-7934-89cc-ce6402563331","","null","
                <div class=""stimulus-container"">
                    <img src=""images/semantic_sequence/self_care_activities_semantic/self_care_activities_semantic_8.png"" class=""exp-image"">
                    <div class=""question-area""></div> 
                </div>","null","","","","","","","","","","","",""
"","","","","","html-button-response","74","287702","0.0-74.0","18E1996B15B84267BC302904369C8A2D","019cfc33-7eee-756a-8101-f5c7566b8a52","019cfc28-2143-7934-89cc-ce6402563331","","1078","
                <div class=""stimulus-container"">
                    <img src=""images/semantic_sequence/self_care_activities_semantic/self_care_activities_semantic_8.png"" class=""exp-image"">
                    <div class=""question-area"">
                        <p style=""font-size: 20px; font-weight: bold; margin: 0;"">Is there a person in this image?</p>
                    </div>
                </div>","0","main_experiment_trial","8","self_care_activities_semantic","semantic_sequence","chronological","","","","","","",""
"","","","","","html-keyboard-response","75","292705","0.0-75.0","18E1996B15B84267BC302904369C8A2D","019cfc33-7eee-756a-8101-f5c7566b8a52","019cfc28-2143-7934-89cc-ce6402563331","","null","
                <div class=""stimulus-container"">
                    <img src=""images/semantic_sequence/self_care_activities_semantic/self_care_activities_semantic_9.png"" class=""exp-image"">
                    <div class=""question-area""></div> 
                </div>","null","","","","","","","","","","","",""
"","","","","","html-button-response","76","295152","0.0-76.0","18E1996B15B84267BC302904369C8A2D","019cfc33-7eee-756a-8101-f5c7566b8a52","019cfc28-2143-7934-89cc-ce6402563331","","2446","
                <div class=""stimulus-container"">
                    <img src=""images/semantic_sequence/self_care_activities_semantic/self_care_activities_semantic_9.png"" class=""exp-image"">
                    <div class=""question-area"">
                        <p style=""font-size: 20px; font-weight: bold; margin: 0;"">Is there a person in this image?</p>
                    </div>
                </div>","0","main_experiment_trial","9","self_care_activities_semantic","semantic_sequence","chronological","","","","","","",""
"","","","","","html-keyboard-response","77","300154","0.0-77.0","18E1996B15B84267BC302904369C8A2D","019cfc33-7eee-756a-8101-f5c7566b8a52","019cfc28-2143-7934-89cc-ce6402563331","","null","
                <div class=""stimulus-container"">
                    <img src=""images/semantic_sequence/self_care_activities_semantic/self_care_activities_semantic_ten.png"" class=""exp-image"">
                    <div class=""question-area""></div> 
                </div>","null","","","","","","","","","","","",""
"","","","","","html-button-response","78","303158","0.0-78.0","18E1996B15B84267BC302904369C8A2D","019cfc33-7eee-756a-8101-f5c7566b8a52","019cfc28-2143-7934-89cc-ce6402563331","","null","
                <div class=""stimulus-container"">
                    <img src=""images/semantic_sequence/self_care_activities_semantic/self_care_activities_semantic_ten.png"" class=""exp-image"">
                    <div class=""question-area"">
                        <p style=""font-size: 20px; font-weight: bold; margin: 0;"">Is there a person in this image?</p>
                    </div>
                </div>","null","main_experiment_trial","ten","self_care_activities_semantic","semantic_sequence","chronological","","","","","","",""
"","","","","","html-keyboard-response","79","308160","0.0-79.0","18E1996B15B84267BC302904369C8A2D","019cfc33-7eee-756a-8101-f5c7566b8a52","019cfc28-2143-7934-89cc-ce6402563331","","null","<div style=""background-color: white; width: 100vw; height: 100vh;""></div>","null","","","","","","","","","","","",""
"","","","","","html-keyboard-response","80","313163","0.0-80.0","18E1996B15B84267BC302904369C8A2D","019cfc33-7eee-756a-8101-f5c7566b8a52","019cfc28-2143-7934-89cc-ce6402563331","","null","
                <div class=""stimulus-container"">
                    <img src=""images/schematic_sequence/supermarket_scheme/supermarket_scheme_1.png"" class=""exp-image"">
                    <div class=""question-area""></div> 
                </div>","null","","","","","","","","","","","",""
"","","","","","html-button-response","81","314052","0.0-81.0","18E1996B15B84267BC302904369C8A2D","019cfc33-7eee-756a-8101-f5c7566b8a52","019cfc28-2143-7934-89cc-ce6402563331","","887","
                <div class=""stimulus-container"">
                    <img src=""images/schematic_sequence/supermarket_scheme/supermarket_scheme_1.png"" class=""exp-image"">
                    <div class=""question-area"">
                        <p style=""font-size: 20px; font-weight: bold; margin: 0;"">Is there a person in this image?</p>
                    </div>
                </div>","1","main_experiment_trial","1","supermarket_scheme","schematic_sequence","chronological","","","","","","",""
"","","","","","html-keyboard-response","82","319055","0.0-82.0","18E1996B15B84267BC302904369C8A2D","019cfc33-7eee-756a-8101-f5c7566b8a52","019cfc28-2143-7934-89cc-ce6402563331","","null","
                <div class=""stimulus-container"">
                    <img src=""images/schematic_sequence/supermarket_scheme/supermarket_scheme_2.png"" class=""exp-image"">
                    <div class=""question-area""></div> 
                </div>","null","","","","","","","","","","","",""
"","","","","","html-button-response","83","320202","0.0-83.0","18E1996B15B84267BC302904369C8A2D","019cfc33-7eee-756a-8101-f5c7566b8a52","019cfc28-2143-7934-89cc-ce6402563331","","1146","
                <div class=""stimulus-container"">
                    <img src=""images/schematic_sequence/supermarket_scheme/supermarket_scheme_2.png"" class=""exp-image"">
                    <div class=""question-area"">
                        <p style=""font-size: 20px; font-weight: bold; margin: 0;"">Is there a person in this image?</p>
                    </div>
                </div>","1","main_experiment_trial","2","supermarket_scheme","schematic_sequence","chronological","","","","","","",""
"","","","","","html-keyboard-response","84","325204","0.0-84.0","18E1996B15B84267BC302904369C8A2D","019cfc33-7eee-756a-8101-f5c7566b8a52","019cfc28-2143-7934-89cc-ce6402563331","","null","
                <div class=""stimulus-container"">
                    <img src=""images/schematic_sequence/supermarket_scheme/supermarket_scheme_3.png"" class=""exp-image"">
                    <div class=""question-area""></div> 
                </div>","null","","","","","","","","","","","",""
"","","","","","html-button-response","85","326002","0.0-85.0","18E1996B15B84267BC302904369C8A2D","019cfc33-7eee-756a-8101-f5c7566b8a52","019cfc28-2143-7934-89cc-ce6402563331","","796","
                <div class=""stimulus-container"">
                    <img src=""images/schematic_sequence/supermarket_scheme/supermarket_scheme_3.png"" class=""exp-image"">
                    <div class=""question-area"">
                        <p style=""font-size: 20px; font-weight: bold; margin: 0;"">Is there a person in this image?</p>
                    </div>
                </div>","1","main_experiment_trial","3","supermarket_scheme","schematic_sequence","chronological","","","","","","",""
"","","","","","html-keyboard-response","86","331004","0.0-86.0","18E1996B15B84267BC302904369C8A2D","019cfc33-7eee-756a-8101-f5c7566b8a52","019cfc28-2143-7934-89cc-ce6402563331","","null","
                <div class=""stimulus-container"">
                    <img src=""images/schematic_sequence/supermarket_scheme/supermarket_scheme_4.png"" class=""exp-image"">
                    <div class=""question-area""></div> 
                </div>","null","","","","","","","","","","","",""
"","","","","","html-button-response","87","333485","0.0-87.0","18E1996B15B84267BC302904369C8A2D","019cfc33-7eee-756a-8101-f5c7566b8a52","019cfc28-2143-7934-89cc-ce6402563331","","2479","
                <div class=""stimulus-container"">
                    <img src=""images/schematic_sequence/supermarket_scheme/supermarket_scheme_4.png"" class=""exp-image"">
                    <div class=""question-area"">
                        <p style=""font-size: 20px; font-weight: bold; margin: 0;"">Is there a person in this image?</p>
                    </div>
                </div>","0","main_experiment_trial","4","supermarket_scheme","schematic_sequence","chronological","","","","","","",""
"","","","","","html-keyboard-response","88","338488","0.0-88.0","18E1996B15B84267BC302904369C8A2D","019cfc33-7eee-756a-8101-f5c7566b8a52","019cfc28-2143-7934-89cc-ce6402563331","","null","
                <div class=""stimulus-container"">
                    <img src=""images/schematic_sequence/supermarket_scheme/supermarket_scheme_5.png"" class=""exp-image"">
                    <div class=""question-area""></div> 
                </div>","null","","","","","","","","","","","",""
"","","","","","html-button-response","89","340268","0.0-89.0","18E1996B15B84267BC302904369C8A2D","019cfc33-7eee-756a-8101-f5c7566b8a52","019cfc28-2143-7934-89cc-ce6402563331","","1778","
                <div class=""stimulus-container"">
                    <img src=""images/schematic_sequence/supermarket_scheme/supermarket_scheme_5.png"" class=""exp-image"">
                    <div class=""question-area"">
                        <p style=""font-size: 20px; font-weight: bold; margin: 0;"">Is there a person in this image?</p>
                    </div>
                </div>","1","main_experiment_trial","5","supermarket_scheme","schematic_sequence","chronological","","","","","","",""
"","","","","","html-keyboard-response","90","345271","0.0-90.0","18E1996B15B84267BC302904369C8A2D","019cfc33-7eee-756a-8101-f5c7566b8a52","019cfc28-2143-7934-89cc-ce6402563331","","null","
                <div class=""stimulus-container"">
                    <img src=""images/schematic_sequence/supermarket_scheme/supermarket_scheme_6.png"" class=""exp-image"">
                    <div class=""question-area""></div> 
                </div>","null","","","","","","","","","","","",""
"","","","","","html-button-response","91","346151","0.0-91.0","18E1996B15B84267BC302904369C8A2D","019cfc33-7eee-756a-8101-f5c7566b8a52","019cfc28-2143-7934-89cc-ce6402563331","","879","
                <div class=""stimulus-container"">
                    <img src=""images/schematic_sequence/supermarket_scheme/supermarket_scheme_6.png"" class=""exp-image"">
                    <div class=""question-area"">
                        <p style=""font-size: 20px; font-weight: bold; margin: 0;"">Is there a person in this image?</p>
                    </div>
                </div>","0","main_experiment_trial","6","supermarket_scheme","schematic_sequence","chronological","","","","","","",""
"","","","","","html-keyboard-response","92","351154","0.0-92.0","18E1996B15B84267BC302904369C8A2D","019cfc33-7eee-756a-8101-f5c7566b8a52","019cfc28-2143-7934-89cc-ce6402563331","","null","
                <div class=""stimulus-container"">
                    <img src=""images/schematic_sequence/supermarket_scheme/supermarket_scheme_7.png"" class=""exp-image"">
                    <div class=""question-area""></div> 
                </div>","null","","","","","","","","","","","",""
"","","","","","html-button-response","93","351851","0.0-93.0","18E1996B15B84267BC302904369C8A2D","019cfc33-7eee-756a-8101-f5c7566b8a52","019cfc28-2143-7934-89cc-ce6402563331","","696","
                <div class=""stimulus-container"">
                    <img src=""images/schematic_sequence/supermarket_scheme/supermarket_scheme_7.png"" class=""exp-image"">
                    <div class=""question-area"">
                        <p style=""font-size: 20px; font-weight: bold; margin: 0;"">Is there a person in this image?</p>
                    </div>
                </div>","0","main_experiment_trial","7","supermarket_scheme","schematic_sequence","chronological","","","","","","",""
"","","","","","html-keyboard-response","94","356854","0.0-94.0","18E1996B15B84267BC302904369C8A2D","019cfc33-7eee-756a-8101-f5c7566b8a52","019cfc28-2143-7934-89cc-ce6402563331","","null","
                <div class=""stimulus-container"">
                    <img src=""images/schematic_sequence/supermarket_scheme/supermarket_scheme_8.png"" class=""exp-image"">
                    <div class=""question-area""></div> 
                </div>","null","","","","","","","","","","","",""
"","","","","","html-button-response","95","357685","0.0-95.0","18E1996B15B84267BC302904369C8A2D","019cfc33-7eee-756a-8101-f5c7566b8a52","019cfc28-2143-7934-89cc-ce6402563331","","830","
                <div class=""stimulus-container"">
                    <img src=""images/schematic_sequence/supermarket_scheme/supermarket_scheme_8.png"" class=""exp-image"">
                    <div class=""question-area"">
                        <p style=""font-size: 20px; font-weight: bold; margin: 0;"">Is there a person in this image?</p>
                    </div>
                </div>","0","main_experiment_trial","8","supermarket_scheme","schematic_sequence","chronological","","","","","","",""
"","","","","","html-keyboard-response","96","362688","0.0-96.0","18E1996B15B84267BC302904369C8A2D","019cfc33-7eee-756a-8101-f5c7566b8a52","019cfc28-2143-7934-89cc-ce6402563331","","null","
                <div class=""stimulus-container"">
                    <img src=""images/schematic_sequence/supermarket_scheme/supermarket_scheme_9.png"" class=""exp-image"">
                    <div class=""question-area""></div> 
                </div>","null","","","","","","","","","","","",""
"","","","","","html-button-response","97","363785","0.0-97.0","18E1996B15B84267BC302904369C8A2D","019cfc33-7eee-756a-8101-f5c7566b8a52","019cfc28-2143-7934-89cc-ce6402563331","","1095","
                <div class=""stimulus-container"">
                    <img src=""images/schematic_sequence/supermarket_scheme/supermarket_scheme_9.png"" class=""exp-image"">
                    <div class=""question-area"">
                        <p style=""font-size: 20px; font-weight: bold; margin: 0;"">Is there a person in this image?</p>
                    </div>
                </div>","0","main_experiment_trial","9","supermarket_scheme","schematic_sequence","chronological","","","","","","",""
"","","","","","html-keyboard-response","98","368788","0.0-98.0","18E1996B15B84267BC302904369C8A2D","019cfc33-7eee-756a-8101-f5c7566b8a52","019cfc28-2143-7934-89cc-ce6402563331","","null","
                <div class=""stimulus-container"">
                    <img src=""images/schematic_sequence/supermarket_scheme/supermarket_scheme_ten.png"" class=""exp-image"">
                    <div class=""question-area""></div> 
                </div>","null","","","","","","","","","","","",""
"","","","","","html-button-response","99","369719","0.0-99.0","18E1996B15B84267BC302904369C8A2D","019cfc33-7eee-756a-8101-f5c7566b8a52","019cfc28-2143-7934-89cc-ce6402563331","","929","
                <div class=""stimulus-container"">
                    <img src=""images/schematic_sequence/supermarket_scheme/supermarket_scheme_ten.png"" class=""exp-image"">
                    <div class=""question-area"">
                        <p style=""font-size: 20px; font-weight: bold; margin: 0;"">Is there a person in this image?</p>
                    </div>
                </div>","1","main_experiment_trial","ten","supermarket_scheme","schematic_sequence","chronological","","","","","","",""
"","","","","","html-keyboard-response","100","374721","0.0-100.0","18E1996B15B84267BC302904369C8A2D","019cfc33-7eee-756a-8101-f5c7566b8a52","019cfc28-2143-7934-89cc-ce6402563331","","null","<div style=""background-color: white; width: 100vw; height: 100vh;""></div>","null","","","","","","","","","","","",""
"","","","","","html-keyboard-response","101","379725","0.0-101.0","18E1996B15B84267BC302904369C8A2D","019cfc33-7eee-756a-8101-f5c7566b8a52","019cfc28-2143-7934-89cc-ce6402563331","","null","
                <div class=""stimulus-container"">
                    <img src=""images/semantic_sequence/visiting_cities_semantic/visiting_cities_semantic_1.png"" class=""exp-image"">
                    <div class=""question-area""></div> 
                </div>","null","","","","","","","","","","","",""
"","","","","","html-button-response","102","381685","0.0-102.0","18E1996B15B84267BC302904369C8A2D","019cfc33-7eee-756a-8101-f5c7566b8a52","019cfc28-2143-7934-89cc-ce6402563331","","1959","
                <div class=""stimulus-container"">
                    <img src=""images/semantic_sequence/visiting_cities_semantic/visiting_cities_semantic_1.png"" class=""exp-image"">
                    <div class=""question-area"">
                        <p style=""font-size: 20px; font-weight: bold; margin: 0;"">Is there a person in this image?</p>
                    </div>
                </div>","0","main_experiment_trial","1","visiting_cities_semantic","semantic_sequence","chronological","","","","","","",""
"","","","","","html-keyboard-response","103","386688","0.0-103.0","18E1996B15B84267BC302904369C8A2D","019cfc33-7eee-756a-8101-f5c7566b8a52","019cfc28-2143-7934-89cc-ce6402563331","","null","
                <div class=""stimulus-container"">
                    <img src=""images/semantic_sequence/visiting_cities_semantic/visiting_cities_semantic_2.png"" class=""exp-image"">
                    <div class=""question-area""></div> 
                </div>","null","","","","","","","","","","","",""
"","","","","","html-button-response","104","387352","0.0-104.0","18E1996B15B84267BC302904369C8A2D","019cfc33-7eee-756a-8101-f5c7566b8a52","019cfc28-2143-7934-89cc-ce6402563331","","662","
                <div class=""stimulus-container"">
                    <img src=""images/semantic_sequence/visiting_cities_semantic/visiting_cities_semantic_2.png"" class=""exp-image"">
                    <div class=""question-area"">
                        <p style=""font-size: 20px; font-weight: bold; margin: 0;"">Is there a person in this image?</p>
                    </div>
                </div>","1","main_experiment_trial","2","visiting_cities_semantic","semantic_sequence","chronological","","","","","","",""
"","","","","","html-keyboard-response","105","392354","0.0-105.0","18E1996B15B84267BC302904369C8A2D","019cfc33-7eee-756a-8101-f5c7566b8a52","019cfc28-2143-7934-89cc-ce6402563331","","null","
                <div class=""stimulus-container"">
                    <img src=""images/semantic_sequence/visiting_cities_semantic/visiting_cities_semantic_3.png"" class=""exp-image"">
                    <div class=""question-area""></div> 
                </div>","null","","","","","","","","","","","",""
"","","","","","html-button-response","106","393452","0.0-106.0","18E1996B15B84267BC302904369C8A2D","019cfc33-7eee-756a-8101-f5c7566b8a52","019cfc28-2143-7934-89cc-ce6402563331","","1096","
                <div class=""stimulus-container"">
                    <img src=""images/semantic_sequence/visiting_cities_semantic/visiting_cities_semantic_3.png"" class=""exp-image"">
                    <div class=""question-area"">
                        <p style=""font-size: 20px; font-weight: bold; margin: 0;"">Is there a person in this image?</p>
                    </div>
                </div>","1","main_experiment_trial","3","visiting_cities_semantic","semantic_sequence","chronological","","","","","","",""
"","","","","","html-keyboard-response","107","398455","0.0-107.0","18E1996B15B84267BC302904369C8A2D","019cfc33-7eee-756a-8101-f5c7566b8a52","019cfc28-2143-7934-89cc-ce6402563331","","null","
                <div class=""stimulus-container"">
                    <img src=""images/semantic_sequence/visiting_cities_semantic/visiting_cities_semantic_4.png"" class=""exp-image"">
                    <div class=""question-area""></div> 
                </div>","null","","","","","","","","","","","",""
"","","","","","html-button-response","108","401458","0.0-108.0","18E1996B15B84267BC302904369C8A2D","019cfc33-7eee-756a-8101-f5c7566b8a52","019cfc28-2143-7934-89cc-ce6402563331","","null","
                <div class=""stimulus-container"">
                    <img src=""images/semantic_sequence/visiting_cities_semantic/visiting_cities_semantic_4.png"" class=""exp-image"">
                    <div class=""question-area"">
                        <p style=""font-size: 20px; font-weight: bold; margin: 0;"">Is there a person in this image?</p>
                    </div>
                </div>","null","main_experiment_trial","4","visiting_cities_semantic","semantic_sequence","chronological","","","","","","",""
"","","","","","html-keyboard-response","109","406460","0.0-109.0","18E1996B15B84267BC302904369C8A2D","019cfc33-7eee-756a-8101-f5c7566b8a52","019cfc28-2143-7934-89cc-ce6402563331","","null","
                <div class=""stimulus-container"">
                    <img src=""images/semantic_sequence/visiting_cities_semantic/visiting_cities_semantic_5.png"" class=""exp-image"">
                    <div class=""question-area""></div> 
                </div>","null","","","","","","","","","","","",""
"","","","","","html-button-response","110","407968","0.0-110.0","18E1996B15B84267BC302904369C8A2D","019cfc33-7eee-756a-8101-f5c7566b8a52","019cfc28-2143-7934-89cc-ce6402563331","","1506","
                <div class=""stimulus-container"">
                    <img src=""images/semantic_sequence/visiting_cities_semantic/visiting_cities_semantic_5.png"" class=""exp-image"">
                    <div class=""question-area"">
                        <p style=""font-size: 20px; font-weight: bold; margin: 0;"">Is there a person in this image?</p>
                    </div>
                </div>","1","main_experiment_trial","5","visiting_cities_semantic","semantic_sequence","chronological","","","","","","",""
"","","","","","html-keyboard-response","111","412971","0.0-111.0","18E1996B15B84267BC302904369C8A2D","019cfc33-7eee-756a-8101-f5c7566b8a52","019cfc28-2143-7934-89cc-ce6402563331","","null","
                <div class=""stimulus-container"">
                    <img src=""images/semantic_sequence/visiting_cities_semantic/visiting_cities_semantic_6.png"" class=""exp-image"">
                    <div class=""question-area""></div> 
                </div>","null","","","","","","","","","","","",""
"","","","","","html-button-response","112","413585","0.0-112.0","18E1996B15B84267BC302904369C8A2D","019cfc33-7eee-756a-8101-f5c7566b8a52","019cfc28-2143-7934-89cc-ce6402563331","","612","
                <div class=""stimulus-container"">
                    <img src=""images/semantic_sequence/visiting_cities_semantic/visiting_cities_semantic_6.png"" class=""exp-image"">
                    <div class=""question-area"">
                        <p style=""font-size: 20px; font-weight: bold; margin: 0;"">Is there a person in this image?</p>
                    </div>
                </div>","1","main_experiment_trial","6","visiting_cities_semantic","semantic_sequence","chronological","","","","","","",""
"","","","","","html-keyboard-response","113","418588","0.0-113.0","18E1996B15B84267BC302904369C8A2D","019cfc33-7eee-756a-8101-f5c7566b8a52","019cfc28-2143-7934-89cc-ce6402563331","","null","
                <div class=""stimulus-container"">
                    <img src=""images/semantic_sequence/visiting_cities_semantic/visiting_cities_semantic_7.png"" class=""exp-image"">
                    <div class=""question-area""></div> 
                </div>","null","","","","","","","","","","","",""
"","","","","","html-button-response","114","421590","0.0-114.0","18E1996B15B84267BC302904369C8A2D","019cfc33-7eee-756a-8101-f5c7566b8a52","019cfc28-2143-7934-89cc-ce6402563331","","null","
                <div class=""stimulus-container"">
                    <img src=""images/semantic_sequence/visiting_cities_semantic/visiting_cities_semantic_7.png"" class=""exp-image"">
                    <div class=""question-area"">
                        <p style=""font-size: 20px; font-weight: bold; margin: 0;"">Is there a person in this image?</p>
                    </div>
                </div>","null","main_experiment_trial","7","visiting_cities_semantic","semantic_sequence","chronological","","","","","","",""
"","","","","","html-keyboard-response","115","426593","0.0-115.0","18E1996B15B84267BC302904369C8A2D","019cfc33-7eee-756a-8101-f5c7566b8a52","019cfc28-2143-7934-89cc-ce6402563331","","null","
                <div class=""stimulus-container"">
                    <img src=""images/semantic_sequence/visiting_cities_semantic/visiting_cities_semantic_8.png"" class=""exp-image"">
                    <div class=""question-area""></div> 
                </div>","null","","","","","","","","","","","",""
"","","","","","html-button-response","116","427619","0.0-116.0","18E1996B15B84267BC302904369C8A2D","019cfc33-7eee-756a-8101-f5c7566b8a52","019cfc28-2143-7934-89cc-ce6402563331","","1024","
                <div class=""stimulus-container"">
                    <img src=""images/semantic_sequence/visiting_cities_semantic/visiting_cities_semantic_8.png"" class=""exp-image"">
                    <div class=""question-area"">
                        <p style=""font-size: 20px; font-weight: bold; margin: 0;"">Is there a person in this image?</p>
                    </div>
                </div>","1","main_experiment_trial","8","visiting_cities_semantic","semantic_sequence","chronological","","","","","","",""
"","","","","","html-keyboard-response","117","432621","0.0-117.0","18E1996B15B84267BC302904369C8A2D","019cfc33-7eee-756a-8101-f5c7566b8a52","019cfc28-2143-7934-89cc-ce6402563331","","null","
                <div class=""stimulus-container"">
                    <img src=""images/semantic_sequence/visiting_cities_semantic/visiting_cities_semantic_9.png"" class=""exp-image"">
                    <div class=""question-area""></div> 
                </div>","null","","","","","","","","","","","",""
"","","","","","html-button-response","118","434052","0.0-118.0","18E1996B15B84267BC302904369C8A2D","019cfc33-7eee-756a-8101-f5c7566b8a52","019cfc28-2143-7934-89cc-ce6402563331","","1429","
                <div class=""stimulus-container"">
                    <img src=""images/semantic_sequence/visiting_cities_semantic/visiting_cities_semantic_9.png"" class=""exp-image"">
                    <div class=""question-area"">
                        <p style=""font-size: 20px; font-weight: bold; margin: 0;"">Is there a person in this image?</p>
                    </div>
                </div>","1","main_experiment_trial","9","visiting_cities_semantic","semantic_sequence","chronological","","","","","","",""
"","","","","","html-keyboard-response","119","439054","0.0-119.0","18E1996B15B84267BC302904369C8A2D","019cfc33-7eee-756a-8101-f5c7566b8a52","019cfc28-2143-7934-89cc-ce6402563331","","null","
                <div class=""stimulus-container"">
                    <img src=""images/semantic_sequence/visiting_cities_semantic/visiting_cities_semantic_ten.png"" class=""exp-image"">
                    <div class=""question-area""></div> 
                </div>","null","","","","","","","","","","","",""
"","","","","","html-button-response","120","440519","0.0-120.0","18E1996B15B84267BC302904369C8A2D","019cfc33-7eee-756a-8101-f5c7566b8a52","019cfc28-2143-7934-89cc-ce6402563331","","1463","
                <div class=""stimulus-container"">
                    <img src=""images/semantic_sequence/visiting_cities_semantic/visiting_cities_semantic_ten.png"" class=""exp-image"">
                    <div class=""question-area"">
                        <p style=""font-size: 20px; font-weight: bold; margin: 0;"">Is there a person in this image?</p>
                    </div>
                </div>","1","main_experiment_trial","ten","visiting_cities_semantic","semantic_sequence","chronological","","","","","","",""
"","","","","","html-keyboard-response","121","445522","0.0-121.0","18E1996B15B84267BC302904369C8A2D","019cfc33-7eee-756a-8101-f5c7566b8a52","019cfc28-2143-7934-89cc-ce6402563331","","null","<div style=""background-color: white; width: 100vw; height: 100vh;""></div>","null","","","","","","","","","","","",""
"","","","","","html-keyboard-response","122","450523","0.0-122.0","18E1996B15B84267BC302904369C8A2D","019cfc33-7eee-756a-8101-f5c7566b8a52","019cfc28-2143-7934-89cc-ce6402563331","","null","
                <div class=""stimulus-container"">
                    <img src=""images/semantic_sequence/redecorating_a_house_semantic/redecorating_a_house_semantic_1.png"" class=""exp-image"">
                    <div class=""question-area""></div> 
                </div>","null","","","","","","","","","","","",""
"","","","","","html-button-response","123","451402","0.0-123.0","18E1996B15B84267BC302904369C8A2D","019cfc33-7eee-756a-8101-f5c7566b8a52","019cfc28-2143-7934-89cc-ce6402563331","","877","
                <div class=""stimulus-container"">
                    <img src=""images/semantic_sequence/redecorating_a_house_semantic/redecorating_a_house_semantic_1.png"" class=""exp-image"">
                    <div class=""question-area"">
                        <p style=""font-size: 20px; font-weight: bold; margin: 0;"">Is there a person in this image?</p>
                    </div>
                </div>","0","main_experiment_trial","1","redecorating_a_house_semantic","semantic_sequence","chronological","","","","","","",""
"","","","","","html-keyboard-response","124","456405","0.0-124.0","18E1996B15B84267BC302904369C8A2D","019cfc33-7eee-756a-8101-f5c7566b8a52","019cfc28-2143-7934-89cc-ce6402563331","","null","
                <div class=""stimulus-container"">
                    <img src=""images/semantic_sequence/redecorating_a_house_semantic/redecorating_a_house_semantic_2.png"" class=""exp-image"">
                    <div class=""question-area""></div> 
                </div>","null","","","","","","","","","","","",""
"","","","","","html-button-response","125","457585","0.0-125.0","18E1996B15B84267BC302904369C8A2D","019cfc33-7eee-756a-8101-f5c7566b8a52","019cfc28-2143-7934-89cc-ce6402563331","","1178","
                <div class=""stimulus-container"">
                    <img src=""images/semantic_sequence/redecorating_a_house_semantic/redecorating_a_house_semantic_2.png"" class=""exp-image"">
                    <div class=""question-area"">
                        <p style=""font-size: 20px; font-weight: bold; margin: 0;"">Is there a person in this image?</p>
                    </div>
                </div>","0","main_experiment_trial","2","redecorating_a_house_semantic","semantic_sequence","chronological","","","","","","",""
"","","","","","html-keyboard-response","126","462588","0.0-126.0","18E1996B15B84267BC302904369C8A2D","019cfc33-7eee-756a-8101-f5c7566b8a52","019cfc28-2143-7934-89cc-ce6402563331","","null","
                <div class=""stimulus-container"">
                    <img src=""images/semantic_sequence/redecorating_a_house_semantic/redecorating_a_house_semantic_3.png"" class=""exp-image"">
                    <div class=""question-area""></div> 
                </div>","null","","","","","","","","","","","",""
"","","","","","html-button-response","127","464068","0.0-127.0","18E1996B15B84267BC302904369C8A2D","019cfc33-7eee-756a-8101-f5c7566b8a52","019cfc28-2143-7934-89cc-ce6402563331","","1479","
                <div class=""stimulus-container"">
                    <img src=""images/semantic_sequence/redecorating_a_house_semantic/redecorating_a_house_semantic_3.png"" class=""exp-image"">
                    <div class=""question-area"">
                        <p style=""font-size: 20px; font-weight: bold; margin: 0;"">Is there a person in this image?</p>
                    </div>
                </div>","0","main_experiment_trial","3","redecorating_a_house_semantic","semantic_sequence","chronological","","","","","","",""
"","","","","","html-keyboard-response","128","469071","0.0-128.0","18E1996B15B84267BC302904369C8A2D","019cfc33-7eee-756a-8101-f5c7566b8a52","019cfc28-2143-7934-89cc-ce6402563331","","null","
                <div class=""stimulus-container"">
                    <img src=""images/semantic_sequence/redecorating_a_house_semantic/redecorating_a_house_semantic_4.png"" class=""exp-image"">
                    <div class=""question-area""></div> 
                </div>","null","","","","","","","","","","","",""
"","","","","","html-button-response","129","470918","0.0-129.0","18E1996B15B84267BC302904369C8A2D","019cfc33-7eee-756a-8101-f5c7566b8a52","019cfc28-2143-7934-89cc-ce6402563331","","1846","
                <div class=""stimulus-container"">
                    <img src=""images/semantic_sequence/redecorating_a_house_semantic/redecorating_a_house_semantic_4.png"" class=""exp-image"">
                    <div class=""question-area"">
                        <p style=""font-size: 20px; font-weight: bold; margin: 0;"">Is there a person in this image?</p>
                    </div>
                </div>","0","main_experiment_trial","4","redecorating_a_house_semantic","semantic_sequence","chronological","","","","","","",""
"","","","","","html-keyboard-response","130","475922","0.0-130.0","18E1996B15B84267BC302904369C8A2D","019cfc33-7eee-756a-8101-f5c7566b8a52","019cfc28-2143-7934-89cc-ce6402563331","","null","
                <div class=""stimulus-container"">
                    <img src=""images/semantic_sequence/redecorating_a_house_semantic/redecorating_a_house_semantic_5.png"" class=""exp-image"">
                    <div class=""question-area""></div> 
                </div>","null","","","","","","","","","","","",""
"","","","","","html-button-response","131","478552","0.0-131.0","18E1996B15B84267BC302904369C8A2D","019cfc33-7eee-756a-8101-f5c7566b8a52","019cfc28-2143-7934-89cc-ce6402563331","","2629","
                <div class=""stimulus-container"">
                    <img src=""images/semantic_sequence/redecorating_a_house_semantic/redecorating_a_house_semantic_5.png"" class=""exp-image"">
                    <div class=""question-area"">
                        <p style=""font-size: 20px; font-weight: bold; margin: 0;"">Is there a person in this image?</p>
                    </div>
                </div>","0","main_experiment_trial","5","redecorating_a_house_semantic","semantic_sequence","chronological","","","","","","",""
"","","","","","html-keyboard-response","132","483555","0.0-132.0","18E1996B15B84267BC302904369C8A2D","019cfc33-7eee-756a-8101-f5c7566b8a52","019cfc28-2143-7934-89cc-ce6402563331","","null","
                <div class=""stimulus-container"">
                    <img src=""images/semantic_sequence/redecorating_a_house_semantic/redecorating_a_house_semantic_6.png"" class=""exp-image"">
                    <div class=""question-area""></div> 
                </div>","null","","","","","","","","","","","",""
"","","","","","html-button-response","133","485485","0.0-133.0","18E1996B15B84267BC302904369C8A2D","019cfc33-7eee-756a-8101-f5c7566b8a52","019cfc28-2143-7934-89cc-ce6402563331","","1929","
                <div class=""stimulus-container"">
                    <img src=""images/semantic_sequence/redecorating_a_house_semantic/redecorating_a_house_semantic_6.png"" class=""exp-image"">
                    <div class=""question-area"">
                        <p style=""font-size: 20px; font-weight: bold; margin: 0;"">Is there a person in this image?</p>
                    </div>
                </div>","0","main_experiment_trial","6","redecorating_a_house_semantic","semantic_sequence","chronological","","","","","","",""
"","","","","","html-keyboard-response","134","490487","0.0-134.0","18E1996B15B84267BC302904369C8A2D","019cfc33-7eee-756a-8101-f5c7566b8a52","019cfc28-2143-7934-89cc-ce6402563331","","null","
                <div class=""stimulus-container"">
                    <img src=""images/semantic_sequence/redecorating_a_house_semantic/redecorating_a_house_semantic_7.png"" class=""exp-image"">
                    <div class=""question-area""></div> 
                </div>","null","","","","","","","","","","","",""
"","","","","","html-button-response","135","492135","0.0-135.0","18E1996B15B84267BC302904369C8A2D","019cfc33-7eee-756a-8101-f5c7566b8a52","019cfc28-2143-7934-89cc-ce6402563331","","1646","
                <div class=""stimulus-container"">
                    <img src=""images/semantic_sequence/redecorating_a_house_semantic/redecorating_a_house_semantic_7.png"" class=""exp-image"">
                    <div class=""question-area"">
                        <p style=""font-size: 20px; font-weight: bold; margin: 0;"">Is there a person in this image?</p>
                    </div>
                </div>","0","main_experiment_trial","7","redecorating_a_house_semantic","semantic_sequence","chronological","","","","","","",""
"","","","","","html-keyboard-response","136","497138","0.0-136.0","18E1996B15B84267BC302904369C8A2D","019cfc33-7eee-756a-8101-f5c7566b8a52","019cfc28-2143-7934-89cc-ce6402563331","","null","
                <div class=""stimulus-container"">
                    <img src=""images/semantic_sequence/redecorating_a_house_semantic/redecorating_a_house_semantic_8.png"" class=""exp-image"">
                    <div class=""question-area""></div> 
                </div>","null","","","","","","","","","","","",""
"","","","","","html-button-response","137","499552","0.0-137.0","18E1996B15B84267BC302904369C8A2D","019cfc33-7eee-756a-8101-f5c7566b8a52","019cfc28-2143-7934-89cc-ce6402563331","","2412","
                <div class=""stimulus-container"">
                    <img src=""images/semantic_sequence/redecorating_a_house_semantic/redecorating_a_house_semantic_8.png"" class=""exp-image"">
                    <div class=""question-area"">
                        <p style=""font-size: 20px; font-weight: bold; margin: 0;"">Is there a person in this image?</p>
                    </div>
                </div>","0","main_experiment_trial","8","redecorating_a_house_semantic","semantic_sequence","chronological","","","","","","",""
"","","","","","html-keyboard-response","138","504555","0.0-138.0","18E1996B15B84267BC302904369C8A2D","019cfc33-7eee-756a-8101-f5c7566b8a52","019cfc28-2143-7934-89cc-ce6402563331","","null","
                <div class=""stimulus-container"">
                    <img src=""images/semantic_sequence/redecorating_a_house_semantic/redecorating_a_house_semantic_9.png"" class=""exp-image"">
                    <div class=""question-area""></div> 
                </div>","null","","","","","","","","","","","",""
"","","","","","html-button-response","139","507485","0.0-139.0","18E1996B15B84267BC302904369C8A2D","019cfc33-7eee-756a-8101-f5c7566b8a52","019cfc28-2143-7934-89cc-ce6402563331","","2928","
                <div class=""stimulus-container"">
                    <img src=""images/semantic_sequence/redecorating_a_house_semantic/redecorating_a_house_semantic_9.png"" class=""exp-image"">
                    <div class=""question-area"">
                        <p style=""font-size: 20px; font-weight: bold; margin: 0;"">Is there a person in this image?</p>
                    </div>
                </div>","0","main_experiment_trial","9","redecorating_a_house_semantic","semantic_sequence","chronological","","","","","","",""
"","","","","","html-keyboard-response","140","512487","0.0-140.0","18E1996B15B84267BC302904369C8A2D","019cfc33-7eee-756a-8101-f5c7566b8a52","019cfc28-2143-7934-89cc-ce6402563331","","null","
                <div class=""stimulus-container"">
                    <img src=""images/semantic_sequence/redecorating_a_house_semantic/redecorating_a_house_semantic_ten.png"" class=""exp-image"">
                    <div class=""question-area""></div> 
                </div>","null","","","","","","","","","","","",""
"","","","","","html-button-response","141","514535","0.0-141.0","18E1996B15B84267BC302904369C8A2D","019cfc33-7eee-756a-8101-f5c7566b8a52","019cfc28-2143-7934-89cc-ce6402563331","","2046","
                <div class=""stimulus-container"">
                    <img src=""images/semantic_sequence/redecorating_a_house_semantic/redecorating_a_house_semantic_ten.png"" class=""exp-image"">
                    <div class=""question-area"">
                        <p style=""font-size: 20px; font-weight: bold; margin: 0;"">Is there a person in this image?</p>
                    </div>
                </div>","0","main_experiment_trial","ten","redecorating_a_house_semantic","semantic_sequence","chronological","","","","","","",""
"","","","","","html-keyboard-response","142","519538","0.0-142.0","18E1996B15B84267BC302904369C8A2D","019cfc33-7eee-756a-8101-f5c7566b8a52","019cfc28-2143-7934-89cc-ce6402563331","","null","<div style=""background-color: white; width: 100vw; height: 100vh;""></div>","null","","","","","","","","","","","",""
"","","","","","html-keyboard-response","143","524541","0.0-143.0","18E1996B15B84267BC302904369C8A2D","019cfc33-7eee-756a-8101-f5c7566b8a52","019cfc28-2143-7934-89cc-ce6402563331","","null","
                <div class=""stimulus-container"">
                    <img src=""images/semantic_sequence/market_semantic/market_semantic_1.png"" class=""exp-image"">
                    <div class=""question-area""></div> 
                </div>","null","","","","","","","","","","","",""
"","","","","","html-button-response","144","527544","0.0-144.0","18E1996B15B84267BC302904369C8A2D","019cfc33-7eee-756a-8101-f5c7566b8a52","019cfc28-2143-7934-89cc-ce6402563331","","null","
                <div class=""stimulus-container"">
                    <img src=""images/semantic_sequence/market_semantic/market_semantic_1.png"" class=""exp-image"">
                    <div class=""question-area"">
                        <p style=""font-size: 20px; font-weight: bold; margin: 0;"">Is there a person in this image?</p>
                    </div>
                </div>","null","main_experiment_trial","1","market_semantic","semantic_sequence","chronological","","","","","","",""
"","","","","","html-keyboard-response","145","532546","0.0-145.0","18E1996B15B84267BC302904369C8A2D","019cfc33-7eee-756a-8101-f5c7566b8a52","019cfc28-2143-7934-89cc-ce6402563331","","null","
                <div class=""stimulus-container"">
                    <img src=""images/semantic_sequence/market_semantic/market_semantic_2.png"" class=""exp-image"">
                    <div class=""question-area""></div> 
                </div>","null","","","","","","","","","","","",""
"","","","","","html-button-response","146","535518","0.0-146.0","18E1996B15B84267BC302904369C8A2D","019cfc33-7eee-756a-8101-f5c7566b8a52","019cfc28-2143-7934-89cc-ce6402563331","","2970","
                <div class=""stimulus-container"">
                    <img src=""images/semantic_sequence/market_semantic/market_semantic_2.png"" class=""exp-image"">
                    <div class=""question-area"">
                        <p style=""font-size: 20px; font-weight: bold; margin: 0;"">Is there a person in this image?</p>
                    </div>
                </div>","1","main_experiment_trial","2","market_semantic","semantic_sequence","chronological","","","","","","",""
"","","","","","html-keyboard-response","147","540521","0.0-147.0","18E1996B15B84267BC302904369C8A2D","019cfc33-7eee-756a-8101-f5c7566b8a52","019cfc28-2143-7934-89cc-ce6402563331","","null","
                <div class=""stimulus-container"">
                    <img src=""images/semantic_sequence/market_semantic/market_semantic_3.png"" class=""exp-image"">
                    <div class=""question-area""></div> 
                </div>","null","","","","","","","","","","","",""
"","","","","","html-button-response","148","541085","0.0-148.0","18E1996B15B84267BC302904369C8A2D","019cfc33-7eee-756a-8101-f5c7566b8a52","019cfc28-2143-7934-89cc-ce6402563331","","563","
                <div class=""stimulus-container"">
                    <img src=""images/semantic_sequence/market_semantic/market_semantic_3.png"" class=""exp-image"">
                    <div class=""question-area"">
                        <p style=""font-size: 20px; font-weight: bold; margin: 0;"">Is there a person in this image?</p>
                    </div>
                </div>","1","main_experiment_trial","3","market_semantic","semantic_sequence","chronological","","","","","","",""
"","","","","","html-keyboard-response","149","546089","0.0-149.0","18E1996B15B84267BC302904369C8A2D","019cfc33-7eee-756a-8101-f5c7566b8a52","019cfc28-2143-7934-89cc-ce6402563331","","null","
                <div class=""stimulus-container"">
                    <img src=""images/semantic_sequence/market_semantic/market_semantic_4.png"" class=""exp-image"">
                    <div class=""question-area""></div> 
                </div>","null","","","","","","","","","","","",""
"","","","","","html-button-response","150","547235","0.0-150.0","18E1996B15B84267BC302904369C8A2D","019cfc33-7eee-756a-8101-f5c7566b8a52","019cfc28-2143-7934-89cc-ce6402563331","","1145","
                <div class=""stimulus-container"">
                    <img src=""images/semantic_sequence/market_semantic/market_semantic_4.png"" class=""exp-image"">
                    <div class=""question-area"">
                        <p style=""font-size: 20px; font-weight: bold; margin: 0;"">Is there a person in this image?</p>
                    </div>
                </div>","0","main_experiment_trial","4","market_semantic","semantic_sequence","chronological","","","","","","",""
"","","","","","html-keyboard-response","151","552238","0.0-151.0","18E1996B15B84267BC302904369C8A2D","019cfc33-7eee-756a-8101-f5c7566b8a52","019cfc28-2143-7934-89cc-ce6402563331","","null","
                <div class=""stimulus-container"">
                    <img src=""images/semantic_sequence/market_semantic/market_semantic_5.png"" class=""exp-image"">
                    <div class=""question-area""></div> 
                </div>","null","","","","","","","","","","","",""
"","","","","","html-button-response","152","554569","0.0-152.0","18E1996B15B84267BC302904369C8A2D","019cfc33-7eee-756a-8101-f5c7566b8a52","019cfc28-2143-7934-89cc-ce6402563331","","2329","
                <div class=""stimulus-container"">
                    <img src=""images/semantic_sequence/market_semantic/market_semantic_5.png"" class=""exp-image"">
                    <div class=""question-area"">
                        <p style=""font-size: 20px; font-weight: bold; margin: 0;"">Is there a person in this image?</p>
                    </div>
                </div>","1","main_experiment_trial","5","market_semantic","semantic_sequence","chronological","","","","","","",""
"","","","","","html-keyboard-response","153","559571","0.0-153.0","18E1996B15B84267BC302904369C8A2D","019cfc33-7eee-756a-8101-f5c7566b8a52","019cfc28-2143-7934-89cc-ce6402563331","","null","
                <div class=""stimulus-container"">
                    <img src=""images/semantic_sequence/market_semantic/market_semantic_6.png"" class=""exp-image"">
                    <div class=""question-area""></div> 
                </div>","null","","","","","","","","","","","",""
"","","","","","html-button-response","154","560635","0.0-154.0","18E1996B15B84267BC302904369C8A2D","019cfc33-7eee-756a-8101-f5c7566b8a52","019cfc28-2143-7934-89cc-ce6402563331","","1062","
                <div class=""stimulus-container"">
                    <img src=""images/semantic_sequence/market_semantic/market_semantic_6.png"" class=""exp-image"">
                    <div class=""question-area"">
                        <p style=""font-size: 20px; font-weight: bold; margin: 0;"">Is there a person in this image?</p>
                    </div>
                </div>","0","main_experiment_trial","6","market_semantic","semantic_sequence","chronological","","","","","","",""
"","","","","","html-keyboard-response","155","565637","0.0-155.0","18E1996B15B84267BC302904369C8A2D","019cfc33-7eee-756a-8101-f5c7566b8a52","019cfc28-2143-7934-89cc-ce6402563331","","null","
                <div class=""stimulus-container"">
                    <img src=""images/semantic_sequence/market_semantic/market_semantic_7.png"" class=""exp-image"">
                    <div class=""question-area""></div> 
                </div>","null","","","","","","","","","","","",""
"","","","","","html-button-response","156","566885","0.0-156.0","18E1996B15B84267BC302904369C8A2D","019cfc33-7eee-756a-8101-f5c7566b8a52","019cfc28-2143-7934-89cc-ce6402563331","","1246","
                <div class=""stimulus-container"">
                    <img src=""images/semantic_sequence/market_semantic/market_semantic_7.png"" class=""exp-image"">
                    <div class=""question-area"">
                        <p style=""font-size: 20px; font-weight: bold; margin: 0;"">Is there a person in this image?</p>
                    </div>
                </div>","0","main_experiment_trial","7","market_semantic","semantic_sequence","chronological","","","","","","",""
"","","","","","html-keyboard-response","157","571888","0.0-157.0","18E1996B15B84267BC302904369C8A2D","019cfc33-7eee-756a-8101-f5c7566b8a52","019cfc28-2143-7934-89cc-ce6402563331","","null","
                <div class=""stimulus-container"">
                    <img src=""images/semantic_sequence/market_semantic/market_semantic_8.png"" class=""exp-image"">
                    <div class=""question-area""></div> 
                </div>","null","","","","","","","","","","","",""
"","","","","","html-button-response","158","573369","0.0-158.0","18E1996B15B84267BC302904369C8A2D","019cfc33-7eee-756a-8101-f5c7566b8a52","019cfc28-2143-7934-89cc-ce6402563331","","1479","
                <div class=""stimulus-container"">
                    <img src=""images/semantic_sequence/market_semantic/market_semantic_8.png"" class=""exp-image"">
                    <div class=""question-area"">
                        <p style=""font-size: 20px; font-weight: bold; margin: 0;"">Is there a person in this image?</p>
                    </div>
                </div>","0","main_experiment_trial","8","market_semantic","semantic_sequence","chronological","","","","","","",""
"","","","","","html-keyboard-response","159","578371","0.0-159.0","18E1996B15B84267BC302904369C8A2D","019cfc33-7eee-756a-8101-f5c7566b8a52","019cfc28-2143-7934-89cc-ce6402563331","","null","
                <div class=""stimulus-container"">
                    <img src=""images/semantic_sequence/market_semantic/market_semantic_9.png"" class=""exp-image"">
                    <div class=""question-area""></div> 
                </div>","null","","","","","","","","","","","",""
"","","","","","html-button-response","160","579652","0.0-160.0","18E1996B15B84267BC302904369C8A2D","019cfc33-7eee-756a-8101-f5c7566b8a52","019cfc28-2143-7934-89cc-ce6402563331","","1279","
                <div class=""stimulus-container"">
                    <img src=""images/semantic_sequence/market_semantic/market_semantic_9.png"" class=""exp-image"">
                    <div class=""question-area"">
                        <p style=""font-size: 20px; font-weight: bold; margin: 0;"">Is there a person in this image?</p>
                    </div>
                </div>","0","main_experiment_trial","9","market_semantic","semantic_sequence","chronological","","","","","","",""
"","","","","","html-keyboard-response","161","584655","0.0-161.0","18E1996B15B84267BC302904369C8A2D","019cfc33-7eee-756a-8101-f5c7566b8a52","019cfc28-2143-7934-89cc-ce6402563331","","null","
                <div class=""stimulus-container"">
                    <img src=""images/semantic_sequence/market_semantic/market_semantic_ten.png"" class=""exp-image"">
                    <div class=""question-area""></div> 
                </div>","null","","","","","","","","","","","",""
"","","","","","html-button-response","162","586518","0.0-162.0","18E1996B15B84267BC302904369C8A2D","019cfc33-7eee-756a-8101-f5c7566b8a52","019cfc28-2143-7934-89cc-ce6402563331","","1861","
                <div class=""stimulus-container"">
                    <img src=""images/semantic_sequence/market_semantic/market_semantic_ten.png"" class=""exp-image"">
                    <div class=""question-area"">
                        <p style=""font-size: 20px; font-weight: bold; margin: 0;"">Is there a person in this image?</p>
                    </div>
                </div>","1","main_experiment_trial","ten","market_semantic","semantic_sequence","chronological","","","","","","",""
"","","","","","html-keyboard-response","163","591520","0.0-163.0","18E1996B15B84267BC302904369C8A2D","019cfc33-7eee-756a-8101-f5c7566b8a52","019cfc28-2143-7934-89cc-ce6402563331","","null","<div style=""background-color: white; width: 100vw; height: 100vh;""></div>","null","","","","","","","","","","","",""
"","","","","","html-keyboard-response","164","596523","0.0-164.0","18E1996B15B84267BC302904369C8A2D","019cfc33-7eee-756a-8101-f5c7566b8a52","019cfc28-2143-7934-89cc-ce6402563331","","null","
                <div class=""stimulus-container"">
                    <img src=""images/schematic_sequence/hotel_scheme/hotel_scheme_1.png"" class=""exp-image"">
                    <div class=""question-area""></div> 
                </div>","null","","","","","","","","","","","",""
"","","","","","html-button-response","165","598118","0.0-165.0","18E1996B15B84267BC302904369C8A2D","019cfc33-7eee-756a-8101-f5c7566b8a52","019cfc28-2143-7934-89cc-ce6402563331","","1594","
                <div class=""stimulus-container"">
                    <img src=""images/schematic_sequence/hotel_scheme/hotel_scheme_1.png"" class=""exp-image"">
                    <div class=""question-area"">
                        <p style=""font-size: 20px; font-weight: bold; margin: 0;"">Is there a person in this image?</p>
                    </div>
                </div>","1","main_experiment_trial","1","hotel_scheme","schematic_sequence","chronological","","","","","","",""
"","","","","","html-keyboard-response","166","603121","0.0-166.0","18E1996B15B84267BC302904369C8A2D","019cfc33-7eee-756a-8101-f5c7566b8a52","019cfc28-2143-7934-89cc-ce6402563331","","null","
                <div class=""stimulus-container"">
                    <img src=""images/schematic_sequence/hotel_scheme/hotel_scheme_2.png"" class=""exp-image"">
                    <div class=""question-area""></div> 
                </div>","null","","","","","","","","","","","",""
"","","","","","html-button-response","167","604852","0.0-167.0","18E1996B15B84267BC302904369C8A2D","019cfc33-7eee-756a-8101-f5c7566b8a52","019cfc28-2143-7934-89cc-ce6402563331","","1729","
                <div class=""stimulus-container"">
                    <img src=""images/schematic_sequence/hotel_scheme/hotel_scheme_2.png"" class=""exp-image"">
                    <div class=""question-area"">
                        <p style=""font-size: 20px; font-weight: bold; margin: 0;"">Is there a person in this image?</p>
                    </div>
                </div>","0","main_experiment_trial","2","hotel_scheme","schematic_sequence","chronological","","","","","","",""
"","","","","","html-keyboard-response","168","609855","0.0-168.0","18E1996B15B84267BC302904369C8A2D","019cfc33-7eee-756a-8101-f5c7566b8a52","019cfc28-2143-7934-89cc-ce6402563331","","null","
                <div class=""stimulus-container"">
                    <img src=""images/schematic_sequence/hotel_scheme/hotel_scheme_3.png"" class=""exp-image"">
                    <div class=""question-area""></div> 
                </div>","null","","","","","","","","","","","",""
"","","","","","html-button-response","169","611319","0.0-169.0","18E1996B15B84267BC302904369C8A2D","019cfc33-7eee-756a-8101-f5c7566b8a52","019cfc28-2143-7934-89cc-ce6402563331","","1463","
                <div class=""stimulus-container"">
                    <img src=""images/schematic_sequence/hotel_scheme/hotel_scheme_3.png"" class=""exp-image"">
                    <div class=""question-area"">
                        <p style=""font-size: 20px; font-weight: bold; margin: 0;"">Is there a person in this image?</p>
                    </div>
                </div>","0","main_experiment_trial","3","hotel_scheme","schematic_sequence","chronological","","","","","","",""
"","","","","","html-keyboard-response","170","616322","0.0-170.0","18E1996B15B84267BC302904369C8A2D","019cfc33-7eee-756a-8101-f5c7566b8a52","019cfc28-2143-7934-89cc-ce6402563331","","null","
                <div class=""stimulus-container"">
                    <img src=""images/schematic_sequence/hotel_scheme/hotel_scheme_4.png"" class=""exp-image"">
                    <div class=""question-area""></div> 
                </div>","null","","","","","","","","","","","",""
"","","","","","html-button-response","171","617902","0.0-171.0","18E1996B15B84267BC302904369C8A2D","019cfc33-7eee-756a-8101-f5c7566b8a52","019cfc28-2143-7934-89cc-ce6402563331","","1578","
                <div class=""stimulus-container"">
                    <img src=""images/schematic_sequence/hotel_scheme/hotel_scheme_4.png"" class=""exp-image"">
                    <div class=""question-area"">
                        <p style=""font-size: 20px; font-weight: bold; margin: 0;"">Is there a person in this image?</p>
                    </div>
                </div>","1","main_experiment_trial","4","hotel_scheme","schematic_sequence","chronological","","","","","","",""
"","","","","","html-keyboard-response","172","622904","0.0-172.0","18E1996B15B84267BC302904369C8A2D","019cfc33-7eee-756a-8101-f5c7566b8a52","019cfc28-2143-7934-89cc-ce6402563331","","null","
                <div class=""stimulus-container"">
                    <img src=""images/schematic_sequence/hotel_scheme/hotel_scheme_5.png"" class=""exp-image"">
                    <div class=""question-area""></div> 
                </div>","null","","","","","","","","","","","",""
"","","","","","html-button-response","173","623785","0.0-173.0","18E1996B15B84267BC302904369C8A2D","019cfc33-7eee-756a-8101-f5c7566b8a52","019cfc28-2143-7934-89cc-ce6402563331","","879","
                <div class=""stimulus-container"">
                    <img src=""images/schematic_sequence/hotel_scheme/hotel_scheme_5.png"" class=""exp-image"">
                    <div class=""question-area"">
                        <p style=""font-size: 20px; font-weight: bold; margin: 0;"">Is there a person in this image?</p>
                    </div>
                </div>","0","main_experiment_trial","5","hotel_scheme","schematic_sequence","chronological","","","","","","",""
"","","","","","html-keyboard-response","174","628788","0.0-174.0","18E1996B15B84267BC302904369C8A2D","019cfc33-7eee-756a-8101-f5c7566b8a52","019cfc28-2143-7934-89cc-ce6402563331","","null","
                <div class=""stimulus-container"">
