"success","timeout","failed_images","failed_audio","failed_video","trial_type","trial_index","time_elapsed","internal_node_id","subject_id","study_id","session_id","view_history","rt","stimulus","response","task","image_index","folder","sequence_type","valuable_image_index","reward_type","correct_choice","chosen_image_index","target_X"
"true","false","[]","[]","[]","preload","0","12867","0.0-0.0","AE5BB3054A9A46FABF7249C579A08B44","019cf031-fe55-7072-b99c-0fc714c2d998","019ceff9-9f67-7034-9722-02cda2445e09","","","","","","","","","","","","",""
"","","","","","instructions","1","17361","0.0-1.0","AE5BB3054A9A46FABF7249C579A08B44","019cf031-fe55-7072-b99c-0fc714c2d998","019ceff9-9f67-7034-9722-02cda2445e09","[{""page_index"":0,""viewing_time"":4493}]","4494","","","","","","","","","","",""
"","","","","","instructions","2","19542","0.0-2.0","AE5BB3054A9A46FABF7249C579A08B44","019cf031-fe55-7072-b99c-0fc714c2d998","019ceff9-9f67-7034-9722-02cda2445e09","[{""page_index"":0,""viewing_time"":2180}]","2181","","","","","","","","","","",""
"true","","","","","fullscreen","3","1118806","0.0-3.0","AE5BB3054A9A46FABF7249C579A08B44","019cf031-fe55-7072-b99c-0fc714c2d998","019ceff9-9f67-7034-9722-02cda2445e09","","1098243","","","","","","","","","","",""
"","","","","","instructions","4","1605463","0.0-4.0","AE5BB3054A9A46FABF7249C579A08B44","019cf031-fe55-7072-b99c-0fc714c2d998","019ceff9-9f67-7034-9722-02cda2445e09","[{""page_index"":0,""viewing_time"":485888}]","485888","","","","","","","","","","",""
"","","","","","instructions","5","1611155","0.0-5.0","AE5BB3054A9A46FABF7249C579A08B44","019cf031-fe55-7072-b99c-0fc714c2d998","019ceff9-9f67-7034-9722-02cda2445e09","[{""page_index"":0,""viewing_time"":5691}]","5691","","","","","","","","","","",""
"","","","","","html-keyboard-response","6","1615156","0.0-6.0","AE5BB3054A9A46FABF7249C579A08B44","019cf031-fe55-7072-b99c-0fc714c2d998","019ceff9-9f67-7034-9722-02cda2445e09","","null","
                <div class=""stimulus-container"">
                    <img src=""images/instructions/movie_1.png"" class=""exp-image"">
                    <div class=""question-area""></div> 
                </div>","null","","","","","","","","",""
"","","","","","html-button-response","7","1617902","0.0-7.0","AE5BB3054A9A46FABF7249C579A08B44","019cf031-fe55-7072-b99c-0fc714c2d998","019ceff9-9f67-7034-9722-02cda2445e09","","2744","
                <div class=""stimulus-container"">
                    <img src=""images/instructions/movie_1.png"" class=""exp-image"">
                    <div class=""question-area"">
                        <p style=""font-size: 20px; font-weight: bold; margin: 0;"">Was there a person in this image?</p>
                    </div>
                </div>","0","example_question","1","","","","","","",""
"","","","","","html-keyboard-response","8","1621903","0.0-8.0","AE5BB3054A9A46FABF7249C579A08B44","019cf031-fe55-7072-b99c-0fc714c2d998","019ceff9-9f67-7034-9722-02cda2445e09","","null","
                <div class=""stimulus-container"">
                    <img src=""images/instructions/movie_2.png"" class=""exp-image"">
                    <div class=""question-area""></div> 
                </div>","null","","","","","","","","",""
"","","","","","html-button-response","9","1623082","0.0-9.0","AE5BB3054A9A46FABF7249C579A08B44","019cf031-fe55-7072-b99c-0fc714c2d998","019ceff9-9f67-7034-9722-02cda2445e09","","1178","
                <div class=""stimulus-container"">
                    <img src=""images/instructions/movie_2.png"" class=""exp-image"">
                    <div class=""question-area"">
                        <p style=""font-size: 20px; font-weight: bold; margin: 0;"">Was there a person in this image?</p>
                    </div>
                </div>","0","example_question","2","","","","","","",""
"","","","","","html-keyboard-response","10","1627084","0.0-10.0","AE5BB3054A9A46FABF7249C579A08B44","019cf031-fe55-7072-b99c-0fc714c2d998","019ceff9-9f67-7034-9722-02cda2445e09","","null","
                <div class=""stimulus-container"">
                    <img src=""images/instructions/movie_3.png"" class=""exp-image"">
                    <div class=""question-area""></div> 
                </div>","null","","","","","","","","",""
"","","","","","html-button-response","11","1628070","0.0-11.0","AE5BB3054A9A46FABF7249C579A08B44","019cf031-fe55-7072-b99c-0fc714c2d998","019ceff9-9f67-7034-9722-02cda2445e09","","985","
                <div class=""stimulus-container"">
                    <img src=""images/instructions/movie_3.png"" class=""exp-image"">
                    <div class=""question-area"">
                        <p style=""font-size: 20px; font-weight: bold; margin: 0;"">Was there a person in this image?</p>
                    </div>
                </div>","0","example_question","3","","","","","","",""
"","","","","","html-keyboard-response","12","1632072","0.0-12.0","AE5BB3054A9A46FABF7249C579A08B44","019cf031-fe55-7072-b99c-0fc714c2d998","019ceff9-9f67-7034-9722-02cda2445e09","","null","
                <div class=""stimulus-container"">
                    <img src=""images/instructions/movie_4.png"" class=""exp-image"">
                    <div class=""question-area""></div> 
                </div>","null","","","","","","","","",""
"","","","","","html-button-response","13","1635073","0.0-13.0","AE5BB3054A9A46FABF7249C579A08B44","019cf031-fe55-7072-b99c-0fc714c2d998","019ceff9-9f67-7034-9722-02cda2445e09","","null","
                <div class=""stimulus-container"">
                    <img src=""images/instructions/movie_4.png"" class=""exp-image"">
                    <div class=""question-area"">
                        <p style=""font-size: 20px; font-weight: bold; margin: 0;"">Was there a person in this image?</p>
                    </div>
                </div>","null","example_question","4","","","","","","",""
"","","","","","instructions","14","1646256","0.0-14.0","AE5BB3054A9A46FABF7249C579A08B44","019cf031-fe55-7072-b99c-0fc714c2d998","019ceff9-9f67-7034-9722-02cda2445e09","[{""page_index"":0,""viewing_time"":11183}]","11183","","","","","","","","","","",""
"","","","","","instructions","15","1648004","0.0-15.0","AE5BB3054A9A46FABF7249C579A08B44","019cf031-fe55-7072-b99c-0fc714c2d998","019ceff9-9f67-7034-9722-02cda2445e09","[{""page_index"":0,""viewing_time"":1747}]","1747","","","","","","","","","","",""
"","","","","","html-keyboard-response","16","1649005","0.0-16.0","AE5BB3054A9A46FABF7249C579A08B44","019cf031-fe55-7072-b99c-0fc714c2d998","019ceff9-9f67-7034-9722-02cda2445e09","","null","<div style=""background-color: white; width: 100vw; height: 100vh;""></div>","null","","","","","","","","",""
"","","","","","html-keyboard-response","17","1654007","0.0-17.0","AE5BB3054A9A46FABF7249C579A08B44","019cf031-fe55-7072-b99c-0fc714c2d998","019ceff9-9f67-7034-9722-02cda2445e09","","null","
                <div class=""stimulus-container"">
                    <img src=""images/schematic_sequence/interview_scheme/interview_scheme_1.png"" class=""exp-image"">
                    <div class=""question-area""></div> 
                </div>","null","","","","","","","","",""
"","","","","","html-button-response","18","1655117","0.0-18.0","AE5BB3054A9A46FABF7249C579A08B44","019cf031-fe55-7072-b99c-0fc714c2d998","019ceff9-9f67-7034-9722-02cda2445e09","","1108","
                <div class=""stimulus-container"">
                    <img src=""images/schematic_sequence/interview_scheme/interview_scheme_1.png"" class=""exp-image"">
                    <div class=""question-area"">
                        <p style=""font-size: 20px; font-weight: bold; margin: 0;"">Is there a person in this image?</p>
                    </div>
                </div>","1","main_experiment_trial","1","interview_scheme","schematic_sequence","","","","",""
"","","","","","html-keyboard-response","19","1660119","0.0-19.0","AE5BB3054A9A46FABF7249C579A08B44","019cf031-fe55-7072-b99c-0fc714c2d998","019ceff9-9f67-7034-9722-02cda2445e09","","null","
                <div class=""stimulus-container"">
                    <img src=""images/schematic_sequence/interview_scheme/interview_scheme_2.png"" class=""exp-image"">
                    <div class=""question-area""></div> 
                </div>","null","","","","","","","","",""
"","","","","","html-button-response","20","1661623","0.0-20.0","AE5BB3054A9A46FABF7249C579A08B44","019cf031-fe55-7072-b99c-0fc714c2d998","019ceff9-9f67-7034-9722-02cda2445e09","","1502","
                <div class=""stimulus-container"">
                    <img src=""images/schematic_sequence/interview_scheme/interview_scheme_2.png"" class=""exp-image"">
                    <div class=""question-area"">
                        <p style=""font-size: 20px; font-weight: bold; margin: 0;"">Is there a person in this image?</p>
                    </div>
                </div>","1","main_experiment_trial","2","interview_scheme","schematic_sequence","","","","",""
"","","","","","html-keyboard-response","21","1666625","0.0-21.0","AE5BB3054A9A46FABF7249C579A08B44","019cf031-fe55-7072-b99c-0fc714c2d998","019ceff9-9f67-7034-9722-02cda2445e09","","null","
                <div class=""stimulus-container"">
                    <img src=""images/schematic_sequence/interview_scheme/interview_scheme_3.png"" class=""exp-image"">
                    <div class=""question-area""></div> 
                </div>","null","","","","","","","","",""
"","","","","","html-button-response","22","1667716","0.0-22.0","AE5BB3054A9A46FABF7249C579A08B44","019cf031-fe55-7072-b99c-0fc714c2d998","019ceff9-9f67-7034-9722-02cda2445e09","","1090","
                <div class=""stimulus-container"">
                    <img src=""images/schematic_sequence/interview_scheme/interview_scheme_3.png"" class=""exp-image"">
                    <div class=""question-area"">
                        <p style=""font-size: 20px; font-weight: bold; margin: 0;"">Is there a person in this image?</p>
                    </div>
                </div>","1","main_experiment_trial","3","interview_scheme","schematic_sequence","","","","",""
"","","","","","html-keyboard-response","23","1672717","0.0-23.0","AE5BB3054A9A46FABF7249C579A08B44","019cf031-fe55-7072-b99c-0fc714c2d998","019ceff9-9f67-7034-9722-02cda2445e09","","null","
                <div class=""stimulus-container"">
                    <img src=""images/schematic_sequence/interview_scheme/interview_scheme_4.png"" class=""exp-image"">
                    <div class=""question-area""></div> 
                </div>","null","","","","","","","","",""
"","","","","","html-button-response","24","1673664","0.0-24.0","AE5BB3054A9A46FABF7249C579A08B44","019cf031-fe55-7072-b99c-0fc714c2d998","019ceff9-9f67-7034-9722-02cda2445e09","","946","
                <div class=""stimulus-container"">
                    <img src=""images/schematic_sequence/interview_scheme/interview_scheme_4.png"" class=""exp-image"">
                    <div class=""question-area"">
                        <p style=""font-size: 20px; font-weight: bold; margin: 0;"">Is there a person in this image?</p>
                    </div>
                </div>","1","main_experiment_trial","4","interview_scheme","schematic_sequence","","","","",""
"","","","","","html-keyboard-response","25","1678666","0.0-25.0","AE5BB3054A9A46FABF7249C579A08B44","019cf031-fe55-7072-b99c-0fc714c2d998","019ceff9-9f67-7034-9722-02cda2445e09","","null","
                <div class=""stimulus-container"">
                    <img src=""images/schematic_sequence/interview_scheme/interview_scheme_5.png"" class=""exp-image"">
                    <div class=""question-area""></div> 
                </div>","null","","","","","","","","",""
"","","","","","html-button-response","26","1679579","0.0-26.0","AE5BB3054A9A46FABF7249C579A08B44","019cf031-fe55-7072-b99c-0fc714c2d998","019ceff9-9f67-7034-9722-02cda2445e09","","913","
                <div class=""stimulus-container"">
                    <img src=""images/schematic_sequence/interview_scheme/interview_scheme_5.png"" class=""exp-image"">
                    <div class=""question-area"">
                        <p style=""font-size: 20px; font-weight: bold; margin: 0;"">Is there a person in this image?</p>
                    </div>
                </div>","0","main_experiment_trial","5","interview_scheme","schematic_sequence","","","","",""
"","","","","","html-keyboard-response","27","1684581","0.0-27.0","AE5BB3054A9A46FABF7249C579A08B44","019cf031-fe55-7072-b99c-0fc714c2d998","019ceff9-9f67-7034-9722-02cda2445e09","","null","
                <div class=""stimulus-container"">
                    <img src=""images/schematic_sequence/interview_scheme/interview_scheme_6.png"" class=""exp-image"">
                    <div class=""question-area""></div> 
                </div>","null","","","","","","","","",""
"","","","","","html-button-response","28","1685504","0.0-28.0","AE5BB3054A9A46FABF7249C579A08B44","019cf031-fe55-7072-b99c-0fc714c2d998","019ceff9-9f67-7034-9722-02cda2445e09","","922","
                <div class=""stimulus-container"">
                    <img src=""images/schematic_sequence/interview_scheme/interview_scheme_6.png"" class=""exp-image"">
                    <div class=""question-area"">
                        <p style=""font-size: 20px; font-weight: bold; margin: 0;"">Is there a person in this image?</p>
                    </div>
                </div>","0","main_experiment_trial","6","interview_scheme","schematic_sequence","","","","",""
"","","","","","html-keyboard-response","29","1690506","0.0-29.0","AE5BB3054A9A46FABF7249C579A08B44","019cf031-fe55-7072-b99c-0fc714c2d998","019ceff9-9f67-7034-9722-02cda2445e09","","null","
                <div class=""stimulus-container"">
                    <img src=""images/schematic_sequence/interview_scheme/interview_scheme_7.png"" class=""exp-image"">
                    <div class=""question-area""></div> 
                </div>","null","","","","","","","","",""
"","","","","","html-button-response","30","1691566","0.0-30.0","AE5BB3054A9A46FABF7249C579A08B44","019cf031-fe55-7072-b99c-0fc714c2d998","019ceff9-9f67-7034-9722-02cda2445e09","","1060","
                <div class=""stimulus-container"">
                    <img src=""images/schematic_sequence/interview_scheme/interview_scheme_7.png"" class=""exp-image"">
                    <div class=""question-area"">
                        <p style=""font-size: 20px; font-weight: bold; margin: 0;"">Is there a person in this image?</p>
                    </div>
                </div>","0","main_experiment_trial","7","interview_scheme","schematic_sequence","","","","",""
"","","","","","html-keyboard-response","31","1696567","0.0-31.0","AE5BB3054A9A46FABF7249C579A08B44","019cf031-fe55-7072-b99c-0fc714c2d998","019ceff9-9f67-7034-9722-02cda2445e09","","null","
                <div class=""stimulus-container"">
                    <img src=""images/schematic_sequence/interview_scheme/interview_scheme_8.png"" class=""exp-image"">
                    <div class=""question-area""></div> 
                </div>","null","","","","","","","","",""
"","","","","","html-button-response","32","1697548","0.0-32.0","AE5BB3054A9A46FABF7249C579A08B44","019cf031-fe55-7072-b99c-0fc714c2d998","019ceff9-9f67-7034-9722-02cda2445e09","","980","
                <div class=""stimulus-container"">
                    <img src=""images/schematic_sequence/interview_scheme/interview_scheme_8.png"" class=""exp-image"">
                    <div class=""question-area"">
                        <p style=""font-size: 20px; font-weight: bold; margin: 0;"">Is there a person in this image?</p>
                    </div>
                </div>","0","main_experiment_trial","8","interview_scheme","schematic_sequence","","","","",""
"","","","","","html-keyboard-response","33","1702550","0.0-33.0","AE5BB3054A9A46FABF7249C579A08B44","019cf031-fe55-7072-b99c-0fc714c2d998","019ceff9-9f67-7034-9722-02cda2445e09","","null","
                <div class=""stimulus-container"">
                    <img src=""images/schematic_sequence/interview_scheme/interview_scheme_9.png"" class=""exp-image"">
                    <div class=""question-area""></div> 
                </div>","null","","","","","","","","",""
"","","","","","html-button-response","34","1705282","0.0-34.0","AE5BB3054A9A46FABF7249C579A08B44","019cf031-fe55-7072-b99c-0fc714c2d998","019ceff9-9f67-7034-9722-02cda2445e09","","2732","
                <div class=""stimulus-container"">
                    <img src=""images/schematic_sequence/interview_scheme/interview_scheme_9.png"" class=""exp-image"">
                    <div class=""question-area"">
                        <p style=""font-size: 20px; font-weight: bold; margin: 0;"">Is there a person in this image?</p>
                    </div>
                </div>","0","main_experiment_trial","9","interview_scheme","schematic_sequence","","","","",""
"","","","","","html-keyboard-response","35","1710283","0.0-35.0","AE5BB3054A9A46FABF7249C579A08B44","019cf031-fe55-7072-b99c-0fc714c2d998","019ceff9-9f67-7034-9722-02cda2445e09","","null","
                <div class=""stimulus-container"">
                    <img src=""images/schematic_sequence/interview_scheme/interview_scheme_ten.png"" class=""exp-image"">
                    <div class=""question-area""></div> 
                </div>","null","","","","","","","","",""
"","","","","","html-button-response","36","1711947","0.0-36.0","AE5BB3054A9A46FABF7249C579A08B44","019cf031-fe55-7072-b99c-0fc714c2d998","019ceff9-9f67-7034-9722-02cda2445e09","","1663","
                <div class=""stimulus-container"">
                    <img src=""images/schematic_sequence/interview_scheme/interview_scheme_ten.png"" class=""exp-image"">
                    <div class=""question-area"">
                        <p style=""font-size: 20px; font-weight: bold; margin: 0;"">Is there a person in this image?</p>
                    </div>
                </div>","0","main_experiment_trial","ten","interview_scheme","schematic_sequence","","","","",""
"","","","","","html-keyboard-response","37","1712950","0.0-37.0","AE5BB3054A9A46FABF7249C579A08B44","019cf031-fe55-7072-b99c-0fc714c2d998","019ceff9-9f67-7034-9722-02cda2445e09","","null","<div style=""background-color: white; width: 100vw; height: 100vh;""></div>","null","","","","","","","","",""
"","","","","","html-keyboard-response","38","1717952","0.0-38.0","AE5BB3054A9A46FABF7249C579A08B44","019cf031-fe55-7072-b99c-0fc714c2d998","019ceff9-9f67-7034-9722-02cda2445e09","","null","
                <div class=""stimulus-container"">
                    <img src=""images/causal_sequence/saving_a_cat_causal/saving_a_cat_causal_1.png"" class=""exp-image"">
                    <div class=""question-area""></div> 
                </div>","null","","","","","","","","",""
"","","","","","html-button-response","39","1718665","0.0-39.0","AE5BB3054A9A46FABF7249C579A08B44","019cf031-fe55-7072-b99c-0fc714c2d998","019ceff9-9f67-7034-9722-02cda2445e09","","713","
                <div class=""stimulus-container"">
                    <img src=""images/causal_sequence/saving_a_cat_causal/saving_a_cat_causal_1.png"" class=""exp-image"">
                    <div class=""question-area"">
                        <p style=""font-size: 20px; font-weight: bold; margin: 0;"">Is there a person in this image?</p>
                    </div>
                </div>","0","main_experiment_trial","1","saving_a_cat_causal","causal_sequence","","","","",""
"","","","","","html-keyboard-response","40","1723667","0.0-40.0","AE5BB3054A9A46FABF7249C579A08B44","019cf031-fe55-7072-b99c-0fc714c2d998","019ceff9-9f67-7034-9722-02cda2445e09","","null","
                <div class=""stimulus-container"">
                    <img src=""images/causal_sequence/saving_a_cat_causal/saving_a_cat_causal_2.png"" class=""exp-image"">
                    <div class=""question-area""></div> 
                </div>","null","","","","","","","","",""
"","","","","","html-button-response","41","1724360","0.0-41.0","AE5BB3054A9A46FABF7249C579A08B44","019cf031-fe55-7072-b99c-0fc714c2d998","019ceff9-9f67-7034-9722-02cda2445e09","","693","
                <div class=""stimulus-container"">
                    <img src=""images/causal_sequence/saving_a_cat_causal/saving_a_cat_causal_2.png"" class=""exp-image"">
                    <div class=""question-area"">
                        <p style=""font-size: 20px; font-weight: bold; margin: 0;"">Is there a person in this image?</p>
                    </div>
                </div>","1","main_experiment_trial","2","saving_a_cat_causal","causal_sequence","","","","",""
"","","","","","html-keyboard-response","42","1729362","0.0-42.0","AE5BB3054A9A46FABF7249C579A08B44","019cf031-fe55-7072-b99c-0fc714c2d998","019ceff9-9f67-7034-9722-02cda2445e09","","null","
                <div class=""stimulus-container"">
                    <img src=""images/causal_sequence/saving_a_cat_causal/saving_a_cat_causal_3.png"" class=""exp-image"">
                    <div class=""question-area""></div> 
                </div>","null","","","","","","","","",""
"","","","","","html-button-response","43","1730477","0.0-43.0","AE5BB3054A9A46FABF7249C579A08B44","019cf031-fe55-7072-b99c-0fc714c2d998","019ceff9-9f67-7034-9722-02cda2445e09","","1114","
                <div class=""stimulus-container"">
                    <img src=""images/causal_sequence/saving_a_cat_causal/saving_a_cat_causal_3.png"" class=""exp-image"">
                    <div class=""question-area"">
                        <p style=""font-size: 20px; font-weight: bold; margin: 0;"">Is there a person in this image?</p>
                    </div>
                </div>","1","main_experiment_trial","3","saving_a_cat_causal","causal_sequence","","","","",""
"","","","","","html-keyboard-response","44","1735479","0.0-44.0","AE5BB3054A9A46FABF7249C579A08B44","019cf031-fe55-7072-b99c-0fc714c2d998","019ceff9-9f67-7034-9722-02cda2445e09","","null","
                <div class=""stimulus-container"">
                    <img src=""images/causal_sequence/saving_a_cat_causal/saving_a_cat_causal_4.png"" class=""exp-image"">
                    <div class=""question-area""></div> 
                </div>","null","","","","","","","","",""
"","","","","","html-button-response","45","1736329","0.0-45.0","AE5BB3054A9A46FABF7249C579A08B44","019cf031-fe55-7072-b99c-0fc714c2d998","019ceff9-9f67-7034-9722-02cda2445e09","","849","
                <div class=""stimulus-container"">
                    <img src=""images/causal_sequence/saving_a_cat_causal/saving_a_cat_causal_4.png"" class=""exp-image"">
                    <div class=""question-area"">
                        <p style=""font-size: 20px; font-weight: bold; margin: 0;"">Is there a person in this image?</p>
                    </div>
                </div>","0","main_experiment_trial","4","saving_a_cat_causal","causal_sequence","","","","",""
"","","","","","html-keyboard-response","46","1741331","0.0-46.0","AE5BB3054A9A46FABF7249C579A08B44","019cf031-fe55-7072-b99c-0fc714c2d998","019ceff9-9f67-7034-9722-02cda2445e09","","null","
                <div class=""stimulus-container"">
                    <img src=""images/causal_sequence/saving_a_cat_causal/saving_a_cat_causal_5.png"" class=""exp-image"">
                    <div class=""question-area""></div> 
                </div>","null","","","","","","","","",""
"","","","","","html-button-response","47","1742037","0.0-47.0","AE5BB3054A9A46FABF7249C579A08B44","019cf031-fe55-7072-b99c-0fc714c2d998","019ceff9-9f67-7034-9722-02cda2445e09","","706","
                <div class=""stimulus-container"">
                    <img src=""images/causal_sequence/saving_a_cat_causal/saving_a_cat_causal_5.png"" class=""exp-image"">
                    <div class=""question-area"">
                        <p style=""font-size: 20px; font-weight: bold; margin: 0;"">Is there a person in this image?</p>
                    </div>
                </div>","0","main_experiment_trial","5","saving_a_cat_causal","causal_sequence","","","","",""
"","","","","","html-keyboard-response","48","1747039","0.0-48.0","AE5BB3054A9A46FABF7249C579A08B44","019cf031-fe55-7072-b99c-0fc714c2d998","019ceff9-9f67-7034-9722-02cda2445e09","","null","
                <div class=""stimulus-container"">
                    <img src=""images/causal_sequence/saving_a_cat_causal/saving_a_cat_causal_6.png"" class=""exp-image"">
                    <div class=""question-area""></div> 
                </div>","null","","","","","","","","",""
"","","","","","html-button-response","49","1747926","0.0-49.0","AE5BB3054A9A46FABF7249C579A08B44","019cf031-fe55-7072-b99c-0fc714c2d998","019ceff9-9f67-7034-9722-02cda2445e09","","886","
                <div class=""stimulus-container"">
                    <img src=""images/causal_sequence/saving_a_cat_causal/saving_a_cat_causal_6.png"" class=""exp-image"">
                    <div class=""question-area"">
                        <p style=""font-size: 20px; font-weight: bold; margin: 0;"">Is there a person in this image?</p>
                    </div>
                </div>","0","main_experiment_trial","6","saving_a_cat_causal","causal_sequence","","","","",""
"","","","","","html-keyboard-response","50","1752927","0.0-50.0","AE5BB3054A9A46FABF7249C579A08B44","019cf031-fe55-7072-b99c-0fc714c2d998","019ceff9-9f67-7034-9722-02cda2445e09","","null","
                <div class=""stimulus-container"">
                    <img src=""images/causal_sequence/saving_a_cat_causal/saving_a_cat_causal_7.png"" class=""exp-image"">
                    <div class=""question-area""></div> 
                </div>","null","","","","","","","","",""
"","","","","","html-button-response","51","1753978","0.0-51.0","AE5BB3054A9A46FABF7249C579A08B44","019cf031-fe55-7072-b99c-0fc714c2d998","019ceff9-9f67-7034-9722-02cda2445e09","","1051","
                <div class=""stimulus-container"">
                    <img src=""images/causal_sequence/saving_a_cat_causal/saving_a_cat_causal_7.png"" class=""exp-image"">
                    <div class=""question-area"">
                        <p style=""font-size: 20px; font-weight: bold; margin: 0;"">Is there a person in this image?</p>
                    </div>
                </div>","0","main_experiment_trial","7","saving_a_cat_causal","causal_sequence","","","","",""
"","","","","","html-keyboard-response","52","1758980","0.0-52.0","AE5BB3054A9A46FABF7249C579A08B44","019cf031-fe55-7072-b99c-0fc714c2d998","019ceff9-9f67-7034-9722-02cda2445e09","","null","
                <div class=""stimulus-container"">
                    <img src=""images/causal_sequence/saving_a_cat_causal/saving_a_cat_causal_8.png"" class=""exp-image"">
                    <div class=""question-area""></div> 
                </div>","null","","","","","","","","",""
"","","","","","html-button-response","53","1759667","0.0-53.0","AE5BB3054A9A46FABF7249C579A08B44","019cf031-fe55-7072-b99c-0fc714c2d998","019ceff9-9f67-7034-9722-02cda2445e09","","686","
                <div class=""stimulus-container"">
                    <img src=""images/causal_sequence/saving_a_cat_causal/saving_a_cat_causal_8.png"" class=""exp-image"">
                    <div class=""question-area"">
                        <p style=""font-size: 20px; font-weight: bold; margin: 0;"">Is there a person in this image?</p>
                    </div>
                </div>","0","main_experiment_trial","8","saving_a_cat_causal","causal_sequence","","","","",""
"","","","","","html-keyboard-response","54","1764668","0.0-54.0","AE5BB3054A9A46FABF7249C579A08B44","019cf031-fe55-7072-b99c-0fc714c2d998","019ceff9-9f67-7034-9722-02cda2445e09","","null","
                <div class=""stimulus-container"">
                    <img src=""images/causal_sequence/saving_a_cat_causal/saving_a_cat_causal_9.png"" class=""exp-image"">
                    <div class=""question-area""></div> 
                </div>","null","","","","","","","","",""
"","","","","","html-button-response","55","1766212","0.0-55.0","AE5BB3054A9A46FABF7249C579A08B44","019cf031-fe55-7072-b99c-0fc714c2d998","019ceff9-9f67-7034-9722-02cda2445e09","","1544","
                <div class=""stimulus-container"">
                    <img src=""images/causal_sequence/saving_a_cat_causal/saving_a_cat_causal_9.png"" class=""exp-image"">
                    <div class=""question-area"">
                        <p style=""font-size: 20px; font-weight: bold; margin: 0;"">Is there a person in this image?</p>
                    </div>
                </div>","0","main_experiment_trial","9","saving_a_cat_causal","causal_sequence","","","","",""
"","","","","","html-keyboard-response","56","1771213","0.0-56.0","AE5BB3054A9A46FABF7249C579A08B44","019cf031-fe55-7072-b99c-0fc714c2d998","019ceff9-9f67-7034-9722-02cda2445e09","","null","
                <div class=""stimulus-container"">
                    <img src=""images/causal_sequence/saving_a_cat_causal/saving_a_cat_causal_ten.png"" class=""exp-image"">
                    <div class=""question-area""></div> 
                </div>","null","","","","","","","","",""
"","","","","","html-button-response","57","1772112","0.0-57.0","AE5BB3054A9A46FABF7249C579A08B44","019cf031-fe55-7072-b99c-0fc714c2d998","019ceff9-9f67-7034-9722-02cda2445e09","","899","
                <div class=""stimulus-container"">
                    <img src=""images/causal_sequence/saving_a_cat_causal/saving_a_cat_causal_ten.png"" class=""exp-image"">
                    <div class=""question-area"">
                        <p style=""font-size: 20px; font-weight: bold; margin: 0;"">Is there a person in this image?</p>
                    </div>
                </div>","0","main_experiment_trial","ten","saving_a_cat_causal","causal_sequence","","","","",""
"","","","","","html-keyboard-response","58","1773114","0.0-58.0","AE5BB3054A9A46FABF7249C579A08B44","019cf031-fe55-7072-b99c-0fc714c2d998","019ceff9-9f67-7034-9722-02cda2445e09","","null","<div style=""background-color: white; width: 100vw; height: 100vh;""></div>","null","","","","","","","","",""
"","","","","","html-keyboard-response","59","1778116","0.0-59.0","AE5BB3054A9A46FABF7249C579A08B44","019cf031-fe55-7072-b99c-0fc714c2d998","019ceff9-9f67-7034-9722-02cda2445e09","","null","
                <div class=""stimulus-container"">
                    <img src=""images/schematic_sequence/hotel_scheme/hotel_scheme_1.png"" class=""exp-image"">
                    <div class=""question-area""></div> 
                </div>","null","","","","","","","","",""
"","","","","","html-button-response","60","1781119","0.0-60.0","AE5BB3054A9A46FABF7249C579A08B44","019cf031-fe55-7072-b99c-0fc714c2d998","019ceff9-9f67-7034-9722-02cda2445e09","","null","
                <div class=""stimulus-container"">
                    <img src=""images/schematic_sequence/hotel_scheme/hotel_scheme_1.png"" class=""exp-image"">
                    <div class=""question-area"">
                        <p style=""font-size: 20px; font-weight: bold; margin: 0;"">Is there a person in this image?</p>
                    </div>
                </div>","null","main_experiment_trial","1","hotel_scheme","schematic_sequence","","","","",""
"","","","","","html-keyboard-response","61","1786120","0.0-61.0","AE5BB3054A9A46FABF7249C579A08B44","019cf031-fe55-7072-b99c-0fc714c2d998","019ceff9-9f67-7034-9722-02cda2445e09","","null","
                <div class=""stimulus-container"">
                    <img src=""images/schematic_sequence/hotel_scheme/hotel_scheme_2.png"" class=""exp-image"">
                    <div class=""question-area""></div> 
                </div>","null","","","","","","","","",""
"","","","","","html-button-response","62","1786898","0.0-62.0","AE5BB3054A9A46FABF7249C579A08B44","019cf031-fe55-7072-b99c-0fc714c2d998","019ceff9-9f67-7034-9722-02cda2445e09","","778","
                <div class=""stimulus-container"">
                    <img src=""images/schematic_sequence/hotel_scheme/hotel_scheme_2.png"" class=""exp-image"">
                    <div class=""question-area"">
                        <p style=""font-size: 20px; font-weight: bold; margin: 0;"">Is there a person in this image?</p>
                    </div>
                </div>","0","main_experiment_trial","2","hotel_scheme","schematic_sequence","","","","",""
"","","","","","html-keyboard-response","63","1791900","0.0-63.0","AE5BB3054A9A46FABF7249C579A08B44","019cf031-fe55-7072-b99c-0fc714c2d998","019ceff9-9f67-7034-9722-02cda2445e09","","null","
                <div class=""stimulus-container"">
                    <img src=""images/schematic_sequence/hotel_scheme/hotel_scheme_3.png"" class=""exp-image"">
                    <div class=""question-area""></div> 
                </div>","null","","","","","","","","",""
"","","","","","html-button-response","64","1792798","0.0-64.0","AE5BB3054A9A46FABF7249C579A08B44","019cf031-fe55-7072-b99c-0fc714c2d998","019ceff9-9f67-7034-9722-02cda2445e09","","897","
                <div class=""stimulus-container"">
                    <img src=""images/schematic_sequence/hotel_scheme/hotel_scheme_3.png"" class=""exp-image"">
                    <div class=""question-area"">
                        <p style=""font-size: 20px; font-weight: bold; margin: 0;"">Is there a person in this image?</p>
                    </div>
                </div>","0","main_experiment_trial","3","hotel_scheme","schematic_sequence","","","","",""
"","","","","","html-keyboard-response","65","1797800","0.0-65.0","AE5BB3054A9A46FABF7249C579A08B44","019cf031-fe55-7072-b99c-0fc714c2d998","019ceff9-9f67-7034-9722-02cda2445e09","","null","
                <div class=""stimulus-container"">
                    <img src=""images/schematic_sequence/hotel_scheme/hotel_scheme_4.png"" class=""exp-image"">
                    <div class=""question-area""></div> 
                </div>","null","","","","","","","","",""
"","","","","","html-button-response","66","1799062","0.0-66.0","AE5BB3054A9A46FABF7249C579A08B44","019cf031-fe55-7072-b99c-0fc714c2d998","019ceff9-9f67-7034-9722-02cda2445e09","","1261","
                <div class=""stimulus-container"">
                    <img src=""images/schematic_sequence/hotel_scheme/hotel_scheme_4.png"" class=""exp-image"">
                    <div class=""question-area"">
                        <p style=""font-size: 20px; font-weight: bold; margin: 0;"">Is there a person in this image?</p>
                    </div>
                </div>","1","main_experiment_trial","4","hotel_scheme","schematic_sequence","","","","",""
"","","","","","html-keyboard-response","67","1804063","0.0-67.0","AE5BB3054A9A46FABF7249C579A08B44","019cf031-fe55-7072-b99c-0fc714c2d998","019ceff9-9f67-7034-9722-02cda2445e09","","null","
                <div class=""stimulus-container"">
                    <img src=""images/schematic_sequence/hotel_scheme/hotel_scheme_5.png"" class=""exp-image"">
                    <div class=""question-area""></div> 
                </div>","null","","","","","","","","",""
"","","","","","html-button-response","68","1805188","0.0-68.0","AE5BB3054A9A46FABF7249C579A08B44","019cf031-fe55-7072-b99c-0fc714c2d998","019ceff9-9f67-7034-9722-02cda2445e09","","1124","
                <div class=""stimulus-container"">
                    <img src=""images/schematic_sequence/hotel_scheme/hotel_scheme_5.png"" class=""exp-image"">
                    <div class=""question-area"">
                        <p style=""font-size: 20px; font-weight: bold; margin: 0;"">Is there a person in this image?</p>
                    </div>
                </div>","0","main_experiment_trial","5","hotel_scheme","schematic_sequence","","","","",""
"","","","","","html-keyboard-response","69","1810189","0.0-69.0","AE5BB3054A9A46FABF7249C579A08B44","019cf031-fe55-7072-b99c-0fc714c2d998","019ceff9-9f67-7034-9722-02cda2445e09","","null","
                <div class=""stimulus-container"">
                    <img src=""images/schematic_sequence/hotel_scheme/hotel_scheme_6.png"" class=""exp-image"">
                    <div class=""question-area""></div> 
                </div>","null","","","","","","","","",""
"","","","","","html-button-response","70","1811096","0.0-70.0","AE5BB3054A9A46FABF7249C579A08B44","019cf031-fe55-7072-b99c-0fc714c2d998","019ceff9-9f67-7034-9722-02cda2445e09","","906","
                <div class=""stimulus-container"">
                    <img src=""images/schematic_sequence/hotel_scheme/hotel_scheme_6.png"" class=""exp-image"">
                    <div class=""question-area"">
                        <p style=""font-size: 20px; font-weight: bold; margin: 0;"">Is there a person in this image?</p>
                    </div>
                </div>","0","main_experiment_trial","6","hotel_scheme","schematic_sequence","","","","",""
"","","","","","html-keyboard-response","71","1816098","0.0-71.0","AE5BB3054A9A46FABF7249C579A08B44","019cf031-fe55-7072-b99c-0fc714c2d998","019ceff9-9f67-7034-9722-02cda2445e09","","null","
                <div class=""stimulus-container"">
                    <img src=""images/schematic_sequence/hotel_scheme/hotel_scheme_7.png"" class=""exp-image"">
                    <div class=""question-area""></div> 
                </div>","null","","","","","","","","",""
"","","","","","html-button-response","72","1816907","0.0-72.0","AE5BB3054A9A46FABF7249C579A08B44","019cf031-fe55-7072-b99c-0fc714c2d998","019ceff9-9f67-7034-9722-02cda2445e09","","807","
                <div class=""stimulus-container"">
                    <img src=""images/schematic_sequence/hotel_scheme/hotel_scheme_7.png"" class=""exp-image"">
                    <div class=""question-area"">
                        <p style=""font-size: 20px; font-weight: bold; margin: 0;"">Is there a person in this image?</p>
                    </div>
                </div>","0","main_experiment_trial","7","hotel_scheme","schematic_sequence","","","","",""
"","","","","","html-keyboard-response","73","1821909","0.0-73.0","AE5BB3054A9A46FABF7249C579A08B44","019cf031-fe55-7072-b99c-0fc714c2d998","019ceff9-9f67-7034-9722-02cda2445e09","","null","
                <div class=""stimulus-container"">
                    <img src=""images/schematic_sequence/hotel_scheme/hotel_scheme_8.png"" class=""exp-image"">
                    <div class=""question-area""></div> 
                </div>","null","","","","","","","","",""
"","","","","","html-button-response","74","1822868","0.0-74.0","AE5BB3054A9A46FABF7249C579A08B44","019cf031-fe55-7072-b99c-0fc714c2d998","019ceff9-9f67-7034-9722-02cda2445e09","","958","
                <div class=""stimulus-container"">
                    <img src=""images/schematic_sequence/hotel_scheme/hotel_scheme_8.png"" class=""exp-image"">
                    <div class=""question-area"">
                        <p style=""font-size: 20px; font-weight: bold; margin: 0;"">Is there a person in this image?</p>
                    </div>
                </div>","0","main_experiment_trial","8","hotel_scheme","schematic_sequence","","","","",""
"","","","","","html-keyboard-response","75","1827870","0.0-75.0","AE5BB3054A9A46FABF7249C579A08B44","019cf031-fe55-7072-b99c-0fc714c2d998","019ceff9-9f67-7034-9722-02cda2445e09","","null","
                <div class=""stimulus-container"">
                    <img src=""images/schematic_sequence/hotel_scheme/hotel_scheme_9.png"" class=""exp-image"">
                    <div class=""question-area""></div> 
                </div>","null","","","","","","","","",""
"","","","","","html-button-response","76","1829315","0.0-76.0","AE5BB3054A9A46FABF7249C579A08B44","019cf031-fe55-7072-b99c-0fc714c2d998","019ceff9-9f67-7034-9722-02cda2445e09","","1444","
                <div class=""stimulus-container"">
                    <img src=""images/schematic_sequence/hotel_scheme/hotel_scheme_9.png"" class=""exp-image"">
                    <div class=""question-area"">
                        <p style=""font-size: 20px; font-weight: bold; margin: 0;"">Is there a person in this image?</p>
                    </div>
                </div>","0","main_experiment_trial","9","hotel_scheme","schematic_sequence","","","","",""
"","","","","","html-keyboard-response","77","1834317","0.0-77.0","AE5BB3054A9A46FABF7249C579A08B44","019cf031-fe55-7072-b99c-0fc714c2d998","019ceff9-9f67-7034-9722-02cda2445e09","","null","
                <div class=""stimulus-container"">
                    <img src=""images/schematic_sequence/hotel_scheme/hotel_scheme_ten.png"" class=""exp-image"">
                    <div class=""question-area""></div> 
                </div>","null","","","","","","","","",""
"","","","","","html-button-response","78","1836060","0.0-78.0","AE5BB3054A9A46FABF7249C579A08B44","019cf031-fe55-7072-b99c-0fc714c2d998","019ceff9-9f67-7034-9722-02cda2445e09","","1742","
                <div class=""stimulus-container"">
                    <img src=""images/schematic_sequence/hotel_scheme/hotel_scheme_ten.png"" class=""exp-image"">
                    <div class=""question-area"">
                        <p style=""font-size: 20px; font-weight: bold; margin: 0;"">Is there a person in this image?</p>
                    </div>
                </div>","0","main_experiment_trial","ten","hotel_scheme","schematic_sequence","","","","",""
"","","","","","html-keyboard-response","79","1837061","0.0-79.0","AE5BB3054A9A46FABF7249C579A08B44","019cf031-fe55-7072-b99c-0fc714c2d998","019ceff9-9f67-7034-9722-02cda2445e09","","null","<div style=""background-color: white; width: 100vw; height: 100vh;""></div>","null","","","","","","","","",""
"","","","","","html-keyboard-response","80","1842064","0.0-80.0","AE5BB3054A9A46FABF7249C579A08B44","019cf031-fe55-7072-b99c-0fc714c2d998","019ceff9-9f67-7034-9722-02cda2445e09","","null","
                <div class=""stimulus-container"">
                    <img src=""images/causal_sequence/dog_causal/dog_causal_1.png"" class=""exp-image"">
                    <div class=""question-area""></div> 
                </div>","null","","","","","","","","",""
"","","","","","html-button-response","81","1844163","0.0-81.0","AE5BB3054A9A46FABF7249C579A08B44","019cf031-fe55-7072-b99c-0fc714c2d998","019ceff9-9f67-7034-9722-02cda2445e09","","2098","
                <div class=""stimulus-container"">
                    <img src=""images/causal_sequence/dog_causal/dog_causal_1.png"" class=""exp-image"">
                    <div class=""question-area"">
                        <p style=""font-size: 20px; font-weight: bold; margin: 0;"">Is there a person in this image?</p>
                    </div>
                </div>","0","main_experiment_trial","1","dog_causal","causal_sequence","","","","",""
"","","","","","html-keyboard-response","82","1849163","0.0-82.0","AE5BB3054A9A46FABF7249C579A08B44","019cf031-fe55-7072-b99c-0fc714c2d998","019ceff9-9f67-7034-9722-02cda2445e09","","null","
                <div class=""stimulus-container"">
                    <img src=""images/causal_sequence/dog_causal/dog_causal_2.png"" class=""exp-image"">
                    <div class=""question-area""></div> 
                </div>","null","","","","","","","","",""
"","","","","","html-button-response","83","1852165","0.0-83.0","AE5BB3054A9A46FABF7249C579A08B44","019cf031-fe55-7072-b99c-0fc714c2d998","019ceff9-9f67-7034-9722-02cda2445e09","","null","
                <div class=""stimulus-container"">
                    <img src=""images/causal_sequence/dog_causal/dog_causal_2.png"" class=""exp-image"">
                    <div class=""question-area"">
                        <p style=""font-size: 20px; font-weight: bold; margin: 0;"">Is there a person in this image?</p>
                    </div>
                </div>","null","main_experiment_trial","2","dog_causal","causal_sequence","","","","",""
"","","","","","html-keyboard-response","84","1857167","0.0-84.0","AE5BB3054A9A46FABF7249C579A08B44","019cf031-fe55-7072-b99c-0fc714c2d998","019ceff9-9f67-7034-9722-02cda2445e09","","null","
                <div class=""stimulus-container"">
                    <img src=""images/causal_sequence/dog_causal/dog_causal_3.png"" class=""exp-image"">
                    <div class=""question-area""></div> 
                </div>","null","","","","","","","","",""
"","","","","","html-button-response","85","1857865","0.0-85.0","AE5BB3054A9A46FABF7249C579A08B44","019cf031-fe55-7072-b99c-0fc714c2d998","019ceff9-9f67-7034-9722-02cda2445e09","","698","
                <div class=""stimulus-container"">
                    <img src=""images/causal_sequence/dog_causal/dog_causal_3.png"" class=""exp-image"">
                    <div class=""question-area"">
                        <p style=""font-size: 20px; font-weight: bold; margin: 0;"">Is there a person in this image?</p>
                    </div>
                </div>","0","main_experiment_trial","3","dog_causal","causal_sequence","","","","",""
"","","","","","html-keyboard-response","86","1862867","0.0-86.0","AE5BB3054A9A46FABF7249C579A08B44","019cf031-fe55-7072-b99c-0fc714c2d998","019ceff9-9f67-7034-9722-02cda2445e09","","null","
                <div class=""stimulus-container"">
                    <img src=""images/causal_sequence/dog_causal/dog_causal_4.png"" class=""exp-image"">
                    <div class=""question-area""></div> 
                </div>","null","","","","","","","","",""
"","","","","","html-button-response","87","1863702","0.0-87.0","AE5BB3054A9A46FABF7249C579A08B44","019cf031-fe55-7072-b99c-0fc714c2d998","019ceff9-9f67-7034-9722-02cda2445e09","","834","
                <div class=""stimulus-container"">
                    <img src=""images/causal_sequence/dog_causal/dog_causal_4.png"" class=""exp-image"">
                    <div class=""question-area"">
                        <p style=""font-size: 20px; font-weight: bold; margin: 0;"">Is there a person in this image?</p>
                    </div>
                </div>","0","main_experiment_trial","4","dog_causal","causal_sequence","","","","",""
"","","","","","html-keyboard-response","88","1868704","0.0-88.0","AE5BB3054A9A46FABF7249C579A08B44","019cf031-fe55-7072-b99c-0fc714c2d998","019ceff9-9f67-7034-9722-02cda2445e09","","null","
                <div class=""stimulus-container"">
                    <img src=""images/causal_sequence/dog_causal/dog_causal_5.png"" class=""exp-image"">
                    <div class=""question-area""></div> 
                </div>","null","","","","","","","","",""
"","","","","","html-button-response","89","1869319","0.0-89.0","AE5BB3054A9A46FABF7249C579A08B44","019cf031-fe55-7072-b99c-0fc714c2d998","019ceff9-9f67-7034-9722-02cda2445e09","","614","
                <div class=""stimulus-container"">
                    <img src=""images/causal_sequence/dog_causal/dog_causal_5.png"" class=""exp-image"">
                    <div class=""question-area"">
                        <p style=""font-size: 20px; font-weight: bold; margin: 0;"">Is there a person in this image?</p>
                    </div>
                </div>","0","main_experiment_trial","5","dog_causal","causal_sequence","","","","",""
"","","","","","html-keyboard-response","90","1874321","0.0-90.0","AE5BB3054A9A46FABF7249C579A08B44","019cf031-fe55-7072-b99c-0fc714c2d998","019ceff9-9f67-7034-9722-02cda2445e09","","null","
                <div class=""stimulus-container"">
                    <img src=""images/causal_sequence/dog_causal/dog_causal_6.png"" class=""exp-image"">
                    <div class=""question-area""></div> 
                </div>","null","","","","","","","","",""
"","","","","","html-button-response","91","1875573","0.0-91.0","AE5BB3054A9A46FABF7249C579A08B44","019cf031-fe55-7072-b99c-0fc714c2d998","019ceff9-9f67-7034-9722-02cda2445e09","","1251","
                <div class=""stimulus-container"">
                    <img src=""images/causal_sequence/dog_causal/dog_causal_6.png"" class=""exp-image"">
                    <div class=""question-area"">
                        <p style=""font-size: 20px; font-weight: bold; margin: 0;"">Is there a person in this image?</p>
                    </div>
                </div>","0","main_experiment_trial","6","dog_causal","causal_sequence","","","","",""
"","","","","","html-keyboard-response","92","1880573","0.0-92.0","AE5BB3054A9A46FABF7249C579A08B44","019cf031-fe55-7072-b99c-0fc714c2d998","019ceff9-9f67-7034-9722-02cda2445e09","","null","
                <div class=""stimulus-container"">
                    <img src=""images/causal_sequence/dog_causal/dog_causal_7.png"" class=""exp-image"">
                    <div class=""question-area""></div> 
                </div>","null","","","","","","","","",""
"","","","","","html-button-response","93","1881215","0.0-93.0","AE5BB3054A9A46FABF7249C579A08B44","019cf031-fe55-7072-b99c-0fc714c2d998","019ceff9-9f67-7034-9722-02cda2445e09","","642","
                <div class=""stimulus-container"">
                    <img src=""images/causal_sequence/dog_causal/dog_causal_7.png"" class=""exp-image"">
                    <div class=""question-area"">
                        <p style=""font-size: 20px; font-weight: bold; margin: 0;"">Is there a person in this image?</p>
                    </div>
                </div>","0","main_experiment_trial","7","dog_causal","causal_sequence","","","","",""
"","","","","","html-keyboard-response","94","1886217","0.0-94.0","AE5BB3054A9A46FABF7249C579A08B44","019cf031-fe55-7072-b99c-0fc714c2d998","019ceff9-9f67-7034-9722-02cda2445e09","","null","
                <div class=""stimulus-container"">
                    <img src=""images/causal_sequence/dog_causal/dog_causal_8.png"" class=""exp-image"">
                    <div class=""question-area""></div> 
                </div>","null","","","","","","","","",""
"","","","","","html-button-response","95","1886968","0.0-95.0","AE5BB3054A9A46FABF7249C579A08B44","019cf031-fe55-7072-b99c-0fc714c2d998","019ceff9-9f67-7034-9722-02cda2445e09","","751","
                <div class=""stimulus-container"">
                    <img src=""images/causal_sequence/dog_causal/dog_causal_8.png"" class=""exp-image"">
                    <div class=""question-area"">
                        <p style=""font-size: 20px; font-weight: bold; margin: 0;"">Is there a person in this image?</p>
                    </div>
                </div>","0","main_experiment_trial","8","dog_causal","causal_sequence","","","","",""
"","","","","","html-keyboard-response","96","1891970","0.0-96.0","AE5BB3054A9A46FABF7249C579A08B44","019cf031-fe55-7072-b99c-0fc714c2d998","019ceff9-9f67-7034-9722-02cda2445e09","","null","
                <div class=""stimulus-container"">
                    <img src=""images/causal_sequence/dog_causal/dog_causal_9.png"" class=""exp-image"">
                    <div class=""question-area""></div> 
                </div>","null","","","","","","","","",""
"","","","","","html-button-response","97","1892863","0.0-97.0","AE5BB3054A9A46FABF7249C579A08B44","019cf031-fe55-7072-b99c-0fc714c2d998","019ceff9-9f67-7034-9722-02cda2445e09","","893","
                <div class=""stimulus-container"">
                    <img src=""images/causal_sequence/dog_causal/dog_causal_9.png"" class=""exp-image"">
                    <div class=""question-area"">
                        <p style=""font-size: 20px; font-weight: bold; margin: 0;"">Is there a person in this image?</p>
                    </div>
                </div>","0","main_experiment_trial","9","dog_causal","causal_sequence","","","","",""
"","","","","","html-keyboard-response","98","1897865","0.0-98.0","AE5BB3054A9A46FABF7249C579A08B44","019cf031-fe55-7072-b99c-0fc714c2d998","019ceff9-9f67-7034-9722-02cda2445e09","","null","
                <div class=""stimulus-container"">
                    <img src=""images/causal_sequence/dog_causal/dog_causal_ten.png"" class=""exp-image"">
                    <div class=""question-area""></div> 
                </div>","null","","","","","","","","",""
"","","","","","html-button-response","99","1898831","0.0-99.0","AE5BB3054A9A46FABF7249C579A08B44","019cf031-fe55-7072-b99c-0fc714c2d998","019ceff9-9f67-7034-9722-02cda2445e09","","964","
                <div class=""stimulus-container"">
                    <img src=""images/causal_sequence/dog_causal/dog_causal_ten.png"" class=""exp-image"">
                    <div class=""question-area"">
                        <p style=""font-size: 20px; font-weight: bold; margin: 0;"">Is there a person in this image?</p>
                    </div>
                </div>","0","main_experiment_trial","ten","dog_causal","causal_sequence","","","","",""
"","","","","","html-keyboard-response","100","1899832","0.0-100.0","AE5BB3054A9A46FABF7249C579A08B44","019cf031-fe55-7072-b99c-0fc714c2d998","019ceff9-9f67-7034-9722-02cda2445e09","","null","<div style=""background-color: white; width: 100vw; height: 100vh;""></div>","null","","","","","","","","",""
"","","","","","html-keyboard-response","101","1904834","0.0-101.0","AE5BB3054A9A46FABF7249C579A08B44","019cf031-fe55-7072-b99c-0fc714c2d998","019ceff9-9f67-7034-9722-02cda2445e09","","null","
                <div class=""stimulus-container"">
                    <img src=""images/causal_sequence/the_performance_causal/the_performance_causal_1.png"" class=""exp-image"">
                    <div class=""question-area""></div> 
                </div>","null","","","","","","","","",""
"","","","","","html-button-response","102","1907431","0.0-102.0","AE5BB3054A9A46FABF7249C579A08B44","019cf031-fe55-7072-b99c-0fc714c2d998","019ceff9-9f67-7034-9722-02cda2445e09","","2595","
                <div class=""stimulus-container"">
                    <img src=""images/causal_sequence/the_performance_causal/the_performance_causal_1.png"" class=""exp-image"">
                    <div class=""question-area"">
                        <p style=""font-size: 20px; font-weight: bold; margin: 0;"">Is there a person in this image?</p>
                    </div>
                </div>","0","main_experiment_trial","1","the_performance_causal","causal_sequence","","","","",""
"","","","","","html-keyboard-response","103","1912432","0.0-103.0","AE5BB3054A9A46FABF7249C579A08B44","019cf031-fe55-7072-b99c-0fc714c2d998","019ceff9-9f67-7034-9722-02cda2445e09","","null","
                <div class=""stimulus-container"">
                    <img src=""images/causal_sequence/the_performance_causal/the_performance_causal_2.png"" class=""exp-image"">
                    <div class=""question-area""></div> 
                </div>","null","","","","","","","","",""
"","","","","","html-button-response","104","1912656","0.0-104.0","AE5BB3054A9A46FABF7249C579A08B44","019cf031-fe55-7072-b99c-0fc714c2d998","019ceff9-9f67-7034-9722-02cda2445e09","","223","
                <div class=""stimulus-container"">
                    <img src=""images/causal_sequence/the_performance_causal/the_performance_causal_2.png"" class=""exp-image"">
                    <div class=""question-area"">
                        <p style=""font-size: 20px; font-weight: bold; margin: 0;"">Is there a person in this image?</p>
                    </div>
                </div>","0","main_experiment_trial","2","the_performance_causal","causal_sequence","","","","",""
"","","","","","html-keyboard-response","105","1917657","0.0-105.0","AE5BB3054A9A46FABF7249C579A08B44","019cf031-fe55-7072-b99c-0fc714c2d998","019ceff9-9f67-7034-9722-02cda2445e09","","null","
                <div class=""stimulus-container"">
                    <img src=""images/causal_sequence/the_performance_causal/the_performance_causal_3.png"" class=""exp-image"">
                    <div class=""question-area""></div> 
                </div>","null","","","","","","","","",""
"","","","","","html-button-response","106","1918475","0.0-106.0","AE5BB3054A9A46FABF7249C579A08B44","019cf031-fe55-7072-b99c-0fc714c2d998","019ceff9-9f67-7034-9722-02cda2445e09","","817","
                <div class=""stimulus-container"">
                    <img src=""images/causal_sequence/the_performance_causal/the_performance_causal_3.png"" class=""exp-image"">
                    <div class=""question-area"">
                        <p style=""font-size: 20px; font-weight: bold; margin: 0;"">Is there a person in this image?</p>
                    </div>
                </div>","0","main_experiment_trial","3","the_performance_causal","causal_sequence","","","","",""
"","","","","","html-keyboard-response","107","1923477","0.0-107.0","AE5BB3054A9A46FABF7249C579A08B44","019cf031-fe55-7072-b99c-0fc714c2d998","019ceff9-9f67-7034-9722-02cda2445e09","","null","
                <div class=""stimulus-container"">
                    <img src=""images/causal_sequence/the_performance_causal/the_performance_causal_4.png"" class=""exp-image"">
                    <div class=""question-area""></div> 
                </div>","null","","","","","","","","",""
"","","","","","html-button-response","108","1924208","0.0-108.0","AE5BB3054A9A46FABF7249C579A08B44","019cf031-fe55-7072-b99c-0fc714c2d998","019ceff9-9f67-7034-9722-02cda2445e09","","731","
                <div class=""stimulus-container"">
                    <img src=""images/causal_sequence/the_performance_causal/the_performance_causal_4.png"" class=""exp-image"">
                    <div class=""question-area"">
                        <p style=""font-size: 20px; font-weight: bold; margin: 0;"">Is there a person in this image?</p>
                    </div>
                </div>","0","main_experiment_trial","4","the_performance_causal","causal_sequence","","","","",""
"","","","","","html-keyboard-response","109","1929209","0.0-109.0","AE5BB3054A9A46FABF7249C579A08B44","019cf031-fe55-7072-b99c-0fc714c2d998","019ceff9-9f67-7034-9722-02cda2445e09","","null","
                <div class=""stimulus-container"">
                    <img src=""images/causal_sequence/the_performance_causal/the_performance_causal_5.png"" class=""exp-image"">
                    <div class=""question-area""></div> 
                </div>","null","","","","","","","","",""
"","","","","","html-button-response","110","1929924","0.0-110.0","AE5BB3054A9A46FABF7249C579A08B44","019cf031-fe55-7072-b99c-0fc714c2d998","019ceff9-9f67-7034-9722-02cda2445e09","","715","
                <div class=""stimulus-container"">
                    <img src=""images/causal_sequence/the_performance_causal/the_performance_causal_5.png"" class=""exp-image"">
                    <div class=""question-area"">
                        <p style=""font-size: 20px; font-weight: bold; margin: 0;"">Is there a person in this image?</p>
                    </div>
                </div>","0","main_experiment_trial","5","the_performance_causal","causal_sequence","","","","",""
"","","","","","html-keyboard-response","111","1934925","0.0-111.0","AE5BB3054A9A46FABF7249C579A08B44","019cf031-fe55-7072-b99c-0fc714c2d998","019ceff9-9f67-7034-9722-02cda2445e09","","null","
                <div class=""stimulus-container"">
                    <img src=""images/causal_sequence/the_performance_causal/the_performance_causal_6.png"" class=""exp-image"">
                    <div class=""question-area""></div> 
                </div>","null","","","","","","","","",""
"","","","","","html-button-response","112","1935936","0.0-112.0","AE5BB3054A9A46FABF7249C579A08B44","019cf031-fe55-7072-b99c-0fc714c2d998","019ceff9-9f67-7034-9722-02cda2445e09","","1011","
                <div class=""stimulus-container"">
                    <img src=""images/causal_sequence/the_performance_causal/the_performance_causal_6.png"" class=""exp-image"">
                    <div class=""question-area"">
                        <p style=""font-size: 20px; font-weight: bold; margin: 0;"">Is there a person in this image?</p>
                    </div>
                </div>","0","main_experiment_trial","6","the_performance_causal","causal_sequence","","","","",""
"","","","","","html-keyboard-response","113","1940938","0.0-113.0","AE5BB3054A9A46FABF7249C579A08B44","019cf031-fe55-7072-b99c-0fc714c2d998","019ceff9-9f67-7034-9722-02cda2445e09","","null","
                <div class=""stimulus-container"">
                    <img src=""images/causal_sequence/the_performance_causal/the_performance_causal_7.png"" class=""exp-image"">
                    <div class=""question-area""></div> 
                </div>","null","","","","","","","","",""
"","","","","","html-button-response","114","1942656","0.0-114.0","AE5BB3054A9A46FABF7249C579A08B44","019cf031-fe55-7072-b99c-0fc714c2d998","019ceff9-9f67-7034-9722-02cda2445e09","","1717","
                <div class=""stimulus-container"">
                    <img src=""images/causal_sequence/the_performance_causal/the_performance_causal_7.png"" class=""exp-image"">
                    <div class=""question-area"">
                        <p style=""font-size: 20px; font-weight: bold; margin: 0;"">Is there a person in this image?</p>
                    </div>
                </div>","0","main_experiment_trial","7","the_performance_causal","causal_sequence","","","","",""
"","","","","","html-keyboard-response","115","1947658","0.0-115.0","AE5BB3054A9A46FABF7249C579A08B44","019cf031-fe55-7072-b99c-0fc714c2d998","019ceff9-9f67-7034-9722-02cda2445e09","","null","
                <div class=""stimulus-container"">
                    <img src=""images/causal_sequence/the_performance_causal/the_performance_causal_8.png"" class=""exp-image"">
                    <div class=""question-area""></div> 
                </div>","null","","","","","","","","",""
"","","","","","html-button-response","116","1948537","0.0-116.0","AE5BB3054A9A46FABF7249C579A08B44","019cf031-fe55-7072-b99c-0fc714c2d998","019ceff9-9f67-7034-9722-02cda2445e09","","877","
                <div class=""stimulus-container"">
                    <img src=""images/causal_sequence/the_performance_causal/the_performance_causal_8.png"" class=""exp-image"">
                    <div class=""question-area"">
                        <p style=""font-size: 20px; font-weight: bold; margin: 0;"">Is there a person in this image?</p>
                    </div>
                </div>","0","main_experiment_trial","8","the_performance_causal","causal_sequence","","","","",""
"","","","","","html-keyboard-response","117","1953538","0.0-117.0","AE5BB3054A9A46FABF7249C579A08B44","019cf031-fe55-7072-b99c-0fc714c2d998","019ceff9-9f67-7034-9722-02cda2445e09","","null","
                <div class=""stimulus-container"">
                    <img src=""images/causal_sequence/the_performance_causal/the_performance_causal_9.png"" class=""exp-image"">
                    <div class=""question-area""></div> 
                </div>","null","","","","","","","","",""
"","","","","","html-button-response","118","1955351","0.0-118.0","AE5BB3054A9A46FABF7249C579A08B44","019cf031-fe55-7072-b99c-0fc714c2d998","019ceff9-9f67-7034-9722-02cda2445e09","","1812","
                <div class=""stimulus-container"">
                    <img src=""images/causal_sequence/the_performance_causal/the_performance_causal_9.png"" class=""exp-image"">
                    <div class=""question-area"">
                        <p style=""font-size: 20px; font-weight: bold; margin: 0;"">Is there a person in this image?</p>
                    </div>
                </div>","0","main_experiment_trial","9","the_performance_causal","causal_sequence","","","","",""
"","","","","","html-keyboard-response","119","1960353","0.0-119.0","AE5BB3054A9A46FABF7249C579A08B44","019cf031-fe55-7072-b99c-0fc714c2d998","019ceff9-9f67-7034-9722-02cda2445e09","","null","
                <div class=""stimulus-container"">
                    <img src=""images/causal_sequence/the_performance_causal/the_performance_causal_ten.png"" class=""exp-image"">
                    <div class=""question-area""></div> 
                </div>","null","","","","","","","","",""
"","","","","","html-button-response","120","1961538","0.0-120.0","AE5BB3054A9A46FABF7249C579A08B44","019cf031-fe55-7072-b99c-0fc714c2d998","019ceff9-9f67-7034-9722-02cda2445e09","","1184","
                <div class=""stimulus-container"">
                    <img src=""images/causal_sequence/the_performance_causal/the_performance_causal_ten.png"" class=""exp-image"">
                    <div class=""question-area"">
                        <p style=""font-size: 20px; font-weight: bold; margin: 0;"">Is there a person in this image?</p>
                    </div>
                </div>","0","main_experiment_trial","ten","the_performance_causal","causal_sequence","","","","",""
"","","","","","html-keyboard-response","121","1962540","0.0-121.0","AE5BB3054A9A46FABF7249C579A08B44","019cf031-fe55-7072-b99c-0fc714c2d998","019ceff9-9f67-7034-9722-02cda2445e09","","null","<div style=""background-color: white; width: 100vw; height: 100vh;""></div>","null","","","","","","","","",""
"","","","","","html-keyboard-response","122","1967542","0.0-122.0","AE5BB3054A9A46FABF7249C579A08B44","019cf031-fe55-7072-b99c-0fc714c2d998","019ceff9-9f67-7034-9722-02cda2445e09","","null","
                <div class=""stimulus-container"">
                    <img src=""images/schematic_sequence/restaurant_scheme/restaurant_scheme_1.png"" class=""exp-image"">
                    <div class=""question-area""></div> 
                </div>","null","","","","","","","","",""
"","","","","","html-button-response","123","1968191","0.0-123.0","AE5BB3054A9A46FABF7249C579A08B44","019cf031-fe55-7072-b99c-0fc714c2d998","019ceff9-9f67-7034-9722-02cda2445e09","","648","
                <div class=""stimulus-container"">
                    <img src=""images/schematic_sequence/restaurant_scheme/restaurant_scheme_1.png"" class=""exp-image"">
                    <div class=""question-area"">
                        <p style=""font-size: 20px; font-weight: bold; margin: 0;"">Is there a person in this image?</p>
                    </div>
                </div>","0","main_experiment_trial","1","restaurant_scheme","schematic_sequence","","","","",""
"","","","","","html-keyboard-response","124","1973193","0.0-124.0","AE5BB3054A9A46FABF7249C579A08B44","019cf031-fe55-7072-b99c-0fc714c2d998","019ceff9-9f67-7034-9722-02cda2445e09","","null","
                <div class=""stimulus-container"">
                    <img src=""images/schematic_sequence/restaurant_scheme/restaurant_scheme_2.png"" class=""exp-image"">
                    <div class=""question-area""></div> 
                </div>","null","","","","","","","","",""
"","","","","","html-button-response","125","1975597","0.0-125.0","AE5BB3054A9A46FABF7249C579A08B44","019cf031-fe55-7072-b99c-0fc714c2d998","019ceff9-9f67-7034-9722-02cda2445e09","","2403","
                <div class=""stimulus-container"">
                    <img src=""images/schematic_sequence/restaurant_scheme/restaurant_scheme_2.png"" class=""exp-image"">
                    <div class=""question-area"">
                        <p style=""font-size: 20px; font-weight: bold; margin: 0;"">Is there a person in this image?</p>
                    </div>
                </div>","1","main_experiment_trial","2","restaurant_scheme","schematic_sequence","","","","",""
"","","","","","html-keyboard-response","126","1980599","0.0-126.0","AE5BB3054A9A46FABF7249C579A08B44","019cf031-fe55-7072-b99c-0fc714c2d998","019ceff9-9f67-7034-9722-02cda2445e09","","null","
                <div class=""stimulus-container"">
                    <img src=""images/schematic_sequence/restaurant_scheme/restaurant_scheme_3.png"" class=""exp-image"">
                    <div class=""question-area""></div> 
                </div>","null","","","","","","","","",""
"","","","","","html-button-response","127","1982628","0.0-127.0","AE5BB3054A9A46FABF7249C579A08B44","019cf031-fe55-7072-b99c-0fc714c2d998","019ceff9-9f67-7034-9722-02cda2445e09","","2028","
                <div class=""stimulus-container"">
                    <img src=""images/schematic_sequence/restaurant_scheme/restaurant_scheme_3.png"" class=""exp-image"">
                    <div class=""question-area"">
                        <p style=""font-size: 20px; font-weight: bold; margin: 0;"">Is there a person in this image?</p>
                    </div>
                </div>","1","main_experiment_trial","3","restaurant_scheme","schematic_sequence","","","","",""
"","","","","","html-keyboard-response","128","1987631","0.0-128.0","AE5BB3054A9A46FABF7249C579A08B44","019cf031-fe55-7072-b99c-0fc714c2d998","019ceff9-9f67-7034-9722-02cda2445e09","","null","
                <div class=""stimulus-container"">
                    <img src=""images/schematic_sequence/restaurant_scheme/restaurant_scheme_4.png"" class=""exp-image"">
                    <div class=""question-area""></div> 
                </div>","null","","","","","","","","",""
"","","","","","html-button-response","129","1988675","0.0-129.0","AE5BB3054A9A46FABF7249C579A08B44","019cf031-fe55-7072-b99c-0fc714c2d998","019ceff9-9f67-7034-9722-02cda2445e09","","1042","
                <div class=""stimulus-container"">
                    <img src=""images/schematic_sequence/restaurant_scheme/restaurant_scheme_4.png"" class=""exp-image"">
                    <div class=""question-area"">
                        <p style=""font-size: 20px; font-weight: bold; margin: 0;"">Is there a person in this image?</p>
                    </div>
                </div>","0","main_experiment_trial","4","restaurant_scheme","schematic_sequence","","","","",""
"","","","","","html-keyboard-response","130","1993676","0.0-130.0","AE5BB3054A9A46FABF7249C579A08B44","019cf031-fe55-7072-b99c-0fc714c2d998","019ceff9-9f67-7034-9722-02cda2445e09","","null","
                <div class=""stimulus-container"">
                    <img src=""images/schematic_sequence/restaurant_scheme/restaurant_scheme_5.png"" class=""exp-image"">
                    <div class=""question-area""></div> 
                </div>","null","","","","","","","","",""
"","","","","","html-button-response","131","1994881","0.0-131.0","AE5BB3054A9A46FABF7249C579A08B44","019cf031-fe55-7072-b99c-0fc714c2d998","019ceff9-9f67-7034-9722-02cda2445e09","","1205","
                <div class=""stimulus-container"">
                    <img src=""images/schematic_sequence/restaurant_scheme/restaurant_scheme_5.png"" class=""exp-image"">
                    <div class=""question-area"">
                        <p style=""font-size: 20px; font-weight: bold; margin: 0;"">Is there a person in this image?</p>
                    </div>
                </div>","0","main_experiment_trial","5","restaurant_scheme","schematic_sequence","","","","",""
"","","","","","html-keyboard-response","132","1999883","0.0-132.0","AE5BB3054A9A46FABF7249C579A08B44","019cf031-fe55-7072-b99c-0fc714c2d998","019ceff9-9f67-7034-9722-02cda2445e09","","null","
                <div class=""stimulus-container"">
                    <img src=""images/schematic_sequence/restaurant_scheme/restaurant_scheme_6.png"" class=""exp-image"">
                    <div class=""question-area""></div> 
                </div>","null","","","","","","","","",""
"","","","","","html-button-response","133","2001069","0.0-133.0","AE5BB3054A9A46FABF7249C579A08B44","019cf031-fe55-7072-b99c-0fc714c2d998","019ceff9-9f67-7034-9722-02cda2445e09","","1185","
                <div class=""stimulus-container"">
                    <img src=""images/schematic_sequence/restaurant_scheme/restaurant_scheme_6.png"" class=""exp-image"">
                    <div class=""question-area"">
                        <p style=""font-size: 20px; font-weight: bold; margin: 0;"">Is there a person in this image?</p>
                    </div>
                </div>","1","main_experiment_trial","6","restaurant_scheme","schematic_sequence","","","","",""
"","","","","","html-keyboard-response","134","2006071","0.0-134.0","AE5BB3054A9A46FABF7249C579A08B44","019cf031-fe55-7072-b99c-0fc714c2d998","019ceff9-9f67-7034-9722-02cda2445e09","","null","
                <div class=""stimulus-container"">
                    <img src=""images/schematic_sequence/restaurant_scheme/restaurant_scheme_7.png"" class=""exp-image"">
                    <div class=""question-area""></div> 
                </div>","null","","","","","","","","",""
"","","","","","html-button-response","135","2007152","0.0-135.0","AE5BB3054A9A46FABF7249C579A08B44","019cf031-fe55-7072-b99c-0fc714c2d998","019ceff9-9f67-7034-9722-02cda2445e09","","1081","
                <div class=""stimulus-container"">
                    <img src=""images/schematic_sequence/restaurant_scheme/restaurant_scheme_7.png"" class=""exp-image"">
                    <div class=""question-area"">
                        <p style=""font-size: 20px; font-weight: bold; margin: 0;"">Is there a person in this image?</p>
                    </div>
                </div>","1","main_experiment_trial","7","restaurant_scheme","schematic_sequence","","","","",""
"","","","","","html-keyboard-response","136","2012154","0.0-136.0","AE5BB3054A9A46FABF7249C579A08B44","019cf031-fe55-7072-b99c-0fc714c2d998","019ceff9-9f67-7034-9722-02cda2445e09","","null","
                <div class=""stimulus-container"">
                    <img src=""images/schematic_sequence/restaurant_scheme/restaurant_scheme_8.png"" class=""exp-image"">
                    <div class=""question-area""></div> 
                </div>","null","","","","","","","","",""
"","","","","","html-button-response","137","2013977","0.0-137.0","AE5BB3054A9A46FABF7249C579A08B44","019cf031-fe55-7072-b99c-0fc714c2d998","019ceff9-9f67-7034-9722-02cda2445e09","","1822","
                <div class=""stimulus-container"">
                    <img src=""images/schematic_sequence/restaurant_scheme/restaurant_scheme_8.png"" class=""exp-image"">
                    <div class=""question-area"">
                        <p style=""font-size: 20px; font-weight: bold; margin: 0;"">Is there a person in this image?</p>
                    </div>
                </div>","0","main_experiment_trial","8","restaurant_scheme","schematic_sequence","","","","",""
"","","","","","html-keyboard-response","138","2018979","0.0-138.0","AE5BB3054A9A46FABF7249C579A08B44","019cf031-fe55-7072-b99c-0fc714c2d998","019ceff9-9f67-7034-9722-02cda2445e09","","null","
                <div class=""stimulus-container"">
                    <img src=""images/schematic_sequence/restaurant_scheme/restaurant_scheme_9.png"" class=""exp-image"">
                    <div class=""question-area""></div> 
                </div>","null","","","","","","","","",""
"","","","","","html-button-response","139","2019770","0.0-139.0","AE5BB3054A9A46FABF7249C579A08B44","019cf031-fe55-7072-b99c-0fc714c2d998","019ceff9-9f67-7034-9722-02cda2445e09","","790","
                <div class=""stimulus-container"">
                    <img src=""images/schematic_sequence/restaurant_scheme/restaurant_scheme_9.png"" class=""exp-image"">
                    <div class=""question-area"">
                        <p style=""font-size: 20px; font-weight: bold; margin: 0;"">Is there a person in this image?</p>
                    </div>
                </div>","0","main_experiment_trial","9","restaurant_scheme","schematic_sequence","","","","",""
"","","","","","html-keyboard-response","140","2024772","0.0-140.0","AE5BB3054A9A46FABF7249C579A08B44","019cf031-fe55-7072-b99c-0fc714c2d998","019ceff9-9f67-7034-9722-02cda2445e09","","null","
                <div class=""stimulus-container"">
                    <img src=""images/schematic_sequence/restaurant_scheme/restaurant_scheme_ten.png"" class=""exp-image"">
                    <div class=""question-area""></div> 
                </div>","null","","","","","","","","",""
"","","","","","html-button-response","141","2025783","0.0-141.0","AE5BB3054A9A46FABF7249C579A08B44","019cf031-fe55-7072-b99c-0fc714c2d998","019ceff9-9f67-7034-9722-02cda2445e09","","1010","
                <div class=""stimulus-container"">
                    <img src=""images/schematic_sequence/restaurant_scheme/restaurant_scheme_ten.png"" class=""exp-image"">
                    <div class=""question-area"">
                        <p style=""font-size: 20px; font-weight: bold; margin: 0;"">Is there a person in this image?</p>
                    </div>
                </div>","0","main_experiment_trial","ten","restaurant_scheme","schematic_sequence","","","","",""
"","","","","","html-keyboard-response","142","2026784","0.0-142.0","AE5BB3054A9A46FABF7249C579A08B44","019cf031-fe55-7072-b99c-0fc714c2d998","019ceff9-9f67-7034-9722-02cda2445e09","","null","<div style=""background-color: white; width: 100vw; height: 100vh;""></div>","null","","","","","","","","",""
"","","","","","html-keyboard-response","143","2031786","0.0-143.0","AE5BB3054A9A46FABF7249C579A08B44","019cf031-fe55-7072-b99c-0fc714c2d998","019ceff9-9f67-7034-9722-02cda2445e09","","null","
                <div class=""stimulus-container"">
                    <img src=""images/schematic_sequence/flight_scheme/flight_scheme_1.png"" class=""exp-image"">
                    <div class=""question-area""></div> 
                </div>","null","","","","","","","","",""
"","","","","","html-button-response","144","2032681","0.0-144.0","AE5BB3054A9A46FABF7249C579A08B44","019cf031-fe55-7072-b99c-0fc714c2d998","019ceff9-9f67-7034-9722-02cda2445e09","","895","
                <div class=""stimulus-container"">
                    <img src=""images/schematic_sequence/flight_scheme/flight_scheme_1.png"" class=""exp-image"">
                    <div class=""question-area"">
                        <p style=""font-size: 20px; font-weight: bold; margin: 0;"">Is there a person in this image?</p>
                    </div>
                </div>","0","main_experiment_trial","1","flight_scheme","schematic_sequence","","","","",""
"","","","","","html-keyboard-response","145","2037682","0.0-145.0","AE5BB3054A9A46FABF7249C579A08B44","019cf031-fe55-7072-b99c-0fc714c2d998","019ceff9-9f67-7034-9722-02cda2445e09","","null","
                <div class=""stimulus-container"">
                    <img src=""images/schematic_sequence/flight_scheme/flight_scheme_2.png"" class=""exp-image"">
                    <div class=""question-area""></div> 
                </div>","null","","","","","","","","",""
"","","","","","html-button-response","146","2039636","0.0-146.0","AE5BB3054A9A46FABF7249C579A08B44","019cf031-fe55-7072-b99c-0fc714c2d998","019ceff9-9f67-7034-9722-02cda2445e09","","1952","
                <div class=""stimulus-container"">
                    <img src=""images/schematic_sequence/flight_scheme/flight_scheme_2.png"" class=""exp-image"">
                    <div class=""question-area"">
                        <p style=""font-size: 20px; font-weight: bold; margin: 0;"">Is there a person in this image?</p>
                    </div>
                </div>","1","main_experiment_trial","2","flight_scheme","schematic_sequence","","","","",""
"","","","","","html-keyboard-response","147","2044637","0.0-147.0","AE5BB3054A9A46FABF7249C579A08B44","019cf031-fe55-7072-b99c-0fc714c2d998","019ceff9-9f67-7034-9722-02cda2445e09","","null","
                <div class=""stimulus-container"">
                    <img src=""images/schematic_sequence/flight_scheme/flight_scheme_3.png"" class=""exp-image"">
                    <div class=""question-area""></div> 
                </div>","null","","","","","","","","",""
"","","","","","html-button-response","148","2045537","0.0-148.0","AE5BB3054A9A46FABF7249C579A08B44","019cf031-fe55-7072-b99c-0fc714c2d998","019ceff9-9f67-7034-9722-02cda2445e09","","900","
                <div class=""stimulus-container"">
                    <img src=""images/schematic_sequence/flight_scheme/flight_scheme_3.png"" class=""exp-image"">
                    <div class=""question-area"">
                        <p style=""font-size: 20px; font-weight: bold; margin: 0;"">Is there a person in this image?</p>
                    </div>
                </div>","0","main_experiment_trial","3","flight_scheme","schematic_sequence","","","","",""
"","","","","","html-keyboard-response","149","2050540","0.0-149.0","AE5BB3054A9A46FABF7249C579A08B44","019cf031-fe55-7072-b99c-0fc714c2d998","019ceff9-9f67-7034-9722-02cda2445e09","","null","
                <div class=""stimulus-container"">
                    <img src=""images/schematic_sequence/flight_scheme/flight_scheme_4.png"" class=""exp-image"">
                    <div class=""question-area""></div> 
                </div>","null","","","","","","","","",""
"","","","","","html-button-response","150","2051400","0.0-150.0","AE5BB3054A9A46FABF7249C579A08B44","019cf031-fe55-7072-b99c-0fc714c2d998","019ceff9-9f67-7034-9722-02cda2445e09","","860","
                <div class=""stimulus-container"">
                    <img src=""images/schematic_sequence/flight_scheme/flight_scheme_4.png"" class=""exp-image"">
                    <div class=""question-area"">
                        <p style=""font-size: 20px; font-weight: bold; margin: 0;"">Is there a person in this image?</p>
                    </div>
                </div>","0","main_experiment_trial","4","flight_scheme","schematic_sequence","","","","",""
"","","","","","html-keyboard-response","151","2056403","0.0-151.0","AE5BB3054A9A46FABF7249C579A08B44","019cf031-fe55-7072-b99c-0fc714c2d998","019ceff9-9f67-7034-9722-02cda2445e09","","null","
                <div class=""stimulus-container"">
                    <img src=""images/schematic_sequence/flight_scheme/flight_scheme_5.png"" class=""exp-image"">
                    <div class=""question-area""></div> 
                </div>","null","","","","","","","","",""
"","","","","","html-button-response","152","2057263","0.0-152.0","AE5BB3054A9A46FABF7249C579A08B44","019cf031-fe55-7072-b99c-0fc714c2d998","019ceff9-9f67-7034-9722-02cda2445e09","","859","
                <div class=""stimulus-container"">
                    <img src=""images/schematic_sequence/flight_scheme/flight_scheme_5.png"" class=""exp-image"">
                    <div class=""question-area"">
                        <p style=""font-size: 20px; font-weight: bold; margin: 0;"">Is there a person in this image?</p>
                    </div>
                </div>","0","main_experiment_trial","5","flight_scheme","schematic_sequence","","","","",""
"","","","","","html-keyboard-response","153","2062264","0.0-153.0","AE5BB3054A9A46FABF7249C579A08B44","019cf031-fe55-7072-b99c-0fc714c2d998","019ceff9-9f67-7034-9722-02cda2445e09","","null","
                <div class=""stimulus-container"">
                    <img src=""images/schematic_sequence/flight_scheme/flight_scheme_6.png"" class=""exp-image"">
                    <div class=""question-area""></div> 
                </div>","null","","","","","","","","",""
"","","","","","html-button-response","154","2062736","0.0-154.0","AE5BB3054A9A46FABF7249C579A08B44","019cf031-fe55-7072-b99c-0fc714c2d998","019ceff9-9f67-7034-9722-02cda2445e09","","472","
                <div class=""stimulus-container"">
                    <img src=""images/schematic_sequence/flight_scheme/flight_scheme_6.png"" class=""exp-image"">
                    <div class=""question-area"">
                        <p style=""font-size: 20px; font-weight: bold; margin: 0;"">Is there a person in this image?</p>
                    </div>
                </div>","1","main_experiment_trial","6","flight_scheme","schematic_sequence","","","","",""
"","","","","","html-keyboard-response","155","2067738","0.0-155.0","AE5BB3054A9A46FABF7249C579A08B44","019cf031-fe55-7072-b99c-0fc714c2d998","019ceff9-9f67-7034-9722-02cda2445e09","","null","
                <div class=""stimulus-container"">
                    <img src=""images/schematic_sequence/flight_scheme/flight_scheme_7.png"" class=""exp-image"">
                    <div class=""question-area""></div> 
                </div>","null","","","","","","","","",""
"","","","","","html-button-response","156","2068570","0.0-156.0","AE5BB3054A9A46FABF7249C579A08B44","019cf031-fe55-7072-b99c-0fc714c2d998","019ceff9-9f67-7034-9722-02cda2445e09","","831","
                <div class=""stimulus-container"">
                    <img src=""images/schematic_sequence/flight_scheme/flight_scheme_7.png"" class=""exp-image"">
                    <div class=""question-area"">
                        <p style=""font-size: 20px; font-weight: bold; margin: 0;"">Is there a person in this image?</p>
                    </div>
                </div>","1","main_experiment_trial","7","flight_scheme","schematic_sequence","","","","",""
"","","","","","html-keyboard-response","157","2073571","0.0-157.0","AE5BB3054A9A46FABF7249C579A08B44","019cf031-fe55-7072-b99c-0fc714c2d998","019ceff9-9f67-7034-9722-02cda2445e09","","null","
                <div class=""stimulus-container"">
                    <img src=""images/schematic_sequence/flight_scheme/flight_scheme_8.png"" class=""exp-image"">
                    <div class=""question-area""></div> 
                </div>","null","","","","","","","","",""
"","","","","","html-button-response","158","2075175","0.0-158.0","AE5BB3054A9A46FABF7249C579A08B44","019cf031-fe55-7072-b99c-0fc714c2d998","019ceff9-9f67-7034-9722-02cda2445e09","","1604","
                <div class=""stimulus-container"">
                    <img src=""images/schematic_sequence/flight_scheme/flight_scheme_8.png"" class=""exp-image"">
                    <div class=""question-area"">
                        <p style=""font-size: 20px; font-weight: bold; margin: 0;"">Is there a person in this image?</p>
                    </div>
                </div>","1","main_experiment_trial","8","flight_scheme","schematic_sequence","","","","",""
"","","","","","html-keyboard-response","159","2080177","0.0-159.0","AE5BB3054A9A46FABF7249C579A08B44","019cf031-fe55-7072-b99c-0fc714c2d998","019ceff9-9f67-7034-9722-02cda2445e09","","null","
                <div class=""stimulus-container"">
                    <img src=""images/schematic_sequence/flight_scheme/flight_scheme_9.png"" class=""exp-image"">
                    <div class=""question-area""></div> 
                </div>","null","","","","","","","","",""
"","","","","","html-button-response","160","2081135","0.0-160.0","AE5BB3054A9A46FABF7249C579A08B44","019cf031-fe55-7072-b99c-0fc714c2d998","019ceff9-9f67-7034-9722-02cda2445e09","","957","
                <div class=""stimulus-container"">
                    <img src=""images/schematic_sequence/flight_scheme/flight_scheme_9.png"" class=""exp-image"">
                    <div class=""question-area"">
                        <p style=""font-size: 20px; font-weight: bold; margin: 0;"">Is there a person in this image?</p>
                    </div>
                </div>","0","main_experiment_trial","9","flight_scheme","schematic_sequence","","","","",""
"","","","","","html-keyboard-response","161","2086138","0.0-161.0","AE5BB3054A9A46FABF7249C579A08B44","019cf031-fe55-7072-b99c-0fc714c2d998","019ceff9-9f67-7034-9722-02cda2445e09","","null","
                <div class=""stimulus-container"">
                    <img src=""images/schematic_sequence/flight_scheme/flight_scheme_ten.png"" class=""exp-image"">
                    <div class=""question-area""></div> 
                </div>","null","","","","","","","","",""
"","","","","","html-button-response","162","2089140","0.0-162.0","AE5BB3054A9A46FABF7249C579A08B44","019cf031-fe55-7072-b99c-0fc714c2d998","019ceff9-9f67-7034-9722-02cda2445e09","","null","
                <div class=""stimulus-container"">
                    <img src=""images/schematic_sequence/flight_scheme/flight_scheme_ten.png"" class=""exp-image"">
                    <div class=""question-area"">
                        <p style=""font-size: 20px; font-weight: bold; margin: 0;"">Is there a person in this image?</p>
                    </div>
                </div>","null","main_experiment_trial","ten","flight_scheme","schematic_sequence","","","","",""
"","","","","","html-keyboard-response","163","2090142","0.0-163.0","AE5BB3054A9A46FABF7249C579A08B44","019cf031-fe55-7072-b99c-0fc714c2d998","019ceff9-9f67-7034-9722-02cda2445e09","","null","<div style=""background-color: white; width: 100vw; height: 100vh;""></div>","null","","","","","","","","",""
"","","","","","html-keyboard-response","164","2095144","0.0-164.0","AE5BB3054A9A46FABF7249C579A08B44","019cf031-fe55-7072-b99c-0fc714c2d998","019ceff9-9f67-7034-9722-02cda2445e09","","null","
                <div class=""stimulus-container"">
                    <img src=""images/causal_sequence/package_causal/package_causal_1.png"" class=""exp-image"">
                    <div class=""question-area""></div> 
                </div>","null","","","","","","","","",""
"","","","","","html-button-response","165","2096341","0.0-165.0","AE5BB3054A9A46FABF7249C579A08B44","019cf031-fe55-7072-b99c-0fc714c2d998","019ceff9-9f67-7034-9722-02cda2445e09","","1196","
                <div class=""stimulus-container"">
                    <img src=""images/causal_sequence/package_causal/package_causal_1.png"" class=""exp-image"">
                    <div class=""question-area"">
                        <p style=""font-size: 20px; font-weight: bold; margin: 0;"">Is there a person in this image?</p>
                    </div>
                </div>","0","main_experiment_trial","1","package_causal","causal_sequence","","","","",""
"","","","","","html-keyboard-response","166","2101342","0.0-166.0","AE5BB3054A9A46FABF7249C579A08B44","019cf031-fe55-7072-b99c-0fc714c2d998","019ceff9-9f67-7034-9722-02cda2445e09","","null","
                <div class=""stimulus-container"">
                    <img src=""images/causal_sequence/package_causal/package_causal_2.png"" class=""exp-image"">
                    <div class=""question-area""></div> 
                </div>","null","","","","","","","","",""
"","","","","","html-button-response","167","2101858","0.0-167.0","AE5BB3054A9A46FABF7249C579A08B44","019cf031-fe55-7072-b99c-0fc714c2d998","019ceff9-9f67-7034-9722-02cda2445e09","","516","
                <div class=""stimulus-container"">
                    <img src=""images/causal_sequence/package_causal/package_causal_2.png"" class=""exp-image"">
                    <div class=""question-area"">
                        <p style=""font-size: 20px; font-weight: bold; margin: 0;"">Is there a person in this image?</p>
                    </div>
                </div>","0","main_experiment_trial","2","package_causal","causal_sequence","","","","",""
"","","","","","html-keyboard-response","168","2106860","0.0-168.0","AE5BB3054A9A46FABF7249C579A08B44","019cf031-fe55-7072-b99c-0fc714c2d998","019ceff9-9f67-7034-9722-02cda2445e09","","null","
                <div class=""stimulus-container"">
                    <img src=""images/causal_sequence/package_causal/package_causal_3.png"" class=""exp-image"">
                    <div class=""question-area""></div> 
                </div>","null","","","","","","","","",""
"","","","","","html-button-response","169","2108308","0.0-169.0","AE5BB3054A9A46FABF7249C579A08B44","019cf031-fe55-7072-b99c-0fc714c2d998","019ceff9-9f67-7034-9722-02cda2445e09","","1446","
                <div class=""stimulus-container"">
                    <img src=""images/causal_sequence/package_causal/package_causal_3.png"" class=""exp-image"">
                    <div class=""question-area"">
                        <p style=""font-size: 20px; font-weight: bold; margin: 0;"">Is there a person in this image?</p>
                    </div>
                </div>","0","main_experiment_trial","3","package_causal","causal_sequence","","","","",""
"","","","","","html-keyboard-response","170","2113309","0.0-170.0","AE5BB3054A9A46FABF7249C579A08B44","019cf031-fe55-7072-b99c-0fc714c2d998","019ceff9-9f67-7034-9722-02cda2445e09","","null","
                <div class=""stimulus-container"">
                    <img src=""images/causal_sequence/package_causal/package_causal_4.png"" class=""exp-image"">
                    <div class=""question-area""></div> 
                </div>","null","","","","","","","","",""
"","","","","","html-button-response","171","2114315","0.0-171.0","AE5BB3054A9A46FABF7249C579A08B44","019cf031-fe55-7072-b99c-0fc714c2d998","019ceff9-9f67-7034-9722-02cda2445e09","","1005","
                <div class=""stimulus-container"">
                    <img src=""images/causal_sequence/package_causal/package_causal_4.png"" class=""exp-image"">
                    <div class=""question-area"">
                        <p style=""font-size: 20px; font-weight: bold; margin: 0;"">Is there a person in this image?</p>
                    </div>
                </div>","1","main_experiment_trial","4","package_causal","causal_sequence","","","","",""
"","","","","","html-keyboard-response","172","2119317","0.0-172.0","AE5BB3054A9A46FABF7249C579A08B44","019cf031-fe55-7072-b99c-0fc714c2d998","019ceff9-9f67-7034-9722-02cda2445e09","","null","
                <div class=""stimulus-container"">
                    <img src=""images/causal_sequence/package_causal/package_causal_5.png"" class=""exp-image"">
                    <div class=""question-area""></div> 
                </div>","null","","","","","","","","",""
"","","","","","html-button-response","173","2120072","0.0-173.0","AE5BB3054A9A46FABF7249C579A08B44","019cf031-fe55-7072-b99c-0fc714c2d998","019ceff9-9f67-7034-9722-02cda2445e09","","754","
                <div class=""stimulus-container"">
                    <img src=""images/causal_sequence/package_causal/package_causal_5.png"" class=""exp-image"">
                    <div class=""question-area"">
                        <p style=""font-size: 20px; font-weight: bold; margin: 0;"">Is there a person in this image?</p>
                    </div>
                </div>","0","main_experiment_trial","5","package_causal","causal_sequence","","","","",""
"","","","","","html-keyboard-response","174","2125075","0.0-174.0","AE5BB3054A9A46FABF7249C579A08B44","019cf031-fe55-7072-b99c-0fc714c2d998","019ceff9-9f67-7034-9722-02cda2445e09","","null","
                <div class=""stimulus-container"">
                    <img src=""images/causal_sequence/package_causal/package_causal_6.png"" class=""exp-image"">
                    <div class=""question-area""></div> 
                </div>","null","","","","","","","","",""
"","","","","","html-button-response","175","2126908","0.0-175.0","AE5BB3054A9A46FABF7249C579A08B44","019cf031-fe55-7072-b99c-0fc714c2d998","019ceff9-9f67-7034-9722-02cda2445e09","","1833","
                <div class=""stimulus-container"">
                    <img src=""images/causal_sequence/package_causal/package_causal_6.png"" class=""exp-image"">
                    <div class=""question-area"">
                        <p style=""font-size: 20px; font-weight: bold; margin: 0;"">Is there a person in this image?</p>
                    </div>
                </div>","0","main_experiment_trial","6","package_causal","causal_sequence","","","","",""
"","","","","","html-keyboard-response","176","2131910","0.0-176.0","AE5BB3054A9A46FABF7249C579A08B44","019cf031-fe55-7072-b99c-0fc714c2d998","019ceff9-9f67-7034-9722-02cda2445e09","","null","
                <div class=""stimulus-container"">
                    <img src=""images/causal_sequence/package_causal/package_causal_7.png"" class=""exp-image"">
                    <div class=""question-area""></div> 
                </div>","null","","","","","","","","",""
"","","","","","html-button-response","177","2132524","0.0-177.0","AE5BB3054A9A46FABF7249C579A08B44","019cf031-fe55-7072-b99c-0fc714c2d998","019ceff9-9f67-7034-9722-02cda2445e09","","612","
                <div class=""stimulus-container"">
                    <img src=""images/causal_sequence/package_causal/package_causal_7.png"" class=""exp-image"">
                    <div class=""question-area"">
                        <p style=""font-size: 20px; font-weight: bold; margin: 0;"">Is there a person in this image?</p>
                    </div>
                </div>","0","main_experiment_trial","7","package_causal","causal_sequence","","","","",""
"","","","","","html-keyboard-response","178","2137525","0.0-178.0","AE5BB3054A9A46FABF7249C579A08B44","019cf031-fe55-7072-b99c-0fc714c2d998","019ceff9-9f67-7034-9722-02cda2445e09","","null","
                <div class=""stimulus-container"">
                    <img src=""images/causal_sequence/package_causal/package_causal_8.png"" class=""exp-image"">
                    <div class=""question-area""></div> 
                </div>","null","","","","","","","","",""
"","","","","","html-button-response","179","2138391","0.0-179.0","AE5BB3054A9A46FABF7249C579A08B44","019cf031-fe55-7072-b99c-0fc714c2d998","019ceff9-9f67-7034-9722-02cda2445e09","","864","
                <div class=""stimulus-container"">
                    <img src=""images/causal_sequence/package_causal/package_causal_8.png"" class=""exp-image"">
                    <div class=""question-area"">
                        <p style=""font-size: 20px; font-weight: bold; margin: 0;"">Is there a person in this image?</p>
                    </div>
                </div>","0","main_experiment_trial","8","package_causal","causal_sequence","","","","",""
"","","","","","html-keyboard-response","180","2143393","0.0-180.0","AE5BB3054A9A46FABF7249C579A08B44","019cf031-fe55-7072-b99c-0fc714c2d998","019ceff9-9f67-7034-9722-02cda2445e09","","null","
                <div class=""stimulus-container"">
                    <img src=""images/causal_sequence/package_causal/package_causal_9.png"" class=""exp-image"">
                    <div class=""question-area""></div> 
                </div>","null","","","","","","","","",""
"","","","","","html-button-response","181","2143988","0.0-181.0","AE5BB3054A9A46FABF7249C579A08B44","019cf031-fe55-7072-b99c-0fc714c2d998","019ceff9-9f67-7034-9722-02cda2445e09","","593","
                <div class=""stimulus-container"">
                    <img src=""images/causal_sequence/package_causal/package_causal_9.png"" class=""exp-image"">
                    <div class=""question-area"">
                        <p style=""font-size: 20px; font-weight: bold; margin: 0;"">Is there a person in this image?</p>
                    </div>
                </div>","0","main_experiment_trial","9","package_causal","causal_sequence","","","","",""
"","","","","","html-keyboard-response","182","2148989","0.0-182.0","AE5BB3054A9A46FABF7249C579A08B44","019cf031-fe55-7072-b99c-0fc714c2d998","019ceff9-9f67-7034-9722-02cda2445e09","","null","
                <div class=""stimulus-container"">
                    <img src=""images/causal_sequence/package_causal/package_causal_ten.png"" class=""exp-image"">
                    <div class=""question-area""></div> 
                </div>","null","","","","","","","","",""
"","","","","","html-button-response","183","2149792","0.0-183.0","AE5BB3054A9A46FABF7249C579A08B44","019cf031-fe55-7072-b99c-0fc714c2d998","019ceff9-9f67-7034-9722-02cda2445e09","","802","
                <div class=""stimulus-container"">
                    <img src=""images/causal_sequence/package_causal/package_causal_ten.png"" class=""exp-image"">
