"success","timeout","failed_images","failed_audio","failed_video","trial_type","trial_index","time_elapsed","internal_node_id","subject_id","study_id","session_id","view_history","rt","stimulus","response","task","image_index","folder","sequence_type","presentation_order","valuable_image_index","reward_type","distance_from_x","target_X","chosen_image_index","is_x_plus_dist","correct_choice"
"true","false","[]","[]","[]","preload","0","10313","0.0-0.0","AFC2BA2C314941FCB94BEDAE6396E3B3","019dac78-5ede-7a54-9c90-4d18c97c7ed2","019dac5b-243f-7307-af64-a10f53f1ef70","","","","","","","","","","","","","","","",""
"","","","","","instructions","1","16359","0.0-1.0","AFC2BA2C314941FCB94BEDAE6396E3B3","019dac78-5ede-7a54-9c90-4d18c97c7ed2","019dac5b-243f-7307-af64-a10f53f1ef70","[{""page_index"":0,""viewing_time"":6045}]","6046","","","","","","","","","","","","","",""
"","","","","","instructions","2","41835","0.0-2.0","AFC2BA2C314941FCB94BEDAE6396E3B3","019dac78-5ede-7a54-9c90-4d18c97c7ed2","019dac5b-243f-7307-af64-a10f53f1ef70","[{""page_index"":0,""viewing_time"":25477}]","25477","","","","","","","","","","","","","",""
"true","","","","","fullscreen","3","46860","0.0-3.0","AFC2BA2C314941FCB94BEDAE6396E3B3","019dac78-5ede-7a54-9c90-4d18c97c7ed2","019dac5b-243f-7307-af64-a10f53f1ef70","","4020","","","","","","","","","","","","","",""
"","","","","","instructions","4","133515","0.0-4.0","AFC2BA2C314941FCB94BEDAE6396E3B3","019dac78-5ede-7a54-9c90-4d18c97c7ed2","019dac5b-243f-7307-af64-a10f53f1ef70","[{""page_index"":0,""viewing_time"":86659}]","86659","","","","","","","","","","","","","",""
"","","","","","instructions","5","186020","0.0-5.0","AFC2BA2C314941FCB94BEDAE6396E3B3","019dac78-5ede-7a54-9c90-4d18c97c7ed2","019dac5b-243f-7307-af64-a10f53f1ef70","[{""page_index"":0,""viewing_time"":52508}]","52508","","","","","","","","","","","","","",""
"","","","","","html-keyboard-response","6","190023","0.0-6.0","AFC2BA2C314941FCB94BEDAE6396E3B3","019dac78-5ede-7a54-9c90-4d18c97c7ed2","019dac5b-243f-7307-af64-a10f53f1ef70","","null","
                <div class=""stimulus-container"">
                    <img src=""images/instructions/movie_1.png"" class=""exp-image"">
                    <div class=""question-area""></div> 
                </div>","null","","","","","","","","","","","",""
"","","","","","html-button-response","7","193025","0.0-7.0","AFC2BA2C314941FCB94BEDAE6396E3B3","019dac78-5ede-7a54-9c90-4d18c97c7ed2","019dac5b-243f-7307-af64-a10f53f1ef70","","null","
                <div class=""stimulus-container"">
                    <img src=""images/instructions/movie_1.png"" class=""exp-image"">
                    <div class=""question-area"">
                        <p style=""font-size: 20px; font-weight: bold; margin: 0;"">Was there a person in this image?</p>
                    </div>
                </div>","null","example_question","1","","","","","","","","","",""
"","","","","","html-keyboard-response","8","197027","0.0-8.0","AFC2BA2C314941FCB94BEDAE6396E3B3","019dac78-5ede-7a54-9c90-4d18c97c7ed2","019dac5b-243f-7307-af64-a10f53f1ef70","","null","
                <div class=""stimulus-container"">
                    <img src=""images/instructions/movie_2.png"" class=""exp-image"">
                    <div class=""question-area""></div> 
                </div>","null","","","","","","","","","","","",""
"","","","","","html-button-response","9","198317","0.0-9.0","AFC2BA2C314941FCB94BEDAE6396E3B3","019dac78-5ede-7a54-9c90-4d18c97c7ed2","019dac5b-243f-7307-af64-a10f53f1ef70","","1289","
                <div class=""stimulus-container"">
                    <img src=""images/instructions/movie_2.png"" class=""exp-image"">
                    <div class=""question-area"">
                        <p style=""font-size: 20px; font-weight: bold; margin: 0;"">Was there a person in this image?</p>
                    </div>
                </div>","1","example_question","2","","","","","","","","","",""
"","","","","","html-keyboard-response","10","202319","0.0-10.0","AFC2BA2C314941FCB94BEDAE6396E3B3","019dac78-5ede-7a54-9c90-4d18c97c7ed2","019dac5b-243f-7307-af64-a10f53f1ef70","","null","
                <div class=""stimulus-container"">
                    <img src=""images/instructions/movie_3.png"" class=""exp-image"">
                    <div class=""question-area""></div> 
                </div>","null","","","","","","","","","","","",""
"","","","","","html-button-response","11","203455","0.0-11.0","AFC2BA2C314941FCB94BEDAE6396E3B3","019dac78-5ede-7a54-9c90-4d18c97c7ed2","019dac5b-243f-7307-af64-a10f53f1ef70","","1136","
                <div class=""stimulus-container"">
                    <img src=""images/instructions/movie_3.png"" class=""exp-image"">
                    <div class=""question-area"">
                        <p style=""font-size: 20px; font-weight: bold; margin: 0;"">Was there a person in this image?</p>
                    </div>
                </div>","0","example_question","3","","","","","","","","","",""
"","","","","","html-keyboard-response","12","207458","0.0-12.0","AFC2BA2C314941FCB94BEDAE6396E3B3","019dac78-5ede-7a54-9c90-4d18c97c7ed2","019dac5b-243f-7307-af64-a10f53f1ef70","","null","
                <div class=""stimulus-container"">
                    <img src=""images/instructions/movie_4.png"" class=""exp-image"">
                    <div class=""question-area""></div> 
                </div>","null","","","","","","","","","","","",""
"","","","","","html-button-response","13","208144","0.0-13.0","AFC2BA2C314941FCB94BEDAE6396E3B3","019dac78-5ede-7a54-9c90-4d18c97c7ed2","019dac5b-243f-7307-af64-a10f53f1ef70","","685","
                <div class=""stimulus-container"">
                    <img src=""images/instructions/movie_4.png"" class=""exp-image"">
                    <div class=""question-area"">
                        <p style=""font-size: 20px; font-weight: bold; margin: 0;"">Was there a person in this image?</p>
                    </div>
                </div>","0","example_question","4","","","","","","","","","",""
"","","","","","instructions","14","216035","0.0-14.0","AFC2BA2C314941FCB94BEDAE6396E3B3","019dac78-5ede-7a54-9c90-4d18c97c7ed2","019dac5b-243f-7307-af64-a10f53f1ef70","[{""page_index"":0,""viewing_time"":7891}]","7891","","","","","","","","","","","","","",""
"","","","","","instructions","15","245934","0.0-15.0","AFC2BA2C314941FCB94BEDAE6396E3B3","019dac78-5ede-7a54-9c90-4d18c97c7ed2","019dac5b-243f-7307-af64-a10f53f1ef70","[{""page_index"":0,""viewing_time"":29900}]","29900","","","","","","","","","","","","","",""
"","","","","","html-keyboard-response","16","250936","0.0-16.0","AFC2BA2C314941FCB94BEDAE6396E3B3","019dac78-5ede-7a54-9c90-4d18c97c7ed2","019dac5b-243f-7307-af64-a10f53f1ef70","","null","<div style=""background-color: white; width: 100vw; height: 100vh;""></div>","null","","","","","","","","","","","",""
"","","","","","html-keyboard-response","17","255939","0.0-17.0","AFC2BA2C314941FCB94BEDAE6396E3B3","019dac78-5ede-7a54-9c90-4d18c97c7ed2","019dac5b-243f-7307-af64-a10f53f1ef70","","null","
                <div class=""stimulus-container"">
                    <img src=""images/semantic_sequence/visiting_cities_semantic/visiting_cities_semantic_1.png"" class=""exp-image"">
                    <div class=""question-area""></div> 
                </div>","null","","","","","","","","","","","",""
"","","","","","html-button-response","18","257201","0.0-18.0","AFC2BA2C314941FCB94BEDAE6396E3B3","019dac78-5ede-7a54-9c90-4d18c97c7ed2","019dac5b-243f-7307-af64-a10f53f1ef70","","1261","
                <div class=""stimulus-container"">
                    <img src=""images/semantic_sequence/visiting_cities_semantic/visiting_cities_semantic_1.png"" class=""exp-image"">
                    <div class=""question-area"">
                        <p style=""font-size: 20px; font-weight: bold; margin: 0;"">Is there a person in this image?</p>
                    </div>
                </div>","0","main_experiment_trial","1","visiting_cities_semantic","semantic_sequence","chronological","","","","","","",""
"","","","","","html-keyboard-response","19","262202","0.0-19.0","AFC2BA2C314941FCB94BEDAE6396E3B3","019dac78-5ede-7a54-9c90-4d18c97c7ed2","019dac5b-243f-7307-af64-a10f53f1ef70","","null","
                <div class=""stimulus-container"">
                    <img src=""images/semantic_sequence/visiting_cities_semantic/visiting_cities_semantic_2.png"" class=""exp-image"">
                    <div class=""question-area""></div> 
                </div>","null","","","","","","","","","","","",""
"","","","","","html-button-response","20","263486","0.0-20.0","AFC2BA2C314941FCB94BEDAE6396E3B3","019dac78-5ede-7a54-9c90-4d18c97c7ed2","019dac5b-243f-7307-af64-a10f53f1ef70","","1282","
                <div class=""stimulus-container"">
                    <img src=""images/semantic_sequence/visiting_cities_semantic/visiting_cities_semantic_2.png"" class=""exp-image"">
                    <div class=""question-area"">
                        <p style=""font-size: 20px; font-weight: bold; margin: 0;"">Is there a person in this image?</p>
                    </div>
                </div>","1","main_experiment_trial","2","visiting_cities_semantic","semantic_sequence","chronological","","","","","","",""
"","","","","","html-keyboard-response","21","268488","0.0-21.0","AFC2BA2C314941FCB94BEDAE6396E3B3","019dac78-5ede-7a54-9c90-4d18c97c7ed2","019dac5b-243f-7307-af64-a10f53f1ef70","","null","
                <div class=""stimulus-container"">
                    <img src=""images/semantic_sequence/visiting_cities_semantic/visiting_cities_semantic_3.png"" class=""exp-image"">
                    <div class=""question-area""></div> 
                </div>","null","","","","","","","","","","","",""
"","","","","","html-button-response","22","269992","0.0-22.0","AFC2BA2C314941FCB94BEDAE6396E3B3","019dac78-5ede-7a54-9c90-4d18c97c7ed2","019dac5b-243f-7307-af64-a10f53f1ef70","","1504","
                <div class=""stimulus-container"">
                    <img src=""images/semantic_sequence/visiting_cities_semantic/visiting_cities_semantic_3.png"" class=""exp-image"">
                    <div class=""question-area"">
                        <p style=""font-size: 20px; font-weight: bold; margin: 0;"">Is there a person in this image?</p>
                    </div>
                </div>","1","main_experiment_trial","3","visiting_cities_semantic","semantic_sequence","chronological","","","","","","",""
"","","","","","html-keyboard-response","23","274994","0.0-23.0","AFC2BA2C314941FCB94BEDAE6396E3B3","019dac78-5ede-7a54-9c90-4d18c97c7ed2","019dac5b-243f-7307-af64-a10f53f1ef70","","null","
                <div class=""stimulus-container"">
                    <img src=""images/semantic_sequence/visiting_cities_semantic/visiting_cities_semantic_4.png"" class=""exp-image"">
                    <div class=""question-area""></div> 
                </div>","null","","","","","","","","","","","",""
"","","","","","html-button-response","24","277996","0.0-24.0","AFC2BA2C314941FCB94BEDAE6396E3B3","019dac78-5ede-7a54-9c90-4d18c97c7ed2","019dac5b-243f-7307-af64-a10f53f1ef70","","null","
                <div class=""stimulus-container"">
                    <img src=""images/semantic_sequence/visiting_cities_semantic/visiting_cities_semantic_4.png"" class=""exp-image"">
                    <div class=""question-area"">
                        <p style=""font-size: 20px; font-weight: bold; margin: 0;"">Is there a person in this image?</p>
                    </div>
                </div>","null","main_experiment_trial","4","visiting_cities_semantic","semantic_sequence","chronological","","","","","","",""
"","","","","","html-keyboard-response","25","282997","0.0-25.0","AFC2BA2C314941FCB94BEDAE6396E3B3","019dac78-5ede-7a54-9c90-4d18c97c7ed2","019dac5b-243f-7307-af64-a10f53f1ef70","","null","
                <div class=""stimulus-container"">
                    <img src=""images/semantic_sequence/visiting_cities_semantic/visiting_cities_semantic_5.png"" class=""exp-image"">
                    <div class=""question-area""></div> 
                </div>","null","","","","","","","","","","","",""
"","","","","","html-button-response","26","283690","0.0-26.0","AFC2BA2C314941FCB94BEDAE6396E3B3","019dac78-5ede-7a54-9c90-4d18c97c7ed2","019dac5b-243f-7307-af64-a10f53f1ef70","","693","
                <div class=""stimulus-container"">
                    <img src=""images/semantic_sequence/visiting_cities_semantic/visiting_cities_semantic_5.png"" class=""exp-image"">
                    <div class=""question-area"">
                        <p style=""font-size: 20px; font-weight: bold; margin: 0;"">Is there a person in this image?</p>
                    </div>
                </div>","1","main_experiment_trial","5","visiting_cities_semantic","semantic_sequence","chronological","","","","","","",""
"","","","","","html-keyboard-response","27","288692","0.0-27.0","AFC2BA2C314941FCB94BEDAE6396E3B3","019dac78-5ede-7a54-9c90-4d18c97c7ed2","019dac5b-243f-7307-af64-a10f53f1ef70","","null","
                <div class=""stimulus-container"">
                    <img src=""images/semantic_sequence/visiting_cities_semantic/visiting_cities_semantic_6.png"" class=""exp-image"">
                    <div class=""question-area""></div> 
                </div>","null","","","","","","","","","","","",""
"","","","","","html-button-response","28","289847","0.0-28.0","AFC2BA2C314941FCB94BEDAE6396E3B3","019dac78-5ede-7a54-9c90-4d18c97c7ed2","019dac5b-243f-7307-af64-a10f53f1ef70","","1154","
                <div class=""stimulus-container"">
                    <img src=""images/semantic_sequence/visiting_cities_semantic/visiting_cities_semantic_6.png"" class=""exp-image"">
                    <div class=""question-area"">
                        <p style=""font-size: 20px; font-weight: bold; margin: 0;"">Is there a person in this image?</p>
                    </div>
                </div>","1","main_experiment_trial","6","visiting_cities_semantic","semantic_sequence","chronological","","","","","","",""
"","","","","","html-keyboard-response","29","294848","0.0-29.0","AFC2BA2C314941FCB94BEDAE6396E3B3","019dac78-5ede-7a54-9c90-4d18c97c7ed2","019dac5b-243f-7307-af64-a10f53f1ef70","","null","
                <div class=""stimulus-container"">
                    <img src=""images/semantic_sequence/visiting_cities_semantic/visiting_cities_semantic_7.png"" class=""exp-image"">
                    <div class=""question-area""></div> 
                </div>","null","","","","","","","","","","","",""
"","","","","","html-button-response","30","295520","0.0-30.0","AFC2BA2C314941FCB94BEDAE6396E3B3","019dac78-5ede-7a54-9c90-4d18c97c7ed2","019dac5b-243f-7307-af64-a10f53f1ef70","","672","
                <div class=""stimulus-container"">
                    <img src=""images/semantic_sequence/visiting_cities_semantic/visiting_cities_semantic_7.png"" class=""exp-image"">
                    <div class=""question-area"">
                        <p style=""font-size: 20px; font-weight: bold; margin: 0;"">Is there a person in this image?</p>
                    </div>
                </div>","0","main_experiment_trial","7","visiting_cities_semantic","semantic_sequence","chronological","","","","","","",""
"","","","","","html-keyboard-response","31","300522","0.0-31.0","AFC2BA2C314941FCB94BEDAE6396E3B3","019dac78-5ede-7a54-9c90-4d18c97c7ed2","019dac5b-243f-7307-af64-a10f53f1ef70","","null","
                <div class=""stimulus-container"">
                    <img src=""images/semantic_sequence/visiting_cities_semantic/visiting_cities_semantic_8.png"" class=""exp-image"">
                    <div class=""question-area""></div> 
                </div>","null","","","","","","","","","","","",""
"","","","","","html-button-response","32","302009","0.0-32.0","AFC2BA2C314941FCB94BEDAE6396E3B3","019dac78-5ede-7a54-9c90-4d18c97c7ed2","019dac5b-243f-7307-af64-a10f53f1ef70","","1487","
                <div class=""stimulus-container"">
                    <img src=""images/semantic_sequence/visiting_cities_semantic/visiting_cities_semantic_8.png"" class=""exp-image"">
                    <div class=""question-area"">
                        <p style=""font-size: 20px; font-weight: bold; margin: 0;"">Is there a person in this image?</p>
                    </div>
                </div>","1","main_experiment_trial","8","visiting_cities_semantic","semantic_sequence","chronological","","","","","","",""
"","","","","","html-keyboard-response","33","307011","0.0-33.0","AFC2BA2C314941FCB94BEDAE6396E3B3","019dac78-5ede-7a54-9c90-4d18c97c7ed2","019dac5b-243f-7307-af64-a10f53f1ef70","","null","
                <div class=""stimulus-container"">
                    <img src=""images/semantic_sequence/visiting_cities_semantic/visiting_cities_semantic_9.png"" class=""exp-image"">
                    <div class=""question-area""></div> 
                </div>","null","","","","","","","","","","","",""
"","","","","","html-button-response","34","308166","0.0-34.0","AFC2BA2C314941FCB94BEDAE6396E3B3","019dac78-5ede-7a54-9c90-4d18c97c7ed2","019dac5b-243f-7307-af64-a10f53f1ef70","","1154","
                <div class=""stimulus-container"">
                    <img src=""images/semantic_sequence/visiting_cities_semantic/visiting_cities_semantic_9.png"" class=""exp-image"">
                    <div class=""question-area"">
                        <p style=""font-size: 20px; font-weight: bold; margin: 0;"">Is there a person in this image?</p>
                    </div>
                </div>","1","main_experiment_trial","9","visiting_cities_semantic","semantic_sequence","chronological","","","","","","",""
"","","","","","html-keyboard-response","35","313167","0.0-35.0","AFC2BA2C314941FCB94BEDAE6396E3B3","019dac78-5ede-7a54-9c90-4d18c97c7ed2","019dac5b-243f-7307-af64-a10f53f1ef70","","null","
                <div class=""stimulus-container"">
                    <img src=""images/semantic_sequence/visiting_cities_semantic/visiting_cities_semantic_ten.png"" class=""exp-image"">
                    <div class=""question-area""></div> 
                </div>","null","","","","","","","","","","","",""
"","","","","","html-button-response","36","314973","0.0-36.0","AFC2BA2C314941FCB94BEDAE6396E3B3","019dac78-5ede-7a54-9c90-4d18c97c7ed2","019dac5b-243f-7307-af64-a10f53f1ef70","","1805","
                <div class=""stimulus-container"">
                    <img src=""images/semantic_sequence/visiting_cities_semantic/visiting_cities_semantic_ten.png"" class=""exp-image"">
                    <div class=""question-area"">
                        <p style=""font-size: 20px; font-weight: bold; margin: 0;"">Is there a person in this image?</p>
                    </div>
                </div>","1","main_experiment_trial","ten","visiting_cities_semantic","semantic_sequence","chronological","","","","","","",""
"","","","","","html-keyboard-response","37","319975","0.0-37.0","AFC2BA2C314941FCB94BEDAE6396E3B3","019dac78-5ede-7a54-9c90-4d18c97c7ed2","019dac5b-243f-7307-af64-a10f53f1ef70","","null","<div style=""background-color: white; width: 100vw; height: 100vh;""></div>","null","","","","","","","","","","","",""
"","","","","","html-keyboard-response","38","324977","0.0-38.0","AFC2BA2C314941FCB94BEDAE6396E3B3","019dac78-5ede-7a54-9c90-4d18c97c7ed2","019dac5b-243f-7307-af64-a10f53f1ef70","","null","
                <div class=""stimulus-container"">
                    <img src=""images/semantic_sequence/housework_semantic/housework_semantic_1.png"" class=""exp-image"">
                    <div class=""question-area""></div> 
                </div>","null","","","","","","","","","","","",""
"","","","","","html-button-response","39","326018","0.0-39.0","AFC2BA2C314941FCB94BEDAE6396E3B3","019dac78-5ede-7a54-9c90-4d18c97c7ed2","019dac5b-243f-7307-af64-a10f53f1ef70","","1041","
                <div class=""stimulus-container"">
                    <img src=""images/semantic_sequence/housework_semantic/housework_semantic_1.png"" class=""exp-image"">
                    <div class=""question-area"">
                        <p style=""font-size: 20px; font-weight: bold; margin: 0;"">Is there a person in this image?</p>
                    </div>
                </div>","0","main_experiment_trial","1","housework_semantic","semantic_sequence","chronological","","","","","","",""
"","","","","","html-keyboard-response","40","331020","0.0-40.0","AFC2BA2C314941FCB94BEDAE6396E3B3","019dac78-5ede-7a54-9c90-4d18c97c7ed2","019dac5b-243f-7307-af64-a10f53f1ef70","","null","
                <div class=""stimulus-container"">
                    <img src=""images/semantic_sequence/housework_semantic/housework_semantic_2.png"" class=""exp-image"">
                    <div class=""question-area""></div> 
                </div>","null","","","","","","","","","","","",""
"","","","","","html-button-response","41","333276","0.0-41.0","AFC2BA2C314941FCB94BEDAE6396E3B3","019dac78-5ede-7a54-9c90-4d18c97c7ed2","019dac5b-243f-7307-af64-a10f53f1ef70","","2256","
                <div class=""stimulus-container"">
                    <img src=""images/semantic_sequence/housework_semantic/housework_semantic_2.png"" class=""exp-image"">
                    <div class=""question-area"">
                        <p style=""font-size: 20px; font-weight: bold; margin: 0;"">Is there a person in this image?</p>
                    </div>
                </div>","0","main_experiment_trial","2","housework_semantic","semantic_sequence","chronological","","","","","","",""
"","","","","","html-keyboard-response","42","338278","0.0-42.0","AFC2BA2C314941FCB94BEDAE6396E3B3","019dac78-5ede-7a54-9c90-4d18c97c7ed2","019dac5b-243f-7307-af64-a10f53f1ef70","","null","
                <div class=""stimulus-container"">
                    <img src=""images/semantic_sequence/housework_semantic/housework_semantic_3.png"" class=""exp-image"">
                    <div class=""question-area""></div> 
                </div>","null","","","","","","","","","","","",""
"","","","","","html-button-response","43","339583","0.0-43.0","AFC2BA2C314941FCB94BEDAE6396E3B3","019dac78-5ede-7a54-9c90-4d18c97c7ed2","019dac5b-243f-7307-af64-a10f53f1ef70","","1304","
                <div class=""stimulus-container"">
                    <img src=""images/semantic_sequence/housework_semantic/housework_semantic_3.png"" class=""exp-image"">
                    <div class=""question-area"">
                        <p style=""font-size: 20px; font-weight: bold; margin: 0;"">Is there a person in this image?</p>
                    </div>
                </div>","0","main_experiment_trial","3","housework_semantic","semantic_sequence","chronological","","","","","","",""
"","","","","","html-keyboard-response","44","344584","0.0-44.0","AFC2BA2C314941FCB94BEDAE6396E3B3","019dac78-5ede-7a54-9c90-4d18c97c7ed2","019dac5b-243f-7307-af64-a10f53f1ef70","","null","
                <div class=""stimulus-container"">
                    <img src=""images/semantic_sequence/housework_semantic/housework_semantic_4.png"" class=""exp-image"">
                    <div class=""question-area""></div> 
                </div>","null","","","","","","","","","","","",""
"","","","","","html-button-response","45","347324","0.0-45.0","AFC2BA2C314941FCB94BEDAE6396E3B3","019dac78-5ede-7a54-9c90-4d18c97c7ed2","019dac5b-243f-7307-af64-a10f53f1ef70","","2739","
                <div class=""stimulus-container"">
                    <img src=""images/semantic_sequence/housework_semantic/housework_semantic_4.png"" class=""exp-image"">
                    <div class=""question-area"">
                        <p style=""font-size: 20px; font-weight: bold; margin: 0;"">Is there a person in this image?</p>
                    </div>
                </div>","0","main_experiment_trial","4","housework_semantic","semantic_sequence","chronological","","","","","","",""
"","","","","","html-keyboard-response","46","352325","0.0-46.0","AFC2BA2C314941FCB94BEDAE6396E3B3","019dac78-5ede-7a54-9c90-4d18c97c7ed2","019dac5b-243f-7307-af64-a10f53f1ef70","","null","
                <div class=""stimulus-container"">
                    <img src=""images/semantic_sequence/housework_semantic/housework_semantic_5.png"" class=""exp-image"">
                    <div class=""question-area""></div> 
                </div>","null","","","","","","","","","","","",""
"","","","","","html-button-response","47","355327","0.0-47.0","AFC2BA2C314941FCB94BEDAE6396E3B3","019dac78-5ede-7a54-9c90-4d18c97c7ed2","019dac5b-243f-7307-af64-a10f53f1ef70","","null","
                <div class=""stimulus-container"">
                    <img src=""images/semantic_sequence/housework_semantic/housework_semantic_5.png"" class=""exp-image"">
                    <div class=""question-area"">
                        <p style=""font-size: 20px; font-weight: bold; margin: 0;"">Is there a person in this image?</p>
                    </div>
                </div>","null","main_experiment_trial","5","housework_semantic","semantic_sequence","chronological","","","","","","",""
"","","","","","html-keyboard-response","48","360329","0.0-48.0","AFC2BA2C314941FCB94BEDAE6396E3B3","019dac78-5ede-7a54-9c90-4d18c97c7ed2","019dac5b-243f-7307-af64-a10f53f1ef70","","null","
                <div class=""stimulus-container"">
                    <img src=""images/semantic_sequence/housework_semantic/housework_semantic_6.png"" class=""exp-image"">
                    <div class=""question-area""></div> 
                </div>","null","","","","","","","","","","","",""
"","","","","","html-button-response","49","363208","0.0-49.0","AFC2BA2C314941FCB94BEDAE6396E3B3","019dac78-5ede-7a54-9c90-4d18c97c7ed2","019dac5b-243f-7307-af64-a10f53f1ef70","","2878","
                <div class=""stimulus-container"">
                    <img src=""images/semantic_sequence/housework_semantic/housework_semantic_6.png"" class=""exp-image"">
                    <div class=""question-area"">
                        <p style=""font-size: 20px; font-weight: bold; margin: 0;"">Is there a person in this image?</p>
                    </div>
                </div>","0","main_experiment_trial","6","housework_semantic","semantic_sequence","chronological","","","","","","",""
"","","","","","html-keyboard-response","50","368210","0.0-50.0","AFC2BA2C314941FCB94BEDAE6396E3B3","019dac78-5ede-7a54-9c90-4d18c97c7ed2","019dac5b-243f-7307-af64-a10f53f1ef70","","null","
                <div class=""stimulus-container"">
                    <img src=""images/semantic_sequence/housework_semantic/housework_semantic_7.png"" class=""exp-image"">
                    <div class=""question-area""></div> 
                </div>","null","","","","","","","","","","","",""
"","","","","","html-button-response","51","369915","0.0-51.0","AFC2BA2C314941FCB94BEDAE6396E3B3","019dac78-5ede-7a54-9c90-4d18c97c7ed2","019dac5b-243f-7307-af64-a10f53f1ef70","","1705","
                <div class=""stimulus-container"">
                    <img src=""images/semantic_sequence/housework_semantic/housework_semantic_7.png"" class=""exp-image"">
                    <div class=""question-area"">
                        <p style=""font-size: 20px; font-weight: bold; margin: 0;"">Is there a person in this image?</p>
                    </div>
                </div>","0","main_experiment_trial","7","housework_semantic","semantic_sequence","chronological","","","","","","",""
"","","","","","html-keyboard-response","52","374917","0.0-52.0","AFC2BA2C314941FCB94BEDAE6396E3B3","019dac78-5ede-7a54-9c90-4d18c97c7ed2","019dac5b-243f-7307-af64-a10f53f1ef70","","null","
                <div class=""stimulus-container"">
                    <img src=""images/semantic_sequence/housework_semantic/housework_semantic_8.png"" class=""exp-image"">
                    <div class=""question-area""></div> 
                </div>","null","","","","","","","","","","","",""
"","","","","","html-button-response","53","375588","0.0-53.0","AFC2BA2C314941FCB94BEDAE6396E3B3","019dac78-5ede-7a54-9c90-4d18c97c7ed2","019dac5b-243f-7307-af64-a10f53f1ef70","","670","
                <div class=""stimulus-container"">
                    <img src=""images/semantic_sequence/housework_semantic/housework_semantic_8.png"" class=""exp-image"">
                    <div class=""question-area"">
                        <p style=""font-size: 20px; font-weight: bold; margin: 0;"">Is there a person in this image?</p>
                    </div>
                </div>","0","main_experiment_trial","8","housework_semantic","semantic_sequence","chronological","","","","","","",""
"","","","","","html-keyboard-response","54","380590","0.0-54.0","AFC2BA2C314941FCB94BEDAE6396E3B3","019dac78-5ede-7a54-9c90-4d18c97c7ed2","019dac5b-243f-7307-af64-a10f53f1ef70","","null","
                <div class=""stimulus-container"">
                    <img src=""images/semantic_sequence/housework_semantic/housework_semantic_9.png"" class=""exp-image"">
                    <div class=""question-area""></div> 
                </div>","null","","","","","","","","","","","",""
"","","","","","html-button-response","55","381760","0.0-55.0","AFC2BA2C314941FCB94BEDAE6396E3B3","019dac78-5ede-7a54-9c90-4d18c97c7ed2","019dac5b-243f-7307-af64-a10f53f1ef70","","1169","
                <div class=""stimulus-container"">
                    <img src=""images/semantic_sequence/housework_semantic/housework_semantic_9.png"" class=""exp-image"">
                    <div class=""question-area"">
                        <p style=""font-size: 20px; font-weight: bold; margin: 0;"">Is there a person in this image?</p>
                    </div>
                </div>","0","main_experiment_trial","9","housework_semantic","semantic_sequence","chronological","","","","","","",""
"","","","","","html-keyboard-response","56","386762","0.0-56.0","AFC2BA2C314941FCB94BEDAE6396E3B3","019dac78-5ede-7a54-9c90-4d18c97c7ed2","019dac5b-243f-7307-af64-a10f53f1ef70","","null","
                <div class=""stimulus-container"">
                    <img src=""images/semantic_sequence/housework_semantic/housework_semantic_ten.png"" class=""exp-image"">
                    <div class=""question-area""></div> 
                </div>","null","","","","","","","","","","","",""
"","","","","","html-button-response","57","389402","0.0-57.0","AFC2BA2C314941FCB94BEDAE6396E3B3","019dac78-5ede-7a54-9c90-4d18c97c7ed2","019dac5b-243f-7307-af64-a10f53f1ef70","","2640","
                <div class=""stimulus-container"">
                    <img src=""images/semantic_sequence/housework_semantic/housework_semantic_ten.png"" class=""exp-image"">
                    <div class=""question-area"">
                        <p style=""font-size: 20px; font-weight: bold; margin: 0;"">Is there a person in this image?</p>
                    </div>
                </div>","0","main_experiment_trial","ten","housework_semantic","semantic_sequence","chronological","","","","","","",""
"","","","","","html-keyboard-response","58","394405","0.0-58.0","AFC2BA2C314941FCB94BEDAE6396E3B3","019dac78-5ede-7a54-9c90-4d18c97c7ed2","019dac5b-243f-7307-af64-a10f53f1ef70","","null","<div style=""background-color: white; width: 100vw; height: 100vh;""></div>","null","","","","","","","","","","","",""
"","","","","","html-keyboard-response","59","399407","0.0-59.0","AFC2BA2C314941FCB94BEDAE6396E3B3","019dac78-5ede-7a54-9c90-4d18c97c7ed2","019dac5b-243f-7307-af64-a10f53f1ef70","","null","
                <div class=""stimulus-container"">
                    <img src=""images/semantic_sequence/kitchen_operations_semantic/kitchen_operations_semantic_1.png"" class=""exp-image"">
                    <div class=""question-area""></div> 
                </div>","null","","","","","","","","","","","",""
"","","","","","html-button-response","60","400247","0.0-60.0","AFC2BA2C314941FCB94BEDAE6396E3B3","019dac78-5ede-7a54-9c90-4d18c97c7ed2","019dac5b-243f-7307-af64-a10f53f1ef70","","840","
                <div class=""stimulus-container"">
                    <img src=""images/semantic_sequence/kitchen_operations_semantic/kitchen_operations_semantic_1.png"" class=""exp-image"">
                    <div class=""question-area"">
                        <p style=""font-size: 20px; font-weight: bold; margin: 0;"">Is there a person in this image?</p>
                    </div>
                </div>","0","main_experiment_trial","1","kitchen_operations_semantic","semantic_sequence","chronological","","","","","","",""
"","","","","","html-keyboard-response","61","405248","0.0-61.0","AFC2BA2C314941FCB94BEDAE6396E3B3","019dac78-5ede-7a54-9c90-4d18c97c7ed2","019dac5b-243f-7307-af64-a10f53f1ef70","","null","
                <div class=""stimulus-container"">
                    <img src=""images/semantic_sequence/kitchen_operations_semantic/kitchen_operations_semantic_2.png"" class=""exp-image"">
                    <div class=""question-area""></div> 
                </div>","null","","","","","","","","","","","",""
"","","","","","html-button-response","62","406036","0.0-62.0","AFC2BA2C314941FCB94BEDAE6396E3B3","019dac78-5ede-7a54-9c90-4d18c97c7ed2","019dac5b-243f-7307-af64-a10f53f1ef70","","787","
                <div class=""stimulus-container"">
                    <img src=""images/semantic_sequence/kitchen_operations_semantic/kitchen_operations_semantic_2.png"" class=""exp-image"">
                    <div class=""question-area"">
                        <p style=""font-size: 20px; font-weight: bold; margin: 0;"">Is there a person in this image?</p>
                    </div>
                </div>","0","main_experiment_trial","2","kitchen_operations_semantic","semantic_sequence","chronological","","","","","","",""
"","","","","","html-keyboard-response","63","411038","0.0-63.0","AFC2BA2C314941FCB94BEDAE6396E3B3","019dac78-5ede-7a54-9c90-4d18c97c7ed2","019dac5b-243f-7307-af64-a10f53f1ef70","","null","
                <div class=""stimulus-container"">
                    <img src=""images/semantic_sequence/kitchen_operations_semantic/kitchen_operations_semantic_3.png"" class=""exp-image"">
                    <div class=""question-area""></div> 
                </div>","null","","","","","","","","","","","",""
"","","","","","html-button-response","64","412026","0.0-64.0","AFC2BA2C314941FCB94BEDAE6396E3B3","019dac78-5ede-7a54-9c90-4d18c97c7ed2","019dac5b-243f-7307-af64-a10f53f1ef70","","987","
                <div class=""stimulus-container"">
                    <img src=""images/semantic_sequence/kitchen_operations_semantic/kitchen_operations_semantic_3.png"" class=""exp-image"">
                    <div class=""question-area"">
                        <p style=""font-size: 20px; font-weight: bold; margin: 0;"">Is there a person in this image?</p>
                    </div>
                </div>","0","main_experiment_trial","3","kitchen_operations_semantic","semantic_sequence","chronological","","","","","","",""
"","","","","","html-keyboard-response","65","417028","0.0-65.0","AFC2BA2C314941FCB94BEDAE6396E3B3","019dac78-5ede-7a54-9c90-4d18c97c7ed2","019dac5b-243f-7307-af64-a10f53f1ef70","","null","
                <div class=""stimulus-container"">
                    <img src=""images/semantic_sequence/kitchen_operations_semantic/kitchen_operations_semantic_4.png"" class=""exp-image"">
                    <div class=""question-area""></div> 
                </div>","null","","","","","","","","","","","",""
"","","","","","html-button-response","66","418383","0.0-66.0","AFC2BA2C314941FCB94BEDAE6396E3B3","019dac78-5ede-7a54-9c90-4d18c97c7ed2","019dac5b-243f-7307-af64-a10f53f1ef70","","1354","
                <div class=""stimulus-container"">
                    <img src=""images/semantic_sequence/kitchen_operations_semantic/kitchen_operations_semantic_4.png"" class=""exp-image"">
                    <div class=""question-area"">
                        <p style=""font-size: 20px; font-weight: bold; margin: 0;"">Is there a person in this image?</p>
                    </div>
                </div>","0","main_experiment_trial","4","kitchen_operations_semantic","semantic_sequence","chronological","","","","","","",""
"","","","","","html-keyboard-response","67","423383","0.0-67.0","AFC2BA2C314941FCB94BEDAE6396E3B3","019dac78-5ede-7a54-9c90-4d18c97c7ed2","019dac5b-243f-7307-af64-a10f53f1ef70","","null","
                <div class=""stimulus-container"">
                    <img src=""images/semantic_sequence/kitchen_operations_semantic/kitchen_operations_semantic_5.png"" class=""exp-image"">
                    <div class=""question-area""></div> 
                </div>","null","","","","","","","","","","","",""
"","","","","","html-button-response","68","424172","0.0-68.0","AFC2BA2C314941FCB94BEDAE6396E3B3","019dac78-5ede-7a54-9c90-4d18c97c7ed2","019dac5b-243f-7307-af64-a10f53f1ef70","","789","
                <div class=""stimulus-container"">
                    <img src=""images/semantic_sequence/kitchen_operations_semantic/kitchen_operations_semantic_5.png"" class=""exp-image"">
                    <div class=""question-area"">
                        <p style=""font-size: 20px; font-weight: bold; margin: 0;"">Is there a person in this image?</p>
                    </div>
                </div>","0","main_experiment_trial","5","kitchen_operations_semantic","semantic_sequence","chronological","","","","","","",""
"","","","","","html-keyboard-response","69","429175","0.0-69.0","AFC2BA2C314941FCB94BEDAE6396E3B3","019dac78-5ede-7a54-9c90-4d18c97c7ed2","019dac5b-243f-7307-af64-a10f53f1ef70","","null","
                <div class=""stimulus-container"">
                    <img src=""images/semantic_sequence/kitchen_operations_semantic/kitchen_operations_semantic_6.png"" class=""exp-image"">
                    <div class=""question-area""></div> 
                </div>","null","","","","","","","","","","","",""
"","","","","","html-button-response","70","430762","0.0-70.0","AFC2BA2C314941FCB94BEDAE6396E3B3","019dac78-5ede-7a54-9c90-4d18c97c7ed2","019dac5b-243f-7307-af64-a10f53f1ef70","","1587","
                <div class=""stimulus-container"">
                    <img src=""images/semantic_sequence/kitchen_operations_semantic/kitchen_operations_semantic_6.png"" class=""exp-image"">
                    <div class=""question-area"">
                        <p style=""font-size: 20px; font-weight: bold; margin: 0;"">Is there a person in this image?</p>
                    </div>
                </div>","0","main_experiment_trial","6","kitchen_operations_semantic","semantic_sequence","chronological","","","","","","",""
"","","","","","html-keyboard-response","71","435764","0.0-71.0","AFC2BA2C314941FCB94BEDAE6396E3B3","019dac78-5ede-7a54-9c90-4d18c97c7ed2","019dac5b-243f-7307-af64-a10f53f1ef70","","null","
                <div class=""stimulus-container"">
                    <img src=""images/semantic_sequence/kitchen_operations_semantic/kitchen_operations_semantic_7.png"" class=""exp-image"">
                    <div class=""question-area""></div> 
                </div>","null","","","","","","","","","","","",""
"","","","","","html-button-response","72","438587","0.0-72.0","AFC2BA2C314941FCB94BEDAE6396E3B3","019dac78-5ede-7a54-9c90-4d18c97c7ed2","019dac5b-243f-7307-af64-a10f53f1ef70","","2823","
                <div class=""stimulus-container"">
                    <img src=""images/semantic_sequence/kitchen_operations_semantic/kitchen_operations_semantic_7.png"" class=""exp-image"">
                    <div class=""question-area"">
                        <p style=""font-size: 20px; font-weight: bold; margin: 0;"">Is there a person in this image?</p>
                    </div>
                </div>","0","main_experiment_trial","7","kitchen_operations_semantic","semantic_sequence","chronological","","","","","","",""
"","","","","","html-keyboard-response","73","443589","0.0-73.0","AFC2BA2C314941FCB94BEDAE6396E3B3","019dac78-5ede-7a54-9c90-4d18c97c7ed2","019dac5b-243f-7307-af64-a10f53f1ef70","","null","
                <div class=""stimulus-container"">
                    <img src=""images/semantic_sequence/kitchen_operations_semantic/kitchen_operations_semantic_8.png"" class=""exp-image"">
                    <div class=""question-area""></div> 
                </div>","null","","","","","","","","","","","",""
"","","","","","html-button-response","74","444143","0.0-74.0","AFC2BA2C314941FCB94BEDAE6396E3B3","019dac78-5ede-7a54-9c90-4d18c97c7ed2","019dac5b-243f-7307-af64-a10f53f1ef70","","553","
                <div class=""stimulus-container"">
                    <img src=""images/semantic_sequence/kitchen_operations_semantic/kitchen_operations_semantic_8.png"" class=""exp-image"">
                    <div class=""question-area"">
                        <p style=""font-size: 20px; font-weight: bold; margin: 0;"">Is there a person in this image?</p>
                    </div>
                </div>","0","main_experiment_trial","8","kitchen_operations_semantic","semantic_sequence","chronological","","","","","","",""
"","","","","","html-keyboard-response","75","449144","0.0-75.0","AFC2BA2C314941FCB94BEDAE6396E3B3","019dac78-5ede-7a54-9c90-4d18c97c7ed2","019dac5b-243f-7307-af64-a10f53f1ef70","","null","
                <div class=""stimulus-container"">
                    <img src=""images/semantic_sequence/kitchen_operations_semantic/kitchen_operations_semantic_9.png"" class=""exp-image"">
                    <div class=""question-area""></div> 
                </div>","null","","","","","","","","","","","",""
"","","","","","html-button-response","76","449799","0.0-76.0","AFC2BA2C314941FCB94BEDAE6396E3B3","019dac78-5ede-7a54-9c90-4d18c97c7ed2","019dac5b-243f-7307-af64-a10f53f1ef70","","654","
                <div class=""stimulus-container"">
                    <img src=""images/semantic_sequence/kitchen_operations_semantic/kitchen_operations_semantic_9.png"" class=""exp-image"">
                    <div class=""question-area"">
                        <p style=""font-size: 20px; font-weight: bold; margin: 0;"">Is there a person in this image?</p>
                    </div>
                </div>","0","main_experiment_trial","9","kitchen_operations_semantic","semantic_sequence","chronological","","","","","","",""
"","","","","","html-keyboard-response","77","454800","0.0-77.0","AFC2BA2C314941FCB94BEDAE6396E3B3","019dac78-5ede-7a54-9c90-4d18c97c7ed2","019dac5b-243f-7307-af64-a10f53f1ef70","","null","
                <div class=""stimulus-container"">
                    <img src=""images/semantic_sequence/kitchen_operations_semantic/kitchen_operations_semantic_ten.png"" class=""exp-image"">
                    <div class=""question-area""></div> 
                </div>","null","","","","","","","","","","","",""
"","","","","","html-button-response","78","456406","0.0-78.0","AFC2BA2C314941FCB94BEDAE6396E3B3","019dac78-5ede-7a54-9c90-4d18c97c7ed2","019dac5b-243f-7307-af64-a10f53f1ef70","","1606","
                <div class=""stimulus-container"">
                    <img src=""images/semantic_sequence/kitchen_operations_semantic/kitchen_operations_semantic_ten.png"" class=""exp-image"">
                    <div class=""question-area"">
                        <p style=""font-size: 20px; font-weight: bold; margin: 0;"">Is there a person in this image?</p>
                    </div>
                </div>","0","main_experiment_trial","ten","kitchen_operations_semantic","semantic_sequence","chronological","","","","","","",""
"","","","","","html-keyboard-response","79","461407","0.0-79.0","AFC2BA2C314941FCB94BEDAE6396E3B3","019dac78-5ede-7a54-9c90-4d18c97c7ed2","019dac5b-243f-7307-af64-a10f53f1ef70","","null","<div style=""background-color: white; width: 100vw; height: 100vh;""></div>","null","","","","","","","","","","","",""
"","","","","","html-keyboard-response","80","466409","0.0-80.0","AFC2BA2C314941FCB94BEDAE6396E3B3","019dac78-5ede-7a54-9c90-4d18c97c7ed2","019dac5b-243f-7307-af64-a10f53f1ef70","","null","
                <div class=""stimulus-container"">
                    <img src=""images/causal_sequence/package_causal/package_causal_1.png"" class=""exp-image"">
                    <div class=""question-area""></div> 
                </div>","null","","","","","","","","","","","",""
"","","","","","html-button-response","81","469411","0.0-81.0","AFC2BA2C314941FCB94BEDAE6396E3B3","019dac78-5ede-7a54-9c90-4d18c97c7ed2","019dac5b-243f-7307-af64-a10f53f1ef70","","null","
                <div class=""stimulus-container"">
                    <img src=""images/causal_sequence/package_causal/package_causal_1.png"" class=""exp-image"">
                    <div class=""question-area"">
                        <p style=""font-size: 20px; font-weight: bold; margin: 0;"">Is there a person in this image?</p>
                    </div>
                </div>","null","main_experiment_trial","1","package_causal","causal_sequence","chronological","","","","","","",""
"","","","","","html-keyboard-response","82","474413","0.0-82.0","AFC2BA2C314941FCB94BEDAE6396E3B3","019dac78-5ede-7a54-9c90-4d18c97c7ed2","019dac5b-243f-7307-af64-a10f53f1ef70","","null","
                <div class=""stimulus-container"">
                    <img src=""images/causal_sequence/package_causal/package_causal_2.png"" class=""exp-image"">
                    <div class=""question-area""></div> 
                </div>","null","","","","","","","","","","","",""
"","","","","","html-button-response","83","475409","0.0-83.0","AFC2BA2C314941FCB94BEDAE6396E3B3","019dac78-5ede-7a54-9c90-4d18c97c7ed2","019dac5b-243f-7307-af64-a10f53f1ef70","","995","
                <div class=""stimulus-container"">
                    <img src=""images/causal_sequence/package_causal/package_causal_2.png"" class=""exp-image"">
                    <div class=""question-area"">
                        <p style=""font-size: 20px; font-weight: bold; margin: 0;"">Is there a person in this image?</p>
                    </div>
                </div>","0","main_experiment_trial","2","package_causal","causal_sequence","chronological","","","","","","",""
"","","","","","html-keyboard-response","84","480410","0.0-84.0","AFC2BA2C314941FCB94BEDAE6396E3B3","019dac78-5ede-7a54-9c90-4d18c97c7ed2","019dac5b-243f-7307-af64-a10f53f1ef70","","null","
                <div class=""stimulus-container"">
                    <img src=""images/causal_sequence/package_causal/package_causal_3.png"" class=""exp-image"">
                    <div class=""question-area""></div> 
                </div>","null","","","","","","","","","","","",""
"","","","","","html-button-response","85","481783","0.0-85.0","AFC2BA2C314941FCB94BEDAE6396E3B3","019dac78-5ede-7a54-9c90-4d18c97c7ed2","019dac5b-243f-7307-af64-a10f53f1ef70","","1372","
                <div class=""stimulus-container"">
                    <img src=""images/causal_sequence/package_causal/package_causal_3.png"" class=""exp-image"">
                    <div class=""question-area"">
                        <p style=""font-size: 20px; font-weight: bold; margin: 0;"">Is there a person in this image?</p>
                    </div>
                </div>","0","main_experiment_trial","3","package_causal","causal_sequence","chronological","","","","","","",""
"","","","","","html-keyboard-response","86","486784","0.0-86.0","AFC2BA2C314941FCB94BEDAE6396E3B3","019dac78-5ede-7a54-9c90-4d18c97c7ed2","019dac5b-243f-7307-af64-a10f53f1ef70","","null","
                <div class=""stimulus-container"">
                    <img src=""images/causal_sequence/package_causal/package_causal_4.png"" class=""exp-image"">
                    <div class=""question-area""></div> 
                </div>","null","","","","","","","","","","","",""
"","","","","","html-button-response","87","487522","0.0-87.0","AFC2BA2C314941FCB94BEDAE6396E3B3","019dac78-5ede-7a54-9c90-4d18c97c7ed2","019dac5b-243f-7307-af64-a10f53f1ef70","","738","
                <div class=""stimulus-container"">
                    <img src=""images/causal_sequence/package_causal/package_causal_4.png"" class=""exp-image"">
                    <div class=""question-area"">
                        <p style=""font-size: 20px; font-weight: bold; margin: 0;"">Is there a person in this image?</p>
                    </div>
                </div>","1","main_experiment_trial","4","package_causal","causal_sequence","chronological","","","","","","",""
"","","","","","html-keyboard-response","88","492524","0.0-88.0","AFC2BA2C314941FCB94BEDAE6396E3B3","019dac78-5ede-7a54-9c90-4d18c97c7ed2","019dac5b-243f-7307-af64-a10f53f1ef70","","null","
                <div class=""stimulus-container"">
                    <img src=""images/causal_sequence/package_causal/package_causal_5.png"" class=""exp-image"">
                    <div class=""question-area""></div> 
                </div>","null","","","","","","","","","","","",""
"","","","","","html-button-response","89","493979","0.0-89.0","AFC2BA2C314941FCB94BEDAE6396E3B3","019dac78-5ede-7a54-9c90-4d18c97c7ed2","019dac5b-243f-7307-af64-a10f53f1ef70","","1454","
                <div class=""stimulus-container"">
                    <img src=""images/causal_sequence/package_causal/package_causal_5.png"" class=""exp-image"">
                    <div class=""question-area"">
                        <p style=""font-size: 20px; font-weight: bold; margin: 0;"">Is there a person in this image?</p>
                    </div>
                </div>","0","main_experiment_trial","5","package_causal","causal_sequence","chronological","","","","","","",""
"","","","","","html-keyboard-response","90","498981","0.0-90.0","AFC2BA2C314941FCB94BEDAE6396E3B3","019dac78-5ede-7a54-9c90-4d18c97c7ed2","019dac5b-243f-7307-af64-a10f53f1ef70","","null","
                <div class=""stimulus-container"">
                    <img src=""images/causal_sequence/package_causal/package_causal_6.png"" class=""exp-image"">
                    <div class=""question-area""></div> 
                </div>","null","","","","","","","","","","","",""
"","","","","","html-button-response","91","499985","0.0-91.0","AFC2BA2C314941FCB94BEDAE6396E3B3","019dac78-5ede-7a54-9c90-4d18c97c7ed2","019dac5b-243f-7307-af64-a10f53f1ef70","","1004","
                <div class=""stimulus-container"">
                    <img src=""images/causal_sequence/package_causal/package_causal_6.png"" class=""exp-image"">
                    <div class=""question-area"">
                        <p style=""font-size: 20px; font-weight: bold; margin: 0;"">Is there a person in this image?</p>
                    </div>
                </div>","0","main_experiment_trial","6","package_causal","causal_sequence","chronological","","","","","","",""
"","","","","","html-keyboard-response","92","504987","0.0-92.0","AFC2BA2C314941FCB94BEDAE6396E3B3","019dac78-5ede-7a54-9c90-4d18c97c7ed2","019dac5b-243f-7307-af64-a10f53f1ef70","","null","
                <div class=""stimulus-container"">
                    <img src=""images/causal_sequence/package_causal/package_causal_7.png"" class=""exp-image"">
                    <div class=""question-area""></div> 
                </div>","null","","","","","","","","","","","",""
"","","","","","html-button-response","93","506759","0.0-93.0","AFC2BA2C314941FCB94BEDAE6396E3B3","019dac78-5ede-7a54-9c90-4d18c97c7ed2","019dac5b-243f-7307-af64-a10f53f1ef70","","1771","
                <div class=""stimulus-container"">
                    <img src=""images/causal_sequence/package_causal/package_causal_7.png"" class=""exp-image"">
                    <div class=""question-area"">
                        <p style=""font-size: 20px; font-weight: bold; margin: 0;"">Is there a person in this image?</p>
                    </div>
                </div>","0","main_experiment_trial","7","package_causal","causal_sequence","chronological","","","","","","",""
"","","","","","html-keyboard-response","94","511761","0.0-94.0","AFC2BA2C314941FCB94BEDAE6396E3B3","019dac78-5ede-7a54-9c90-4d18c97c7ed2","019dac5b-243f-7307-af64-a10f53f1ef70","","null","
                <div class=""stimulus-container"">
                    <img src=""images/causal_sequence/package_causal/package_causal_8.png"" class=""exp-image"">
                    <div class=""question-area""></div> 
                </div>","null","","","","","","","","","","","",""
"","","","","","html-button-response","95","514033","0.0-95.0","AFC2BA2C314941FCB94BEDAE6396E3B3","019dac78-5ede-7a54-9c90-4d18c97c7ed2","019dac5b-243f-7307-af64-a10f53f1ef70","","2271","
                <div class=""stimulus-container"">
                    <img src=""images/causal_sequence/package_causal/package_causal_8.png"" class=""exp-image"">
                    <div class=""question-area"">
                        <p style=""font-size: 20px; font-weight: bold; margin: 0;"">Is there a person in this image?</p>
                    </div>
                </div>","0","main_experiment_trial","8","package_causal","causal_sequence","chronological","","","","","","",""
"","","","","","html-keyboard-response","96","519033","0.0-96.0","AFC2BA2C314941FCB94BEDAE6396E3B3","019dac78-5ede-7a54-9c90-4d18c97c7ed2","019dac5b-243f-7307-af64-a10f53f1ef70","","null","
                <div class=""stimulus-container"">
                    <img src=""images/causal_sequence/package_causal/package_causal_9.png"" class=""exp-image"">
                    <div class=""question-area""></div> 
                </div>","null","","","","","","","","","","","",""
"","","","","","html-button-response","97","520274","0.0-97.0","AFC2BA2C314941FCB94BEDAE6396E3B3","019dac78-5ede-7a54-9c90-4d18c97c7ed2","019dac5b-243f-7307-af64-a10f53f1ef70","","1240","
                <div class=""stimulus-container"">
                    <img src=""images/causal_sequence/package_causal/package_causal_9.png"" class=""exp-image"">
                    <div class=""question-area"">
                        <p style=""font-size: 20px; font-weight: bold; margin: 0;"">Is there a person in this image?</p>
                    </div>
                </div>","0","main_experiment_trial","9","package_causal","causal_sequence","chronological","","","","","","",""
"","","","","","html-keyboard-response","98","525275","0.0-98.0","AFC2BA2C314941FCB94BEDAE6396E3B3","019dac78-5ede-7a54-9c90-4d18c97c7ed2","019dac5b-243f-7307-af64-a10f53f1ef70","","null","
                <div class=""stimulus-container"">
                    <img src=""images/causal_sequence/package_causal/package_causal_ten.png"" class=""exp-image"">
                    <div class=""question-area""></div> 
                </div>","null","","","","","","","","","","","",""
"","","","","","html-button-response","99","526313","0.0-99.0","AFC2BA2C314941FCB94BEDAE6396E3B3","019dac78-5ede-7a54-9c90-4d18c97c7ed2","019dac5b-243f-7307-af64-a10f53f1ef70","","1037","
                <div class=""stimulus-container"">
                    <img src=""images/causal_sequence/package_causal/package_causal_ten.png"" class=""exp-image"">
                    <div class=""question-area"">
                        <p style=""font-size: 20px; font-weight: bold; margin: 0;"">Is there a person in this image?</p>
                    </div>
                </div>","0","main_experiment_trial","ten","package_causal","causal_sequence","chronological","","","","","","",""
"","","","","","html-keyboard-response","100","531316","0.0-100.0","AFC2BA2C314941FCB94BEDAE6396E3B3","019dac78-5ede-7a54-9c90-4d18c97c7ed2","019dac5b-243f-7307-af64-a10f53f1ef70","","null","<div style=""background-color: white; width: 100vw; height: 100vh;""></div>","null","","","","","","","","","","","",""
"","","","","","html-keyboard-response","101","536317","0.0-101.0","AFC2BA2C314941FCB94BEDAE6396E3B3","019dac78-5ede-7a54-9c90-4d18c97c7ed2","019dac5b-243f-7307-af64-a10f53f1ef70","","null","
                <div class=""stimulus-container"">
                    <img src=""images/semantic_sequence/self_care_activities_semantic/self_care_activities_semantic_1.png"" class=""exp-image"">
                    <div class=""question-area""></div> 
                </div>","null","","","","","","","","","","","",""
"","","","","","html-button-response","102","539176","0.0-102.0","AFC2BA2C314941FCB94BEDAE6396E3B3","019dac78-5ede-7a54-9c90-4d18c97c7ed2","019dac5b-243f-7307-af64-a10f53f1ef70","","2858","
                <div class=""stimulus-container"">
                    <img src=""images/semantic_sequence/self_care_activities_semantic/self_care_activities_semantic_1.png"" class=""exp-image"">
                    <div class=""question-area"">
                        <p style=""font-size: 20px; font-weight: bold; margin: 0;"">Is there a person in this image?</p>
                    </div>
                </div>","0","main_experiment_trial","1","self_care_activities_semantic","semantic_sequence","chronological","","","","","","",""
"","","","","","html-keyboard-response","103","544178","0.0-103.0","AFC2BA2C314941FCB94BEDAE6396E3B3","019dac78-5ede-7a54-9c90-4d18c97c7ed2","019dac5b-243f-7307-af64-a10f53f1ef70","","null","
                <div class=""stimulus-container"">
                    <img src=""images/semantic_sequence/self_care_activities_semantic/self_care_activities_semantic_2.png"" class=""exp-image"">
                    <div class=""question-area""></div> 
                </div>","null","","","","","","","","","","","",""
"","","","","","html-button-response","104","545351","0.0-104.0","AFC2BA2C314941FCB94BEDAE6396E3B3","019dac78-5ede-7a54-9c90-4d18c97c7ed2","019dac5b-243f-7307-af64-a10f53f1ef70","","1172","
                <div class=""stimulus-container"">
                    <img src=""images/semantic_sequence/self_care_activities_semantic/self_care_activities_semantic_2.png"" class=""exp-image"">
                    <div class=""question-area"">
                        <p style=""font-size: 20px; font-weight: bold; margin: 0;"">Is there a person in this image?</p>
                    </div>
                </div>","0","main_experiment_trial","2","self_care_activities_semantic","semantic_sequence","chronological","","","","","","",""
"","","","","","html-keyboard-response","105","550352","0.0-105.0","AFC2BA2C314941FCB94BEDAE6396E3B3","019dac78-5ede-7a54-9c90-4d18c97c7ed2","019dac5b-243f-7307-af64-a10f53f1ef70","","null","
                <div class=""stimulus-container"">
                    <img src=""images/semantic_sequence/self_care_activities_semantic/self_care_activities_semantic_3.png"" class=""exp-image"">
                    <div class=""question-area""></div> 
                </div>","null","","","","","","","","","","","",""
"","","","","","html-button-response","106","551039","0.0-106.0","AFC2BA2C314941FCB94BEDAE6396E3B3","019dac78-5ede-7a54-9c90-4d18c97c7ed2","019dac5b-243f-7307-af64-a10f53f1ef70","","687","
                <div class=""stimulus-container"">
                    <img src=""images/semantic_sequence/self_care_activities_semantic/self_care_activities_semantic_3.png"" class=""exp-image"">
                    <div class=""question-area"">
                        <p style=""font-size: 20px; font-weight: bold; margin: 0;"">Is there a person in this image?</p>
                    </div>
                </div>","0","main_experiment_trial","3","self_care_activities_semantic","semantic_sequence","chronological","","","","","","",""
"","","","","","html-keyboard-response","107","556042","0.0-107.0","AFC2BA2C314941FCB94BEDAE6396E3B3","019dac78-5ede-7a54-9c90-4d18c97c7ed2","019dac5b-243f-7307-af64-a10f53f1ef70","","null","
                <div class=""stimulus-container"">
                    <img src=""images/semantic_sequence/self_care_activities_semantic/self_care_activities_semantic_4.png"" class=""exp-image"">
                    <div class=""question-area""></div> 
                </div>","null","","","","","","","","","","","",""
"","","","","","html-button-response","108","558297","0.0-108.0","AFC2BA2C314941FCB94BEDAE6396E3B3","019dac78-5ede-7a54-9c90-4d18c97c7ed2","019dac5b-243f-7307-af64-a10f53f1ef70","","2254","
                <div class=""stimulus-container"">
                    <img src=""images/semantic_sequence/self_care_activities_semantic/self_care_activities_semantic_4.png"" class=""exp-image"">
                    <div class=""question-area"">
                        <p style=""font-size: 20px; font-weight: bold; margin: 0;"">Is there a person in this image?</p>
                    </div>
                </div>","0","main_experiment_trial","4","self_care_activities_semantic","semantic_sequence","chronological","","","","","","",""
"","","","","","html-keyboard-response","109","563299","0.0-109.0","AFC2BA2C314941FCB94BEDAE6396E3B3","019dac78-5ede-7a54-9c90-4d18c97c7ed2","019dac5b-243f-7307-af64-a10f53f1ef70","","null","
                <div class=""stimulus-container"">
                    <img src=""images/semantic_sequence/self_care_activities_semantic/self_care_activities_semantic_5.png"" class=""exp-image"">
                    <div class=""question-area""></div> 
                </div>","null","","","","","","","","","","","",""
"","","","","","html-button-response","110","565371","0.0-110.0","AFC2BA2C314941FCB94BEDAE6396E3B3","019dac78-5ede-7a54-9c90-4d18c97c7ed2","019dac5b-243f-7307-af64-a10f53f1ef70","","2072","
                <div class=""stimulus-container"">
                    <img src=""images/semantic_sequence/self_care_activities_semantic/self_care_activities_semantic_5.png"" class=""exp-image"">
                    <div class=""question-area"">
                        <p style=""font-size: 20px; font-weight: bold; margin: 0;"">Is there a person in this image?</p>
                    </div>
                </div>","0","main_experiment_trial","5","self_care_activities_semantic","semantic_sequence","chronological","","","","","","",""
"","","","","","html-keyboard-response","111","570373","0.0-111.0","AFC2BA2C314941FCB94BEDAE6396E3B3","019dac78-5ede-7a54-9c90-4d18c97c7ed2","019dac5b-243f-7307-af64-a10f53f1ef70","","null","
                <div class=""stimulus-container"">
                    <img src=""images/semantic_sequence/self_care_activities_semantic/self_care_activities_semantic_6.png"" class=""exp-image"">
                    <div class=""question-area""></div> 
                </div>","null","","","","","","","","","","","",""
"","","","","","html-button-response","112","571661","0.0-112.0","AFC2BA2C314941FCB94BEDAE6396E3B3","019dac78-5ede-7a54-9c90-4d18c97c7ed2","019dac5b-243f-7307-af64-a10f53f1ef70","","1288","
                <div class=""stimulus-container"">
                    <img src=""images/semantic_sequence/self_care_activities_semantic/self_care_activities_semantic_6.png"" class=""exp-image"">
                    <div class=""question-area"">
                        <p style=""font-size: 20px; font-weight: bold; margin: 0;"">Is there a person in this image?</p>
                    </div>
                </div>","1","main_experiment_trial","6","self_care_activities_semantic","semantic_sequence","chronological","","","","","","",""
"","","","","","html-keyboard-response","113","576663","0.0-113.0","AFC2BA2C314941FCB94BEDAE6396E3B3","019dac78-5ede-7a54-9c90-4d18c97c7ed2","019dac5b-243f-7307-af64-a10f53f1ef70","","null","
                <div class=""stimulus-container"">
                    <img src=""images/semantic_sequence/self_care_activities_semantic/self_care_activities_semantic_7.png"" class=""exp-image"">
                    <div class=""question-area""></div> 
                </div>","null","","","","","","","","","","","",""
"","","","","","html-button-response","114","577684","0.0-114.0","AFC2BA2C314941FCB94BEDAE6396E3B3","019dac78-5ede-7a54-9c90-4d18c97c7ed2","019dac5b-243f-7307-af64-a10f53f1ef70","","1021","
                <div class=""stimulus-container"">
                    <img src=""images/semantic_sequence/self_care_activities_semantic/self_care_activities_semantic_7.png"" class=""exp-image"">
                    <div class=""question-area"">
                        <p style=""font-size: 20px; font-weight: bold; margin: 0;"">Is there a person in this image?</p>
                    </div>
                </div>","0","main_experiment_trial","7","self_care_activities_semantic","semantic_sequence","chronological","","","","","","",""
"","","","","","html-keyboard-response","115","582686","0.0-115.0","AFC2BA2C314941FCB94BEDAE6396E3B3","019dac78-5ede-7a54-9c90-4d18c97c7ed2","019dac5b-243f-7307-af64-a10f53f1ef70","","null","
                <div class=""stimulus-container"">
                    <img src=""images/semantic_sequence/self_care_activities_semantic/self_care_activities_semantic_8.png"" class=""exp-image"">
                    <div class=""question-area""></div> 
                </div>","null","","","","","","","","","","","",""
"","","","","","html-button-response","116","584291","0.0-116.0","AFC2BA2C314941FCB94BEDAE6396E3B3","019dac78-5ede-7a54-9c90-4d18c97c7ed2","019dac5b-243f-7307-af64-a10f53f1ef70","","1604","
                <div class=""stimulus-container"">
                    <img src=""images/semantic_sequence/self_care_activities_semantic/self_care_activities_semantic_8.png"" class=""exp-image"">
                    <div class=""question-area"">
                        <p style=""font-size: 20px; font-weight: bold; margin: 0;"">Is there a person in this image?</p>
                    </div>
                </div>","0","main_experiment_trial","8","self_care_activities_semantic","semantic_sequence","chronological","","","","","","",""
"","","","","","html-keyboard-response","117","589291","0.0-117.0","AFC2BA2C314941FCB94BEDAE6396E3B3","019dac78-5ede-7a54-9c90-4d18c97c7ed2","019dac5b-243f-7307-af64-a10f53f1ef70","","null","
                <div class=""stimulus-container"">
                    <img src=""images/semantic_sequence/self_care_activities_semantic/self_care_activities_semantic_9.png"" class=""exp-image"">
                    <div class=""question-area""></div> 
                </div>","null","","","","","","","","","","","",""
"","","","","","html-button-response","118","590865","0.0-118.0","AFC2BA2C314941FCB94BEDAE6396E3B3","019dac78-5ede-7a54-9c90-4d18c97c7ed2","019dac5b-243f-7307-af64-a10f53f1ef70","","1574","
                <div class=""stimulus-container"">
                    <img src=""images/semantic_sequence/self_care_activities_semantic/self_care_activities_semantic_9.png"" class=""exp-image"">
                    <div class=""question-area"">
                        <p style=""font-size: 20px; font-weight: bold; margin: 0;"">Is there a person in this image?</p>
                    </div>
                </div>","0","main_experiment_trial","9","self_care_activities_semantic","semantic_sequence","chronological","","","","","","",""
"","","","","","html-keyboard-response","119","595867","0.0-119.0","AFC2BA2C314941FCB94BEDAE6396E3B3","019dac78-5ede-7a54-9c90-4d18c97c7ed2","019dac5b-243f-7307-af64-a10f53f1ef70","","null","
                <div class=""stimulus-container"">
                    <img src=""images/semantic_sequence/self_care_activities_semantic/self_care_activities_semantic_ten.png"" class=""exp-image"">
                    <div class=""question-area""></div> 
                </div>","null","","","","","","","","","","","",""
"","","","","","html-button-response","120","596721","0.0-120.0","AFC2BA2C314941FCB94BEDAE6396E3B3","019dac78-5ede-7a54-9c90-4d18c97c7ed2","019dac5b-243f-7307-af64-a10f53f1ef70","","853","
                <div class=""stimulus-container"">
                    <img src=""images/semantic_sequence/self_care_activities_semantic/self_care_activities_semantic_ten.png"" class=""exp-image"">
                    <div class=""question-area"">
                        <p style=""font-size: 20px; font-weight: bold; margin: 0;"">Is there a person in this image?</p>
                    </div>
                </div>","0","main_experiment_trial","ten","self_care_activities_semantic","semantic_sequence","chronological","","","","","","",""
"","","","","","html-keyboard-response","121","601723","0.0-121.0","AFC2BA2C314941FCB94BEDAE6396E3B3","019dac78-5ede-7a54-9c90-4d18c97c7ed2","019dac5b-243f-7307-af64-a10f53f1ef70","","null","<div style=""background-color: white; width: 100vw; height: 100vh;""></div>","null","","","","","","","","","","","",""
"","","","","","html-keyboard-response","122","606725","0.0-122.0","AFC2BA2C314941FCB94BEDAE6396E3B3","019dac78-5ede-7a54-9c90-4d18c97c7ed2","019dac5b-243f-7307-af64-a10f53f1ef70","","null","
                <div class=""stimulus-container"">
                    <img src=""images/causal_sequence/the_performance_causal/the_performance_causal_1.png"" class=""exp-image"">
                    <div class=""question-area""></div> 
                </div>","null","","","","","","","","","","","",""
"","","","","","html-button-response","123","607800","0.0-123.0","AFC2BA2C314941FCB94BEDAE6396E3B3","019dac78-5ede-7a54-9c90-4d18c97c7ed2","019dac5b-243f-7307-af64-a10f53f1ef70","","1074","
                <div class=""stimulus-container"">
                    <img src=""images/causal_sequence/the_performance_causal/the_performance_causal_1.png"" class=""exp-image"">
                    <div class=""question-area"">
                        <p style=""font-size: 20px; font-weight: bold; margin: 0;"">Is there a person in this image?</p>
                    </div>
                </div>","0","main_experiment_trial","1","the_performance_causal","causal_sequence","chronological","","","","","","",""
"","","","","","html-keyboard-response","124","612801","0.0-124.0","AFC2BA2C314941FCB94BEDAE6396E3B3","019dac78-5ede-7a54-9c90-4d18c97c7ed2","019dac5b-243f-7307-af64-a10f53f1ef70","","null","
                <div class=""stimulus-container"">
                    <img src=""images/causal_sequence/the_performance_causal/the_performance_causal_2.png"" class=""exp-image"">
                    <div class=""question-area""></div> 
                </div>","null","","","","","","","","","","","",""
"","","","","","html-button-response","125","614406","0.0-125.0","AFC2BA2C314941FCB94BEDAE6396E3B3","019dac78-5ede-7a54-9c90-4d18c97c7ed2","019dac5b-243f-7307-af64-a10f53f1ef70","","1604","
                <div class=""stimulus-container"">
                    <img src=""images/causal_sequence/the_performance_causal/the_performance_causal_2.png"" class=""exp-image"">
                    <div class=""question-area"">
                        <p style=""font-size: 20px; font-weight: bold; margin: 0;"">Is there a person in this image?</p>
                    </div>
                </div>","0","main_experiment_trial","2","the_performance_causal","causal_sequence","chronological","","","","","","",""
"","","","","","html-keyboard-response","126","619408","0.0-126.0","AFC2BA2C314941FCB94BEDAE6396E3B3","019dac78-5ede-7a54-9c90-4d18c97c7ed2","019dac5b-243f-7307-af64-a10f53f1ef70","","null","
                <div class=""stimulus-container"">
                    <img src=""images/causal_sequence/the_performance_causal/the_performance_causal_3.png"" class=""exp-image"">
                    <div class=""question-area""></div> 
                </div>","null","","","","","","","","","","","",""
"","","","","","html-button-response","127","620596","0.0-127.0","AFC2BA2C314941FCB94BEDAE6396E3B3","019dac78-5ede-7a54-9c90-4d18c97c7ed2","019dac5b-243f-7307-af64-a10f53f1ef70","","1188","
                <div class=""stimulus-container"">
                    <img src=""images/causal_sequence/the_performance_causal/the_performance_causal_3.png"" class=""exp-image"">
                    <div class=""question-area"">
                        <p style=""font-size: 20px; font-weight: bold; margin: 0;"">Is there a person in this image?</p>
                    </div>
                </div>","0","main_experiment_trial","3","the_performance_causal","causal_sequence","chronological","","","","","","",""
"","","","","","html-keyboard-response","128","625598","0.0-128.0","AFC2BA2C314941FCB94BEDAE6396E3B3","019dac78-5ede-7a54-9c90-4d18c97c7ed2","019dac5b-243f-7307-af64-a10f53f1ef70","","null","
                <div class=""stimulus-container"">
                    <img src=""images/causal_sequence/the_performance_causal/the_performance_causal_4.png"" class=""exp-image"">
                    <div class=""question-area""></div> 
                </div>","null","","","","","","","","","","","",""
"","","","","","html-button-response","129","626619","0.0-129.0","AFC2BA2C314941FCB94BEDAE6396E3B3","019dac78-5ede-7a54-9c90-4d18c97c7ed2","019dac5b-243f-7307-af64-a10f53f1ef70","","1021","
                <div class=""stimulus-container"">
                    <img src=""images/causal_sequence/the_performance_causal/the_performance_causal_4.png"" class=""exp-image"">
                    <div class=""question-area"">
                        <p style=""font-size: 20px; font-weight: bold; margin: 0;"">Is there a person in this image?</p>
                    </div>
                </div>","0","main_experiment_trial","4","the_performance_causal","causal_sequence","chronological","","","","","","",""
"","","","","","html-keyboard-response","130","631621","0.0-130.0","AFC2BA2C314941FCB94BEDAE6396E3B3","019dac78-5ede-7a54-9c90-4d18c97c7ed2","019dac5b-243f-7307-af64-a10f53f1ef70","","null","
                <div class=""stimulus-container"">
                    <img src=""images/causal_sequence/the_performance_causal/the_performance_causal_5.png"" class=""exp-image"">
                    <div class=""question-area""></div> 
                </div>","null","","","","","","","","","","","",""
"","","","","","html-button-response","131","632509","0.0-131.0","AFC2BA2C314941FCB94BEDAE6396E3B3","019dac78-5ede-7a54-9c90-4d18c97c7ed2","019dac5b-243f-7307-af64-a10f53f1ef70","","887","
                <div class=""stimulus-container"">
                    <img src=""images/causal_sequence/the_performance_causal/the_performance_causal_5.png"" class=""exp-image"">
                    <div class=""question-area"">
                        <p style=""font-size: 20px; font-weight: bold; margin: 0;"">Is there a person in this image?</p>
                    </div>
                </div>","0","main_experiment_trial","5","the_performance_causal","causal_sequence","chronological","","","","","","",""
"","","","","","html-keyboard-response","132","637511","0.0-132.0","AFC2BA2C314941FCB94BEDAE6396E3B3","019dac78-5ede-7a54-9c90-4d18c97c7ed2","019dac5b-243f-7307-af64-a10f53f1ef70","","null","
                <div class=""stimulus-container"">
                    <img src=""images/causal_sequence/the_performance_causal/the_performance_causal_6.png"" class=""exp-image"">
                    <div class=""question-area""></div> 
                </div>","null","","","","","","","","","","","",""
"","","","","","html-button-response","133","640514","0.0-133.0","AFC2BA2C314941FCB94BEDAE6396E3B3","019dac78-5ede-7a54-9c90-4d18c97c7ed2","019dac5b-243f-7307-af64-a10f53f1ef70","","null","
                <div class=""stimulus-container"">
                    <img src=""images/causal_sequence/the_performance_causal/the_performance_causal_6.png"" class=""exp-image"">
                    <div class=""question-area"">
                        <p style=""font-size: 20px; font-weight: bold; margin: 0;"">Is there a person in this image?</p>
                    </div>
                </div>","null","main_experiment_trial","6","the_performance_causal","causal_sequence","chronological","","","","","","",""
"","","","","","html-keyboard-response","134","645515","0.0-134.0","AFC2BA2C314941FCB94BEDAE6396E3B3","019dac78-5ede-7a54-9c90-4d18c97c7ed2","019dac5b-243f-7307-af64-a10f53f1ef70","","null","
                <div class=""stimulus-container"">
                    <img src=""images/causal_sequence/the_performance_causal/the_performance_causal_7.png"" class=""exp-image"">
                    <div class=""question-area""></div> 
                </div>","null","","","","","","","","","","","",""
"","","","","","html-button-response","135","646858","0.0-135.0","AFC2BA2C314941FCB94BEDAE6396E3B3","019dac78-5ede-7a54-9c90-4d18c97c7ed2","019dac5b-243f-7307-af64-a10f53f1ef70","","1342","
                <div class=""stimulus-container"">
                    <img src=""images/causal_sequence/the_performance_causal/the_performance_causal_7.png"" class=""exp-image"">
                    <div class=""question-area"">
                        <p style=""font-size: 20px; font-weight: bold; margin: 0;"">Is there a person in this image?</p>
                    </div>
                </div>","0","main_experiment_trial","7","the_performance_causal","causal_sequence","chronological","","","","","","",""
"","","","","","html-keyboard-response","136","651860","0.0-136.0","AFC2BA2C314941FCB94BEDAE6396E3B3","019dac78-5ede-7a54-9c90-4d18c97c7ed2","019dac5b-243f-7307-af64-a10f53f1ef70","","null","
                <div class=""stimulus-container"">
                    <img src=""images/causal_sequence/the_performance_causal/the_performance_causal_8.png"" class=""exp-image"">
                    <div class=""question-area""></div> 
                </div>","null","","","","","","","","","","","",""
"","","","","","html-button-response","137","653731","0.0-137.0","AFC2BA2C314941FCB94BEDAE6396E3B3","019dac78-5ede-7a54-9c90-4d18c97c7ed2","019dac5b-243f-7307-af64-a10f53f1ef70","","1870","
                <div class=""stimulus-container"">
                    <img src=""images/causal_sequence/the_performance_causal/the_performance_causal_8.png"" class=""exp-image"">
                    <div class=""question-area"">
                        <p style=""font-size: 20px; font-weight: bold; margin: 0;"">Is there a person in this image?</p>
                    </div>
                </div>","0","main_experiment_trial","8","the_performance_causal","causal_sequence","chronological","","","","","","",""
"","","","","","html-keyboard-response","138","658733","0.0-138.0","AFC2BA2C314941FCB94BEDAE6396E3B3","019dac78-5ede-7a54-9c90-4d18c97c7ed2","019dac5b-243f-7307-af64-a10f53f1ef70","","null","
                <div class=""stimulus-container"">
                    <img src=""images/causal_sequence/the_performance_causal/the_performance_causal_9.png"" class=""exp-image"">
                    <div class=""question-area""></div> 
                </div>","null","","","","","","","","","","","",""
"","","","","","html-button-response","139","659637","0.0-139.0","AFC2BA2C314941FCB94BEDAE6396E3B3","019dac78-5ede-7a54-9c90-4d18c97c7ed2","019dac5b-243f-7307-af64-a10f53f1ef70","","903","
                <div class=""stimulus-container"">
                    <img src=""images/causal_sequence/the_performance_causal/the_performance_causal_9.png"" class=""exp-image"">
                    <div class=""question-area"">
                        <p style=""font-size: 20px; font-weight: bold; margin: 0;"">Is there a person in this image?</p>
                    </div>
                </div>","0","main_experiment_trial","9","the_performance_causal","causal_sequence","chronological","","","","","","",""
"","","","","","html-keyboard-response","140","664639","0.0-140.0","AFC2BA2C314941FCB94BEDAE6396E3B3","019dac78-5ede-7a54-9c90-4d18c97c7ed2","019dac5b-243f-7307-af64-a10f53f1ef70","","null","
                <div class=""stimulus-container"">
                    <img src=""images/causal_sequence/the_performance_causal/the_performance_causal_ten.png"" class=""exp-image"">
                    <div class=""question-area""></div> 
                </div>","null","","","","","","","","","","","",""
"","","","","","html-button-response","141","665677","0.0-141.0","AFC2BA2C314941FCB94BEDAE6396E3B3","019dac78-5ede-7a54-9c90-4d18c97c7ed2","019dac5b-243f-7307-af64-a10f53f1ef70","","1037","
                <div class=""stimulus-container"">
                    <img src=""images/causal_sequence/the_performance_causal/the_performance_causal_ten.png"" class=""exp-image"">
                    <div class=""question-area"">
                        <p style=""font-size: 20px; font-weight: bold; margin: 0;"">Is there a person in this image?</p>
                    </div>
                </div>","0","main_experiment_trial","ten","the_performance_causal","causal_sequence","chronological","","","","","","",""
"","","","","","html-keyboard-response","142","670679","0.0-142.0","AFC2BA2C314941FCB94BEDAE6396E3B3","019dac78-5ede-7a54-9c90-4d18c97c7ed2","019dac5b-243f-7307-af64-a10f53f1ef70","","null","<div style=""background-color: white; width: 100vw; height: 100vh;""></div>","null","","","","","","","","","","","",""
"","","","","","html-keyboard-response","143","675681","0.0-143.0","AFC2BA2C314941FCB94BEDAE6396E3B3","019dac78-5ede-7a54-9c90-4d18c97c7ed2","019dac5b-243f-7307-af64-a10f53f1ef70","","null","
                <div class=""stimulus-container"">
                    <img src=""images/semantic_sequence/physical_activity_semantic/physical_activity_semantic_1.png"" class=""exp-image"">
                    <div class=""question-area""></div> 
                </div>","null","","","","","","","","","","","",""
"","","","","","html-button-response","144","676539","0.0-144.0","AFC2BA2C314941FCB94BEDAE6396E3B3","019dac78-5ede-7a54-9c90-4d18c97c7ed2","019dac5b-243f-7307-af64-a10f53f1ef70","","857","
                <div class=""stimulus-container"">
                    <img src=""images/semantic_sequence/physical_activity_semantic/physical_activity_semantic_1.png"" class=""exp-image"">
                    <div class=""question-area"">
                        <p style=""font-size: 20px; font-weight: bold; margin: 0;"">Is there a person in this image?</p>
                    </div>
                </div>","0","main_experiment_trial","1","physical_activity_semantic","semantic_sequence","chronological","","","","","","",""
"","","","","","html-keyboard-response","145","681540","0.0-145.0","AFC2BA2C314941FCB94BEDAE6396E3B3","019dac78-5ede-7a54-9c90-4d18c97c7ed2","019dac5b-243f-7307-af64-a10f53f1ef70","","null","
                <div class=""stimulus-container"">
                    <img src=""images/semantic_sequence/physical_activity_semantic/physical_activity_semantic_2.png"" class=""exp-image"">
                    <div class=""question-area""></div> 
                </div>","null","","","","","","","","","","","",""
"","","","","","html-button-response","146","682828","0.0-146.0","AFC2BA2C314941FCB94BEDAE6396E3B3","019dac78-5ede-7a54-9c90-4d18c97c7ed2","019dac5b-243f-7307-af64-a10f53f1ef70","","1288","
                <div class=""stimulus-container"">
                    <img src=""images/semantic_sequence/physical_activity_semantic/physical_activity_semantic_2.png"" class=""exp-image"">
                    <div class=""question-area"">
                        <p style=""font-size: 20px; font-weight: bold; margin: 0;"">Is there a person in this image?</p>
                    </div>
                </div>","0","main_experiment_trial","2","physical_activity_semantic","semantic_sequence","chronological","","","","","","",""
"","","","","","html-keyboard-response","147","687831","0.0-147.0","AFC2BA2C314941FCB94BEDAE6396E3B3","019dac78-5ede-7a54-9c90-4d18c97c7ed2","019dac5b-243f-7307-af64-a10f53f1ef70","","null","
                <div class=""stimulus-container"">
                    <img src=""images/semantic_sequence/physical_activity_semantic/physical_activity_semantic_3.png"" class=""exp-image"">
                    <div class=""question-area""></div> 
                </div>","null","","","","","","","","","","","",""
"","","","","","html-button-response","148","688751","0.0-148.0","AFC2BA2C314941FCB94BEDAE6396E3B3","019dac78-5ede-7a54-9c90-4d18c97c7ed2","019dac5b-243f-7307-af64-a10f53f1ef70","","920","
                <div class=""stimulus-container"">
                    <img src=""images/semantic_sequence/physical_activity_semantic/physical_activity_semantic_3.png"" class=""exp-image"">
                    <div class=""question-area"">
                        <p style=""font-size: 20px; font-weight: bold; margin: 0;"">Is there a person in this image?</p>
                    </div>
                </div>","0","main_experiment_trial","3","physical_activity_semantic","semantic_sequence","chronological","","","","","","",""
"","","","","","html-keyboard-response","149","693753","0.0-149.0","AFC2BA2C314941FCB94BEDAE6396E3B3","019dac78-5ede-7a54-9c90-4d18c97c7ed2","019dac5b-243f-7307-af64-a10f53f1ef70","","null","
                <div class=""stimulus-container"">
                    <img src=""images/semantic_sequence/physical_activity_semantic/physical_activity_semantic_4.png"" class=""exp-image"">
                    <div class=""question-area""></div> 
                </div>","null","","","","","","","","","","","",""
"","","","","","html-button-response","150","694625","0.0-150.0","AFC2BA2C314941FCB94BEDAE6396E3B3","019dac78-5ede-7a54-9c90-4d18c97c7ed2","019dac5b-243f-7307-af64-a10f53f1ef70","","871","
                <div class=""stimulus-container"">
                    <img src=""images/semantic_sequence/physical_activity_semantic/physical_activity_semantic_4.png"" class=""exp-image"">
                    <div class=""question-area"">
                        <p style=""font-size: 20px; font-weight: bold; margin: 0;"">Is there a person in this image?</p>
                    </div>
                </div>","0","main_experiment_trial","4","physical_activity_semantic","semantic_sequence","chronological","","","","","","",""
"","","","","","html-keyboard-response","151","699626","0.0-151.0","AFC2BA2C314941FCB94BEDAE6396E3B3","019dac78-5ede-7a54-9c90-4d18c97c7ed2","019dac5b-243f-7307-af64-a10f53f1ef70","","null","
                <div class=""stimulus-container"">
                    <img src=""images/semantic_sequence/physical_activity_semantic/physical_activity_semantic_5.png"" class=""exp-image"">
                    <div class=""question-area""></div> 
                </div>","null","","","","","","","","","","","",""
"","","","","","html-button-response","152","700414","0.0-152.0","AFC2BA2C314941FCB94BEDAE6396E3B3","019dac78-5ede-7a54-9c90-4d18c97c7ed2","019dac5b-243f-7307-af64-a10f53f1ef70","","788","
                <div class=""stimulus-container"">
                    <img src=""images/semantic_sequence/physical_activity_semantic/physical_activity_semantic_5.png"" class=""exp-image"">
                    <div class=""question-area"">
                        <p style=""font-size: 20px; font-weight: bold; margin: 0;"">Is there a person in this image?</p>
                    </div>
                </div>","0","main_experiment_trial","5","physical_activity_semantic","semantic_sequence","chronological","","","","","","",""
"","","","","","html-keyboard-response","153","705416","0.0-153.0","AFC2BA2C314941FCB94BEDAE6396E3B3","019dac78-5ede-7a54-9c90-4d18c97c7ed2","019dac5b-243f-7307-af64-a10f53f1ef70","","null","
                <div class=""stimulus-container"">
                    <img src=""images/semantic_sequence/physical_activity_semantic/physical_activity_semantic_6.png"" class=""exp-image"">
                    <div class=""question-area""></div> 
                </div>","null","","","","","","","","","","","",""
"","","","","","html-button-response","154","706187","0.0-154.0","AFC2BA2C314941FCB94BEDAE6396E3B3","019dac78-5ede-7a54-9c90-4d18c97c7ed2","019dac5b-243f-7307-af64-a10f53f1ef70","","770","
                <div class=""stimulus-container"">
                    <img src=""images/semantic_sequence/physical_activity_semantic/physical_activity_semantic_6.png"" class=""exp-image"">
                    <div class=""question-area"">
                        <p style=""font-size: 20px; font-weight: bold; margin: 0;"">Is there a person in this image?</p>
                    </div>
                </div>","0","main_experiment_trial","6","physical_activity_semantic","semantic_sequence","chronological","","","","","","",""
"","","","","","html-keyboard-response","155","711188","0.0-155.0","AFC2BA2C314941FCB94BEDAE6396E3B3","019dac78-5ede-7a54-9c90-4d18c97c7ed2","019dac5b-243f-7307-af64-a10f53f1ef70","","null","
                <div class=""stimulus-container"">
                    <img src=""images/semantic_sequence/physical_activity_semantic/physical_activity_semantic_7.png"" class=""exp-image"">
                    <div class=""question-area""></div> 
                </div>","null","","","","","","","","","","","",""
"","","","","","html-button-response","156","712210","0.0-156.0","AFC2BA2C314941FCB94BEDAE6396E3B3","019dac78-5ede-7a54-9c90-4d18c97c7ed2","019dac5b-243f-7307-af64-a10f53f1ef70","","1021","
                <div class=""stimulus-container"">
                    <img src=""images/semantic_sequence/physical_activity_semantic/physical_activity_semantic_7.png"" class=""exp-image"">
                    <div class=""question-area"">
                        <p style=""font-size: 20px; font-weight: bold; margin: 0;"">Is there a person in this image?</p>
                    </div>
                </div>","0","main_experiment_trial","7","physical_activity_semantic","semantic_sequence","chronological","","","","","","",""
"","","","","","html-keyboard-response","157","717212","0.0-157.0","AFC2BA2C314941FCB94BEDAE6396E3B3","019dac78-5ede-7a54-9c90-4d18c97c7ed2","019dac5b-243f-7307-af64-a10f53f1ef70","","null","
                <div class=""stimulus-container"">
                    <img src=""images/semantic_sequence/physical_activity_semantic/physical_activity_semantic_8.png"" class=""exp-image"">
                    <div class=""question-area""></div> 
                </div>","null","","","","","","","","","","","",""
"","","","","","html-button-response","158","718316","0.0-158.0","AFC2BA2C314941FCB94BEDAE6396E3B3","019dac78-5ede-7a54-9c90-4d18c97c7ed2","019dac5b-243f-7307-af64-a10f53f1ef70","","1103","
                <div class=""stimulus-container"">
                    <img src=""images/semantic_sequence/physical_activity_semantic/physical_activity_semantic_8.png"" class=""exp-image"">
                    <div class=""question-area"">
                        <p style=""font-size: 20px; font-weight: bold; margin: 0;"">Is there a person in this image?</p>
                    </div>
                </div>","0","main_experiment_trial","8","physical_activity_semantic","semantic_sequence","chronological","","","","","","",""
"","","","","","html-keyboard-response","159","723318","0.0-159.0","AFC2BA2C314941FCB94BEDAE6396E3B3","019dac78-5ede-7a54-9c90-4d18c97c7ed2","019dac5b-243f-7307-af64-a10f53f1ef70","","null","
                <div class=""stimulus-container"">
                    <img src=""images/semantic_sequence/physical_activity_semantic/physical_activity_semantic_9.png"" class=""exp-image"">
                    <div class=""question-area""></div> 
                </div>","null","","","","","","","","","","","",""
"","","","","","html-button-response","160","724239","0.0-160.0","AFC2BA2C314941FCB94BEDAE6396E3B3","019dac78-5ede-7a54-9c90-4d18c97c7ed2","019dac5b-243f-7307-af64-a10f53f1ef70","","920","
                <div class=""stimulus-container"">
                    <img src=""images/semantic_sequence/physical_activity_semantic/physical_activity_semantic_9.png"" class=""exp-image"">
                    <div class=""question-area"">
                        <p style=""font-size: 20px; font-weight: bold; margin: 0;"">Is there a person in this image?</p>
                    </div>
                </div>","0","main_experiment_trial","9","physical_activity_semantic","semantic_sequence","chronological","","","","","","",""
"","","","","","html-keyboard-response","161","729240","0.0-161.0","AFC2BA2C314941FCB94BEDAE6396E3B3","019dac78-5ede-7a54-9c90-4d18c97c7ed2","019dac5b-243f-7307-af64-a10f53f1ef70","","null","
                <div class=""stimulus-container"">
                    <img src=""images/semantic_sequence/physical_activity_semantic/physical_activity_semantic_ten.png"" class=""exp-image"">
                    <div class=""question-area""></div> 
                </div>","null","","","","","","","","","","","",""
"","","","","","html-button-response","162","730279","0.0-162.0","AFC2BA2C314941FCB94BEDAE6396E3B3","019dac78-5ede-7a54-9c90-4d18c97c7ed2","019dac5b-243f-7307-af64-a10f53f1ef70","","1038","
                <div class=""stimulus-container"">
                    <img src=""images/semantic_sequence/physical_activity_semantic/physical_activity_semantic_ten.png"" class=""exp-image"">
                    <div class=""question-area"">
                        <p style=""font-size: 20px; font-weight: bold; margin: 0;"">Is there a person in this image?</p>
                    </div>
                </div>","0","main_experiment_trial","ten","physical_activity_semantic","semantic_sequence","chronological","","","","","","",""
"","","","","","html-keyboard-response","163","735281","0.0-163.0","AFC2BA2C314941FCB94BEDAE6396E3B3","019dac78-5ede-7a54-9c90-4d18c97c7ed2","019dac5b-243f-7307-af64-a10f53f1ef70","","null","<div style=""background-color: white; width: 100vw; height: 100vh;""></div>","null","","","","","","","","","","","",""
"","","","","","html-keyboard-response","164","740283","0.0-164.0","AFC2BA2C314941FCB94BEDAE6396E3B3","019dac78-5ede-7a54-9c90-4d18c97c7ed2","019dac5b-243f-7307-af64-a10f53f1ef70","","null","
                <div class=""stimulus-container"">
                    <img src=""images/causal_sequence/coin_causal/coin_causal_1.png"" class=""exp-image"">
                    <div class=""question-area""></div> 
                </div>","null","","","","","","","","","","","",""
"","","","","","html-button-response","165","742325","0.0-165.0","AFC2BA2C314941FCB94BEDAE6396E3B3","019dac78-5ede-7a54-9c90-4d18c97c7ed2","019dac5b-243f-7307-af64-a10f53f1ef70","","2042","
                <div class=""stimulus-container"">
                    <img src=""images/causal_sequence/coin_causal/coin_causal_1.png"" class=""exp-image"">
                    <div class=""question-area"">
                        <p style=""font-size: 20px; font-weight: bold; margin: 0;"">Is there a person in this image?</p>
                    </div>
                </div>","0","main_experiment_trial","1","coin_causal","causal_sequence","chronological","","","","","","",""
"","","","","","html-keyboard-response","166","747327","0.0-166.0","AFC2BA2C314941FCB94BEDAE6396E3B3","019dac78-5ede-7a54-9c90-4d18c97c7ed2","019dac5b-243f-7307-af64-a10f53f1ef70","","null","
                <div class=""stimulus-container"">
                    <img src=""images/causal_sequence/coin_causal/coin_causal_2.png"" class=""exp-image"">
                    <div class=""question-area""></div> 
                </div>","null","","","","","","","","","","","",""
"","","","","","html-button-response","167","748565","0.0-167.0","AFC2BA2C314941FCB94BEDAE6396E3B3","019dac78-5ede-7a54-9c90-4d18c97c7ed2","019dac5b-243f-7307-af64-a10f53f1ef70","","1238","
                <div class=""stimulus-container"">
                    <img src=""images/causal_sequence/coin_causal/coin_causal_2.png"" class=""exp-image"">
                    <div class=""question-area"">
                        <p style=""font-size: 20px; font-weight: bold; margin: 0;"">Is there a person in this image?</p>
                    </div>
                </div>","0","main_experiment_trial","2","coin_causal","causal_sequence","chronological","","","","","","",""
"","","","","","html-keyboard-response","168","753567","0.0-168.0","AFC2BA2C314941FCB94BEDAE6396E3B3","019dac78-5ede-7a54-9c90-4d18c97c7ed2","019dac5b-243f-7307-af64-a10f53f1ef70","","null","
                <div class=""stimulus-container"">
                    <img src=""images/causal_sequence/coin_causal/coin_causal_3.png"" class=""exp-image"">
                    <div class=""question-area""></div> 
                </div>","null","","","","","","","","","","","",""
"","","","","","html-button-response","169","754237","0.0-169.0","AFC2BA2C314941FCB94BEDAE6396E3B3","019dac78-5ede-7a54-9c90-4d18c97c7ed2","019dac5b-243f-7307-af64-a10f53f1ef70","","670","
                <div class=""stimulus-container"">
                    <img src=""images/causal_sequence/coin_causal/coin_causal_3.png"" class=""exp-image"">
                    <div class=""question-area"">
                        <p style=""font-size: 20px; font-weight: bold; margin: 0;"">Is there a person in this image?</p>
                    </div>
                </div>","0","main_experiment_trial","3","coin_causal","causal_sequence","chronological","","","","","","",""
"","","","","","html-keyboard-response","170","759240","0.0-170.0","AFC2BA2C314941FCB94BEDAE6396E3B3","019dac78-5ede-7a54-9c90-4d18c97c7ed2","019dac5b-243f-7307-af64-a10f53f1ef70","","null","
                <div class=""stimulus-container"">
                    <img src=""images/causal_sequence/coin_causal/coin_causal_4.png"" class=""exp-image"">
                    <div class=""question-area""></div> 
                </div>","null","","","","","","","","","","","",""
"","","","","","html-button-response","171","759843","0.0-171.0","AFC2BA2C314941FCB94BEDAE6396E3B3","019dac78-5ede-7a54-9c90-4d18c97c7ed2","019dac5b-243f-7307-af64-a10f53f1ef70","","603","
                <div class=""stimulus-container"">
                    <img src=""images/causal_sequence/coin_causal/coin_causal_4.png"" class=""exp-image"">
                    <div class=""question-area"">
                        <p style=""font-size: 20px; font-weight: bold; margin: 0;"">Is there a person in this image?</p>
                    </div>
                </div>","0","main_experiment_trial","4","coin_causal","causal_sequence","chronological","","","","","","",""
"","","","","","html-keyboard-response","172","764845","0.0-172.0","AFC2BA2C314941FCB94BEDAE6396E3B3","019dac78-5ede-7a54-9c90-4d18c97c7ed2","019dac5b-243f-7307-af64-a10f53f1ef70","","null","
                <div class=""stimulus-container"">
                    <img src=""images/causal_sequence/coin_causal/coin_causal_5.png"" class=""exp-image"">
                    <div class=""question-area""></div> 
                </div>","null","","","","","","","","","","","",""
"","","","","","html-button-response","173","767847","0.0-173.0","AFC2BA2C314941FCB94BEDAE6396E3B3","019dac78-5ede-7a54-9c90-4d18c97c7ed2","019dac5b-243f-7307-af64-a10f53f1ef70","","null","
                <div class=""stimulus-container"">
                    <img src=""images/causal_sequence/coin_causal/coin_causal_5.png"" class=""exp-image"">
                    <div class=""question-area"">
                        <p style=""font-size: 20px; font-weight: bold; margin: 0;"">Is there a person in this image?</p>
                    </div>
                </div>","null","main_experiment_trial","5","coin_causal","causal_sequence","chronological","","","","","","",""
"","","","","","html-keyboard-response","174","772849","0.0-174.0","AFC2BA2C314941FCB94BEDAE6396E3B3","019dac78-5ede-7a54-9c90-4d18c97c7ed2","019dac5b-243f-7307-af64-a10f53f1ef70","","null","
                <div class=""stimulus-container"">
                    <img src=""images/causal_sequence/coin_causal/coin_causal_6.png"" class=""exp-image"">
                    <div class=""question-area""></div> 
                </div>","null","","","","","","","","","","","",""
