"success","timeout","failed_images","failed_audio","failed_video","trial_type","trial_index","time_elapsed","internal_node_id","subject_id","study_id","session_id","view_history","rt","stimulus","response","task","image_index","folder","sequence_type","presentation_order","valuable_image_index","reward_type","chosen_image_index","target_X","correct_choice"
"true","false","[]","[]","[]","preload","0","55048","0.0-0.0","2A980FF0176A483DBC6DA8A7DB71C5DE","019cf9a2-10d6-7c39-b36c-dc9726152684","019cf974-7aee-7bc9-8ea4-9f55741b365d","","","","","","","","","","","","","",""
"","","","","","instructions","1","63406","0.0-1.0","2A980FF0176A483DBC6DA8A7DB71C5DE","019cf9a2-10d6-7c39-b36c-dc9726152684","019cf974-7aee-7bc9-8ea4-9f55741b365d","[{""page_index"":0,""viewing_time"":8357}]","8357","","","","","","","","","","","",""
"","","","","","instructions","2","94775","0.0-2.0","2A980FF0176A483DBC6DA8A7DB71C5DE","019cf9a2-10d6-7c39-b36c-dc9726152684","019cf974-7aee-7bc9-8ea4-9f55741b365d","[{""page_index"":0,""viewing_time"":31367}]","31368","","","","","","","","","","","",""
"true","","","","","fullscreen","3","98143","0.0-3.0","2A980FF0176A483DBC6DA8A7DB71C5DE","019cf9a2-10d6-7c39-b36c-dc9726152684","019cf974-7aee-7bc9-8ea4-9f55741b365d","","2346","","","","","","","","","","","",""
"","","","","","instructions","4","110781","0.0-4.0","2A980FF0176A483DBC6DA8A7DB71C5DE","019cf9a2-10d6-7c39-b36c-dc9726152684","019cf974-7aee-7bc9-8ea4-9f55741b365d","[{""page_index"":0,""viewing_time"":12638}]","12638","","","","","","","","","","","",""
"","","","","","instructions","5","123283","0.0-5.0","2A980FF0176A483DBC6DA8A7DB71C5DE","019cf9a2-10d6-7c39-b36c-dc9726152684","019cf974-7aee-7bc9-8ea4-9f55741b365d","[{""page_index"":0,""viewing_time"":12501}]","12501","","","","","","","","","","","",""
"","","","","","html-keyboard-response","6","127290","0.0-6.0","2A980FF0176A483DBC6DA8A7DB71C5DE","019cf9a2-10d6-7c39-b36c-dc9726152684","019cf974-7aee-7bc9-8ea4-9f55741b365d","","null","
                <div class=""stimulus-container"">
                    <img src=""images/instructions/movie_1.png"" class=""exp-image"">
                    <div class=""question-area""></div> 
                </div>","null","","","","","","","","","",""
"","","","","","html-button-response","7","129342","0.0-7.0","2A980FF0176A483DBC6DA8A7DB71C5DE","019cf9a2-10d6-7c39-b36c-dc9726152684","019cf974-7aee-7bc9-8ea4-9f55741b365d","","2051","
                <div class=""stimulus-container"">
                    <img src=""images/instructions/movie_1.png"" class=""exp-image"">
                    <div class=""question-area"">
                        <p style=""font-size: 20px; font-weight: bold; margin: 0;"">Was there a person in this image?</p>
                    </div>
                </div>","0","example_question","1","","","","","","","",""
"","","","","","html-keyboard-response","8","133358","0.0-8.0","2A980FF0176A483DBC6DA8A7DB71C5DE","019cf9a2-10d6-7c39-b36c-dc9726152684","019cf974-7aee-7bc9-8ea4-9f55741b365d","","null","
                <div class=""stimulus-container"">
                    <img src=""images/instructions/movie_2.png"" class=""exp-image"">
                    <div class=""question-area""></div> 
                </div>","null","","","","","","","","","",""
"","","","","","html-button-response","9","135255","0.0-9.0","2A980FF0176A483DBC6DA8A7DB71C5DE","019cf9a2-10d6-7c39-b36c-dc9726152684","019cf974-7aee-7bc9-8ea4-9f55741b365d","","1896","
                <div class=""stimulus-container"">
                    <img src=""images/instructions/movie_2.png"" class=""exp-image"">
                    <div class=""question-area"">
                        <p style=""font-size: 20px; font-weight: bold; margin: 0;"">Was there a person in this image?</p>
                    </div>
                </div>","0","example_question","2","","","","","","","",""
"","","","","","html-keyboard-response","10","139259","0.0-10.0","2A980FF0176A483DBC6DA8A7DB71C5DE","019cf9a2-10d6-7c39-b36c-dc9726152684","019cf974-7aee-7bc9-8ea4-9f55741b365d","","null","
                <div class=""stimulus-container"">
                    <img src=""images/instructions/movie_3.png"" class=""exp-image"">
                    <div class=""question-area""></div> 
                </div>","null","","","","","","","","","",""
"","","","","","html-button-response","11","140631","0.0-11.0","2A980FF0176A483DBC6DA8A7DB71C5DE","019cf9a2-10d6-7c39-b36c-dc9726152684","019cf974-7aee-7bc9-8ea4-9f55741b365d","","1371","
                <div class=""stimulus-container"">
                    <img src=""images/instructions/movie_3.png"" class=""exp-image"">
                    <div class=""question-area"">
                        <p style=""font-size: 20px; font-weight: bold; margin: 0;"">Was there a person in this image?</p>
                    </div>
                </div>","0","example_question","3","","","","","","","",""
"","","","","","html-keyboard-response","12","144632","0.0-12.0","2A980FF0176A483DBC6DA8A7DB71C5DE","019cf9a2-10d6-7c39-b36c-dc9726152684","019cf974-7aee-7bc9-8ea4-9f55741b365d","","null","
                <div class=""stimulus-container"">
                    <img src=""images/instructions/movie_4.png"" class=""exp-image"">
                    <div class=""question-area""></div> 
                </div>","null","","","","","","","","","",""
"","","","","","html-button-response","13","146642","0.0-13.0","2A980FF0176A483DBC6DA8A7DB71C5DE","019cf9a2-10d6-7c39-b36c-dc9726152684","019cf974-7aee-7bc9-8ea4-9f55741b365d","","2009","
                <div class=""stimulus-container"">
                    <img src=""images/instructions/movie_4.png"" class=""exp-image"">
                    <div class=""question-area"">
                        <p style=""font-size: 20px; font-weight: bold; margin: 0;"">Was there a person in this image?</p>
                    </div>
                </div>","0","example_question","4","","","","","","","",""
"","","","","","instructions","14","148718","0.0-14.0","2A980FF0176A483DBC6DA8A7DB71C5DE","019cf9a2-10d6-7c39-b36c-dc9726152684","019cf974-7aee-7bc9-8ea4-9f55741b365d","[{""page_index"":0,""viewing_time"":2075}]","2076","","","","","","","","","","","",""
"","","","","","instructions","15","152688","0.0-15.0","2A980FF0176A483DBC6DA8A7DB71C5DE","019cf9a2-10d6-7c39-b36c-dc9726152684","019cf974-7aee-7bc9-8ea4-9f55741b365d","[{""page_index"":0,""viewing_time"":3968}]","3969","","","","","","","","","","","",""
"","","","","","html-keyboard-response","16","157705","0.0-16.0","2A980FF0176A483DBC6DA8A7DB71C5DE","019cf9a2-10d6-7c39-b36c-dc9726152684","019cf974-7aee-7bc9-8ea4-9f55741b365d","","null","<div style=""background-color: white; width: 100vw; height: 100vh;""></div>","null","","","","","","","","","",""
"","","","","","html-keyboard-response","17","158707","0.0-17.0","2A980FF0176A483DBC6DA8A7DB71C5DE","019cf9a2-10d6-7c39-b36c-dc9726152684","019cf974-7aee-7bc9-8ea4-9f55741b365d","","null","
                <div class=""stimulus-container"">
                    <img src=""images/semantic_sequence/self_care_activities_semantic/self_care_activities_semantic_8.png"" class=""exp-image"">
                    <div class=""question-area""></div> 
                </div>","null","","","","","","","","","",""
"","","","","","html-button-response","18","160164","0.0-18.0","2A980FF0176A483DBC6DA8A7DB71C5DE","019cf9a2-10d6-7c39-b36c-dc9726152684","019cf974-7aee-7bc9-8ea4-9f55741b365d","","1455","
                <div class=""stimulus-container"">
                    <img src=""images/semantic_sequence/self_care_activities_semantic/self_care_activities_semantic_8.png"" class=""exp-image"">
                    <div class=""question-area"">
                        <p style=""font-size: 20px; font-weight: bold; margin: 0;"">Is there a person in this image?</p>
                    </div>
                </div>","0","main_experiment_trial","8","self_care_activities_semantic","semantic_sequence","randomized","","","","",""
"","","","","","html-keyboard-response","19","161180","0.0-19.0","2A980FF0176A483DBC6DA8A7DB71C5DE","019cf9a2-10d6-7c39-b36c-dc9726152684","019cf974-7aee-7bc9-8ea4-9f55741b365d","","null","
                <div class=""stimulus-container"">
                    <img src=""images/semantic_sequence/self_care_activities_semantic/self_care_activities_semantic_1.png"" class=""exp-image"">
                    <div class=""question-area""></div> 
                </div>","null","","","","","","","","","",""
"","","","","","html-button-response","20","162241","0.0-20.0","2A980FF0176A483DBC6DA8A7DB71C5DE","019cf9a2-10d6-7c39-b36c-dc9726152684","019cf974-7aee-7bc9-8ea4-9f55741b365d","","1060","
                <div class=""stimulus-container"">
                    <img src=""images/semantic_sequence/self_care_activities_semantic/self_care_activities_semantic_1.png"" class=""exp-image"">
                    <div class=""question-area"">
                        <p style=""font-size: 20px; font-weight: bold; margin: 0;"">Is there a person in this image?</p>
                    </div>
                </div>","0","main_experiment_trial","1","self_care_activities_semantic","semantic_sequence","randomized","","","","",""
"","","","","","html-keyboard-response","21","163245","0.0-21.0","2A980FF0176A483DBC6DA8A7DB71C5DE","019cf9a2-10d6-7c39-b36c-dc9726152684","019cf974-7aee-7bc9-8ea4-9f55741b365d","","null","
                <div class=""stimulus-container"">
                    <img src=""images/semantic_sequence/self_care_activities_semantic/self_care_activities_semantic_3.png"" class=""exp-image"">
                    <div class=""question-area""></div> 
                </div>","null","","","","","","","","","",""
"","","","","","html-button-response","22","164189","0.0-22.0","2A980FF0176A483DBC6DA8A7DB71C5DE","019cf9a2-10d6-7c39-b36c-dc9726152684","019cf974-7aee-7bc9-8ea4-9f55741b365d","","943","
                <div class=""stimulus-container"">
                    <img src=""images/semantic_sequence/self_care_activities_semantic/self_care_activities_semantic_3.png"" class=""exp-image"">
                    <div class=""question-area"">
                        <p style=""font-size: 20px; font-weight: bold; margin: 0;"">Is there a person in this image?</p>
                    </div>
                </div>","0","main_experiment_trial","3","self_care_activities_semantic","semantic_sequence","randomized","","","","",""
"","","","","","html-keyboard-response","23","165192","0.0-23.0","2A980FF0176A483DBC6DA8A7DB71C5DE","019cf9a2-10d6-7c39-b36c-dc9726152684","019cf974-7aee-7bc9-8ea4-9f55741b365d","","null","
                <div class=""stimulus-container"">
                    <img src=""images/semantic_sequence/self_care_activities_semantic/self_care_activities_semantic_2.png"" class=""exp-image"">
                    <div class=""question-area""></div> 
                </div>","null","","","","","","","","","",""
"","","","","","html-button-response","24","166140","0.0-24.0","2A980FF0176A483DBC6DA8A7DB71C5DE","019cf9a2-10d6-7c39-b36c-dc9726152684","019cf974-7aee-7bc9-8ea4-9f55741b365d","","947","
                <div class=""stimulus-container"">
                    <img src=""images/semantic_sequence/self_care_activities_semantic/self_care_activities_semantic_2.png"" class=""exp-image"">
                    <div class=""question-area"">
                        <p style=""font-size: 20px; font-weight: bold; margin: 0;"">Is there a person in this image?</p>
                    </div>
                </div>","0","main_experiment_trial","2","self_care_activities_semantic","semantic_sequence","randomized","","","","",""
"","","","","","html-keyboard-response","25","167142","0.0-25.0","2A980FF0176A483DBC6DA8A7DB71C5DE","019cf9a2-10d6-7c39-b36c-dc9726152684","019cf974-7aee-7bc9-8ea4-9f55741b365d","","null","
                <div class=""stimulus-container"">
                    <img src=""images/semantic_sequence/self_care_activities_semantic/self_care_activities_semantic_4.png"" class=""exp-image"">
                    <div class=""question-area""></div> 
                </div>","null","","","","","","","","","",""
"","","","","","html-button-response","26","168138","0.0-26.0","2A980FF0176A483DBC6DA8A7DB71C5DE","019cf9a2-10d6-7c39-b36c-dc9726152684","019cf974-7aee-7bc9-8ea4-9f55741b365d","","996","
                <div class=""stimulus-container"">
                    <img src=""images/semantic_sequence/self_care_activities_semantic/self_care_activities_semantic_4.png"" class=""exp-image"">
                    <div class=""question-area"">
                        <p style=""font-size: 20px; font-weight: bold; margin: 0;"">Is there a person in this image?</p>
                    </div>
                </div>","0","main_experiment_trial","4","self_care_activities_semantic","semantic_sequence","randomized","","","","",""
"","","","","","html-keyboard-response","27","169147","0.0-27.0","2A980FF0176A483DBC6DA8A7DB71C5DE","019cf9a2-10d6-7c39-b36c-dc9726152684","019cf974-7aee-7bc9-8ea4-9f55741b365d","","null","
                <div class=""stimulus-container"">
                    <img src=""images/semantic_sequence/self_care_activities_semantic/self_care_activities_semantic_7.png"" class=""exp-image"">
                    <div class=""question-area""></div> 
                </div>","null","","","","","","","","","",""
"","","","","","html-button-response","28","169937","0.0-28.0","2A980FF0176A483DBC6DA8A7DB71C5DE","019cf9a2-10d6-7c39-b36c-dc9726152684","019cf974-7aee-7bc9-8ea4-9f55741b365d","","788","
                <div class=""stimulus-container"">
                    <img src=""images/semantic_sequence/self_care_activities_semantic/self_care_activities_semantic_7.png"" class=""exp-image"">
                    <div class=""question-area"">
                        <p style=""font-size: 20px; font-weight: bold; margin: 0;"">Is there a person in this image?</p>
                    </div>
                </div>","0","main_experiment_trial","7","self_care_activities_semantic","semantic_sequence","randomized","","","","",""
"","","","","","html-keyboard-response","29","170945","0.0-29.0","2A980FF0176A483DBC6DA8A7DB71C5DE","019cf9a2-10d6-7c39-b36c-dc9726152684","019cf974-7aee-7bc9-8ea4-9f55741b365d","","null","
                <div class=""stimulus-container"">
                    <img src=""images/semantic_sequence/self_care_activities_semantic/self_care_activities_semantic_9.png"" class=""exp-image"">
                    <div class=""question-area""></div> 
                </div>","null","","","","","","","","","",""
"","","","","","html-button-response","30","171615","0.0-30.0","2A980FF0176A483DBC6DA8A7DB71C5DE","019cf9a2-10d6-7c39-b36c-dc9726152684","019cf974-7aee-7bc9-8ea4-9f55741b365d","","668","
                <div class=""stimulus-container"">
                    <img src=""images/semantic_sequence/self_care_activities_semantic/self_care_activities_semantic_9.png"" class=""exp-image"">
                    <div class=""question-area"">
                        <p style=""font-size: 20px; font-weight: bold; margin: 0;"">Is there a person in this image?</p>
                    </div>
                </div>","0","main_experiment_trial","9","self_care_activities_semantic","semantic_sequence","randomized","","","","",""
"","","","","","html-keyboard-response","31","172620","0.0-31.0","2A980FF0176A483DBC6DA8A7DB71C5DE","019cf9a2-10d6-7c39-b36c-dc9726152684","019cf974-7aee-7bc9-8ea4-9f55741b365d","","null","
                <div class=""stimulus-container"">
                    <img src=""images/semantic_sequence/self_care_activities_semantic/self_care_activities_semantic_6.png"" class=""exp-image"">
                    <div class=""question-area""></div> 
                </div>","null","","","","","","","","","",""
"","","","","","html-button-response","32","173299","0.0-32.0","2A980FF0176A483DBC6DA8A7DB71C5DE","019cf9a2-10d6-7c39-b36c-dc9726152684","019cf974-7aee-7bc9-8ea4-9f55741b365d","","678","
                <div class=""stimulus-container"">
                    <img src=""images/semantic_sequence/self_care_activities_semantic/self_care_activities_semantic_6.png"" class=""exp-image"">
                    <div class=""question-area"">
                        <p style=""font-size: 20px; font-weight: bold; margin: 0;"">Is there a person in this image?</p>
                    </div>
                </div>","1","main_experiment_trial","6","self_care_activities_semantic","semantic_sequence","randomized","","","","",""
"","","","","","html-keyboard-response","33","174313","0.0-33.0","2A980FF0176A483DBC6DA8A7DB71C5DE","019cf9a2-10d6-7c39-b36c-dc9726152684","019cf974-7aee-7bc9-8ea4-9f55741b365d","","null","
                <div class=""stimulus-container"">
                    <img src=""images/semantic_sequence/self_care_activities_semantic/self_care_activities_semantic_ten.png"" class=""exp-image"">
                    <div class=""question-area""></div> 
                </div>","null","","","","","","","","","",""
"","","","","","html-button-response","34","175030","0.0-34.0","2A980FF0176A483DBC6DA8A7DB71C5DE","019cf9a2-10d6-7c39-b36c-dc9726152684","019cf974-7aee-7bc9-8ea4-9f55741b365d","","716","
                <div class=""stimulus-container"">
                    <img src=""images/semantic_sequence/self_care_activities_semantic/self_care_activities_semantic_ten.png"" class=""exp-image"">
                    <div class=""question-area"">
                        <p style=""font-size: 20px; font-weight: bold; margin: 0;"">Is there a person in this image?</p>
                    </div>
                </div>","0","main_experiment_trial","ten","self_care_activities_semantic","semantic_sequence","randomized","","","","",""
"","","","","","html-keyboard-response","35","176038","0.0-35.0","2A980FF0176A483DBC6DA8A7DB71C5DE","019cf9a2-10d6-7c39-b36c-dc9726152684","019cf974-7aee-7bc9-8ea4-9f55741b365d","","null","
                <div class=""stimulus-container"">
                    <img src=""images/semantic_sequence/self_care_activities_semantic/self_care_activities_semantic_5.png"" class=""exp-image"">
                    <div class=""question-area""></div> 
                </div>","null","","","","","","","","","",""
"","","","","","html-button-response","36","176829","0.0-36.0","2A980FF0176A483DBC6DA8A7DB71C5DE","019cf9a2-10d6-7c39-b36c-dc9726152684","019cf974-7aee-7bc9-8ea4-9f55741b365d","","790","
                <div class=""stimulus-container"">
                    <img src=""images/semantic_sequence/self_care_activities_semantic/self_care_activities_semantic_5.png"" class=""exp-image"">
                    <div class=""question-area"">
                        <p style=""font-size: 20px; font-weight: bold; margin: 0;"">Is there a person in this image?</p>
                    </div>
                </div>","0","main_experiment_trial","5","self_care_activities_semantic","semantic_sequence","randomized","","","","",""
"","","","","","html-keyboard-response","37","181840","0.0-37.0","2A980FF0176A483DBC6DA8A7DB71C5DE","019cf9a2-10d6-7c39-b36c-dc9726152684","019cf974-7aee-7bc9-8ea4-9f55741b365d","","null","<div style=""background-color: white; width: 100vw; height: 100vh;""></div>","null","","","","","","","","","",""
"","","","","","html-keyboard-response","38","182848","0.0-38.0","2A980FF0176A483DBC6DA8A7DB71C5DE","019cf9a2-10d6-7c39-b36c-dc9726152684","019cf974-7aee-7bc9-8ea4-9f55741b365d","","null","
                <div class=""stimulus-container"">
                    <img src=""images/causal_sequence/saving_a_cat_causal/saving_a_cat_causal_4.png"" class=""exp-image"">
                    <div class=""question-area""></div> 
                </div>","null","","","","","","","","","",""
"","","","","","html-button-response","39","183954","0.0-39.0","2A980FF0176A483DBC6DA8A7DB71C5DE","019cf9a2-10d6-7c39-b36c-dc9726152684","019cf974-7aee-7bc9-8ea4-9f55741b365d","","1105","
                <div class=""stimulus-container"">
                    <img src=""images/causal_sequence/saving_a_cat_causal/saving_a_cat_causal_4.png"" class=""exp-image"">
                    <div class=""question-area"">
                        <p style=""font-size: 20px; font-weight: bold; margin: 0;"">Is there a person in this image?</p>
                    </div>
                </div>","0","main_experiment_trial","4","saving_a_cat_causal","causal_sequence","randomized","","","","",""
"","","","","","html-keyboard-response","40","184957","0.0-40.0","2A980FF0176A483DBC6DA8A7DB71C5DE","019cf9a2-10d6-7c39-b36c-dc9726152684","019cf974-7aee-7bc9-8ea4-9f55741b365d","","null","
                <div class=""stimulus-container"">
                    <img src=""images/causal_sequence/saving_a_cat_causal/saving_a_cat_causal_5.png"" class=""exp-image"">
                    <div class=""question-area""></div> 
                </div>","null","","","","","","","","","",""
"","","","","","html-button-response","41","185769","0.0-41.0","2A980FF0176A483DBC6DA8A7DB71C5DE","019cf9a2-10d6-7c39-b36c-dc9726152684","019cf974-7aee-7bc9-8ea4-9f55741b365d","","811","
                <div class=""stimulus-container"">
                    <img src=""images/causal_sequence/saving_a_cat_causal/saving_a_cat_causal_5.png"" class=""exp-image"">
                    <div class=""question-area"">
                        <p style=""font-size: 20px; font-weight: bold; margin: 0;"">Is there a person in this image?</p>
                    </div>
                </div>","0","main_experiment_trial","5","saving_a_cat_causal","causal_sequence","randomized","","","","",""
"","","","","","html-keyboard-response","42","186772","0.0-42.0","2A980FF0176A483DBC6DA8A7DB71C5DE","019cf9a2-10d6-7c39-b36c-dc9726152684","019cf974-7aee-7bc9-8ea4-9f55741b365d","","null","
                <div class=""stimulus-container"">
                    <img src=""images/causal_sequence/saving_a_cat_causal/saving_a_cat_causal_7.png"" class=""exp-image"">
                    <div class=""question-area""></div> 
                </div>","null","","","","","","","","","",""
"","","","","","html-button-response","43","187517","0.0-43.0","2A980FF0176A483DBC6DA8A7DB71C5DE","019cf9a2-10d6-7c39-b36c-dc9726152684","019cf974-7aee-7bc9-8ea4-9f55741b365d","","744","
                <div class=""stimulus-container"">
                    <img src=""images/causal_sequence/saving_a_cat_causal/saving_a_cat_causal_7.png"" class=""exp-image"">
                    <div class=""question-area"">
                        <p style=""font-size: 20px; font-weight: bold; margin: 0;"">Is there a person in this image?</p>
                    </div>
                </div>","0","main_experiment_trial","7","saving_a_cat_causal","causal_sequence","randomized","","","","",""
"","","","","","html-keyboard-response","44","188520","0.0-44.0","2A980FF0176A483DBC6DA8A7DB71C5DE","019cf9a2-10d6-7c39-b36c-dc9726152684","019cf974-7aee-7bc9-8ea4-9f55741b365d","","null","
                <div class=""stimulus-container"">
                    <img src=""images/causal_sequence/saving_a_cat_causal/saving_a_cat_causal_1.png"" class=""exp-image"">
                    <div class=""question-area""></div> 
                </div>","null","","","","","","","","","",""
"","","","","","html-button-response","45","189228","0.0-45.0","2A980FF0176A483DBC6DA8A7DB71C5DE","019cf9a2-10d6-7c39-b36c-dc9726152684","019cf974-7aee-7bc9-8ea4-9f55741b365d","","707","
                <div class=""stimulus-container"">
                    <img src=""images/causal_sequence/saving_a_cat_causal/saving_a_cat_causal_1.png"" class=""exp-image"">
                    <div class=""question-area"">
                        <p style=""font-size: 20px; font-weight: bold; margin: 0;"">Is there a person in this image?</p>
                    </div>
                </div>","0","main_experiment_trial","1","saving_a_cat_causal","causal_sequence","randomized","","","","",""
"","","","","","html-keyboard-response","46","190231","0.0-46.0","2A980FF0176A483DBC6DA8A7DB71C5DE","019cf9a2-10d6-7c39-b36c-dc9726152684","019cf974-7aee-7bc9-8ea4-9f55741b365d","","null","
                <div class=""stimulus-container"">
                    <img src=""images/causal_sequence/saving_a_cat_causal/saving_a_cat_causal_2.png"" class=""exp-image"">
                    <div class=""question-area""></div> 
                </div>","null","","","","","","","","","",""
"","","","","","html-button-response","47","190948","0.0-47.0","2A980FF0176A483DBC6DA8A7DB71C5DE","019cf9a2-10d6-7c39-b36c-dc9726152684","019cf974-7aee-7bc9-8ea4-9f55741b365d","","716","
                <div class=""stimulus-container"">
                    <img src=""images/causal_sequence/saving_a_cat_causal/saving_a_cat_causal_2.png"" class=""exp-image"">
                    <div class=""question-area"">
                        <p style=""font-size: 20px; font-weight: bold; margin: 0;"">Is there a person in this image?</p>
                    </div>
                </div>","1","main_experiment_trial","2","saving_a_cat_causal","causal_sequence","randomized","","","","",""
"","","","","","html-keyboard-response","48","191950","0.0-48.0","2A980FF0176A483DBC6DA8A7DB71C5DE","019cf9a2-10d6-7c39-b36c-dc9726152684","019cf974-7aee-7bc9-8ea4-9f55741b365d","","null","
                <div class=""stimulus-container"">
                    <img src=""images/causal_sequence/saving_a_cat_causal/saving_a_cat_causal_9.png"" class=""exp-image"">
                    <div class=""question-area""></div> 
                </div>","null","","","","","","","","","",""
"","","","","","html-button-response","49","192732","0.0-49.0","2A980FF0176A483DBC6DA8A7DB71C5DE","019cf9a2-10d6-7c39-b36c-dc9726152684","019cf974-7aee-7bc9-8ea4-9f55741b365d","","781","
                <div class=""stimulus-container"">
                    <img src=""images/causal_sequence/saving_a_cat_causal/saving_a_cat_causal_9.png"" class=""exp-image"">
                    <div class=""question-area"">
                        <p style=""font-size: 20px; font-weight: bold; margin: 0;"">Is there a person in this image?</p>
                    </div>
                </div>","0","main_experiment_trial","9","saving_a_cat_causal","causal_sequence","randomized","","","","",""
"","","","","","html-keyboard-response","50","193736","0.0-50.0","2A980FF0176A483DBC6DA8A7DB71C5DE","019cf9a2-10d6-7c39-b36c-dc9726152684","019cf974-7aee-7bc9-8ea4-9f55741b365d","","null","
                <div class=""stimulus-container"">
                    <img src=""images/causal_sequence/saving_a_cat_causal/saving_a_cat_causal_ten.png"" class=""exp-image"">
                    <div class=""question-area""></div> 
                </div>","null","","","","","","","","","",""
"","","","","","html-button-response","51","194478","0.0-51.0","2A980FF0176A483DBC6DA8A7DB71C5DE","019cf9a2-10d6-7c39-b36c-dc9726152684","019cf974-7aee-7bc9-8ea4-9f55741b365d","","741","
                <div class=""stimulus-container"">
                    <img src=""images/causal_sequence/saving_a_cat_causal/saving_a_cat_causal_ten.png"" class=""exp-image"">
                    <div class=""question-area"">
                        <p style=""font-size: 20px; font-weight: bold; margin: 0;"">Is there a person in this image?</p>
                    </div>
                </div>","0","main_experiment_trial","ten","saving_a_cat_causal","causal_sequence","randomized","","","","",""
"","","","","","html-keyboard-response","52","195480","0.0-52.0","2A980FF0176A483DBC6DA8A7DB71C5DE","019cf9a2-10d6-7c39-b36c-dc9726152684","019cf974-7aee-7bc9-8ea4-9f55741b365d","","null","
                <div class=""stimulus-container"">
                    <img src=""images/causal_sequence/saving_a_cat_causal/saving_a_cat_causal_6.png"" class=""exp-image"">
                    <div class=""question-area""></div> 
                </div>","null","","","","","","","","","",""
"","","","","","html-button-response","53","196109","0.0-53.0","2A980FF0176A483DBC6DA8A7DB71C5DE","019cf9a2-10d6-7c39-b36c-dc9726152684","019cf974-7aee-7bc9-8ea4-9f55741b365d","","628","
                <div class=""stimulus-container"">
                    <img src=""images/causal_sequence/saving_a_cat_causal/saving_a_cat_causal_6.png"" class=""exp-image"">
                    <div class=""question-area"">
                        <p style=""font-size: 20px; font-weight: bold; margin: 0;"">Is there a person in this image?</p>
                    </div>
                </div>","0","main_experiment_trial","6","saving_a_cat_causal","causal_sequence","randomized","","","","",""
"","","","","","html-keyboard-response","54","197112","0.0-54.0","2A980FF0176A483DBC6DA8A7DB71C5DE","019cf9a2-10d6-7c39-b36c-dc9726152684","019cf974-7aee-7bc9-8ea4-9f55741b365d","","null","
                <div class=""stimulus-container"">
                    <img src=""images/causal_sequence/saving_a_cat_causal/saving_a_cat_causal_3.png"" class=""exp-image"">
                    <div class=""question-area""></div> 
                </div>","null","","","","","","","","","",""
"","","","","","html-button-response","55","197895","0.0-55.0","2A980FF0176A483DBC6DA8A7DB71C5DE","019cf9a2-10d6-7c39-b36c-dc9726152684","019cf974-7aee-7bc9-8ea4-9f55741b365d","","782","
                <div class=""stimulus-container"">
                    <img src=""images/causal_sequence/saving_a_cat_causal/saving_a_cat_causal_3.png"" class=""exp-image"">
                    <div class=""question-area"">
                        <p style=""font-size: 20px; font-weight: bold; margin: 0;"">Is there a person in this image?</p>
                    </div>
                </div>","1","main_experiment_trial","3","saving_a_cat_causal","causal_sequence","randomized","","","","",""
"","","","","","html-keyboard-response","56","198903","0.0-56.0","2A980FF0176A483DBC6DA8A7DB71C5DE","019cf9a2-10d6-7c39-b36c-dc9726152684","019cf974-7aee-7bc9-8ea4-9f55741b365d","","null","
                <div class=""stimulus-container"">
                    <img src=""images/causal_sequence/saving_a_cat_causal/saving_a_cat_causal_8.png"" class=""exp-image"">
                    <div class=""question-area""></div> 
                </div>","null","","","","","","","","","",""
"","","","","","html-button-response","57","199667","0.0-57.0","2A980FF0176A483DBC6DA8A7DB71C5DE","019cf9a2-10d6-7c39-b36c-dc9726152684","019cf974-7aee-7bc9-8ea4-9f55741b365d","","763","
                <div class=""stimulus-container"">
                    <img src=""images/causal_sequence/saving_a_cat_causal/saving_a_cat_causal_8.png"" class=""exp-image"">
                    <div class=""question-area"">
                        <p style=""font-size: 20px; font-weight: bold; margin: 0;"">Is there a person in this image?</p>
                    </div>
                </div>","0","main_experiment_trial","8","saving_a_cat_causal","causal_sequence","randomized","","","","",""
"","","","","","html-keyboard-response","58","204680","0.0-58.0","2A980FF0176A483DBC6DA8A7DB71C5DE","019cf9a2-10d6-7c39-b36c-dc9726152684","019cf974-7aee-7bc9-8ea4-9f55741b365d","","null","<div style=""background-color: white; width: 100vw; height: 100vh;""></div>","null","","","","","","","","","",""
"","","","","","html-keyboard-response","59","205687","0.0-59.0","2A980FF0176A483DBC6DA8A7DB71C5DE","019cf9a2-10d6-7c39-b36c-dc9726152684","019cf974-7aee-7bc9-8ea4-9f55741b365d","","null","
                <div class=""stimulus-container"">
                    <img src=""images/semantic_sequence/redecorating_a_house_semantic/redecorating_a_house_semantic_3.png"" class=""exp-image"">
                    <div class=""question-area""></div> 
                </div>","null","","","","","","","","","",""
"","","","","","html-button-response","60","206656","0.0-60.0","2A980FF0176A483DBC6DA8A7DB71C5DE","019cf9a2-10d6-7c39-b36c-dc9726152684","019cf974-7aee-7bc9-8ea4-9f55741b365d","","968","
                <div class=""stimulus-container"">
                    <img src=""images/semantic_sequence/redecorating_a_house_semantic/redecorating_a_house_semantic_3.png"" class=""exp-image"">
                    <div class=""question-area"">
                        <p style=""font-size: 20px; font-weight: bold; margin: 0;"">Is there a person in this image?</p>
                    </div>
                </div>","0","main_experiment_trial","3","redecorating_a_house_semantic","semantic_sequence","randomized","","","","",""
"","","","","","html-keyboard-response","61","207668","0.0-61.0","2A980FF0176A483DBC6DA8A7DB71C5DE","019cf9a2-10d6-7c39-b36c-dc9726152684","019cf974-7aee-7bc9-8ea4-9f55741b365d","","null","
                <div class=""stimulus-container"">
                    <img src=""images/semantic_sequence/redecorating_a_house_semantic/redecorating_a_house_semantic_7.png"" class=""exp-image"">
                    <div class=""question-area""></div> 
                </div>","null","","","","","","","","","",""
"","","","","","html-button-response","62","208329","0.0-62.0","2A980FF0176A483DBC6DA8A7DB71C5DE","019cf9a2-10d6-7c39-b36c-dc9726152684","019cf974-7aee-7bc9-8ea4-9f55741b365d","","660","
                <div class=""stimulus-container"">
                    <img src=""images/semantic_sequence/redecorating_a_house_semantic/redecorating_a_house_semantic_7.png"" class=""exp-image"">
                    <div class=""question-area"">
                        <p style=""font-size: 20px; font-weight: bold; margin: 0;"">Is there a person in this image?</p>
                    </div>
                </div>","0","main_experiment_trial","7","redecorating_a_house_semantic","semantic_sequence","randomized","","","","",""
"","","","","","html-keyboard-response","63","209333","0.0-63.0","2A980FF0176A483DBC6DA8A7DB71C5DE","019cf9a2-10d6-7c39-b36c-dc9726152684","019cf974-7aee-7bc9-8ea4-9f55741b365d","","null","
                <div class=""stimulus-container"">
                    <img src=""images/semantic_sequence/redecorating_a_house_semantic/redecorating_a_house_semantic_6.png"" class=""exp-image"">
                    <div class=""question-area""></div> 
                </div>","null","","","","","","","","","",""
"","","","","","html-button-response","64","210211","0.0-64.0","2A980FF0176A483DBC6DA8A7DB71C5DE","019cf9a2-10d6-7c39-b36c-dc9726152684","019cf974-7aee-7bc9-8ea4-9f55741b365d","","877","
                <div class=""stimulus-container"">
                    <img src=""images/semantic_sequence/redecorating_a_house_semantic/redecorating_a_house_semantic_6.png"" class=""exp-image"">
                    <div class=""question-area"">
                        <p style=""font-size: 20px; font-weight: bold; margin: 0;"">Is there a person in this image?</p>
                    </div>
                </div>","0","main_experiment_trial","6","redecorating_a_house_semantic","semantic_sequence","randomized","","","","",""
"","","","","","html-keyboard-response","65","211214","0.0-65.0","2A980FF0176A483DBC6DA8A7DB71C5DE","019cf9a2-10d6-7c39-b36c-dc9726152684","019cf974-7aee-7bc9-8ea4-9f55741b365d","","null","
                <div class=""stimulus-container"">
                    <img src=""images/semantic_sequence/redecorating_a_house_semantic/redecorating_a_house_semantic_5.png"" class=""exp-image"">
                    <div class=""question-area""></div> 
                </div>","null","","","","","","","","","",""
"","","","","","html-button-response","66","211862","0.0-66.0","2A980FF0176A483DBC6DA8A7DB71C5DE","019cf9a2-10d6-7c39-b36c-dc9726152684","019cf974-7aee-7bc9-8ea4-9f55741b365d","","647","
                <div class=""stimulus-container"">
                    <img src=""images/semantic_sequence/redecorating_a_house_semantic/redecorating_a_house_semantic_5.png"" class=""exp-image"">
                    <div class=""question-area"">
                        <p style=""font-size: 20px; font-weight: bold; margin: 0;"">Is there a person in this image?</p>
                    </div>
                </div>","0","main_experiment_trial","5","redecorating_a_house_semantic","semantic_sequence","randomized","","","","",""
"","","","","","html-keyboard-response","67","212878","0.0-67.0","2A980FF0176A483DBC6DA8A7DB71C5DE","019cf9a2-10d6-7c39-b36c-dc9726152684","019cf974-7aee-7bc9-8ea4-9f55741b365d","","null","
                <div class=""stimulus-container"">
                    <img src=""images/semantic_sequence/redecorating_a_house_semantic/redecorating_a_house_semantic_1.png"" class=""exp-image"">
                    <div class=""question-area""></div> 
                </div>","null","","","","","","","","","",""
"","","","","","html-button-response","68","213622","0.0-68.0","2A980FF0176A483DBC6DA8A7DB71C5DE","019cf9a2-10d6-7c39-b36c-dc9726152684","019cf974-7aee-7bc9-8ea4-9f55741b365d","","742","
                <div class=""stimulus-container"">
                    <img src=""images/semantic_sequence/redecorating_a_house_semantic/redecorating_a_house_semantic_1.png"" class=""exp-image"">
                    <div class=""question-area"">
                        <p style=""font-size: 20px; font-weight: bold; margin: 0;"">Is there a person in this image?</p>
                    </div>
                </div>","0","main_experiment_trial","1","redecorating_a_house_semantic","semantic_sequence","randomized","","","","",""
"","","","","","html-keyboard-response","69","214631","0.0-69.0","2A980FF0176A483DBC6DA8A7DB71C5DE","019cf9a2-10d6-7c39-b36c-dc9726152684","019cf974-7aee-7bc9-8ea4-9f55741b365d","","null","
                <div class=""stimulus-container"">
                    <img src=""images/semantic_sequence/redecorating_a_house_semantic/redecorating_a_house_semantic_8.png"" class=""exp-image"">
                    <div class=""question-area""></div> 
                </div>","null","","","","","","","","","",""
"","","","","","html-button-response","70","215655","0.0-70.0","2A980FF0176A483DBC6DA8A7DB71C5DE","019cf9a2-10d6-7c39-b36c-dc9726152684","019cf974-7aee-7bc9-8ea4-9f55741b365d","","1023","
                <div class=""stimulus-container"">
                    <img src=""images/semantic_sequence/redecorating_a_house_semantic/redecorating_a_house_semantic_8.png"" class=""exp-image"">
                    <div class=""question-area"">
                        <p style=""font-size: 20px; font-weight: bold; margin: 0;"">Is there a person in this image?</p>
                    </div>
                </div>","0","main_experiment_trial","8","redecorating_a_house_semantic","semantic_sequence","randomized","","","","",""
"","","","","","html-keyboard-response","71","216659","0.0-71.0","2A980FF0176A483DBC6DA8A7DB71C5DE","019cf9a2-10d6-7c39-b36c-dc9726152684","019cf974-7aee-7bc9-8ea4-9f55741b365d","","null","
                <div class=""stimulus-container"">
                    <img src=""images/semantic_sequence/redecorating_a_house_semantic/redecorating_a_house_semantic_2.png"" class=""exp-image"">
                    <div class=""question-area""></div> 
                </div>","null","","","","","","","","","",""
"","","","","","html-button-response","72","217569","0.0-72.0","2A980FF0176A483DBC6DA8A7DB71C5DE","019cf9a2-10d6-7c39-b36c-dc9726152684","019cf974-7aee-7bc9-8ea4-9f55741b365d","","909","
                <div class=""stimulus-container"">
                    <img src=""images/semantic_sequence/redecorating_a_house_semantic/redecorating_a_house_semantic_2.png"" class=""exp-image"">
                    <div class=""question-area"">
                        <p style=""font-size: 20px; font-weight: bold; margin: 0;"">Is there a person in this image?</p>
                    </div>
                </div>","0","main_experiment_trial","2","redecorating_a_house_semantic","semantic_sequence","randomized","","","","",""
"","","","","","html-keyboard-response","73","218571","0.0-73.0","2A980FF0176A483DBC6DA8A7DB71C5DE","019cf9a2-10d6-7c39-b36c-dc9726152684","019cf974-7aee-7bc9-8ea4-9f55741b365d","","null","
                <div class=""stimulus-container"">
                    <img src=""images/semantic_sequence/redecorating_a_house_semantic/redecorating_a_house_semantic_9.png"" class=""exp-image"">
                    <div class=""question-area""></div> 
                </div>","null","","","","","","","","","",""
"","","","","","html-button-response","74","219569","0.0-74.0","2A980FF0176A483DBC6DA8A7DB71C5DE","019cf9a2-10d6-7c39-b36c-dc9726152684","019cf974-7aee-7bc9-8ea4-9f55741b365d","","997","
                <div class=""stimulus-container"">
                    <img src=""images/semantic_sequence/redecorating_a_house_semantic/redecorating_a_house_semantic_9.png"" class=""exp-image"">
                    <div class=""question-area"">
                        <p style=""font-size: 20px; font-weight: bold; margin: 0;"">Is there a person in this image?</p>
                    </div>
                </div>","0","main_experiment_trial","9","redecorating_a_house_semantic","semantic_sequence","randomized","","","","",""
"","","","","","html-keyboard-response","75","220572","0.0-75.0","2A980FF0176A483DBC6DA8A7DB71C5DE","019cf9a2-10d6-7c39-b36c-dc9726152684","019cf974-7aee-7bc9-8ea4-9f55741b365d","","null","
                <div class=""stimulus-container"">
                    <img src=""images/semantic_sequence/redecorating_a_house_semantic/redecorating_a_house_semantic_ten.png"" class=""exp-image"">
                    <div class=""question-area""></div> 
                </div>","null","","","","","","","","","",""
"","","","","","html-button-response","76","221332","0.0-76.0","2A980FF0176A483DBC6DA8A7DB71C5DE","019cf9a2-10d6-7c39-b36c-dc9726152684","019cf974-7aee-7bc9-8ea4-9f55741b365d","","758","
                <div class=""stimulus-container"">
                    <img src=""images/semantic_sequence/redecorating_a_house_semantic/redecorating_a_house_semantic_ten.png"" class=""exp-image"">
                    <div class=""question-area"">
                        <p style=""font-size: 20px; font-weight: bold; margin: 0;"">Is there a person in this image?</p>
                    </div>
                </div>","0","main_experiment_trial","ten","redecorating_a_house_semantic","semantic_sequence","randomized","","","","",""
"","","","","","html-keyboard-response","77","222338","0.0-77.0","2A980FF0176A483DBC6DA8A7DB71C5DE","019cf9a2-10d6-7c39-b36c-dc9726152684","019cf974-7aee-7bc9-8ea4-9f55741b365d","","null","
                <div class=""stimulus-container"">
                    <img src=""images/semantic_sequence/redecorating_a_house_semantic/redecorating_a_house_semantic_4.png"" class=""exp-image"">
                    <div class=""question-area""></div> 
                </div>","null","","","","","","","","","",""
"","","","","","html-button-response","78","223033","0.0-78.0","2A980FF0176A483DBC6DA8A7DB71C5DE","019cf9a2-10d6-7c39-b36c-dc9726152684","019cf974-7aee-7bc9-8ea4-9f55741b365d","","694","
                <div class=""stimulus-container"">
                    <img src=""images/semantic_sequence/redecorating_a_house_semantic/redecorating_a_house_semantic_4.png"" class=""exp-image"">
                    <div class=""question-area"">
                        <p style=""font-size: 20px; font-weight: bold; margin: 0;"">Is there a person in this image?</p>
                    </div>
                </div>","0","main_experiment_trial","4","redecorating_a_house_semantic","semantic_sequence","randomized","","","","",""
"","","","","","html-keyboard-response","79","228048","0.0-79.0","2A980FF0176A483DBC6DA8A7DB71C5DE","019cf9a2-10d6-7c39-b36c-dc9726152684","019cf974-7aee-7bc9-8ea4-9f55741b365d","","null","<div style=""background-color: white; width: 100vw; height: 100vh;""></div>","null","","","","","","","","","",""
"","","","","","html-keyboard-response","80","229060","0.0-80.0","2A980FF0176A483DBC6DA8A7DB71C5DE","019cf9a2-10d6-7c39-b36c-dc9726152684","019cf974-7aee-7bc9-8ea4-9f55741b365d","","null","
                <div class=""stimulus-container"">
                    <img src=""images/semantic_sequence/market_semantic/market_semantic_4.png"" class=""exp-image"">
                    <div class=""question-area""></div> 
                </div>","null","","","","","","","","","",""
"","","","","","html-button-response","81","229793","0.0-81.0","2A980FF0176A483DBC6DA8A7DB71C5DE","019cf9a2-10d6-7c39-b36c-dc9726152684","019cf974-7aee-7bc9-8ea4-9f55741b365d","","732","
                <div class=""stimulus-container"">
                    <img src=""images/semantic_sequence/market_semantic/market_semantic_4.png"" class=""exp-image"">
                    <div class=""question-area"">
                        <p style=""font-size: 20px; font-weight: bold; margin: 0;"">Is there a person in this image?</p>
                    </div>
                </div>","0","main_experiment_trial","4","market_semantic","semantic_sequence","randomized","","","","",""
"","","","","","html-keyboard-response","82","230794","0.0-82.0","2A980FF0176A483DBC6DA8A7DB71C5DE","019cf9a2-10d6-7c39-b36c-dc9726152684","019cf974-7aee-7bc9-8ea4-9f55741b365d","","null","
                <div class=""stimulus-container"">
                    <img src=""images/semantic_sequence/market_semantic/market_semantic_9.png"" class=""exp-image"">
                    <div class=""question-area""></div> 
                </div>","null","","","","","","","","","",""
"","","","","","html-button-response","83","231474","0.0-83.0","2A980FF0176A483DBC6DA8A7DB71C5DE","019cf9a2-10d6-7c39-b36c-dc9726152684","019cf974-7aee-7bc9-8ea4-9f55741b365d","","679","
                <div class=""stimulus-container"">
                    <img src=""images/semantic_sequence/market_semantic/market_semantic_9.png"" class=""exp-image"">
                    <div class=""question-area"">
                        <p style=""font-size: 20px; font-weight: bold; margin: 0;"">Is there a person in this image?</p>
                    </div>
                </div>","0","main_experiment_trial","9","market_semantic","semantic_sequence","randomized","","","","",""
"","","","","","html-keyboard-response","84","232483","0.0-84.0","2A980FF0176A483DBC6DA8A7DB71C5DE","019cf9a2-10d6-7c39-b36c-dc9726152684","019cf974-7aee-7bc9-8ea4-9f55741b365d","","null","
                <div class=""stimulus-container"">
                    <img src=""images/semantic_sequence/market_semantic/market_semantic_1.png"" class=""exp-image"">
                    <div class=""question-area""></div> 
                </div>","null","","","","","","","","","",""
"","","","","","html-button-response","85","233386","0.0-85.0","2A980FF0176A483DBC6DA8A7DB71C5DE","019cf9a2-10d6-7c39-b36c-dc9726152684","019cf974-7aee-7bc9-8ea4-9f55741b365d","","902","
                <div class=""stimulus-container"">
                    <img src=""images/semantic_sequence/market_semantic/market_semantic_1.png"" class=""exp-image"">
                    <div class=""question-area"">
                        <p style=""font-size: 20px; font-weight: bold; margin: 0;"">Is there a person in this image?</p>
                    </div>
                </div>","0","main_experiment_trial","1","market_semantic","semantic_sequence","randomized","","","","",""
"","","","","","html-keyboard-response","86","234403","0.0-86.0","2A980FF0176A483DBC6DA8A7DB71C5DE","019cf9a2-10d6-7c39-b36c-dc9726152684","019cf974-7aee-7bc9-8ea4-9f55741b365d","","null","
                <div class=""stimulus-container"">
                    <img src=""images/semantic_sequence/market_semantic/market_semantic_6.png"" class=""exp-image"">
                    <div class=""question-area""></div> 
                </div>","null","","","","","","","","","",""
"","","","","","html-button-response","87","235419","0.0-87.0","2A980FF0176A483DBC6DA8A7DB71C5DE","019cf9a2-10d6-7c39-b36c-dc9726152684","019cf974-7aee-7bc9-8ea4-9f55741b365d","","1015","
                <div class=""stimulus-container"">
                    <img src=""images/semantic_sequence/market_semantic/market_semantic_6.png"" class=""exp-image"">
                    <div class=""question-area"">
                        <p style=""font-size: 20px; font-weight: bold; margin: 0;"">Is there a person in this image?</p>
                    </div>
                </div>","0","main_experiment_trial","6","market_semantic","semantic_sequence","randomized","","","","",""
"","","","","","html-keyboard-response","88","236423","0.0-88.0","2A980FF0176A483DBC6DA8A7DB71C5DE","019cf9a2-10d6-7c39-b36c-dc9726152684","019cf974-7aee-7bc9-8ea4-9f55741b365d","","null","
                <div class=""stimulus-container"">
                    <img src=""images/semantic_sequence/market_semantic/market_semantic_8.png"" class=""exp-image"">
                    <div class=""question-area""></div> 
                </div>","null","","","","","","","","","",""
"","","","","","html-button-response","89","238364","0.0-89.0","2A980FF0176A483DBC6DA8A7DB71C5DE","019cf9a2-10d6-7c39-b36c-dc9726152684","019cf974-7aee-7bc9-8ea4-9f55741b365d","","1940","
                <div class=""stimulus-container"">
                    <img src=""images/semantic_sequence/market_semantic/market_semantic_8.png"" class=""exp-image"">
                    <div class=""question-area"">
                        <p style=""font-size: 20px; font-weight: bold; margin: 0;"">Is there a person in this image?</p>
                    </div>
                </div>","1","main_experiment_trial","8","market_semantic","semantic_sequence","randomized","","","","",""
"","","","","","html-keyboard-response","90","239366","0.0-90.0","2A980FF0176A483DBC6DA8A7DB71C5DE","019cf9a2-10d6-7c39-b36c-dc9726152684","019cf974-7aee-7bc9-8ea4-9f55741b365d","","null","
                <div class=""stimulus-container"">
                    <img src=""images/semantic_sequence/market_semantic/market_semantic_5.png"" class=""exp-image"">
                    <div class=""question-area""></div> 
                </div>","null","","","","","","","","","",""
"","","","","","html-button-response","91","240281","0.0-91.0","2A980FF0176A483DBC6DA8A7DB71C5DE","019cf9a2-10d6-7c39-b36c-dc9726152684","019cf974-7aee-7bc9-8ea4-9f55741b365d","","914","
                <div class=""stimulus-container"">
                    <img src=""images/semantic_sequence/market_semantic/market_semantic_5.png"" class=""exp-image"">
                    <div class=""question-area"">
                        <p style=""font-size: 20px; font-weight: bold; margin: 0;"">Is there a person in this image?</p>
                    </div>
                </div>","1","main_experiment_trial","5","market_semantic","semantic_sequence","randomized","","","","",""
"","","","","","html-keyboard-response","92","241285","0.0-92.0","2A980FF0176A483DBC6DA8A7DB71C5DE","019cf9a2-10d6-7c39-b36c-dc9726152684","019cf974-7aee-7bc9-8ea4-9f55741b365d","","null","
                <div class=""stimulus-container"">
                    <img src=""images/semantic_sequence/market_semantic/market_semantic_3.png"" class=""exp-image"">
                    <div class=""question-area""></div> 
                </div>","null","","","","","","","","","",""
"","","","","","html-button-response","93","241883","0.0-93.0","2A980FF0176A483DBC6DA8A7DB71C5DE","019cf9a2-10d6-7c39-b36c-dc9726152684","019cf974-7aee-7bc9-8ea4-9f55741b365d","","597","
                <div class=""stimulus-container"">
                    <img src=""images/semantic_sequence/market_semantic/market_semantic_3.png"" class=""exp-image"">
                    <div class=""question-area"">
                        <p style=""font-size: 20px; font-weight: bold; margin: 0;"">Is there a person in this image?</p>
                    </div>
                </div>","1","main_experiment_trial","3","market_semantic","semantic_sequence","randomized","","","","",""
"","","","","","html-keyboard-response","94","242892","0.0-94.0","2A980FF0176A483DBC6DA8A7DB71C5DE","019cf9a2-10d6-7c39-b36c-dc9726152684","019cf974-7aee-7bc9-8ea4-9f55741b365d","","null","
                <div class=""stimulus-container"">
                    <img src=""images/semantic_sequence/market_semantic/market_semantic_2.png"" class=""exp-image"">
                    <div class=""question-area""></div> 
                </div>","null","","","","","","","","","",""
"","","","","","html-button-response","95","243629","0.0-95.0","2A980FF0176A483DBC6DA8A7DB71C5DE","019cf9a2-10d6-7c39-b36c-dc9726152684","019cf974-7aee-7bc9-8ea4-9f55741b365d","","735","
                <div class=""stimulus-container"">
                    <img src=""images/semantic_sequence/market_semantic/market_semantic_2.png"" class=""exp-image"">
                    <div class=""question-area"">
                        <p style=""font-size: 20px; font-weight: bold; margin: 0;"">Is there a person in this image?</p>
                    </div>
                </div>","1","main_experiment_trial","2","market_semantic","semantic_sequence","randomized","","","","",""
"","","","","","html-keyboard-response","96","244631","0.0-96.0","2A980FF0176A483DBC6DA8A7DB71C5DE","019cf9a2-10d6-7c39-b36c-dc9726152684","019cf974-7aee-7bc9-8ea4-9f55741b365d","","null","
                <div class=""stimulus-container"">
                    <img src=""images/semantic_sequence/market_semantic/market_semantic_7.png"" class=""exp-image"">
                    <div class=""question-area""></div> 
                </div>","null","","","","","","","","","",""
"","","","","","html-button-response","97","245745","0.0-97.0","2A980FF0176A483DBC6DA8A7DB71C5DE","019cf9a2-10d6-7c39-b36c-dc9726152684","019cf974-7aee-7bc9-8ea4-9f55741b365d","","1112","
                <div class=""stimulus-container"">
                    <img src=""images/semantic_sequence/market_semantic/market_semantic_7.png"" class=""exp-image"">
                    <div class=""question-area"">
                        <p style=""font-size: 20px; font-weight: bold; margin: 0;"">Is there a person in this image?</p>
                    </div>
                </div>","0","main_experiment_trial","7","market_semantic","semantic_sequence","randomized","","","","",""
"","","","","","html-keyboard-response","98","246746","0.0-98.0","2A980FF0176A483DBC6DA8A7DB71C5DE","019cf9a2-10d6-7c39-b36c-dc9726152684","019cf974-7aee-7bc9-8ea4-9f55741b365d","","null","
                <div class=""stimulus-container"">
                    <img src=""images/semantic_sequence/market_semantic/market_semantic_ten.png"" class=""exp-image"">
                    <div class=""question-area""></div> 
                </div>","null","","","","","","","","","",""
"","","","","","html-button-response","99","248086","0.0-99.0","2A980FF0176A483DBC6DA8A7DB71C5DE","019cf9a2-10d6-7c39-b36c-dc9726152684","019cf974-7aee-7bc9-8ea4-9f55741b365d","","1339","
                <div class=""stimulus-container"">
                    <img src=""images/semantic_sequence/market_semantic/market_semantic_ten.png"" class=""exp-image"">
                    <div class=""question-area"">
                        <p style=""font-size: 20px; font-weight: bold; margin: 0;"">Is there a person in this image?</p>
                    </div>
                </div>","1","main_experiment_trial","ten","market_semantic","semantic_sequence","randomized","","","","",""
"","","","","","html-keyboard-response","100","253095","0.0-100.0","2A980FF0176A483DBC6DA8A7DB71C5DE","019cf9a2-10d6-7c39-b36c-dc9726152684","019cf974-7aee-7bc9-8ea4-9f55741b365d","","null","<div style=""background-color: white; width: 100vw; height: 100vh;""></div>","null","","","","","","","","","",""
"","","","","","html-keyboard-response","101","254109","0.0-101.0","2A980FF0176A483DBC6DA8A7DB71C5DE","019cf9a2-10d6-7c39-b36c-dc9726152684","019cf974-7aee-7bc9-8ea4-9f55741b365d","","null","
                <div class=""stimulus-container"">
                    <img src=""images/causal_sequence/museum_causal/museum_causal_8.png"" class=""exp-image"">
                    <div class=""question-area""></div> 
                </div>","null","","","","","","","","","",""
"","","","","","html-button-response","102","255501","0.0-102.0","2A980FF0176A483DBC6DA8A7DB71C5DE","019cf9a2-10d6-7c39-b36c-dc9726152684","019cf974-7aee-7bc9-8ea4-9f55741b365d","","1390","
                <div class=""stimulus-container"">
                    <img src=""images/causal_sequence/museum_causal/museum_causal_8.png"" class=""exp-image"">
                    <div class=""question-area"">
                        <p style=""font-size: 20px; font-weight: bold; margin: 0;"">Is there a person in this image?</p>
                    </div>
                </div>","0","main_experiment_trial","8","museum_causal","causal_sequence","randomized","","","","",""
"","","","","","html-keyboard-response","103","256514","0.0-103.0","2A980FF0176A483DBC6DA8A7DB71C5DE","019cf9a2-10d6-7c39-b36c-dc9726152684","019cf974-7aee-7bc9-8ea4-9f55741b365d","","null","
                <div class=""stimulus-container"">
                    <img src=""images/causal_sequence/museum_causal/museum_causal_5.png"" class=""exp-image"">
                    <div class=""question-area""></div> 
                </div>","null","","","","","","","","","",""
"","","","","","html-button-response","104","257483","0.0-104.0","2A980FF0176A483DBC6DA8A7DB71C5DE","019cf9a2-10d6-7c39-b36c-dc9726152684","019cf974-7aee-7bc9-8ea4-9f55741b365d","","967","
                <div class=""stimulus-container"">
                    <img src=""images/causal_sequence/museum_causal/museum_causal_5.png"" class=""exp-image"">
                    <div class=""question-area"">
                        <p style=""font-size: 20px; font-weight: bold; margin: 0;"">Is there a person in this image?</p>
                    </div>
                </div>","0","main_experiment_trial","5","museum_causal","causal_sequence","randomized","","","","",""
"","","","","","html-keyboard-response","105","258488","0.0-105.0","2A980FF0176A483DBC6DA8A7DB71C5DE","019cf9a2-10d6-7c39-b36c-dc9726152684","019cf974-7aee-7bc9-8ea4-9f55741b365d","","null","
                <div class=""stimulus-container"">
                    <img src=""images/causal_sequence/museum_causal/museum_causal_2.png"" class=""exp-image"">
                    <div class=""question-area""></div> 
                </div>","null","","","","","","","","","",""
"","","","","","html-button-response","106","260942","0.0-106.0","2A980FF0176A483DBC6DA8A7DB71C5DE","019cf9a2-10d6-7c39-b36c-dc9726152684","019cf974-7aee-7bc9-8ea4-9f55741b365d","","2453","
                <div class=""stimulus-container"">
                    <img src=""images/causal_sequence/museum_causal/museum_causal_2.png"" class=""exp-image"">
                    <div class=""question-area"">
                        <p style=""font-size: 20px; font-weight: bold; margin: 0;"">Is there a person in this image?</p>
                    </div>
                </div>","0","main_experiment_trial","2","museum_causal","causal_sequence","randomized","","","","",""
"","","","","","html-keyboard-response","107","261947","0.0-107.0","2A980FF0176A483DBC6DA8A7DB71C5DE","019cf9a2-10d6-7c39-b36c-dc9726152684","019cf974-7aee-7bc9-8ea4-9f55741b365d","","null","
                <div class=""stimulus-container"">
                    <img src=""images/causal_sequence/museum_causal/museum_causal_4.png"" class=""exp-image"">
                    <div class=""question-area""></div> 
                </div>","null","","","","","","","","","",""
"","","","","","html-button-response","108","262971","0.0-108.0","2A980FF0176A483DBC6DA8A7DB71C5DE","019cf9a2-10d6-7c39-b36c-dc9726152684","019cf974-7aee-7bc9-8ea4-9f55741b365d","","1022","
                <div class=""stimulus-container"">
                    <img src=""images/causal_sequence/museum_causal/museum_causal_4.png"" class=""exp-image"">
                    <div class=""question-area"">
                        <p style=""font-size: 20px; font-weight: bold; margin: 0;"">Is there a person in this image?</p>
                    </div>
                </div>","1","main_experiment_trial","4","museum_causal","causal_sequence","randomized","","","","",""
"","","","","","html-keyboard-response","109","263974","0.0-109.0","2A980FF0176A483DBC6DA8A7DB71C5DE","019cf9a2-10d6-7c39-b36c-dc9726152684","019cf974-7aee-7bc9-8ea4-9f55741b365d","","null","
                <div class=""stimulus-container"">
                    <img src=""images/causal_sequence/museum_causal/museum_causal_9.png"" class=""exp-image"">
                    <div class=""question-area""></div> 
                </div>","null","","","","","","","","","",""
"","","","","","html-button-response","110","264873","0.0-110.0","2A980FF0176A483DBC6DA8A7DB71C5DE","019cf9a2-10d6-7c39-b36c-dc9726152684","019cf974-7aee-7bc9-8ea4-9f55741b365d","","898","
                <div class=""stimulus-container"">
                    <img src=""images/causal_sequence/museum_causal/museum_causal_9.png"" class=""exp-image"">
                    <div class=""question-area"">
                        <p style=""font-size: 20px; font-weight: bold; margin: 0;"">Is there a person in this image?</p>
                    </div>
                </div>","1","main_experiment_trial","9","museum_causal","causal_sequence","randomized","","","","",""
"","","","","","html-keyboard-response","111","265884","0.0-111.0","2A980FF0176A483DBC6DA8A7DB71C5DE","019cf9a2-10d6-7c39-b36c-dc9726152684","019cf974-7aee-7bc9-8ea4-9f55741b365d","","null","
                <div class=""stimulus-container"">
                    <img src=""images/causal_sequence/museum_causal/museum_causal_7.png"" class=""exp-image"">
                    <div class=""question-area""></div> 
                </div>","null","","","","","","","","","",""
"","","","","","html-button-response","112","266656","0.0-112.0","2A980FF0176A483DBC6DA8A7DB71C5DE","019cf9a2-10d6-7c39-b36c-dc9726152684","019cf974-7aee-7bc9-8ea4-9f55741b365d","","771","
                <div class=""stimulus-container"">
                    <img src=""images/causal_sequence/museum_causal/museum_causal_7.png"" class=""exp-image"">
                    <div class=""question-area"">
                        <p style=""font-size: 20px; font-weight: bold; margin: 0;"">Is there a person in this image?</p>
                    </div>
                </div>","1","main_experiment_trial","7","museum_causal","causal_sequence","randomized","","","","",""
"","","","","","html-keyboard-response","113","267666","0.0-113.0","2A980FF0176A483DBC6DA8A7DB71C5DE","019cf9a2-10d6-7c39-b36c-dc9726152684","019cf974-7aee-7bc9-8ea4-9f55741b365d","","null","
                <div class=""stimulus-container"">
                    <img src=""images/causal_sequence/museum_causal/museum_causal_ten.png"" class=""exp-image"">
                    <div class=""question-area""></div> 
                </div>","null","","","","","","","","","",""
"","","","","","html-button-response","114","268934","0.0-114.0","2A980FF0176A483DBC6DA8A7DB71C5DE","019cf9a2-10d6-7c39-b36c-dc9726152684","019cf974-7aee-7bc9-8ea4-9f55741b365d","","1266","
                <div class=""stimulus-container"">
                    <img src=""images/causal_sequence/museum_causal/museum_causal_ten.png"" class=""exp-image"">
                    <div class=""question-area"">
                        <p style=""font-size: 20px; font-weight: bold; margin: 0;"">Is there a person in this image?</p>
                    </div>
                </div>","0","main_experiment_trial","ten","museum_causal","causal_sequence","randomized","","","","",""
"","","","","","html-keyboard-response","115","269940","0.0-115.0","2A980FF0176A483DBC6DA8A7DB71C5DE","019cf9a2-10d6-7c39-b36c-dc9726152684","019cf974-7aee-7bc9-8ea4-9f55741b365d","","null","
                <div class=""stimulus-container"">
                    <img src=""images/causal_sequence/museum_causal/museum_causal_1.png"" class=""exp-image"">
                    <div class=""question-area""></div> 
                </div>","null","","","","","","","","","",""
"","","","","","html-button-response","116","270786","0.0-116.0","2A980FF0176A483DBC6DA8A7DB71C5DE","019cf9a2-10d6-7c39-b36c-dc9726152684","019cf974-7aee-7bc9-8ea4-9f55741b365d","","845","
                <div class=""stimulus-container"">
                    <img src=""images/causal_sequence/museum_causal/museum_causal_1.png"" class=""exp-image"">
                    <div class=""question-area"">
                        <p style=""font-size: 20px; font-weight: bold; margin: 0;"">Is there a person in this image?</p>
                    </div>
                </div>","0","main_experiment_trial","1","museum_causal","causal_sequence","randomized","","","","",""
"","","","","","html-keyboard-response","117","271792","0.0-117.0","2A980FF0176A483DBC6DA8A7DB71C5DE","019cf9a2-10d6-7c39-b36c-dc9726152684","019cf974-7aee-7bc9-8ea4-9f55741b365d","","null","
                <div class=""stimulus-container"">
                    <img src=""images/causal_sequence/museum_causal/museum_causal_6.png"" class=""exp-image"">
                    <div class=""question-area""></div> 
                </div>","null","","","","","","","","","",""
"","","","","","html-button-response","118","272616","0.0-118.0","2A980FF0176A483DBC6DA8A7DB71C5DE","019cf9a2-10d6-7c39-b36c-dc9726152684","019cf974-7aee-7bc9-8ea4-9f55741b365d","","823","
                <div class=""stimulus-container"">
                    <img src=""images/causal_sequence/museum_causal/museum_causal_6.png"" class=""exp-image"">
                    <div class=""question-area"">
                        <p style=""font-size: 20px; font-weight: bold; margin: 0;"">Is there a person in this image?</p>
                    </div>
                </div>","0","main_experiment_trial","6","museum_causal","causal_sequence","randomized","","","","",""
"","","","","","html-keyboard-response","119","273629","0.0-119.0","2A980FF0176A483DBC6DA8A7DB71C5DE","019cf9a2-10d6-7c39-b36c-dc9726152684","019cf974-7aee-7bc9-8ea4-9f55741b365d","","null","
                <div class=""stimulus-container"">
                    <img src=""images/causal_sequence/museum_causal/museum_causal_3.png"" class=""exp-image"">
                    <div class=""question-area""></div> 
                </div>","null","","","","","","","","","",""
"","","","","","html-button-response","120","275164","0.0-120.0","2A980FF0176A483DBC6DA8A7DB71C5DE","019cf9a2-10d6-7c39-b36c-dc9726152684","019cf974-7aee-7bc9-8ea4-9f55741b365d","","1534","
                <div class=""stimulus-container"">
                    <img src=""images/causal_sequence/museum_causal/museum_causal_3.png"" class=""exp-image"">
                    <div class=""question-area"">
                        <p style=""font-size: 20px; font-weight: bold; margin: 0;"">Is there a person in this image?</p>
                    </div>
                </div>","0","main_experiment_trial","3","museum_causal","causal_sequence","randomized","","","","",""
"","","","","","html-keyboard-response","121","280177","0.0-121.0","2A980FF0176A483DBC6DA8A7DB71C5DE","019cf9a2-10d6-7c39-b36c-dc9726152684","019cf974-7aee-7bc9-8ea4-9f55741b365d","","null","<div style=""background-color: white; width: 100vw; height: 100vh;""></div>","null","","","","","","","","","",""
"","","","","","html-keyboard-response","122","281181","0.0-122.0","2A980FF0176A483DBC6DA8A7DB71C5DE","019cf9a2-10d6-7c39-b36c-dc9726152684","019cf974-7aee-7bc9-8ea4-9f55741b365d","","null","
                <div class=""stimulus-container"">
                    <img src=""images/causal_sequence/package_causal/package_causal_7.png"" class=""exp-image"">
                    <div class=""question-area""></div> 
                </div>","null","","","","","","","","","",""
"","","","","","html-button-response","123","282575","0.0-123.0","2A980FF0176A483DBC6DA8A7DB71C5DE","019cf9a2-10d6-7c39-b36c-dc9726152684","019cf974-7aee-7bc9-8ea4-9f55741b365d","","1392","
                <div class=""stimulus-container"">
                    <img src=""images/causal_sequence/package_causal/package_causal_7.png"" class=""exp-image"">
                    <div class=""question-area"">
                        <p style=""font-size: 20px; font-weight: bold; margin: 0;"">Is there a person in this image?</p>
                    </div>
                </div>","0","main_experiment_trial","7","package_causal","causal_sequence","randomized","","","","",""
"","","","","","html-keyboard-response","124","283580","0.0-124.0","2A980FF0176A483DBC6DA8A7DB71C5DE","019cf9a2-10d6-7c39-b36c-dc9726152684","019cf974-7aee-7bc9-8ea4-9f55741b365d","","null","
                <div class=""stimulus-container"">
                    <img src=""images/causal_sequence/package_causal/package_causal_2.png"" class=""exp-image"">
                    <div class=""question-area""></div> 
                </div>","null","","","","","","","","","",""
"","","","","","html-button-response","125","284454","0.0-125.0","2A980FF0176A483DBC6DA8A7DB71C5DE","019cf9a2-10d6-7c39-b36c-dc9726152684","019cf974-7aee-7bc9-8ea4-9f55741b365d","","873","
                <div class=""stimulus-container"">
                    <img src=""images/causal_sequence/package_causal/package_causal_2.png"" class=""exp-image"">
                    <div class=""question-area"">
                        <p style=""font-size: 20px; font-weight: bold; margin: 0;"">Is there a person in this image?</p>
                    </div>
                </div>","0","main_experiment_trial","2","package_causal","causal_sequence","randomized","","","","",""
"","","","","","html-keyboard-response","126","285462","0.0-126.0","2A980FF0176A483DBC6DA8A7DB71C5DE","019cf9a2-10d6-7c39-b36c-dc9726152684","019cf974-7aee-7bc9-8ea4-9f55741b365d","","null","
                <div class=""stimulus-container"">
                    <img src=""images/causal_sequence/package_causal/package_causal_5.png"" class=""exp-image"">
                    <div class=""question-area""></div> 
                </div>","null","","","","","","","","","",""
"","","","","","html-button-response","127","286285","0.0-127.0","2A980FF0176A483DBC6DA8A7DB71C5DE","019cf9a2-10d6-7c39-b36c-dc9726152684","019cf974-7aee-7bc9-8ea4-9f55741b365d","","821","
                <div class=""stimulus-container"">
                    <img src=""images/causal_sequence/package_causal/package_causal_5.png"" class=""exp-image"">
                    <div class=""question-area"">
                        <p style=""font-size: 20px; font-weight: bold; margin: 0;"">Is there a person in this image?</p>
                    </div>
                </div>","0","main_experiment_trial","5","package_causal","causal_sequence","randomized","","","","",""
"","","","","","html-keyboard-response","128","287298","0.0-128.0","2A980FF0176A483DBC6DA8A7DB71C5DE","019cf9a2-10d6-7c39-b36c-dc9726152684","019cf974-7aee-7bc9-8ea4-9f55741b365d","","null","
                <div class=""stimulus-container"">
                    <img src=""images/causal_sequence/package_causal/package_causal_1.png"" class=""exp-image"">
                    <div class=""question-area""></div> 
                </div>","null","","","","","","","","","",""
"","","","","","html-button-response","129","288415","0.0-129.0","2A980FF0176A483DBC6DA8A7DB71C5DE","019cf9a2-10d6-7c39-b36c-dc9726152684","019cf974-7aee-7bc9-8ea4-9f55741b365d","","1115","
                <div class=""stimulus-container"">
                    <img src=""images/causal_sequence/package_causal/package_causal_1.png"" class=""exp-image"">
                    <div class=""question-area"">
                        <p style=""font-size: 20px; font-weight: bold; margin: 0;"">Is there a person in this image?</p>
                    </div>
                </div>","0","main_experiment_trial","1","package_causal","causal_sequence","randomized","","","","",""
"","","","","","html-keyboard-response","130","289421","0.0-130.0","2A980FF0176A483DBC6DA8A7DB71C5DE","019cf9a2-10d6-7c39-b36c-dc9726152684","019cf974-7aee-7bc9-8ea4-9f55741b365d","","null","
                <div class=""stimulus-container"">
                    <img src=""images/causal_sequence/package_causal/package_causal_3.png"" class=""exp-image"">
                    <div class=""question-area""></div> 
                </div>","null","","","","","","","","","",""
"","","","","","html-button-response","131","290833","0.0-131.0","2A980FF0176A483DBC6DA8A7DB71C5DE","019cf9a2-10d6-7c39-b36c-dc9726152684","019cf974-7aee-7bc9-8ea4-9f55741b365d","","1410","
                <div class=""stimulus-container"">
                    <img src=""images/causal_sequence/package_causal/package_causal_3.png"" class=""exp-image"">
                    <div class=""question-area"">
                        <p style=""font-size: 20px; font-weight: bold; margin: 0;"">Is there a person in this image?</p>
                    </div>
                </div>","0","main_experiment_trial","3","package_causal","causal_sequence","randomized","","","","",""
"","","","","","html-keyboard-response","132","291837","0.0-132.0","2A980FF0176A483DBC6DA8A7DB71C5DE","019cf9a2-10d6-7c39-b36c-dc9726152684","019cf974-7aee-7bc9-8ea4-9f55741b365d","","null","
                <div class=""stimulus-container"">
                    <img src=""images/causal_sequence/package_causal/package_causal_6.png"" class=""exp-image"">
                    <div class=""question-area""></div> 
                </div>","null","","","","","","","","","",""
"","","","","","html-button-response","133","292915","0.0-133.0","2A980FF0176A483DBC6DA8A7DB71C5DE","019cf9a2-10d6-7c39-b36c-dc9726152684","019cf974-7aee-7bc9-8ea4-9f55741b365d","","1077","
                <div class=""stimulus-container"">
                    <img src=""images/causal_sequence/package_causal/package_causal_6.png"" class=""exp-image"">
                    <div class=""question-area"">
                        <p style=""font-size: 20px; font-weight: bold; margin: 0;"">Is there a person in this image?</p>
                    </div>
                </div>","0","main_experiment_trial","6","package_causal","causal_sequence","randomized","","","","",""
"","","","","","html-keyboard-response","134","293931","0.0-134.0","2A980FF0176A483DBC6DA8A7DB71C5DE","019cf9a2-10d6-7c39-b36c-dc9726152684","019cf974-7aee-7bc9-8ea4-9f55741b365d","","null","
                <div class=""stimulus-container"">
                    <img src=""images/causal_sequence/package_causal/package_causal_4.png"" class=""exp-image"">
                    <div class=""question-area""></div> 
                </div>","null","","","","","","","","","",""
"","","","","","html-button-response","135","295527","0.0-135.0","2A980FF0176A483DBC6DA8A7DB71C5DE","019cf9a2-10d6-7c39-b36c-dc9726152684","019cf974-7aee-7bc9-8ea4-9f55741b365d","","1594","
                <div class=""stimulus-container"">
                    <img src=""images/causal_sequence/package_causal/package_causal_4.png"" class=""exp-image"">
                    <div class=""question-area"">
                        <p style=""font-size: 20px; font-weight: bold; margin: 0;"">Is there a person in this image?</p>
                    </div>
                </div>","1","main_experiment_trial","4","package_causal","causal_sequence","randomized","","","","",""
"","","","","","html-keyboard-response","136","296528","0.0-136.0","2A980FF0176A483DBC6DA8A7DB71C5DE","019cf9a2-10d6-7c39-b36c-dc9726152684","019cf974-7aee-7bc9-8ea4-9f55741b365d","","null","
                <div class=""stimulus-container"">
                    <img src=""images/causal_sequence/package_causal/package_causal_ten.png"" class=""exp-image"">
                    <div class=""question-area""></div> 
                </div>","null","","","","","","","","","",""
"","","","","","html-button-response","137","297558","0.0-137.0","2A980FF0176A483DBC6DA8A7DB71C5DE","019cf9a2-10d6-7c39-b36c-dc9726152684","019cf974-7aee-7bc9-8ea4-9f55741b365d","","1029","
                <div class=""stimulus-container"">
                    <img src=""images/causal_sequence/package_causal/package_causal_ten.png"" class=""exp-image"">
                    <div class=""question-area"">
                        <p style=""font-size: 20px; font-weight: bold; margin: 0;"">Is there a person in this image?</p>
                    </div>
                </div>","0","main_experiment_trial","ten","package_causal","causal_sequence","randomized","","","","",""
"","","","","","html-keyboard-response","138","298571","0.0-138.0","2A980FF0176A483DBC6DA8A7DB71C5DE","019cf9a2-10d6-7c39-b36c-dc9726152684","019cf974-7aee-7bc9-8ea4-9f55741b365d","","null","
                <div class=""stimulus-container"">
                    <img src=""images/causal_sequence/package_causal/package_causal_9.png"" class=""exp-image"">
                    <div class=""question-area""></div> 
                </div>","null","","","","","","","","","",""
"","","","","","html-button-response","139","299856","0.0-139.0","2A980FF0176A483DBC6DA8A7DB71C5DE","019cf9a2-10d6-7c39-b36c-dc9726152684","019cf974-7aee-7bc9-8ea4-9f55741b365d","","1284","
                <div class=""stimulus-container"">
                    <img src=""images/causal_sequence/package_causal/package_causal_9.png"" class=""exp-image"">
                    <div class=""question-area"">
                        <p style=""font-size: 20px; font-weight: bold; margin: 0;"">Is there a person in this image?</p>
                    </div>
                </div>","0","main_experiment_trial","9","package_causal","causal_sequence","randomized","","","","",""
"","","","","","html-keyboard-response","140","300866","0.0-140.0","2A980FF0176A483DBC6DA8A7DB71C5DE","019cf9a2-10d6-7c39-b36c-dc9726152684","019cf974-7aee-7bc9-8ea4-9f55741b365d","","null","
                <div class=""stimulus-container"">
                    <img src=""images/causal_sequence/package_causal/package_causal_8.png"" class=""exp-image"">
                    <div class=""question-area""></div> 
                </div>","null","","","","","","","","","",""
"","","","","","html-button-response","141","301706","0.0-141.0","2A980FF0176A483DBC6DA8A7DB71C5DE","019cf9a2-10d6-7c39-b36c-dc9726152684","019cf974-7aee-7bc9-8ea4-9f55741b365d","","838","
                <div class=""stimulus-container"">
                    <img src=""images/causal_sequence/package_causal/package_causal_8.png"" class=""exp-image"">
                    <div class=""question-area"">
                        <p style=""font-size: 20px; font-weight: bold; margin: 0;"">Is there a person in this image?</p>
                    </div>
                </div>","0","main_experiment_trial","8","package_causal","causal_sequence","randomized","","","","",""
"","","","","","html-keyboard-response","142","306716","0.0-142.0","2A980FF0176A483DBC6DA8A7DB71C5DE","019cf9a2-10d6-7c39-b36c-dc9726152684","019cf974-7aee-7bc9-8ea4-9f55741b365d","","null","<div style=""background-color: white; width: 100vw; height: 100vh;""></div>","null","","","","","","","","","",""
"","","","","","html-keyboard-response","143","307721","0.0-143.0","2A980FF0176A483DBC6DA8A7DB71C5DE","019cf9a2-10d6-7c39-b36c-dc9726152684","019cf974-7aee-7bc9-8ea4-9f55741b365d","","null","
                <div class=""stimulus-container"">
                    <img src=""images/semantic_sequence/using_technology_semantic/using_technology_semantic_6.png"" class=""exp-image"">
                    <div class=""question-area""></div> 
                </div>","null","","","","","","","","","",""
"","","","","","html-button-response","144","308733","0.0-144.0","2A980FF0176A483DBC6DA8A7DB71C5DE","019cf9a2-10d6-7c39-b36c-dc9726152684","019cf974-7aee-7bc9-8ea4-9f55741b365d","","1011","
                <div class=""stimulus-container"">
                    <img src=""images/semantic_sequence/using_technology_semantic/using_technology_semantic_6.png"" class=""exp-image"">
                    <div class=""question-area"">
                        <p style=""font-size: 20px; font-weight: bold; margin: 0;"">Is there a person in this image?</p>
                    </div>
                </div>","0","main_experiment_trial","6","using_technology_semantic","semantic_sequence","randomized","","","","",""
"","","","","","html-keyboard-response","145","309739","0.0-145.0","2A980FF0176A483DBC6DA8A7DB71C5DE","019cf9a2-10d6-7c39-b36c-dc9726152684","019cf974-7aee-7bc9-8ea4-9f55741b365d","","null","
                <div class=""stimulus-container"">
                    <img src=""images/semantic_sequence/using_technology_semantic/using_technology_semantic_7.png"" class=""exp-image"">
                    <div class=""question-area""></div> 
                </div>","null","","","","","","","","","",""
"","","","","","html-button-response","146","310579","0.0-146.0","2A980FF0176A483DBC6DA8A7DB71C5DE","019cf9a2-10d6-7c39-b36c-dc9726152684","019cf974-7aee-7bc9-8ea4-9f55741b365d","","839","
                <div class=""stimulus-container"">
                    <img src=""images/semantic_sequence/using_technology_semantic/using_technology_semantic_7.png"" class=""exp-image"">
                    <div class=""question-area"">
                        <p style=""font-size: 20px; font-weight: bold; margin: 0;"">Is there a person in this image?</p>
                    </div>
                </div>","0","main_experiment_trial","7","using_technology_semantic","semantic_sequence","randomized","","","","",""
"","","","","","html-keyboard-response","147","311583","0.0-147.0","2A980FF0176A483DBC6DA8A7DB71C5DE","019cf9a2-10d6-7c39-b36c-dc9726152684","019cf974-7aee-7bc9-8ea4-9f55741b365d","","null","
                <div class=""stimulus-container"">
                    <img src=""images/semantic_sequence/using_technology_semantic/using_technology_semantic_9.png"" class=""exp-image"">
                    <div class=""question-area""></div> 
                </div>","null","","","","","","","","","",""
"","","","","","html-button-response","148","312325","0.0-148.0","2A980FF0176A483DBC6DA8A7DB71C5DE","019cf9a2-10d6-7c39-b36c-dc9726152684","019cf974-7aee-7bc9-8ea4-9f55741b365d","","740","
                <div class=""stimulus-container"">
                    <img src=""images/semantic_sequence/using_technology_semantic/using_technology_semantic_9.png"" class=""exp-image"">
                    <div class=""question-area"">
                        <p style=""font-size: 20px; font-weight: bold; margin: 0;"">Is there a person in this image?</p>
                    </div>
                </div>","0","main_experiment_trial","9","using_technology_semantic","semantic_sequence","randomized","","","","",""
"","","","","","html-keyboard-response","149","313330","0.0-149.0","2A980FF0176A483DBC6DA8A7DB71C5DE","019cf9a2-10d6-7c39-b36c-dc9726152684","019cf974-7aee-7bc9-8ea4-9f55741b365d","","null","
                <div class=""stimulus-container"">
                    <img src=""images/semantic_sequence/using_technology_semantic/using_technology_semantic_2.png"" class=""exp-image"">
                    <div class=""question-area""></div> 
                </div>","null","","","","","","","","","",""
"","","","","","html-button-response","150","314307","0.0-150.0","2A980FF0176A483DBC6DA8A7DB71C5DE","019cf9a2-10d6-7c39-b36c-dc9726152684","019cf974-7aee-7bc9-8ea4-9f55741b365d","","977","
                <div class=""stimulus-container"">
                    <img src=""images/semantic_sequence/using_technology_semantic/using_technology_semantic_2.png"" class=""exp-image"">
                    <div class=""question-area"">
                        <p style=""font-size: 20px; font-weight: bold; margin: 0;"">Is there a person in this image?</p>
                    </div>
                </div>","0","main_experiment_trial","2","using_technology_semantic","semantic_sequence","randomized","","","","",""
"","","","","","html-keyboard-response","151","315318","0.0-151.0","2A980FF0176A483DBC6DA8A7DB71C5DE","019cf9a2-10d6-7c39-b36c-dc9726152684","019cf974-7aee-7bc9-8ea4-9f55741b365d","","null","
                <div class=""stimulus-container"">
                    <img src=""images/semantic_sequence/using_technology_semantic/using_technology_semantic_5.png"" class=""exp-image"">
                    <div class=""question-area""></div> 
                </div>","null","","","","","","","","","",""
"","","","","","html-button-response","152","316353","0.0-152.0","2A980FF0176A483DBC6DA8A7DB71C5DE","019cf9a2-10d6-7c39-b36c-dc9726152684","019cf974-7aee-7bc9-8ea4-9f55741b365d","","1034","
                <div class=""stimulus-container"">
                    <img src=""images/semantic_sequence/using_technology_semantic/using_technology_semantic_5.png"" class=""exp-image"">
                    <div class=""question-area"">
                        <p style=""font-size: 20px; font-weight: bold; margin: 0;"">Is there a person in this image?</p>
                    </div>
                </div>","0","main_experiment_trial","5","using_technology_semantic","semantic_sequence","randomized","","","","",""
"","","","","","html-keyboard-response","153","317367","0.0-153.0","2A980FF0176A483DBC6DA8A7DB71C5DE","019cf9a2-10d6-7c39-b36c-dc9726152684","019cf974-7aee-7bc9-8ea4-9f55741b365d","","null","
                <div class=""stimulus-container"">
                    <img src=""images/semantic_sequence/using_technology_semantic/using_technology_semantic_1.png"" class=""exp-image"">
                    <div class=""question-area""></div> 
                </div>","null","","","","","","","","","",""
"","","","","","html-button-response","154","318302","0.0-154.0","2A980FF0176A483DBC6DA8A7DB71C5DE","019cf9a2-10d6-7c39-b36c-dc9726152684","019cf974-7aee-7bc9-8ea4-9f55741b365d","","934","
                <div class=""stimulus-container"">
                    <img src=""images/semantic_sequence/using_technology_semantic/using_technology_semantic_1.png"" class=""exp-image"">
                    <div class=""question-area"">
                        <p style=""font-size: 20px; font-weight: bold; margin: 0;"">Is there a person in this image?</p>
                    </div>
                </div>","0","main_experiment_trial","1","using_technology_semantic","semantic_sequence","randomized","","","","",""
"","","","","","html-keyboard-response","155","319314","0.0-155.0","2A980FF0176A483DBC6DA8A7DB71C5DE","019cf9a2-10d6-7c39-b36c-dc9726152684","019cf974-7aee-7bc9-8ea4-9f55741b365d","","null","
                <div class=""stimulus-container"">
                    <img src=""images/semantic_sequence/using_technology_semantic/using_technology_semantic_8.png"" class=""exp-image"">
                    <div class=""question-area""></div> 
                </div>","null","","","","","","","","","",""
"","","","","","html-button-response","156","319981","0.0-156.0","2A980FF0176A483DBC6DA8A7DB71C5DE","019cf9a2-10d6-7c39-b36c-dc9726152684","019cf974-7aee-7bc9-8ea4-9f55741b365d","","666","
                <div class=""stimulus-container"">
                    <img src=""images/semantic_sequence/using_technology_semantic/using_technology_semantic_8.png"" class=""exp-image"">
                    <div class=""question-area"">
                        <p style=""font-size: 20px; font-weight: bold; margin: 0;"">Is there a person in this image?</p>
                    </div>
                </div>","0","main_experiment_trial","8","using_technology_semantic","semantic_sequence","randomized","","","","",""
"","","","","","html-keyboard-response","157","320990","0.0-157.0","2A980FF0176A483DBC6DA8A7DB71C5DE","019cf9a2-10d6-7c39-b36c-dc9726152684","019cf974-7aee-7bc9-8ea4-9f55741b365d","","null","
                <div class=""stimulus-container"">
                    <img src=""images/semantic_sequence/using_technology_semantic/using_technology_semantic_4.png"" class=""exp-image"">
                    <div class=""question-area""></div> 
                </div>","null","","","","","","","","","",""
"","","","","","html-button-response","158","322013","0.0-158.0","2A980FF0176A483DBC6DA8A7DB71C5DE","019cf9a2-10d6-7c39-b36c-dc9726152684","019cf974-7aee-7bc9-8ea4-9f55741b365d","","1022","
                <div class=""stimulus-container"">
                    <img src=""images/semantic_sequence/using_technology_semantic/using_technology_semantic_4.png"" class=""exp-image"">
                    <div class=""question-area"">
                        <p style=""font-size: 20px; font-weight: bold; margin: 0;"">Is there a person in this image?</p>
                    </div>
                </div>","0","main_experiment_trial","4","using_technology_semantic","semantic_sequence","randomized","","","","",""
"","","","","","html-keyboard-response","159","323022","0.0-159.0","2A980FF0176A483DBC6DA8A7DB71C5DE","019cf9a2-10d6-7c39-b36c-dc9726152684","019cf974-7aee-7bc9-8ea4-9f55741b365d","","null","
                <div class=""stimulus-container"">
                    <img src=""images/semantic_sequence/using_technology_semantic/using_technology_semantic_3.png"" class=""exp-image"">
                    <div class=""question-area""></div> 
                </div>","null","","","","","","","","","",""
"","","","","","html-button-response","160","323911","0.0-160.0","2A980FF0176A483DBC6DA8A7DB71C5DE","019cf9a2-10d6-7c39-b36c-dc9726152684","019cf974-7aee-7bc9-8ea4-9f55741b365d","","888","
                <div class=""stimulus-container"">
                    <img src=""images/semantic_sequence/using_technology_semantic/using_technology_semantic_3.png"" class=""exp-image"">
                    <div class=""question-area"">
                        <p style=""font-size: 20px; font-weight: bold; margin: 0;"">Is there a person in this image?</p>
                    </div>
                </div>","0","main_experiment_trial","3","using_technology_semantic","semantic_sequence","randomized","","","","",""
"","","","","","html-keyboard-response","161","324919","0.0-161.0","2A980FF0176A483DBC6DA8A7DB71C5DE","019cf9a2-10d6-7c39-b36c-dc9726152684","019cf974-7aee-7bc9-8ea4-9f55741b365d","","null","
                <div class=""stimulus-container"">
                    <img src=""images/semantic_sequence/using_technology_semantic/using_technology_semantic_ten.png"" class=""exp-image"">
                    <div class=""question-area""></div> 
                </div>","null","","","","","","","","","",""
"","","","","","html-button-response","162","325642","0.0-162.0","2A980FF0176A483DBC6DA8A7DB71C5DE","019cf9a2-10d6-7c39-b36c-dc9726152684","019cf974-7aee-7bc9-8ea4-9f55741b365d","","722","
                <div class=""stimulus-container"">
                    <img src=""images/semantic_sequence/using_technology_semantic/using_technology_semantic_ten.png"" class=""exp-image"">
                    <div class=""question-area"">
                        <p style=""font-size: 20px; font-weight: bold; margin: 0;"">Is there a person in this image?</p>
                    </div>
                </div>","0","main_experiment_trial","ten","using_technology_semantic","semantic_sequence","randomized","","","","",""
"","","","","","html-keyboard-response","163","330647","0.0-163.0","2A980FF0176A483DBC6DA8A7DB71C5DE","019cf9a2-10d6-7c39-b36c-dc9726152684","019cf974-7aee-7bc9-8ea4-9f55741b365d","","null","<div style=""background-color: white; width: 100vw; height: 100vh;""></div>","null","","","","","","","","","",""
"","","","","","html-keyboard-response","164","331660","0.0-164.0","2A980FF0176A483DBC6DA8A7DB71C5DE","019cf9a2-10d6-7c39-b36c-dc9726152684","019cf974-7aee-7bc9-8ea4-9f55741b365d","","null","
                <div class=""stimulus-container"">
                    <img src=""images/causal_sequence/dog_causal/dog_causal_4.png"" class=""exp-image"">
                    <div class=""question-area""></div> 
                </div>","null","","","","","","","","","",""
"","","","","","html-button-response","165","332469","0.0-165.0","2A980FF0176A483DBC6DA8A7DB71C5DE","019cf9a2-10d6-7c39-b36c-dc9726152684","019cf974-7aee-7bc9-8ea4-9f55741b365d","","807","
                <div class=""stimulus-container"">
                    <img src=""images/causal_sequence/dog_causal/dog_causal_4.png"" class=""exp-image"">
                    <div class=""question-area"">
                        <p style=""font-size: 20px; font-weight: bold; margin: 0;"">Is there a person in this image?</p>
                    </div>
                </div>","0","main_experiment_trial","4","dog_causal","causal_sequence","randomized","","","","",""
"","","","","","html-keyboard-response","166","333478","0.0-166.0","2A980FF0176A483DBC6DA8A7DB71C5DE","019cf9a2-10d6-7c39-b36c-dc9726152684","019cf974-7aee-7bc9-8ea4-9f55741b365d","","null","
                <div class=""stimulus-container"">
                    <img src=""images/causal_sequence/dog_causal/dog_causal_ten.png"" class=""exp-image"">
                    <div class=""question-area""></div> 
                </div>","null","","","","","","","","","",""
"","","","","","html-button-response","167","334250","0.0-167.0","2A980FF0176A483DBC6DA8A7DB71C5DE","019cf9a2-10d6-7c39-b36c-dc9726152684","019cf974-7aee-7bc9-8ea4-9f55741b365d","","771","
                <div class=""stimulus-container"">
                    <img src=""images/causal_sequence/dog_causal/dog_causal_ten.png"" class=""exp-image"">
                    <div class=""question-area"">
                        <p style=""font-size: 20px; font-weight: bold; margin: 0;"">Is there a person in this image?</p>
                    </div>
                </div>","0","main_experiment_trial","ten","dog_causal","causal_sequence","randomized","","","","",""
"","","","","","html-keyboard-response","168","335261","0.0-168.0","2A980FF0176A483DBC6DA8A7DB71C5DE","019cf9a2-10d6-7c39-b36c-dc9726152684","019cf974-7aee-7bc9-8ea4-9f55741b365d","","null","
                <div class=""stimulus-container"">
                    <img src=""images/causal_sequence/dog_causal/dog_causal_1.png"" class=""exp-image"">
                    <div class=""question-area""></div> 
                </div>","null","","","","","","","","","",""
"","","","","","html-button-response","169","336231","0.0-169.0","2A980FF0176A483DBC6DA8A7DB71C5DE","019cf9a2-10d6-7c39-b36c-dc9726152684","019cf974-7aee-7bc9-8ea4-9f55741b365d","","970","
                <div class=""stimulus-container"">
                    <img src=""images/causal_sequence/dog_causal/dog_causal_1.png"" class=""exp-image"">
                    <div class=""question-area"">
                        <p style=""font-size: 20px; font-weight: bold; margin: 0;"">Is there a person in this image?</p>
                    </div>
                </div>","0","main_experiment_trial","1","dog_causal","causal_sequence","randomized","","","","",""
"","","","","","html-keyboard-response","170","337243","0.0-170.0","2A980FF0176A483DBC6DA8A7DB71C5DE","019cf9a2-10d6-7c39-b36c-dc9726152684","019cf974-7aee-7bc9-8ea4-9f55741b365d","","null","
                <div class=""stimulus-container"">
                    <img src=""images/causal_sequence/dog_causal/dog_causal_7.png"" class=""exp-image"">
                    <div class=""question-area""></div> 
                </div>","null","","","","","","","","","",""
"","","","","","html-button-response","171","338264","0.0-171.0","2A980FF0176A483DBC6DA8A7DB71C5DE","019cf9a2-10d6-7c39-b36c-dc9726152684","019cf974-7aee-7bc9-8ea4-9f55741b365d","","1019","
                <div class=""stimulus-container"">
                    <img src=""images/causal_sequence/dog_causal/dog_causal_7.png"" class=""exp-image"">
                    <div class=""question-area"">
                        <p style=""font-size: 20px; font-weight: bold; margin: 0;"">Is there a person in this image?</p>
                    </div>
                </div>","0","main_experiment_trial","7","dog_causal","causal_sequence","randomized","","","","",""
"","","","","","html-keyboard-response","172","339275","0.0-172.0","2A980FF0176A483DBC6DA8A7DB71C5DE","019cf9a2-10d6-7c39-b36c-dc9726152684","019cf974-7aee-7bc9-8ea4-9f55741b365d","","null","
                <div class=""stimulus-container"">
                    <img src=""images/causal_sequence/dog_causal/dog_causal_8.png"" class=""exp-image"">
                    <div class=""question-area""></div> 
                </div>","null","","","","","","","","","",""
"","","","","","html-button-response","173","340344","0.0-173.0","2A980FF0176A483DBC6DA8A7DB71C5DE","019cf9a2-10d6-7c39-b36c-dc9726152684","019cf974-7aee-7bc9-8ea4-9f55741b365d","","1069","
                <div class=""stimulus-container"">
                    <img src=""images/causal_sequence/dog_causal/dog_causal_8.png"" class=""exp-image"">
                    <div class=""question-area"">
                        <p style=""font-size: 20px; font-weight: bold; margin: 0;"">Is there a person in this image?</p>
                    </div>
                </div>","0","main_experiment_trial","8","dog_causal","causal_sequence","randomized","","","","",""
"","","","","","html-keyboard-response","174","341356","0.0-174.0","2A980FF0176A483DBC6DA8A7DB71C5DE","019cf9a2-10d6-7c39-b36c-dc9726152684","019cf974-7aee-7bc9-8ea4-9f55741b365d","","null","
                <div class=""stimulus-container"">
                    <img src=""images/causal_sequence/dog_causal/dog_causal_3.png"" class=""exp-image"">
                    <div class=""question-area""></div> 
                </div>","null","","","","","","","","","",""
"","","","","","html-button-response","175","342225","0.0-175.0","2A980FF0176A483DBC6DA8A7DB71C5DE","019cf9a2-10d6-7c39-b36c-dc9726152684","019cf974-7aee-7bc9-8ea4-9f55741b365d","","869","
                <div class=""stimulus-container"">
                    <img src=""images/causal_sequence/dog_causal/dog_causal_3.png"" class=""exp-image"">
                    <div class=""question-area"">
                        <p style=""font-size: 20px; font-weight: bold; margin: 0;"">Is there a person in this image?</p>
                    </div>
                </div>","0","main_experiment_trial","3","dog_causal","causal_sequence","randomized","","","","",""
"","","","","","html-keyboard-response","176","343236","0.0-176.0","2A980FF0176A483DBC6DA8A7DB71C5DE","019cf9a2-10d6-7c39-b36c-dc9726152684","019cf974-7aee-7bc9-8ea4-9f55741b365d","","null","
                <div class=""stimulus-container"">
                    <img src=""images/causal_sequence/dog_causal/dog_causal_5.png"" class=""exp-image"">
                    <div class=""question-area""></div> 
                </div>","null","","","","","","","","","",""
"","","","","","html-button-response","177","344924","0.0-177.0","2A980FF0176A483DBC6DA8A7DB71C5DE","019cf9a2-10d6-7c39-b36c-dc9726152684","019cf974-7aee-7bc9-8ea4-9f55741b365d","","1687","
                <div class=""stimulus-container"">
                    <img src=""images/causal_sequence/dog_causal/dog_causal_5.png"" class=""exp-image"">
                    <div class=""question-area"">
                        <p style=""font-size: 20px; font-weight: bold; margin: 0;"">Is there a person in this image?</p>
                    </div>
                </div>","0","main_experiment_trial","5","dog_causal","causal_sequence","randomized","","","","",""
"","","","","","html-keyboard-response","178","345934","0.0-178.0","2A980FF0176A483DBC6DA8A7DB71C5DE","019cf9a2-10d6-7c39-b36c-dc9726152684","019cf974-7aee-7bc9-8ea4-9f55741b365d","","null","
                <div class=""stimulus-container"">
                    <img src=""images/causal_sequence/dog_causal/dog_causal_6.png"" class=""exp-image"">
                    <div class=""question-area""></div> 
                </div>","null","","","","","","","","","",""
