"success","timeout","failed_images","failed_audio","failed_video","trial_type","trial_index","time_elapsed","internal_node_id","subject_id","study_id","session_id","view_history","rt","stimulus","response","task","image_index","folder","sequence_type","presentation_order","valuable_image_index","reward_type","distance_from_x","target_X","chosen_image_index","is_x_plus_dist","correct_choice"
"true","false","[]","[]","[]","preload","0","149","0.0-0.0","dehkezwg49wzq9p","","","","","","","","","","","","","","","","","",""
"","","","","","instructions","1","1547","0.0-1.0","dehkezwg49wzq9p","","","[{""page_index"":0,""viewing_time"":1397}]","1398","","","","","","","","","","","","","",""
"","","","","","instructions","2","3403","0.0-2.0","dehkezwg49wzq9p","","","[{""page_index"":0,""viewing_time"":1855}]","1855","","","","","","","","","","","","","",""
"true","","","","","fullscreen","3","5242","0.0-3.0","dehkezwg49wzq9p","","","","830","","","","","","","","","","","","","",""
"","","","","","instructions","4","7251","0.0-4.0","dehkezwg49wzq9p","","","[{""page_index"":0,""viewing_time"":2008}]","2009","","","","","","","","","","","","","",""
"","","","","","instructions","5","9938","0.0-5.0","dehkezwg49wzq9p","","","[{""page_index"":0,""viewing_time"":2686}]","2687","","","","","","","","","","","","","",""
"","","","","","html-keyboard-response","6","13947","0.0-6.0","dehkezwg49wzq9p","","","","null","
            <div class=""stimulus-container"">
                <img src=""images/instructions/movie_1.png"" class=""exp-image"">
                <div class=""question-area""></div> 
            </div>","null","","","","","","","","","","","",""
"","","","","","html-button-response","7","16958","0.0-7.0","dehkezwg49wzq9p","","","","null","
            <div class=""stimulus-container"">
                <img src=""images/instructions/movie_1.png"" class=""exp-image"">
                <div class=""question-area"">
                    <p style=""font-size: 20px; font-weight: bold; margin: 0;"">Was there a person in this image?</p>
                </div>
            </div>","null","example_question","1","","","","","","","","","",""
"","","","","","html-keyboard-response","8","20963","0.0-8.0","dehkezwg49wzq9p","","","","null","
            <div class=""stimulus-container"">
                <img src=""images/instructions/movie_2.png"" class=""exp-image"">
                <div class=""question-area""></div> 
            </div>","null","","","","","","","","","","","",""
"","","","","","html-button-response","9","21627","0.0-9.0","dehkezwg49wzq9p","","","","664","
            <div class=""stimulus-container"">
                <img src=""images/instructions/movie_2.png"" class=""exp-image"">
                <div class=""question-area"">
                    <p style=""font-size: 20px; font-weight: bold; margin: 0;"">Was there a person in this image?</p>
                </div>
            </div>","1","example_question","2","","","","","","","","","",""
"","","","","","html-keyboard-response","10","25636","0.0-10.0","dehkezwg49wzq9p","","","","null","
            <div class=""stimulus-container"">
                <img src=""images/instructions/movie_3.png"" class=""exp-image"">
                <div class=""question-area""></div> 
            </div>","null","","","","","","","","","","","",""
"","","","","","html-button-response","11","26235","0.0-11.0","dehkezwg49wzq9p","","","","598","
            <div class=""stimulus-container"">
                <img src=""images/instructions/movie_3.png"" class=""exp-image"">
                <div class=""question-area"">
                    <p style=""font-size: 20px; font-weight: bold; margin: 0;"">Was there a person in this image?</p>
                </div>
            </div>","1","example_question","3","","","","","","","","","",""
"","","","","","html-keyboard-response","12","30245","0.0-12.0","dehkezwg49wzq9p","","","","null","
            <div class=""stimulus-container"">
                <img src=""images/instructions/movie_4.png"" class=""exp-image"">
                <div class=""question-area""></div> 
            </div>","null","","","","","","","","","","","",""
"","","","","","html-button-response","13","30699","0.0-13.0","dehkezwg49wzq9p","","","","453","
            <div class=""stimulus-container"">
                <img src=""images/instructions/movie_4.png"" class=""exp-image"">
                <div class=""question-area"">
                    <p style=""font-size: 20px; font-weight: bold; margin: 0;"">Was there a person in this image?</p>
                </div>
            </div>","1","example_question","4","","","","","","","","","",""
"","","","","","instructions","14","31931","0.0-14.0","dehkezwg49wzq9p","","","[{""page_index"":0,""viewing_time"":1231}]","1231","","","","","","","","","","","","","",""
"","","","","","instructions","15","34499","0.0-15.0","dehkezwg49wzq9p","","","[{""page_index"":0,""viewing_time"":2567}]","2568","","","","","","","","","","","","","",""
"","","","","","html-keyboard-response","16","39507","0.0-16.0","dehkezwg49wzq9p","","","","null","<div style=""background-color: white; width: 100vw; height: 100vh;""></div>","null","","","","","","","","","","","",""
"","","","","","html-keyboard-response","17","44517","0.0-17.0","dehkezwg49wzq9p","","","","null","
                <div class=""stimulus-container"">
                    <img src=""semantic_sequence_notimeline/animals_semantic/animals_semantic_1.png"" class=""exp-image"">
                    <div class=""question-area""></div> 
                </div>","null","","","","","","","","","","","",""
"","","","","","html-button-response","18","45515","0.0-18.0","dehkezwg49wzq9p","","","","997","
                <div class=""stimulus-container"">
                    <img src=""semantic_sequence_notimeline/animals_semantic/animals_semantic_1.png"" class=""exp-image"">
                    <div class=""question-area"">
                        <p style=""font-size: 20px; font-weight: bold; margin: 0;"">Is there a person in this image?</p>
                    </div>
                </div>","1","main_experiment_trial","1","animals_semantic","semantic_sequence_notimeline","chronological","","","","","","",""
"","","","","","html-keyboard-response","19","50517","0.0-19.0","dehkezwg49wzq9p","","","","null","
                <div class=""stimulus-container"">
                    <img src=""semantic_sequence_notimeline/animals_semantic/animals_semantic_2.png"" class=""exp-image"">
                    <div class=""question-area""></div> 
                </div>","null","","","","","","","","","","","",""
"","","","","","html-button-response","20","51019","0.0-20.0","dehkezwg49wzq9p","","","","502","
                <div class=""stimulus-container"">
                    <img src=""semantic_sequence_notimeline/animals_semantic/animals_semantic_2.png"" class=""exp-image"">
                    <div class=""question-area"">
                        <p style=""font-size: 20px; font-weight: bold; margin: 0;"">Is there a person in this image?</p>
                    </div>
                </div>","1","main_experiment_trial","2","animals_semantic","semantic_sequence_notimeline","chronological","","","","","","",""
"","","","","","html-keyboard-response","21","56030","0.0-21.0","dehkezwg49wzq9p","","","","null","
                <div class=""stimulus-container"">
                    <img src=""semantic_sequence_notimeline/animals_semantic/animals_semantic_3.png"" class=""exp-image"">
                    <div class=""question-area""></div> 
                </div>","null","","","","","","","","","","","",""
"","","","","","html-button-response","22","56484","0.0-22.0","dehkezwg49wzq9p","","","","453","
                <div class=""stimulus-container"">
                    <img src=""semantic_sequence_notimeline/animals_semantic/animals_semantic_3.png"" class=""exp-image"">
                    <div class=""question-area"">
                        <p style=""font-size: 20px; font-weight: bold; margin: 0;"">Is there a person in this image?</p>
                    </div>
                </div>","1","main_experiment_trial","3","animals_semantic","semantic_sequence_notimeline","chronological","","","","","","",""
"","","","","","html-keyboard-response","23","61494","0.0-23.0","dehkezwg49wzq9p","","","","null","
                <div class=""stimulus-container"">
                    <img src=""semantic_sequence_notimeline/animals_semantic/animals_semantic_4.png"" class=""exp-image"">
                    <div class=""question-area""></div> 
                </div>","null","","","","","","","","","","","",""
"","","","","","html-button-response","24","61972","0.0-24.0","dehkezwg49wzq9p","","","","477","
                <div class=""stimulus-container"">
                    <img src=""semantic_sequence_notimeline/animals_semantic/animals_semantic_4.png"" class=""exp-image"">
                    <div class=""question-area"">
                        <p style=""font-size: 20px; font-weight: bold; margin: 0;"">Is there a person in this image?</p>
                    </div>
                </div>","1","main_experiment_trial","4","animals_semantic","semantic_sequence_notimeline","chronological","","","","","","",""
"","","","","","html-keyboard-response","25","66984","0.0-25.0","dehkezwg49wzq9p","","","","null","
                <div class=""stimulus-container"">
                    <img src=""semantic_sequence_notimeline/animals_semantic/animals_semantic_5.png"" class=""exp-image"">
                    <div class=""question-area""></div> 
                </div>","null","","","","","","","","","","","",""
"","","","","","html-button-response","26","67508","0.0-26.0","dehkezwg49wzq9p","","","","522","
                <div class=""stimulus-container"">
                    <img src=""semantic_sequence_notimeline/animals_semantic/animals_semantic_5.png"" class=""exp-image"">
                    <div class=""question-area"">
                        <p style=""font-size: 20px; font-weight: bold; margin: 0;"">Is there a person in this image?</p>
                    </div>
                </div>","1","main_experiment_trial","5","animals_semantic","semantic_sequence_notimeline","chronological","","","","","","",""
"","","","","","html-keyboard-response","27","72521","0.0-27.0","dehkezwg49wzq9p","","","","null","
                <div class=""stimulus-container"">
                    <img src=""semantic_sequence_notimeline/animals_semantic/animals_semantic_6.png"" class=""exp-image"">
                    <div class=""question-area""></div> 
                </div>","null","","","","","","","","","","","",""
"","","","","","html-button-response","28","73452","0.0-28.0","dehkezwg49wzq9p","","","","930","
                <div class=""stimulus-container"">
                    <img src=""semantic_sequence_notimeline/animals_semantic/animals_semantic_6.png"" class=""exp-image"">
                    <div class=""question-area"">
                        <p style=""font-size: 20px; font-weight: bold; margin: 0;"">Is there a person in this image?</p>
                    </div>
                </div>","1","main_experiment_trial","6","animals_semantic","semantic_sequence_notimeline","chronological","","","","","","",""
"","","","","","html-keyboard-response","29","78462","0.0-29.0","dehkezwg49wzq9p","","","","null","
                <div class=""stimulus-container"">
                    <img src=""semantic_sequence_notimeline/animals_semantic/animals_semantic_7.png"" class=""exp-image"">
                    <div class=""question-area""></div> 
                </div>","null","","","","","","","","","","","",""
"","","","","","html-button-response","30","78956","0.0-30.0","dehkezwg49wzq9p","","","","493","
                <div class=""stimulus-container"">
                    <img src=""semantic_sequence_notimeline/animals_semantic/animals_semantic_7.png"" class=""exp-image"">
                    <div class=""question-area"">
                        <p style=""font-size: 20px; font-weight: bold; margin: 0;"">Is there a person in this image?</p>
                    </div>
                </div>","1","main_experiment_trial","7","animals_semantic","semantic_sequence_notimeline","chronological","","","","","","",""
"","","","","","html-keyboard-response","31","83969","0.0-31.0","dehkezwg49wzq9p","","","","null","
                <div class=""stimulus-container"">
                    <img src=""semantic_sequence_notimeline/animals_semantic/animals_semantic_8.png"" class=""exp-image"">
                    <div class=""question-area""></div> 
                </div>","null","","","","","","","","","","","",""
"","","","","","html-button-response","32","84508","0.0-32.0","dehkezwg49wzq9p","","","","538","
                <div class=""stimulus-container"">
                    <img src=""semantic_sequence_notimeline/animals_semantic/animals_semantic_8.png"" class=""exp-image"">
                    <div class=""question-area"">
                        <p style=""font-size: 20px; font-weight: bold; margin: 0;"">Is there a person in this image?</p>
                    </div>
                </div>","1","main_experiment_trial","8","animals_semantic","semantic_sequence_notimeline","chronological","","","","","","",""
"","","","","","html-keyboard-response","33","89517","0.0-33.0","dehkezwg49wzq9p","","","","null","
                <div class=""stimulus-container"">
                    <img src=""semantic_sequence_notimeline/animals_semantic/animals_semantic_9.png"" class=""exp-image"">
                    <div class=""question-area""></div> 
                </div>","null","","","","","","","","","","","",""
"","","","","","html-button-response","34","89972","0.0-34.0","dehkezwg49wzq9p","","","","454","
                <div class=""stimulus-container"">
                    <img src=""semantic_sequence_notimeline/animals_semantic/animals_semantic_9.png"" class=""exp-image"">
                    <div class=""question-area"">
                        <p style=""font-size: 20px; font-weight: bold; margin: 0;"">Is there a person in this image?</p>
                    </div>
                </div>","1","main_experiment_trial","9","animals_semantic","semantic_sequence_notimeline","chronological","","","","","","",""
"","","","","","html-keyboard-response","35","94980","0.0-35.0","dehkezwg49wzq9p","","","","null","
                <div class=""stimulus-container"">
                    <img src=""semantic_sequence_notimeline/animals_semantic/animals_semantic_ten.png"" class=""exp-image"">
                    <div class=""question-area""></div> 
                </div>","null","","","","","","","","","","","",""
"","","","","","html-button-response","36","95396","0.0-36.0","dehkezwg49wzq9p","","","","415","
                <div class=""stimulus-container"">
                    <img src=""semantic_sequence_notimeline/animals_semantic/animals_semantic_ten.png"" class=""exp-image"">
                    <div class=""question-area"">
                        <p style=""font-size: 20px; font-weight: bold; margin: 0;"">Is there a person in this image?</p>
                    </div>
                </div>","1","main_experiment_trial","ten","animals_semantic","semantic_sequence_notimeline","chronological","","","","","","",""
"","","","","","html-keyboard-response","37","100404","0.0-37.0","dehkezwg49wzq9p","","","","null","<div style=""background-color: white; width: 100vw; height: 100vh;""></div>","null","","","","","","","","","","","",""
"","","","","","html-keyboard-response","38","105413","0.0-38.0","dehkezwg49wzq9p","","","","null","
                <div class=""stimulus-container"">
                    <img src=""semantic_sequence_notimeline/household_objects_semantic/household_objects_semantic_1.png"" class=""exp-image"">
                    <div class=""question-area""></div> 
                </div>","null","","","","","","","","","","","",""
"","","","","","html-button-response","39","106077","0.0-39.0","dehkezwg49wzq9p","","","","663","
                <div class=""stimulus-container"">
                    <img src=""semantic_sequence_notimeline/household_objects_semantic/household_objects_semantic_1.png"" class=""exp-image"">
                    <div class=""question-area"">
                        <p style=""font-size: 20px; font-weight: bold; margin: 0;"">Is there a person in this image?</p>
                    </div>
                </div>","1","main_experiment_trial","1","household_objects_semantic","semantic_sequence_notimeline","chronological","","","","","","",""
"","","","","","html-keyboard-response","40","111081","0.0-40.0","dehkezwg49wzq9p","","","","null","
                <div class=""stimulus-container"">
                    <img src=""semantic_sequence_notimeline/household_objects_semantic/household_objects_semantic_2.png"" class=""exp-image"">
                    <div class=""question-area""></div> 
                </div>","null","","","","","","","","","","","",""
"","","","","","html-button-response","41","111781","0.0-41.0","dehkezwg49wzq9p","","","","698","
                <div class=""stimulus-container"">
                    <img src=""semantic_sequence_notimeline/household_objects_semantic/household_objects_semantic_2.png"" class=""exp-image"">
                    <div class=""question-area"">
                        <p style=""font-size: 20px; font-weight: bold; margin: 0;"">Is there a person in this image?</p>
                    </div>
                </div>","1","main_experiment_trial","2","household_objects_semantic","semantic_sequence_notimeline","chronological","","","","","","",""
"","","","","","html-keyboard-response","42","116790","0.0-42.0","dehkezwg49wzq9p","","","","null","
                <div class=""stimulus-container"">
                    <img src=""semantic_sequence_notimeline/household_objects_semantic/household_objects_semantic_3.png"" class=""exp-image"">
                    <div class=""question-area""></div> 
                </div>","null","","","","","","","","","","","",""
"","","","","","html-button-response","43","117413","0.0-43.0","dehkezwg49wzq9p","","","","622","
                <div class=""stimulus-container"">
                    <img src=""semantic_sequence_notimeline/household_objects_semantic/household_objects_semantic_3.png"" class=""exp-image"">
                    <div class=""question-area"">
                        <p style=""font-size: 20px; font-weight: bold; margin: 0;"">Is there a person in this image?</p>
                    </div>
                </div>","1","main_experiment_trial","3","household_objects_semantic","semantic_sequence_notimeline","chronological","","","","","","",""
"","","","","","html-keyboard-response","44","122419","0.0-44.0","dehkezwg49wzq9p","","","","null","
                <div class=""stimulus-container"">
                    <img src=""semantic_sequence_notimeline/household_objects_semantic/household_objects_semantic_4.png"" class=""exp-image"">
                    <div class=""question-area""></div> 
                </div>","null","","","","","","","","","","","",""
"","","","","","html-button-response","45","123253","0.0-45.0","dehkezwg49wzq9p","","","","833","
                <div class=""stimulus-container"">
                    <img src=""semantic_sequence_notimeline/household_objects_semantic/household_objects_semantic_4.png"" class=""exp-image"">
                    <div class=""question-area"">
                        <p style=""font-size: 20px; font-weight: bold; margin: 0;"">Is there a person in this image?</p>
                    </div>
                </div>","1","main_experiment_trial","4","household_objects_semantic","semantic_sequence_notimeline","chronological","","","","","","",""
"","","","","","html-keyboard-response","46","128260","0.0-46.0","dehkezwg49wzq9p","","","","null","
                <div class=""stimulus-container"">
                    <img src=""semantic_sequence_notimeline/household_objects_semantic/household_objects_semantic_5.png"" class=""exp-image"">
                    <div class=""question-area""></div> 
                </div>","null","","","","","","","","","","","",""
"","","","","","html-button-response","47","129581","0.0-47.0","dehkezwg49wzq9p","","","","1319","
                <div class=""stimulus-container"">
                    <img src=""semantic_sequence_notimeline/household_objects_semantic/household_objects_semantic_5.png"" class=""exp-image"">
                    <div class=""question-area"">
                        <p style=""font-size: 20px; font-weight: bold; margin: 0;"">Is there a person in this image?</p>
                    </div>
                </div>","1","main_experiment_trial","5","household_objects_semantic","semantic_sequence_notimeline","chronological","","","","","","",""
"","","","","","html-keyboard-response","48","134588","0.0-48.0","dehkezwg49wzq9p","","","","null","
                <div class=""stimulus-container"">
                    <img src=""semantic_sequence_notimeline/household_objects_semantic/household_objects_semantic_6.png"" class=""exp-image"">
                    <div class=""question-area""></div> 
                </div>","null","","","","","","","","","","","",""
"","","","","","html-button-response","49","135101","0.0-49.0","dehkezwg49wzq9p","","","","512","
                <div class=""stimulus-container"">
                    <img src=""semantic_sequence_notimeline/household_objects_semantic/household_objects_semantic_6.png"" class=""exp-image"">
                    <div class=""question-area"">
                        <p style=""font-size: 20px; font-weight: bold; margin: 0;"">Is there a person in this image?</p>
                    </div>
                </div>","1","main_experiment_trial","6","household_objects_semantic","semantic_sequence_notimeline","chronological","","","","","","",""
"","","","","","html-keyboard-response","50","140109","0.0-50.0","dehkezwg49wzq9p","","","","null","
                <div class=""stimulus-container"">
                    <img src=""semantic_sequence_notimeline/household_objects_semantic/household_objects_semantic_7.png"" class=""exp-image"">
                    <div class=""question-area""></div> 
                </div>","null","","","","","","","","","","","",""
"","","","","","html-button-response","51","140909","0.0-51.0","dehkezwg49wzq9p","","","","799","
                <div class=""stimulus-container"">
                    <img src=""semantic_sequence_notimeline/household_objects_semantic/household_objects_semantic_7.png"" class=""exp-image"">
                    <div class=""question-area"">
                        <p style=""font-size: 20px; font-weight: bold; margin: 0;"">Is there a person in this image?</p>
                    </div>
                </div>","1","main_experiment_trial","7","household_objects_semantic","semantic_sequence_notimeline","chronological","","","","","","",""
"","","","","","html-keyboard-response","52","145914","0.0-52.0","dehkezwg49wzq9p","","","","null","
                <div class=""stimulus-container"">
                    <img src=""semantic_sequence_notimeline/household_objects_semantic/household_objects_semantic_8.png"" class=""exp-image"">
                    <div class=""question-area""></div> 
                </div>","null","","","","","","","","","","","",""
"","","","","","html-button-response","53","146773","0.0-53.0","dehkezwg49wzq9p","","","","857","
                <div class=""stimulus-container"">
                    <img src=""semantic_sequence_notimeline/household_objects_semantic/household_objects_semantic_8.png"" class=""exp-image"">
                    <div class=""question-area"">
                        <p style=""font-size: 20px; font-weight: bold; margin: 0;"">Is there a person in this image?</p>
                    </div>
                </div>","1","main_experiment_trial","8","household_objects_semantic","semantic_sequence_notimeline","chronological","","","","","","",""
"","","","","","html-keyboard-response","54","151780","0.0-54.0","dehkezwg49wzq9p","","","","null","
                <div class=""stimulus-container"">
                    <img src=""semantic_sequence_notimeline/household_objects_semantic/household_objects_semantic_9.png"" class=""exp-image"">
                    <div class=""question-area""></div> 
                </div>","null","","","","","","","","","","","",""
"","","","","","html-button-response","55","152509","0.0-55.0","dehkezwg49wzq9p","","","","728","
                <div class=""stimulus-container"">
                    <img src=""semantic_sequence_notimeline/household_objects_semantic/household_objects_semantic_9.png"" class=""exp-image"">
                    <div class=""question-area"">
                        <p style=""font-size: 20px; font-weight: bold; margin: 0;"">Is there a person in this image?</p>
                    </div>
                </div>","1","main_experiment_trial","9","household_objects_semantic","semantic_sequence_notimeline","chronological","","","","","","",""
"","","","","","html-keyboard-response","56","157517","0.0-56.0","dehkezwg49wzq9p","","","","null","
                <div class=""stimulus-container"">
                    <img src=""semantic_sequence_notimeline/household_objects_semantic/household_objects_semantic_ten.png"" class=""exp-image"">
                    <div class=""question-area""></div> 
                </div>","null","","","","","","","","","","","",""
"","","","","","html-button-response","57","158261","0.0-57.0","dehkezwg49wzq9p","","","","744","
                <div class=""stimulus-container"">
                    <img src=""semantic_sequence_notimeline/household_objects_semantic/household_objects_semantic_ten.png"" class=""exp-image"">
                    <div class=""question-area"">
                        <p style=""font-size: 20px; font-weight: bold; margin: 0;"">Is there a person in this image?</p>
                    </div>
                </div>","1","main_experiment_trial","ten","household_objects_semantic","semantic_sequence_notimeline","chronological","","","","","","",""
"","","","","","instructions","58","163797","0.0-58.0","dehkezwg49wzq9p","","","[{""page_index"":0,""viewing_time"":5535}]","5535","","","","","","","","","","","","","",""
"","","","","","html-button-response","59","166197","0.0-59.0","dehkezwg49wzq9p","","","","2399","
            <div class=""stimulus-container"">
                <img src=""semantic_sequence_notimeline/household_objects_semantic/household_objects_semantic_4.png"" class=""exp-image"">
                <div class=""question-area"">
                    <p style=""font-size: 20px; font-weight: bold;"">Click the button to reveal the image value</p>
                </div>
            </div>","0","part2_active_reveal","","household_objects_semantic","","","","","","","","",""
"","","","","","html-keyboard-response","60","176205","0.0-60.0","dehkezwg49wzq9p","","","","null","
            <div class=""stimulus-container"" style=""display: flex; align-items: center; justify-content: center; gap: 40px;"">
                <img src=""semantic_sequence_notimeline/household_objects_semantic/household_objects_semantic_4.png"" class=""exp-image"">
                <div style=""text-align: center;"">
                    <img src=""images/gray.png"" style=""width: 150px; height: 150px; border: 5px solid grey; border-radius: 15px;"">
                    <p style=""color: grey; font-weight: bold; font-size: 28px; margin-top: 15px;"">NEUTRAL VALUE</p>
                </div>
            </div>","null","part2_value_learning","","household_objects_semantic","semantic_sequence_notimeline","","4","neutral","","","","",""
"","","","","","html-keyboard-response","61","181209","0.0-61.0","dehkezwg49wzq9p","","","","null","<div style=""background-color: white; width: 100vw; height: 100vh;""></div>","null","","","","","","","","","","","",""
"","","","","","html-button-response","62","186302","0.0-62.0","dehkezwg49wzq9p","","","","5092","
            <div class=""stimulus-container"">
                <img src=""semantic_sequence_notimeline/animals_semantic/animals_semantic_6.png"" class=""exp-image"">
                <div class=""question-area"">
                    <p style=""font-size: 20px; font-weight: bold;"">Click the button to reveal the image value</p>
                </div>
            </div>","0","part2_active_reveal","","animals_semantic","","","","","","","","",""
"","","","","","html-keyboard-response","63","196309","0.0-63.0","dehkezwg49wzq9p","","","","null","
            <div class=""stimulus-container"" style=""display: flex; align-items: center; justify-content: center; gap: 40px;"">
                <img src=""semantic_sequence_notimeline/animals_semantic/animals_semantic_6.png"" class=""exp-image"">
                <div style=""text-align: center;"">
                    <img src=""images/dollar.png"" style=""width: 150px; height: 150px; border: 5px solid green; border-radius: 15px;"">
                    <p style=""color: green; font-weight: bold; font-size: 28px; margin-top: 15px;"">WORTH MONEY</p>
                </div>
            </div>","null","part2_value_learning","","animals_semantic","semantic_sequence_notimeline","","6","valuable","","","","",""
"","","","","","html-keyboard-response","64","201321","0.0-64.0","dehkezwg49wzq9p","","","","null","<div style=""background-color: white; width: 100vw; height: 100vh;""></div>","null","","","","","","","","","","","",""
"","","","","","instructions","65","204566","0.0-65.0","dehkezwg49wzq9p","","","[{""page_index"":0,""viewing_time"":3244}]","3244","","","","","","","","","","","","","",""
"","","","","","html-keyboard-response","66","207575","0.0-66.0-0.0","dehkezwg49wzq9p","","","","null","
                            <div style=""font-family: Arial; margin-bottom: 20px;""><h3>Which image is worth <b>more money</b>?</h3></div>
                            <div class=""stimulus-container"" style=""display: flex; width: 800px; justify-content: center; gap: 30px;"">
                                <img src=""semantic_sequence_notimeline/household_objects_semantic/household_objects_semantic_6.png"" class=""small-image"">
                                <img src=""semantic_sequence_notimeline/household_objects_semantic/household_objects_semantic_2.png"" class=""small-image"">
                            </div>","null","","","","","","","","","","","",""
"","","","","","html-button-response","67","209182","0.0-66.0-1.0","dehkezwg49wzq9p","","","","1606","
                            <div style=""font-family: Arial; margin-bottom: 20px;""><h3>Which image is worth <b>more money</b>?</h3></div>
                            <div class=""stimulus-container"" style=""display: flex; width: 800px; justify-content: center; gap: 30px;"">
                                <img src=""semantic_sequence_notimeline/household_objects_semantic/household_objects_semantic_6.png"" class=""small-image"">
                                <img src=""semantic_sequence_notimeline/household_objects_semantic/household_objects_semantic_2.png"" class=""small-image"">
                            </div>","0","part3_choice_neighbors","","household_objects_semantic","semantic_sequence_notimeline","","","","2","4","6","1",""
"","","","","","html-keyboard-response","68","212190","0.0-67.0-0.0","dehkezwg49wzq9p","","","","null","
                            <div style=""font-family: Arial; margin-bottom: 20px;""><h3>Which image is worth <b>more money</b>?</h3></div>
                            <div class=""stimulus-container"" style=""display: flex; width: 800px; justify-content: center; gap: 30px;"">
                                <img src=""semantic_sequence_notimeline/animals_semantic/animals_semantic_9.png"" class=""small-image"">
                                <img src=""semantic_sequence_notimeline/animals_semantic/animals_semantic_3.png"" class=""small-image"">
                            </div>","null","","","","","","","","","","","",""
"","","","","","html-button-response","69","213054","0.0-67.0-1.0","dehkezwg49wzq9p","","","","863","
                            <div style=""font-family: Arial; margin-bottom: 20px;""><h3>Which image is worth <b>more money</b>?</h3></div>
                            <div class=""stimulus-container"" style=""display: flex; width: 800px; justify-content: center; gap: 30px;"">
                                <img src=""semantic_sequence_notimeline/animals_semantic/animals_semantic_9.png"" class=""small-image"">
                                <img src=""semantic_sequence_notimeline/animals_semantic/animals_semantic_3.png"" class=""small-image"">
                            </div>","1","part3_choice_neighbors","","animals_semantic","semantic_sequence_notimeline","","","","3","6","3","0",""
"","","","","","html-keyboard-response","70","216062","0.0-68.0-0.0","dehkezwg49wzq9p","","","","null","
                            <div style=""font-family: Arial; margin-bottom: 20px;""><h3>Which image is worth <b>more money</b>?</h3></div>
                            <div class=""stimulus-container"" style=""display: flex; width: 800px; justify-content: center; gap: 30px;"">
                                <img src=""semantic_sequence_notimeline/animals_semantic/animals_semantic_8.png"" class=""small-image"">
                                <img src=""semantic_sequence_notimeline/animals_semantic/animals_semantic_4.png"" class=""small-image"">
                            </div>","null","","","","","","","","","","","",""
"","","","","","html-button-response","71","216542","0.0-68.0-1.0","dehkezwg49wzq9p","","","","479","
                            <div style=""font-family: Arial; margin-bottom: 20px;""><h3>Which image is worth <b>more money</b>?</h3></div>
                            <div class=""stimulus-container"" style=""display: flex; width: 800px; justify-content: center; gap: 30px;"">
                                <img src=""semantic_sequence_notimeline/animals_semantic/animals_semantic_8.png"" class=""small-image"">
                                <img src=""semantic_sequence_notimeline/animals_semantic/animals_semantic_4.png"" class=""small-image"">
                            </div>","0","part3_choice_neighbors","","animals_semantic","semantic_sequence_notimeline","","","","2","6","8","1",""
"","","","","","html-keyboard-response","72","219545","0.0-69.0-0.0","dehkezwg49wzq9p","","","","null","<div style=""font-family: Arial; margin-bottom: 20px;""><h3>Which image is worth <b>more money?</h3></div>
                            <div class=""stimulus-container"" style=""display: flex; width: 800px; justify-content: center; gap: 30px;"">
                                <img src=""semantic_sequence_notimeline/household_objects_semantic/household_objects_semantic_4.png"" class=""small-image"">
                                <img src=""semantic_sequence_notimeline/animals_semantic/animals_semantic_6.png"" class=""small-image"">
                            </div>","null","","","","","","","","","","","",""
"","","","","","html-button-response","73","223734","0.0-69.0-1.0","dehkezwg49wzq9p","","","","4188","<div style=""font-family: Arial; margin-bottom: 20px;""><h3>Which image is worth <b>more money</b>?</h3></div>
                            <div class=""stimulus-container"" style=""display: flex; width: 800px; justify-content: center; gap: 30px;"">
                                <img src=""semantic_sequence_notimeline/household_objects_semantic/household_objects_semantic_4.png"" class=""small-image"">
                                <img src=""semantic_sequence_notimeline/animals_semantic/animals_semantic_6.png"" class=""small-image"">
                            </div>","1","part3_valuable_vs_neutral_direct","","","","","","","","","","","true"
"","","","","","html-keyboard-response","74","226744","0.0-70.0-0.0","dehkezwg49wzq9p","","","","null","
                            <div style=""font-family: Arial; margin-bottom: 20px;""><h3>Which image is worth <b>more money</b>?</h3></div>
                            <div class=""stimulus-container"" style=""display: flex; width: 800px; justify-content: center; gap: 30px;"">
                                <img src=""semantic_sequence_notimeline/household_objects_semantic/household_objects_semantic_5.png"" class=""small-image"">
                                <img src=""semantic_sequence_notimeline/household_objects_semantic/household_objects_semantic_3.png"" class=""small-image"">
                            </div>","null","","","","","","","","","","","",""
"","","","","","html-button-response","75","227398","0.0-70.0-1.0","dehkezwg49wzq9p","","","","654","
                            <div style=""font-family: Arial; margin-bottom: 20px;""><h3>Which image is worth <b>more money</b>?</h3></div>
                            <div class=""stimulus-container"" style=""display: flex; width: 800px; justify-content: center; gap: 30px;"">
                                <img src=""semantic_sequence_notimeline/household_objects_semantic/household_objects_semantic_5.png"" class=""small-image"">
                                <img src=""semantic_sequence_notimeline/household_objects_semantic/household_objects_semantic_3.png"" class=""small-image"">
                            </div>","1","part3_choice_neighbors","","household_objects_semantic","semantic_sequence_notimeline","","","","1","4","3","0",""
"","","","","","html-keyboard-response","76","230402","0.0-71.0-0.0","dehkezwg49wzq9p","","","","null","
                            <div style=""font-family: Arial; margin-bottom: 20px;""><h3>Which image is worth <b>more money</b>?</h3></div>
                            <div class=""stimulus-container"" style=""display: flex; width: 800px; justify-content: center; gap: 30px;"">
                                <img src=""semantic_sequence_notimeline/animals_semantic/animals_semantic_7.png"" class=""small-image"">
                                <img src=""semantic_sequence_notimeline/animals_semantic/animals_semantic_5.png"" class=""small-image"">
                            </div>","null","","","","","","","","","","","",""
"","","","","","html-button-response","77","230926","0.0-71.0-1.0","dehkezwg49wzq9p","","","","524","
                            <div style=""font-family: Arial; margin-bottom: 20px;""><h3>Which image is worth <b>more money</b>?</h3></div>
                            <div class=""stimulus-container"" style=""display: flex; width: 800px; justify-content: center; gap: 30px;"">
                                <img src=""semantic_sequence_notimeline/animals_semantic/animals_semantic_7.png"" class=""small-image"">
                                <img src=""semantic_sequence_notimeline/animals_semantic/animals_semantic_5.png"" class=""small-image"">
                            </div>","1","part3_choice_neighbors","","animals_semantic","semantic_sequence_notimeline","","","","1","6","5","0",""
"","","","","","html-keyboard-response","78","233934","0.0-72.0-0.0","dehkezwg49wzq9p","","","","null","
                            <div style=""font-family: Arial; margin-bottom: 20px;""><h3>Which image is worth <b>more money</b>?</h3></div>
                            <div class=""stimulus-container"" style=""display: flex; width: 800px; justify-content: center; gap: 30px;"">
                                <img src=""semantic_sequence_notimeline/household_objects_semantic/household_objects_semantic_1.png"" class=""small-image"">
                                <img src=""semantic_sequence_notimeline/household_objects_semantic/household_objects_semantic_7.png"" class=""small-image"">
                            </div>","null","","","","","","","","","","","",""
"","","","","","html-button-response","79","234350","0.0-72.0-1.0","dehkezwg49wzq9p","","","","416","
                            <div style=""font-family: Arial; margin-bottom: 20px;""><h3>Which image is worth <b>more money</b>?</h3></div>
                            <div class=""stimulus-container"" style=""display: flex; width: 800px; justify-content: center; gap: 30px;"">
                                <img src=""semantic_sequence_notimeline/household_objects_semantic/household_objects_semantic_1.png"" class=""small-image"">
                                <img src=""semantic_sequence_notimeline/household_objects_semantic/household_objects_semantic_7.png"" class=""small-image"">
                            </div>","1","part3_choice_neighbors","","household_objects_semantic","semantic_sequence_notimeline","","","","3","4","7","1",""
"","","","","","survey-text","80","240351","0.0-73.0","dehkezwg49wzq9p","","","","5993","","{""gender"":""e"",""age"":""e"",""decision_strategy"":""e"",""consistency_check"":""e""}","demographics_and_strategy","","","","","","","","","","",""
"","","","","","instructions","81","241478","0.0-74.0","dehkezwg49wzq9p","","","[{""page_index"":0,""viewing_time"":1125}]","1126","","","","","","","","","","","","","",""
