"success","timeout","failed_images","failed_audio","failed_video","trial_type","trial_index","time_elapsed","internal_node_id","subject_id","study_id","session_id","view_history","rt","stimulus","response","task","image_index","folder","sequence_type","valuable_image_index","reward_type","chosen_image_index","correct_choice"
"true","false","[]","[]","[]","preload","0","41348","0.0-0.0","586F38177DCB4BF3A602395132F6FD80","019cefb1-5bb0-7aa7-b4f6-89125156be7d","019cef87-c56d-7b55-9135-c5814367ec25","","","","","","","","","","","",""
"","","","","","instructions","1","47082","0.0-1.0","586F38177DCB4BF3A602395132F6FD80","019cefb1-5bb0-7aa7-b4f6-89125156be7d","019cef87-c56d-7b55-9135-c5814367ec25","[{""page_index"":0,""viewing_time"":5732}]","5733","","","","","","","","","",""
"","","","","","instructions","2","57163","0.0-2.0","586F38177DCB4BF3A602395132F6FD80","019cefb1-5bb0-7aa7-b4f6-89125156be7d","019cef87-c56d-7b55-9135-c5814367ec25","[{""page_index"":0,""viewing_time"":10080}]","10080","","","","","","","","","",""
"true","","","","","fullscreen","3","61799","0.0-3.0","586F38177DCB4BF3A602395132F6FD80","019cefb1-5bb0-7aa7-b4f6-89125156be7d","019cef87-c56d-7b55-9135-c5814367ec25","","3629","","","","","","","","","",""
"","","","","","instructions","4","127861","0.0-4.0","586F38177DCB4BF3A602395132F6FD80","019cefb1-5bb0-7aa7-b4f6-89125156be7d","019cef87-c56d-7b55-9135-c5814367ec25","[{""page_index"":0,""viewing_time"":66061}]","66062","","","","","","","","","",""
"","","","","","instructions","5","139906","0.0-5.0","586F38177DCB4BF3A602395132F6FD80","019cefb1-5bb0-7aa7-b4f6-89125156be7d","019cef87-c56d-7b55-9135-c5814367ec25","[{""page_index"":0,""viewing_time"":12044}]","12044","","","","","","","","","",""
"","","","","","html-keyboard-response","6","143919","0.0-6.0","586F38177DCB4BF3A602395132F6FD80","019cefb1-5bb0-7aa7-b4f6-89125156be7d","019cef87-c56d-7b55-9135-c5814367ec25","","null","
                <div class=""stimulus-container"">
                    <img src=""images/instructions/movie_1.png"" class=""exp-image"">
                    <div class=""question-area""></div> 
                </div>","null","","","","","","","",""
"","","","","","html-button-response","7","146322","0.0-7.0","586F38177DCB4BF3A602395132F6FD80","019cefb1-5bb0-7aa7-b4f6-89125156be7d","019cef87-c56d-7b55-9135-c5814367ec25","","2400","
                <div class=""stimulus-container"">
                    <img src=""images/instructions/movie_1.png"" class=""exp-image"">
                    <div class=""question-area"">
                        <p style=""font-size: 20px; font-weight: bold; margin: 0;"">Was there a person in this image?</p>
                    </div>
                </div>","0","example_question","1","","","","","",""
"","","","","","html-keyboard-response","8","150327","0.0-8.0","586F38177DCB4BF3A602395132F6FD80","019cefb1-5bb0-7aa7-b4f6-89125156be7d","019cef87-c56d-7b55-9135-c5814367ec25","","null","
                <div class=""stimulus-container"">
                    <img src=""images/instructions/movie_2.png"" class=""exp-image"">
                    <div class=""question-area""></div> 
                </div>","null","","","","","","","",""
"","","","","","html-button-response","9","151663","0.0-9.0","586F38177DCB4BF3A602395132F6FD80","019cefb1-5bb0-7aa7-b4f6-89125156be7d","019cef87-c56d-7b55-9135-c5814367ec25","","1334","
                <div class=""stimulus-container"">
                    <img src=""images/instructions/movie_2.png"" class=""exp-image"">
                    <div class=""question-area"">
                        <p style=""font-size: 20px; font-weight: bold; margin: 0;"">Was there a person in this image?</p>
                    </div>
                </div>","0","example_question","2","","","","","",""
"","","","","","html-keyboard-response","10","155666","0.0-10.0","586F38177DCB4BF3A602395132F6FD80","019cefb1-5bb0-7aa7-b4f6-89125156be7d","019cef87-c56d-7b55-9135-c5814367ec25","","null","
                <div class=""stimulus-container"">
                    <img src=""images/instructions/movie_3.png"" class=""exp-image"">
                    <div class=""question-area""></div> 
                </div>","null","","","","","","","",""
"","","","","","html-button-response","11","157088","0.0-11.0","586F38177DCB4BF3A602395132F6FD80","019cefb1-5bb0-7aa7-b4f6-89125156be7d","019cef87-c56d-7b55-9135-c5814367ec25","","1421","
                <div class=""stimulus-container"">
                    <img src=""images/instructions/movie_3.png"" class=""exp-image"">
                    <div class=""question-area"">
                        <p style=""font-size: 20px; font-weight: bold; margin: 0;"">Was there a person in this image?</p>
                    </div>
                </div>","0","example_question","3","","","","","",""
"","","","","","html-keyboard-response","12","161098","0.0-12.0","586F38177DCB4BF3A602395132F6FD80","019cefb1-5bb0-7aa7-b4f6-89125156be7d","019cef87-c56d-7b55-9135-c5814367ec25","","null","
                <div class=""stimulus-container"">
                    <img src=""images/instructions/movie_4.png"" class=""exp-image"">
                    <div class=""question-area""></div> 
                </div>","null","","","","","","","",""
"","","","","","html-button-response","13","161839","0.0-13.0","586F38177DCB4BF3A602395132F6FD80","019cefb1-5bb0-7aa7-b4f6-89125156be7d","019cef87-c56d-7b55-9135-c5814367ec25","","740","
                <div class=""stimulus-container"">
                    <img src=""images/instructions/movie_4.png"" class=""exp-image"">
                    <div class=""question-area"">
                        <p style=""font-size: 20px; font-weight: bold; margin: 0;"">Was there a person in this image?</p>
                    </div>
                </div>","0","example_question","4","","","","","",""
"","","","","","instructions","14","163628","0.0-14.0","586F38177DCB4BF3A602395132F6FD80","019cefb1-5bb0-7aa7-b4f6-89125156be7d","019cef87-c56d-7b55-9135-c5814367ec25","[{""page_index"":0,""viewing_time"":1788}]","1788","","","","","","","","","",""
"","","","","","instructions","15","198695","0.0-15.0","586F38177DCB4BF3A602395132F6FD80","019cefb1-5bb0-7aa7-b4f6-89125156be7d","019cef87-c56d-7b55-9135-c5814367ec25","[{""page_index"":0,""viewing_time"":35066}]","35067","","","","","","","","","",""
"","","","","","html-keyboard-response","16","199700","0.0-16.0","586F38177DCB4BF3A602395132F6FD80","019cefb1-5bb0-7aa7-b4f6-89125156be7d","019cef87-c56d-7b55-9135-c5814367ec25","","null","<div style=""background-color: white; width: 100vw; height: 100vh;""></div>","null","","","","","","","",""
"","","","","","html-keyboard-response","17","204703","0.0-17.0","586F38177DCB4BF3A602395132F6FD80","019cefb1-5bb0-7aa7-b4f6-89125156be7d","019cef87-c56d-7b55-9135-c5814367ec25","","null","
                <div class=""stimulus-container"">
                    <img src=""images/causal_sequence/museum_causal/museum_causal_1.png"" class=""exp-image"">
                    <div class=""question-area""></div> 
                </div>","null","","","","","","","",""
"","","","","","html-button-response","18","206132","0.0-18.0","586F38177DCB4BF3A602395132F6FD80","019cefb1-5bb0-7aa7-b4f6-89125156be7d","019cef87-c56d-7b55-9135-c5814367ec25","","1427","
                <div class=""stimulus-container"">
                    <img src=""images/causal_sequence/museum_causal/museum_causal_1.png"" class=""exp-image"">
                    <div class=""question-area"">
                        <p style=""font-size: 20px; font-weight: bold; margin: 0;"">Is there a person in this image?</p>
                    </div>
                </div>","0","main_experiment_trial","1","museum_causal","causal_sequence","","","",""
"","","","","","html-keyboard-response","19","211148","0.0-19.0","586F38177DCB4BF3A602395132F6FD80","019cefb1-5bb0-7aa7-b4f6-89125156be7d","019cef87-c56d-7b55-9135-c5814367ec25","","null","
                <div class=""stimulus-container"">
                    <img src=""images/causal_sequence/museum_causal/museum_causal_2.png"" class=""exp-image"">
                    <div class=""question-area""></div> 
                </div>","null","","","","","","","",""
"","","","","","html-button-response","20","212295","0.0-20.0","586F38177DCB4BF3A602395132F6FD80","019cefb1-5bb0-7aa7-b4f6-89125156be7d","019cef87-c56d-7b55-9135-c5814367ec25","","1145","
                <div class=""stimulus-container"">
                    <img src=""images/causal_sequence/museum_causal/museum_causal_2.png"" class=""exp-image"">
                    <div class=""question-area"">
                        <p style=""font-size: 20px; font-weight: bold; margin: 0;"">Is there a person in this image?</p>
                    </div>
                </div>","0","main_experiment_trial","2","museum_causal","causal_sequence","","","",""
"","","","","","html-keyboard-response","21","217306","0.0-21.0","586F38177DCB4BF3A602395132F6FD80","019cefb1-5bb0-7aa7-b4f6-89125156be7d","019cef87-c56d-7b55-9135-c5814367ec25","","null","
                <div class=""stimulus-container"">
                    <img src=""images/causal_sequence/museum_causal/museum_causal_3.png"" class=""exp-image"">
                    <div class=""question-area""></div> 
                </div>","null","","","","","","","",""
"","","","","","html-button-response","22","219632","0.0-22.0","586F38177DCB4BF3A602395132F6FD80","019cefb1-5bb0-7aa7-b4f6-89125156be7d","019cef87-c56d-7b55-9135-c5814367ec25","","2325","
                <div class=""stimulus-container"">
                    <img src=""images/causal_sequence/museum_causal/museum_causal_3.png"" class=""exp-image"">
                    <div class=""question-area"">
                        <p style=""font-size: 20px; font-weight: bold; margin: 0;"">Is there a person in this image?</p>
                    </div>
                </div>","0","main_experiment_trial","3","museum_causal","causal_sequence","","","",""
"","","","","","html-keyboard-response","23","224635","0.0-23.0","586F38177DCB4BF3A602395132F6FD80","019cefb1-5bb0-7aa7-b4f6-89125156be7d","019cef87-c56d-7b55-9135-c5814367ec25","","null","
                <div class=""stimulus-container"">
                    <img src=""images/causal_sequence/museum_causal/museum_causal_4.png"" class=""exp-image"">
                    <div class=""question-area""></div> 
                </div>","null","","","","","","","",""
"","","","","","html-button-response","24","226150","0.0-24.0","586F38177DCB4BF3A602395132F6FD80","019cefb1-5bb0-7aa7-b4f6-89125156be7d","019cef87-c56d-7b55-9135-c5814367ec25","","1514","
                <div class=""stimulus-container"">
                    <img src=""images/causal_sequence/museum_causal/museum_causal_4.png"" class=""exp-image"">
                    <div class=""question-area"">
                        <p style=""font-size: 20px; font-weight: bold; margin: 0;"">Is there a person in this image?</p>
                    </div>
                </div>","1","main_experiment_trial","4","museum_causal","causal_sequence","","","",""
"","","","","","html-keyboard-response","25","231158","0.0-25.0","586F38177DCB4BF3A602395132F6FD80","019cefb1-5bb0-7aa7-b4f6-89125156be7d","019cef87-c56d-7b55-9135-c5814367ec25","","null","
                <div class=""stimulus-container"">
                    <img src=""images/causal_sequence/museum_causal/museum_causal_5.png"" class=""exp-image"">
                    <div class=""question-area""></div> 
                </div>","null","","","","","","","",""
"","","","","","html-button-response","26","232153","0.0-26.0","586F38177DCB4BF3A602395132F6FD80","019cefb1-5bb0-7aa7-b4f6-89125156be7d","019cef87-c56d-7b55-9135-c5814367ec25","","993","
                <div class=""stimulus-container"">
                    <img src=""images/causal_sequence/museum_causal/museum_causal_5.png"" class=""exp-image"">
                    <div class=""question-area"">
                        <p style=""font-size: 20px; font-weight: bold; margin: 0;"">Is there a person in this image?</p>
                    </div>
                </div>","0","main_experiment_trial","5","museum_causal","causal_sequence","","","",""
"","","","","","html-keyboard-response","27","237160","0.0-27.0","586F38177DCB4BF3A602395132F6FD80","019cefb1-5bb0-7aa7-b4f6-89125156be7d","019cef87-c56d-7b55-9135-c5814367ec25","","null","
                <div class=""stimulus-container"">
                    <img src=""images/causal_sequence/museum_causal/museum_causal_6.png"" class=""exp-image"">
                    <div class=""question-area""></div> 
                </div>","null","","","","","","","",""
"","","","","","html-button-response","28","238188","0.0-28.0","586F38177DCB4BF3A602395132F6FD80","019cefb1-5bb0-7aa7-b4f6-89125156be7d","019cef87-c56d-7b55-9135-c5814367ec25","","1027","
                <div class=""stimulus-container"">
                    <img src=""images/causal_sequence/museum_causal/museum_causal_6.png"" class=""exp-image"">
                    <div class=""question-area"">
                        <p style=""font-size: 20px; font-weight: bold; margin: 0;"">Is there a person in this image?</p>
                    </div>
                </div>","0","main_experiment_trial","6","museum_causal","causal_sequence","","","",""
"","","","","","html-keyboard-response","29","243205","0.0-29.0","586F38177DCB4BF3A602395132F6FD80","019cefb1-5bb0-7aa7-b4f6-89125156be7d","019cef87-c56d-7b55-9135-c5814367ec25","","null","
                <div class=""stimulus-container"">
                    <img src=""images/causal_sequence/museum_causal/museum_causal_7.png"" class=""exp-image"">
                    <div class=""question-area""></div> 
                </div>","null","","","","","","","",""
"","","","","","html-button-response","30","244451","0.0-30.0","586F38177DCB4BF3A602395132F6FD80","019cefb1-5bb0-7aa7-b4f6-89125156be7d","019cef87-c56d-7b55-9135-c5814367ec25","","1245","
                <div class=""stimulus-container"">
                    <img src=""images/causal_sequence/museum_causal/museum_causal_7.png"" class=""exp-image"">
                    <div class=""question-area"">
                        <p style=""font-size: 20px; font-weight: bold; margin: 0;"">Is there a person in this image?</p>
                    </div>
                </div>","1","main_experiment_trial","7","museum_causal","causal_sequence","","","",""
"","","","","","html-keyboard-response","31","249456","0.0-31.0","586F38177DCB4BF3A602395132F6FD80","019cefb1-5bb0-7aa7-b4f6-89125156be7d","019cef87-c56d-7b55-9135-c5814367ec25","","null","
                <div class=""stimulus-container"">
                    <img src=""images/causal_sequence/museum_causal/museum_causal_8.png"" class=""exp-image"">
                    <div class=""question-area""></div> 
                </div>","null","","","","","","","",""
"","","","","","html-button-response","32","250671","0.0-32.0","586F38177DCB4BF3A602395132F6FD80","019cefb1-5bb0-7aa7-b4f6-89125156be7d","019cef87-c56d-7b55-9135-c5814367ec25","","1214","
                <div class=""stimulus-container"">
                    <img src=""images/causal_sequence/museum_causal/museum_causal_8.png"" class=""exp-image"">
                    <div class=""question-area"">
                        <p style=""font-size: 20px; font-weight: bold; margin: 0;"">Is there a person in this image?</p>
                    </div>
                </div>","0","main_experiment_trial","8","museum_causal","causal_sequence","","","",""
"","","","","","html-keyboard-response","33","255675","0.0-33.0","586F38177DCB4BF3A602395132F6FD80","019cefb1-5bb0-7aa7-b4f6-89125156be7d","019cef87-c56d-7b55-9135-c5814367ec25","","null","
                <div class=""stimulus-container"">
                    <img src=""images/causal_sequence/museum_causal/museum_causal_9.png"" class=""exp-image"">
                    <div class=""question-area""></div> 
                </div>","null","","","","","","","",""
"","","","","","html-button-response","34","257585","0.0-34.0","586F38177DCB4BF3A602395132F6FD80","019cefb1-5bb0-7aa7-b4f6-89125156be7d","019cef87-c56d-7b55-9135-c5814367ec25","","1909","
                <div class=""stimulus-container"">
                    <img src=""images/causal_sequence/museum_causal/museum_causal_9.png"" class=""exp-image"">
                    <div class=""question-area"">
                        <p style=""font-size: 20px; font-weight: bold; margin: 0;"">Is there a person in this image?</p>
                    </div>
                </div>","1","main_experiment_trial","9","museum_causal","causal_sequence","","","",""
"","","","","","html-keyboard-response","35","262590","0.0-35.0","586F38177DCB4BF3A602395132F6FD80","019cefb1-5bb0-7aa7-b4f6-89125156be7d","019cef87-c56d-7b55-9135-c5814367ec25","","null","
                <div class=""stimulus-container"">
                    <img src=""images/causal_sequence/museum_causal/museum_causal_ten.png"" class=""exp-image"">
                    <div class=""question-area""></div> 
                </div>","null","","","","","","","",""
"","","","","","html-button-response","36","263589","0.0-36.0","586F38177DCB4BF3A602395132F6FD80","019cefb1-5bb0-7aa7-b4f6-89125156be7d","019cef87-c56d-7b55-9135-c5814367ec25","","998","
                <div class=""stimulus-container"">
                    <img src=""images/causal_sequence/museum_causal/museum_causal_ten.png"" class=""exp-image"">
                    <div class=""question-area"">
                        <p style=""font-size: 20px; font-weight: bold; margin: 0;"">Is there a person in this image?</p>
                    </div>
                </div>","0","main_experiment_trial","ten","museum_causal","causal_sequence","","","",""
"","","","","","html-keyboard-response","37","264602","0.0-37.0","586F38177DCB4BF3A602395132F6FD80","019cefb1-5bb0-7aa7-b4f6-89125156be7d","019cef87-c56d-7b55-9135-c5814367ec25","","null","<div style=""background-color: white; width: 100vw; height: 100vh;""></div>","null","","","","","","","",""
"","","","","","html-keyboard-response","38","269611","0.0-38.0","586F38177DCB4BF3A602395132F6FD80","019cefb1-5bb0-7aa7-b4f6-89125156be7d","019cef87-c56d-7b55-9135-c5814367ec25","","null","
                <div class=""stimulus-container"">
                    <img src=""images/schematic_sequence/dinner_party_scheme/dinner_party_scheme_1.png"" class=""exp-image"">
                    <div class=""question-area""></div> 
                </div>","null","","","","","","","",""
"","","","","","html-button-response","39","271953","0.0-39.0","586F38177DCB4BF3A602395132F6FD80","019cefb1-5bb0-7aa7-b4f6-89125156be7d","019cef87-c56d-7b55-9135-c5814367ec25","","2341","
                <div class=""stimulus-container"">
                    <img src=""images/schematic_sequence/dinner_party_scheme/dinner_party_scheme_1.png"" class=""exp-image"">
                    <div class=""question-area"">
                        <p style=""font-size: 20px; font-weight: bold; margin: 0;"">Is there a person in this image?</p>
                    </div>
                </div>","0","main_experiment_trial","1","dinner_party_scheme","schematic_sequence","","","",""
"","","","","","html-keyboard-response","40","276965","0.0-40.0","586F38177DCB4BF3A602395132F6FD80","019cefb1-5bb0-7aa7-b4f6-89125156be7d","019cef87-c56d-7b55-9135-c5814367ec25","","null","
                <div class=""stimulus-container"">
                    <img src=""images/schematic_sequence/dinner_party_scheme/dinner_party_scheme_2.png"" class=""exp-image"">
                    <div class=""question-area""></div> 
                </div>","null","","","","","","","",""
"","","","","","html-button-response","41","279113","0.0-41.0","586F38177DCB4BF3A602395132F6FD80","019cefb1-5bb0-7aa7-b4f6-89125156be7d","019cef87-c56d-7b55-9135-c5814367ec25","","2146","
                <div class=""stimulus-container"">
                    <img src=""images/schematic_sequence/dinner_party_scheme/dinner_party_scheme_2.png"" class=""exp-image"">
                    <div class=""question-area"">
                        <p style=""font-size: 20px; font-weight: bold; margin: 0;"">Is there a person in this image?</p>
                    </div>
                </div>","0","main_experiment_trial","2","dinner_party_scheme","schematic_sequence","","","",""
"","","","","","html-keyboard-response","42","284121","0.0-42.0","586F38177DCB4BF3A602395132F6FD80","019cefb1-5bb0-7aa7-b4f6-89125156be7d","019cef87-c56d-7b55-9135-c5814367ec25","","null","
                <div class=""stimulus-container"">
                    <img src=""images/schematic_sequence/dinner_party_scheme/dinner_party_scheme_3.png"" class=""exp-image"">
                    <div class=""question-area""></div> 
                </div>","null","","","","","","","",""
"","","","","","html-button-response","43","285618","0.0-43.0","586F38177DCB4BF3A602395132F6FD80","019cefb1-5bb0-7aa7-b4f6-89125156be7d","019cef87-c56d-7b55-9135-c5814367ec25","","1497","
                <div class=""stimulus-container"">
                    <img src=""images/schematic_sequence/dinner_party_scheme/dinner_party_scheme_3.png"" class=""exp-image"">
                    <div class=""question-area"">
                        <p style=""font-size: 20px; font-weight: bold; margin: 0;"">Is there a person in this image?</p>
                    </div>
                </div>","0","main_experiment_trial","3","dinner_party_scheme","schematic_sequence","","","",""
"","","","","","html-keyboard-response","44","290630","0.0-44.0","586F38177DCB4BF3A602395132F6FD80","019cefb1-5bb0-7aa7-b4f6-89125156be7d","019cef87-c56d-7b55-9135-c5814367ec25","","null","
                <div class=""stimulus-container"">
                    <img src=""images/schematic_sequence/dinner_party_scheme/dinner_party_scheme_4.png"" class=""exp-image"">
                    <div class=""question-area""></div> 
                </div>","null","","","","","","","",""
"","","","","","html-button-response","45","291835","0.0-45.0","586F38177DCB4BF3A602395132F6FD80","019cefb1-5bb0-7aa7-b4f6-89125156be7d","019cef87-c56d-7b55-9135-c5814367ec25","","1203","
                <div class=""stimulus-container"">
                    <img src=""images/schematic_sequence/dinner_party_scheme/dinner_party_scheme_4.png"" class=""exp-image"">
                    <div class=""question-area"">
                        <p style=""font-size: 20px; font-weight: bold; margin: 0;"">Is there a person in this image?</p>
                    </div>
                </div>","0","main_experiment_trial","4","dinner_party_scheme","schematic_sequence","","","",""
"","","","","","html-keyboard-response","46","296847","0.0-46.0","586F38177DCB4BF3A602395132F6FD80","019cefb1-5bb0-7aa7-b4f6-89125156be7d","019cef87-c56d-7b55-9135-c5814367ec25","","null","
                <div class=""stimulus-container"">
                    <img src=""images/schematic_sequence/dinner_party_scheme/dinner_party_scheme_5.png"" class=""exp-image"">
                    <div class=""question-area""></div> 
                </div>","null","","","","","","","",""
"","","","","","html-button-response","47","297687","0.0-47.0","586F38177DCB4BF3A602395132F6FD80","019cefb1-5bb0-7aa7-b4f6-89125156be7d","019cef87-c56d-7b55-9135-c5814367ec25","","838","
                <div class=""stimulus-container"">
                    <img src=""images/schematic_sequence/dinner_party_scheme/dinner_party_scheme_5.png"" class=""exp-image"">
                    <div class=""question-area"">
                        <p style=""font-size: 20px; font-weight: bold; margin: 0;"">Is there a person in this image?</p>
                    </div>
                </div>","0","main_experiment_trial","5","dinner_party_scheme","schematic_sequence","","","",""
"","","","","","html-keyboard-response","48","302689","0.0-48.0","586F38177DCB4BF3A602395132F6FD80","019cefb1-5bb0-7aa7-b4f6-89125156be7d","019cef87-c56d-7b55-9135-c5814367ec25","","null","
                <div class=""stimulus-container"">
                    <img src=""images/schematic_sequence/dinner_party_scheme/dinner_party_scheme_6.png"" class=""exp-image"">
                    <div class=""question-area""></div> 
                </div>","null","","","","","","","",""
"","","","","","html-button-response","49","303445","0.0-49.0","586F38177DCB4BF3A602395132F6FD80","019cefb1-5bb0-7aa7-b4f6-89125156be7d","019cef87-c56d-7b55-9135-c5814367ec25","","755","
                <div class=""stimulus-container"">
                    <img src=""images/schematic_sequence/dinner_party_scheme/dinner_party_scheme_6.png"" class=""exp-image"">
                    <div class=""question-area"">
                        <p style=""font-size: 20px; font-weight: bold; margin: 0;"">Is there a person in this image?</p>
                    </div>
                </div>","0","main_experiment_trial","6","dinner_party_scheme","schematic_sequence","","","",""
"","","","","","html-keyboard-response","50","308447","0.0-50.0","586F38177DCB4BF3A602395132F6FD80","019cefb1-5bb0-7aa7-b4f6-89125156be7d","019cef87-c56d-7b55-9135-c5814367ec25","","null","
                <div class=""stimulus-container"">
                    <img src=""images/schematic_sequence/dinner_party_scheme/dinner_party_scheme_7.png"" class=""exp-image"">
                    <div class=""question-area""></div> 
                </div>","null","","","","","","","",""
"","","","","","html-button-response","51","310185","0.0-51.0","586F38177DCB4BF3A602395132F6FD80","019cefb1-5bb0-7aa7-b4f6-89125156be7d","019cef87-c56d-7b55-9135-c5814367ec25","","1737","
                <div class=""stimulus-container"">
                    <img src=""images/schematic_sequence/dinner_party_scheme/dinner_party_scheme_7.png"" class=""exp-image"">
                    <div class=""question-area"">
                        <p style=""font-size: 20px; font-weight: bold; margin: 0;"">Is there a person in this image?</p>
                    </div>
                </div>","0","main_experiment_trial","7","dinner_party_scheme","schematic_sequence","","","",""
"","","","","","html-keyboard-response","52","315190","0.0-52.0","586F38177DCB4BF3A602395132F6FD80","019cefb1-5bb0-7aa7-b4f6-89125156be7d","019cef87-c56d-7b55-9135-c5814367ec25","","null","
                <div class=""stimulus-container"">
                    <img src=""images/schematic_sequence/dinner_party_scheme/dinner_party_scheme_8.png"" class=""exp-image"">
                    <div class=""question-area""></div> 
                </div>","null","","","","","","","",""
"","","","","","html-button-response","53","316269","0.0-53.0","586F38177DCB4BF3A602395132F6FD80","019cefb1-5bb0-7aa7-b4f6-89125156be7d","019cef87-c56d-7b55-9135-c5814367ec25","","1077","
                <div class=""stimulus-container"">
                    <img src=""images/schematic_sequence/dinner_party_scheme/dinner_party_scheme_8.png"" class=""exp-image"">
                    <div class=""question-area"">
                        <p style=""font-size: 20px; font-weight: bold; margin: 0;"">Is there a person in this image?</p>
                    </div>
                </div>","0","main_experiment_trial","8","dinner_party_scheme","schematic_sequence","","","",""
"","","","","","html-keyboard-response","54","321280","0.0-54.0","586F38177DCB4BF3A602395132F6FD80","019cefb1-5bb0-7aa7-b4f6-89125156be7d","019cef87-c56d-7b55-9135-c5814367ec25","","null","
                <div class=""stimulus-container"">
                    <img src=""images/schematic_sequence/dinner_party_scheme/dinner_party_scheme_9.png"" class=""exp-image"">
                    <div class=""question-area""></div> 
                </div>","null","","","","","","","",""
"","","","","","html-button-response","55","323063","0.0-55.0","586F38177DCB4BF3A602395132F6FD80","019cefb1-5bb0-7aa7-b4f6-89125156be7d","019cef87-c56d-7b55-9135-c5814367ec25","","1782","
                <div class=""stimulus-container"">
                    <img src=""images/schematic_sequence/dinner_party_scheme/dinner_party_scheme_9.png"" class=""exp-image"">
                    <div class=""question-area"">
                        <p style=""font-size: 20px; font-weight: bold; margin: 0;"">Is there a person in this image?</p>
                    </div>
                </div>","0","main_experiment_trial","9","dinner_party_scheme","schematic_sequence","","","",""
"","","","","","html-keyboard-response","56","328072","0.0-56.0","586F38177DCB4BF3A602395132F6FD80","019cefb1-5bb0-7aa7-b4f6-89125156be7d","019cef87-c56d-7b55-9135-c5814367ec25","","null","
                <div class=""stimulus-container"">
                    <img src=""images/schematic_sequence/dinner_party_scheme/dinner_party_scheme_ten.png"" class=""exp-image"">
                    <div class=""question-area""></div> 
                </div>","null","","","","","","","",""
"","","","","","html-button-response","57","328663","0.0-57.0","586F38177DCB4BF3A602395132F6FD80","019cefb1-5bb0-7aa7-b4f6-89125156be7d","019cef87-c56d-7b55-9135-c5814367ec25","","590","
                <div class=""stimulus-container"">
                    <img src=""images/schematic_sequence/dinner_party_scheme/dinner_party_scheme_ten.png"" class=""exp-image"">
                    <div class=""question-area"">
                        <p style=""font-size: 20px; font-weight: bold; margin: 0;"">Is there a person in this image?</p>
                    </div>
                </div>","0","main_experiment_trial","ten","dinner_party_scheme","schematic_sequence","","","",""
"","","","","","html-keyboard-response","58","329674","0.0-58.0","586F38177DCB4BF3A602395132F6FD80","019cefb1-5bb0-7aa7-b4f6-89125156be7d","019cef87-c56d-7b55-9135-c5814367ec25","","null","<div style=""background-color: white; width: 100vw; height: 100vh;""></div>","null","","","","","","","",""
"","","","","","html-keyboard-response","59","334685","0.0-59.0","586F38177DCB4BF3A602395132F6FD80","019cefb1-5bb0-7aa7-b4f6-89125156be7d","019cef87-c56d-7b55-9135-c5814367ec25","","null","
                <div class=""stimulus-container"">
                    <img src=""images/causal_sequence/coin_causal/coin_causal_1.png"" class=""exp-image"">
                    <div class=""question-area""></div> 
                </div>","null","","","","","","","",""
"","","","","","html-button-response","60","335298","0.0-60.0","586F38177DCB4BF3A602395132F6FD80","019cefb1-5bb0-7aa7-b4f6-89125156be7d","019cef87-c56d-7b55-9135-c5814367ec25","","612","
                <div class=""stimulus-container"">
                    <img src=""images/causal_sequence/coin_causal/coin_causal_1.png"" class=""exp-image"">
                    <div class=""question-area"">
                        <p style=""font-size: 20px; font-weight: bold; margin: 0;"">Is there a person in this image?</p>
                    </div>
                </div>","0","main_experiment_trial","1","coin_causal","causal_sequence","","","",""
"","","","","","html-keyboard-response","61","340300","0.0-61.0","586F38177DCB4BF3A602395132F6FD80","019cefb1-5bb0-7aa7-b4f6-89125156be7d","019cef87-c56d-7b55-9135-c5814367ec25","","null","
                <div class=""stimulus-container"">
                    <img src=""images/causal_sequence/coin_causal/coin_causal_2.png"" class=""exp-image"">
                    <div class=""question-area""></div> 
                </div>","null","","","","","","","",""
"","","","","","html-button-response","62","341025","0.0-62.0","586F38177DCB4BF3A602395132F6FD80","019cefb1-5bb0-7aa7-b4f6-89125156be7d","019cef87-c56d-7b55-9135-c5814367ec25","","724","
                <div class=""stimulus-container"">
                    <img src=""images/causal_sequence/coin_causal/coin_causal_2.png"" class=""exp-image"">
                    <div class=""question-area"">
                        <p style=""font-size: 20px; font-weight: bold; margin: 0;"">Is there a person in this image?</p>
                    </div>
                </div>","0","main_experiment_trial","2","coin_causal","causal_sequence","","","",""
"","","","","","html-keyboard-response","63","346039","0.0-63.0","586F38177DCB4BF3A602395132F6FD80","019cefb1-5bb0-7aa7-b4f6-89125156be7d","019cef87-c56d-7b55-9135-c5814367ec25","","null","
                <div class=""stimulus-container"">
                    <img src=""images/causal_sequence/coin_causal/coin_causal_3.png"" class=""exp-image"">
                    <div class=""question-area""></div> 
                </div>","null","","","","","","","",""
"","","","","","html-button-response","64","346694","0.0-64.0","586F38177DCB4BF3A602395132F6FD80","019cefb1-5bb0-7aa7-b4f6-89125156be7d","019cef87-c56d-7b55-9135-c5814367ec25","","654","
                <div class=""stimulus-container"">
                    <img src=""images/causal_sequence/coin_causal/coin_causal_3.png"" class=""exp-image"">
                    <div class=""question-area"">
                        <p style=""font-size: 20px; font-weight: bold; margin: 0;"">Is there a person in this image?</p>
                    </div>
                </div>","0","main_experiment_trial","3","coin_causal","causal_sequence","","","",""
"","","","","","html-keyboard-response","65","351696","0.0-65.0","586F38177DCB4BF3A602395132F6FD80","019cefb1-5bb0-7aa7-b4f6-89125156be7d","019cef87-c56d-7b55-9135-c5814367ec25","","null","
                <div class=""stimulus-container"">
                    <img src=""images/causal_sequence/coin_causal/coin_causal_4.png"" class=""exp-image"">
                    <div class=""question-area""></div> 
                </div>","null","","","","","","","",""
"","","","","","html-button-response","66","352425","0.0-66.0","586F38177DCB4BF3A602395132F6FD80","019cefb1-5bb0-7aa7-b4f6-89125156be7d","019cef87-c56d-7b55-9135-c5814367ec25","","728","
                <div class=""stimulus-container"">
                    <img src=""images/causal_sequence/coin_causal/coin_causal_4.png"" class=""exp-image"">
                    <div class=""question-area"">
                        <p style=""font-size: 20px; font-weight: bold; margin: 0;"">Is there a person in this image?</p>
                    </div>
                </div>","0","main_experiment_trial","4","coin_causal","causal_sequence","","","",""
"","","","","","html-keyboard-response","67","357438","0.0-67.0","586F38177DCB4BF3A602395132F6FD80","019cefb1-5bb0-7aa7-b4f6-89125156be7d","019cef87-c56d-7b55-9135-c5814367ec25","","null","
                <div class=""stimulus-container"">
                    <img src=""images/causal_sequence/coin_causal/coin_causal_5.png"" class=""exp-image"">
                    <div class=""question-area""></div> 
                </div>","null","","","","","","","",""
"","","","","","html-button-response","68","358217","0.0-68.0","586F38177DCB4BF3A602395132F6FD80","019cefb1-5bb0-7aa7-b4f6-89125156be7d","019cef87-c56d-7b55-9135-c5814367ec25","","778","
                <div class=""stimulus-container"">
                    <img src=""images/causal_sequence/coin_causal/coin_causal_5.png"" class=""exp-image"">
                    <div class=""question-area"">
                        <p style=""font-size: 20px; font-weight: bold; margin: 0;"">Is there a person in this image?</p>
                    </div>
                </div>","0","main_experiment_trial","5","coin_causal","causal_sequence","","","",""
"","","","","","html-keyboard-response","69","363219","0.0-69.0","586F38177DCB4BF3A602395132F6FD80","019cefb1-5bb0-7aa7-b4f6-89125156be7d","019cef87-c56d-7b55-9135-c5814367ec25","","null","
                <div class=""stimulus-container"">
                    <img src=""images/causal_sequence/coin_causal/coin_causal_6.png"" class=""exp-image"">
                    <div class=""question-area""></div> 
                </div>","null","","","","","","","",""
"","","","","","html-button-response","70","363973","0.0-70.0","586F38177DCB4BF3A602395132F6FD80","019cefb1-5bb0-7aa7-b4f6-89125156be7d","019cef87-c56d-7b55-9135-c5814367ec25","","753","
                <div class=""stimulus-container"">
                    <img src=""images/causal_sequence/coin_causal/coin_causal_6.png"" class=""exp-image"">
                    <div class=""question-area"">
                        <p style=""font-size: 20px; font-weight: bold; margin: 0;"">Is there a person in this image?</p>
                    </div>
                </div>","0","main_experiment_trial","6","coin_causal","causal_sequence","","","",""
"","","","","","html-keyboard-response","71","368986","0.0-71.0","586F38177DCB4BF3A602395132F6FD80","019cefb1-5bb0-7aa7-b4f6-89125156be7d","019cef87-c56d-7b55-9135-c5814367ec25","","null","
                <div class=""stimulus-container"">
                    <img src=""images/causal_sequence/coin_causal/coin_causal_7.png"" class=""exp-image"">
                    <div class=""question-area""></div> 
                </div>","null","","","","","","","",""
"","","","","","html-button-response","72","370790","0.0-72.0","586F38177DCB4BF3A602395132F6FD80","019cefb1-5bb0-7aa7-b4f6-89125156be7d","019cef87-c56d-7b55-9135-c5814367ec25","","1803","
                <div class=""stimulus-container"">
                    <img src=""images/causal_sequence/coin_causal/coin_causal_7.png"" class=""exp-image"">
                    <div class=""question-area"">
                        <p style=""font-size: 20px; font-weight: bold; margin: 0;"">Is there a person in this image?</p>
                    </div>
                </div>","1","main_experiment_trial","7","coin_causal","causal_sequence","","","",""
"","","","","","html-keyboard-response","73","375795","0.0-73.0","586F38177DCB4BF3A602395132F6FD80","019cefb1-5bb0-7aa7-b4f6-89125156be7d","019cef87-c56d-7b55-9135-c5814367ec25","","null","
                <div class=""stimulus-container"">
                    <img src=""images/causal_sequence/coin_causal/coin_causal_8.png"" class=""exp-image"">
                    <div class=""question-area""></div> 
                </div>","null","","","","","","","",""
"","","","","","html-button-response","74","376708","0.0-74.0","586F38177DCB4BF3A602395132F6FD80","019cefb1-5bb0-7aa7-b4f6-89125156be7d","019cef87-c56d-7b55-9135-c5814367ec25","","912","
                <div class=""stimulus-container"">
                    <img src=""images/causal_sequence/coin_causal/coin_causal_8.png"" class=""exp-image"">
                    <div class=""question-area"">
                        <p style=""font-size: 20px; font-weight: bold; margin: 0;"">Is there a person in this image?</p>
                    </div>
                </div>","0","main_experiment_trial","8","coin_causal","causal_sequence","","","",""
"","","","","","html-keyboard-response","75","381720","0.0-75.0","586F38177DCB4BF3A602395132F6FD80","019cefb1-5bb0-7aa7-b4f6-89125156be7d","019cef87-c56d-7b55-9135-c5814367ec25","","null","
                <div class=""stimulus-container"">
                    <img src=""images/causal_sequence/coin_causal/coin_causal_9.png"" class=""exp-image"">
                    <div class=""question-area""></div> 
                </div>","null","","","","","","","",""
"","","","","","html-button-response","76","382366","0.0-76.0","586F38177DCB4BF3A602395132F6FD80","019cefb1-5bb0-7aa7-b4f6-89125156be7d","019cef87-c56d-7b55-9135-c5814367ec25","","645","
                <div class=""stimulus-container"">
                    <img src=""images/causal_sequence/coin_causal/coin_causal_9.png"" class=""exp-image"">
                    <div class=""question-area"">
                        <p style=""font-size: 20px; font-weight: bold; margin: 0;"">Is there a person in this image?</p>
                    </div>
                </div>","0","main_experiment_trial","9","coin_causal","causal_sequence","","","",""
"","","","","","html-keyboard-response","77","387368","0.0-77.0","586F38177DCB4BF3A602395132F6FD80","019cefb1-5bb0-7aa7-b4f6-89125156be7d","019cef87-c56d-7b55-9135-c5814367ec25","","null","
                <div class=""stimulus-container"">
                    <img src=""images/causal_sequence/coin_causal/coin_causal_ten.png"" class=""exp-image"">
                    <div class=""question-area""></div> 
                </div>","null","","","","","","","",""
"","","","","","html-button-response","78","388148","0.0-78.0","586F38177DCB4BF3A602395132F6FD80","019cefb1-5bb0-7aa7-b4f6-89125156be7d","019cef87-c56d-7b55-9135-c5814367ec25","","779","
                <div class=""stimulus-container"">
                    <img src=""images/causal_sequence/coin_causal/coin_causal_ten.png"" class=""exp-image"">
                    <div class=""question-area"">
                        <p style=""font-size: 20px; font-weight: bold; margin: 0;"">Is there a person in this image?</p>
                    </div>
                </div>","0","main_experiment_trial","ten","coin_causal","causal_sequence","","","",""
"","","","","","html-keyboard-response","79","389162","0.0-79.0","586F38177DCB4BF3A602395132F6FD80","019cefb1-5bb0-7aa7-b4f6-89125156be7d","019cef87-c56d-7b55-9135-c5814367ec25","","null","<div style=""background-color: white; width: 100vw; height: 100vh;""></div>","null","","","","","","","",""
"","","","","","html-keyboard-response","80","394173","0.0-80.0","586F38177DCB4BF3A602395132F6FD80","019cefb1-5bb0-7aa7-b4f6-89125156be7d","019cef87-c56d-7b55-9135-c5814367ec25","","null","
                <div class=""stimulus-container"">
                    <img src=""images/causal_sequence/package_causal/package_causal_1.png"" class=""exp-image"">
                    <div class=""question-area""></div> 
                </div>","null","","","","","","","",""
"","","","","","html-button-response","81","394827","0.0-81.0","586F38177DCB4BF3A602395132F6FD80","019cefb1-5bb0-7aa7-b4f6-89125156be7d","019cef87-c56d-7b55-9135-c5814367ec25","","653","
                <div class=""stimulus-container"">
                    <img src=""images/causal_sequence/package_causal/package_causal_1.png"" class=""exp-image"">
                    <div class=""question-area"">
                        <p style=""font-size: 20px; font-weight: bold; margin: 0;"">Is there a person in this image?</p>
                    </div>
                </div>","0","main_experiment_trial","1","package_causal","causal_sequence","","","",""
"","","","","","html-keyboard-response","82","399844","0.0-82.0","586F38177DCB4BF3A602395132F6FD80","019cefb1-5bb0-7aa7-b4f6-89125156be7d","019cef87-c56d-7b55-9135-c5814367ec25","","null","
                <div class=""stimulus-container"">
                    <img src=""images/causal_sequence/package_causal/package_causal_2.png"" class=""exp-image"">
                    <div class=""question-area""></div> 
                </div>","null","","","","","","","",""
"","","","","","html-button-response","83","400585","0.0-83.0","586F38177DCB4BF3A602395132F6FD80","019cefb1-5bb0-7aa7-b4f6-89125156be7d","019cef87-c56d-7b55-9135-c5814367ec25","","740","
                <div class=""stimulus-container"">
                    <img src=""images/causal_sequence/package_causal/package_causal_2.png"" class=""exp-image"">
                    <div class=""question-area"">
                        <p style=""font-size: 20px; font-weight: bold; margin: 0;"">Is there a person in this image?</p>
                    </div>
                </div>","0","main_experiment_trial","2","package_causal","causal_sequence","","","",""
"","","","","","html-keyboard-response","84","405587","0.0-84.0","586F38177DCB4BF3A602395132F6FD80","019cefb1-5bb0-7aa7-b4f6-89125156be7d","019cef87-c56d-7b55-9135-c5814367ec25","","null","
                <div class=""stimulus-container"">
                    <img src=""images/causal_sequence/package_causal/package_causal_3.png"" class=""exp-image"">
                    <div class=""question-area""></div> 
                </div>","null","","","","","","","",""
"","","","","","html-button-response","85","406565","0.0-85.0","586F38177DCB4BF3A602395132F6FD80","019cefb1-5bb0-7aa7-b4f6-89125156be7d","019cef87-c56d-7b55-9135-c5814367ec25","","978","
                <div class=""stimulus-container"">
                    <img src=""images/causal_sequence/package_causal/package_causal_3.png"" class=""exp-image"">
                    <div class=""question-area"">
                        <p style=""font-size: 20px; font-weight: bold; margin: 0;"">Is there a person in this image?</p>
                    </div>
                </div>","0","main_experiment_trial","3","package_causal","causal_sequence","","","",""
"","","","","","html-keyboard-response","86","411580","0.0-86.0","586F38177DCB4BF3A602395132F6FD80","019cefb1-5bb0-7aa7-b4f6-89125156be7d","019cef87-c56d-7b55-9135-c5814367ec25","","null","
                <div class=""stimulus-container"">
                    <img src=""images/causal_sequence/package_causal/package_causal_4.png"" class=""exp-image"">
                    <div class=""question-area""></div> 
                </div>","null","","","","","","","",""
"","","","","","html-button-response","87","412198","0.0-87.0","586F38177DCB4BF3A602395132F6FD80","019cefb1-5bb0-7aa7-b4f6-89125156be7d","019cef87-c56d-7b55-9135-c5814367ec25","","616","
                <div class=""stimulus-container"">
                    <img src=""images/causal_sequence/package_causal/package_causal_4.png"" class=""exp-image"">
                    <div class=""question-area"">
                        <p style=""font-size: 20px; font-weight: bold; margin: 0;"">Is there a person in this image?</p>
                    </div>
                </div>","1","main_experiment_trial","4","package_causal","causal_sequence","","","",""
"","","","","","html-keyboard-response","88","417212","0.0-88.0","586F38177DCB4BF3A602395132F6FD80","019cefb1-5bb0-7aa7-b4f6-89125156be7d","019cef87-c56d-7b55-9135-c5814367ec25","","null","
                <div class=""stimulus-container"">
                    <img src=""images/causal_sequence/package_causal/package_causal_5.png"" class=""exp-image"">
                    <div class=""question-area""></div> 
                </div>","null","","","","","","","",""
"","","","","","html-button-response","89","417782","0.0-89.0","586F38177DCB4BF3A602395132F6FD80","019cefb1-5bb0-7aa7-b4f6-89125156be7d","019cef87-c56d-7b55-9135-c5814367ec25","","569","
                <div class=""stimulus-container"">
                    <img src=""images/causal_sequence/package_causal/package_causal_5.png"" class=""exp-image"">
                    <div class=""question-area"">
                        <p style=""font-size: 20px; font-weight: bold; margin: 0;"">Is there a person in this image?</p>
                    </div>
                </div>","0","main_experiment_trial","5","package_causal","causal_sequence","","","",""
"","","","","","html-keyboard-response","90","422791","0.0-90.0","586F38177DCB4BF3A602395132F6FD80","019cefb1-5bb0-7aa7-b4f6-89125156be7d","019cef87-c56d-7b55-9135-c5814367ec25","","null","
                <div class=""stimulus-container"">
                    <img src=""images/causal_sequence/package_causal/package_causal_6.png"" class=""exp-image"">
                    <div class=""question-area""></div> 
                </div>","null","","","","","","","",""
"","","","","","html-button-response","91","423372","0.0-91.0","586F38177DCB4BF3A602395132F6FD80","019cefb1-5bb0-7aa7-b4f6-89125156be7d","019cef87-c56d-7b55-9135-c5814367ec25","","580","
                <div class=""stimulus-container"">
                    <img src=""images/causal_sequence/package_causal/package_causal_6.png"" class=""exp-image"">
                    <div class=""question-area"">
                        <p style=""font-size: 20px; font-weight: bold; margin: 0;"">Is there a person in this image?</p>
                    </div>
                </div>","0","main_experiment_trial","6","package_causal","causal_sequence","","","",""
"","","","","","html-keyboard-response","92","428377","0.0-92.0","586F38177DCB4BF3A602395132F6FD80","019cefb1-5bb0-7aa7-b4f6-89125156be7d","019cef87-c56d-7b55-9135-c5814367ec25","","null","
                <div class=""stimulus-container"">
                    <img src=""images/causal_sequence/package_causal/package_causal_7.png"" class=""exp-image"">
                    <div class=""question-area""></div> 
                </div>","null","","","","","","","",""
"","","","","","html-button-response","93","429515","0.0-93.0","586F38177DCB4BF3A602395132F6FD80","019cefb1-5bb0-7aa7-b4f6-89125156be7d","019cef87-c56d-7b55-9135-c5814367ec25","","1138","
                <div class=""stimulus-container"">
                    <img src=""images/causal_sequence/package_causal/package_causal_7.png"" class=""exp-image"">
                    <div class=""question-area"">
                        <p style=""font-size: 20px; font-weight: bold; margin: 0;"">Is there a person in this image?</p>
                    </div>
                </div>","0","main_experiment_trial","7","package_causal","causal_sequence","","","",""
"","","","","","html-keyboard-response","94","434528","0.0-94.0","586F38177DCB4BF3A602395132F6FD80","019cefb1-5bb0-7aa7-b4f6-89125156be7d","019cef87-c56d-7b55-9135-c5814367ec25","","null","
                <div class=""stimulus-container"">
                    <img src=""images/causal_sequence/package_causal/package_causal_8.png"" class=""exp-image"">
                    <div class=""question-area""></div> 
                </div>","null","","","","","","","",""
"","","","","","html-button-response","95","435176","0.0-95.0","586F38177DCB4BF3A602395132F6FD80","019cefb1-5bb0-7aa7-b4f6-89125156be7d","019cef87-c56d-7b55-9135-c5814367ec25","","647","
                <div class=""stimulus-container"">
                    <img src=""images/causal_sequence/package_causal/package_causal_8.png"" class=""exp-image"">
                    <div class=""question-area"">
                        <p style=""font-size: 20px; font-weight: bold; margin: 0;"">Is there a person in this image?</p>
                    </div>
                </div>","0","main_experiment_trial","8","package_causal","causal_sequence","","","",""
"","","","","","html-keyboard-response","96","440178","0.0-96.0","586F38177DCB4BF3A602395132F6FD80","019cefb1-5bb0-7aa7-b4f6-89125156be7d","019cef87-c56d-7b55-9135-c5814367ec25","","null","
                <div class=""stimulus-container"">
                    <img src=""images/causal_sequence/package_causal/package_causal_9.png"" class=""exp-image"">
                    <div class=""question-area""></div> 
                </div>","null","","","","","","","",""
"","","","","","html-button-response","97","440915","0.0-97.0","586F38177DCB4BF3A602395132F6FD80","019cefb1-5bb0-7aa7-b4f6-89125156be7d","019cef87-c56d-7b55-9135-c5814367ec25","","735","
                <div class=""stimulus-container"">
                    <img src=""images/causal_sequence/package_causal/package_causal_9.png"" class=""exp-image"">
                    <div class=""question-area"">
                        <p style=""font-size: 20px; font-weight: bold; margin: 0;"">Is there a person in this image?</p>
                    </div>
                </div>","0","main_experiment_trial","9","package_causal","causal_sequence","","","",""
"","","","","","html-keyboard-response","98","445917","0.0-98.0","586F38177DCB4BF3A602395132F6FD80","019cefb1-5bb0-7aa7-b4f6-89125156be7d","019cef87-c56d-7b55-9135-c5814367ec25","","null","
                <div class=""stimulus-container"">
                    <img src=""images/causal_sequence/package_causal/package_causal_ten.png"" class=""exp-image"">
                    <div class=""question-area""></div> 
                </div>","null","","","","","","","",""
"","","","","","html-button-response","99","446481","0.0-99.0","586F38177DCB4BF3A602395132F6FD80","019cefb1-5bb0-7aa7-b4f6-89125156be7d","019cef87-c56d-7b55-9135-c5814367ec25","","563","
                <div class=""stimulus-container"">
                    <img src=""images/causal_sequence/package_causal/package_causal_ten.png"" class=""exp-image"">
                    <div class=""question-area"">
                        <p style=""font-size: 20px; font-weight: bold; margin: 0;"">Is there a person in this image?</p>
                    </div>
                </div>","0","main_experiment_trial","ten","package_causal","causal_sequence","","","",""
"","","","","","html-keyboard-response","100","447490","0.0-100.0","586F38177DCB4BF3A602395132F6FD80","019cefb1-5bb0-7aa7-b4f6-89125156be7d","019cef87-c56d-7b55-9135-c5814367ec25","","null","<div style=""background-color: white; width: 100vw; height: 100vh;""></div>","null","","","","","","","",""
"","","","","","html-keyboard-response","101","452504","0.0-101.0","586F38177DCB4BF3A602395132F6FD80","019cefb1-5bb0-7aa7-b4f6-89125156be7d","019cef87-c56d-7b55-9135-c5814367ec25","","null","
                <div class=""stimulus-container"">
                    <img src=""images/schematic_sequence/flight_scheme/flight_scheme_1.png"" class=""exp-image"">
                    <div class=""question-area""></div> 
                </div>","null","","","","","","","",""
"","","","","","html-button-response","102","453352","0.0-102.0","586F38177DCB4BF3A602395132F6FD80","019cefb1-5bb0-7aa7-b4f6-89125156be7d","019cef87-c56d-7b55-9135-c5814367ec25","","847","
                <div class=""stimulus-container"">
                    <img src=""images/schematic_sequence/flight_scheme/flight_scheme_1.png"" class=""exp-image"">
                    <div class=""question-area"">
                        <p style=""font-size: 20px; font-weight: bold; margin: 0;"">Is there a person in this image?</p>
                    </div>
                </div>","0","main_experiment_trial","1","flight_scheme","schematic_sequence","","","",""
"","","","","","html-keyboard-response","103","458360","0.0-103.0","586F38177DCB4BF3A602395132F6FD80","019cefb1-5bb0-7aa7-b4f6-89125156be7d","019cef87-c56d-7b55-9135-c5814367ec25","","null","
                <div class=""stimulus-container"">
                    <img src=""images/schematic_sequence/flight_scheme/flight_scheme_2.png"" class=""exp-image"">
                    <div class=""question-area""></div> 
                </div>","null","","","","","","","",""
"","","","","","html-button-response","104","459025","0.0-104.0","586F38177DCB4BF3A602395132F6FD80","019cefb1-5bb0-7aa7-b4f6-89125156be7d","019cef87-c56d-7b55-9135-c5814367ec25","","664","
                <div class=""stimulus-container"">
                    <img src=""images/schematic_sequence/flight_scheme/flight_scheme_2.png"" class=""exp-image"">
                    <div class=""question-area"">
                        <p style=""font-size: 20px; font-weight: bold; margin: 0;"">Is there a person in this image?</p>
                    </div>
                </div>","1","main_experiment_trial","2","flight_scheme","schematic_sequence","","","",""
"","","","","","html-keyboard-response","105","464036","0.0-105.0","586F38177DCB4BF3A602395132F6FD80","019cefb1-5bb0-7aa7-b4f6-89125156be7d","019cef87-c56d-7b55-9135-c5814367ec25","","null","
                <div class=""stimulus-container"">
                    <img src=""images/schematic_sequence/flight_scheme/flight_scheme_3.png"" class=""exp-image"">
                    <div class=""question-area""></div> 
                </div>","null","","","","","","","",""
"","","","","","html-button-response","106","464596","0.0-106.0","586F38177DCB4BF3A602395132F6FD80","019cefb1-5bb0-7aa7-b4f6-89125156be7d","019cef87-c56d-7b55-9135-c5814367ec25","","559","
                <div class=""stimulus-container"">
                    <img src=""images/schematic_sequence/flight_scheme/flight_scheme_3.png"" class=""exp-image"">
                    <div class=""question-area"">
                        <p style=""font-size: 20px; font-weight: bold; margin: 0;"">Is there a person in this image?</p>
                    </div>
                </div>","0","main_experiment_trial","3","flight_scheme","schematic_sequence","","","",""
"","","","","","html-keyboard-response","107","469599","0.0-107.0","586F38177DCB4BF3A602395132F6FD80","019cefb1-5bb0-7aa7-b4f6-89125156be7d","019cef87-c56d-7b55-9135-c5814367ec25","","null","
                <div class=""stimulus-container"">
                    <img src=""images/schematic_sequence/flight_scheme/flight_scheme_4.png"" class=""exp-image"">
                    <div class=""question-area""></div> 
                </div>","null","","","","","","","",""
"","","","","","html-button-response","108","470818","0.0-108.0","586F38177DCB4BF3A602395132F6FD80","019cefb1-5bb0-7aa7-b4f6-89125156be7d","019cef87-c56d-7b55-9135-c5814367ec25","","1218","
                <div class=""stimulus-container"">
                    <img src=""images/schematic_sequence/flight_scheme/flight_scheme_4.png"" class=""exp-image"">
                    <div class=""question-area"">
                        <p style=""font-size: 20px; font-weight: bold; margin: 0;"">Is there a person in this image?</p>
                    </div>
                </div>","0","main_experiment_trial","4","flight_scheme","schematic_sequence","","","",""
"","","","","","html-keyboard-response","109","475822","0.0-109.0","586F38177DCB4BF3A602395132F6FD80","019cefb1-5bb0-7aa7-b4f6-89125156be7d","019cef87-c56d-7b55-9135-c5814367ec25","","null","
                <div class=""stimulus-container"">
                    <img src=""images/schematic_sequence/flight_scheme/flight_scheme_5.png"" class=""exp-image"">
                    <div class=""question-area""></div> 
                </div>","null","","","","","","","",""
"","","","","","html-button-response","110","476750","0.0-110.0","586F38177DCB4BF3A602395132F6FD80","019cefb1-5bb0-7aa7-b4f6-89125156be7d","019cef87-c56d-7b55-9135-c5814367ec25","","928","
                <div class=""stimulus-container"">
                    <img src=""images/schematic_sequence/flight_scheme/flight_scheme_5.png"" class=""exp-image"">
                    <div class=""question-area"">
                        <p style=""font-size: 20px; font-weight: bold; margin: 0;"">Is there a person in this image?</p>
                    </div>
                </div>","0","main_experiment_trial","5","flight_scheme","schematic_sequence","","","",""
"","","","","","html-keyboard-response","111","481752","0.0-111.0","586F38177DCB4BF3A602395132F6FD80","019cefb1-5bb0-7aa7-b4f6-89125156be7d","019cef87-c56d-7b55-9135-c5814367ec25","","null","
                <div class=""stimulus-container"">
                    <img src=""images/schematic_sequence/flight_scheme/flight_scheme_6.png"" class=""exp-image"">
                    <div class=""question-area""></div> 
                </div>","null","","","","","","","",""
"","","","","","html-button-response","112","482877","0.0-112.0","586F38177DCB4BF3A602395132F6FD80","019cefb1-5bb0-7aa7-b4f6-89125156be7d","019cef87-c56d-7b55-9135-c5814367ec25","","1124","
                <div class=""stimulus-container"">
                    <img src=""images/schematic_sequence/flight_scheme/flight_scheme_6.png"" class=""exp-image"">
                    <div class=""question-area"">
                        <p style=""font-size: 20px; font-weight: bold; margin: 0;"">Is there a person in this image?</p>
                    </div>
                </div>","1","main_experiment_trial","6","flight_scheme","schematic_sequence","","","",""
"","","","","","html-keyboard-response","113","487884","0.0-113.0","586F38177DCB4BF3A602395132F6FD80","019cefb1-5bb0-7aa7-b4f6-89125156be7d","019cef87-c56d-7b55-9135-c5814367ec25","","null","
                <div class=""stimulus-container"">
                    <img src=""images/schematic_sequence/flight_scheme/flight_scheme_7.png"" class=""exp-image"">
                    <div class=""question-area""></div> 
                </div>","null","","","","","","","",""
"","","","","","html-button-response","114","488721","0.0-114.0","586F38177DCB4BF3A602395132F6FD80","019cefb1-5bb0-7aa7-b4f6-89125156be7d","019cef87-c56d-7b55-9135-c5814367ec25","","835","
                <div class=""stimulus-container"">
                    <img src=""images/schematic_sequence/flight_scheme/flight_scheme_7.png"" class=""exp-image"">
                    <div class=""question-area"">
                        <p style=""font-size: 20px; font-weight: bold; margin: 0;"">Is there a person in this image?</p>
                    </div>
                </div>","1","main_experiment_trial","7","flight_scheme","schematic_sequence","","","",""
"","","","","","html-keyboard-response","115","493723","0.0-115.0","586F38177DCB4BF3A602395132F6FD80","019cefb1-5bb0-7aa7-b4f6-89125156be7d","019cef87-c56d-7b55-9135-c5814367ec25","","null","
                <div class=""stimulus-container"">
                    <img src=""images/schematic_sequence/flight_scheme/flight_scheme_8.png"" class=""exp-image"">
                    <div class=""question-area""></div> 
                </div>","null","","","","","","","",""
"","","","","","html-button-response","116","494287","0.0-116.0","586F38177DCB4BF3A602395132F6FD80","019cefb1-5bb0-7aa7-b4f6-89125156be7d","019cef87-c56d-7b55-9135-c5814367ec25","","563","
                <div class=""stimulus-container"">
                    <img src=""images/schematic_sequence/flight_scheme/flight_scheme_8.png"" class=""exp-image"">
                    <div class=""question-area"">
                        <p style=""font-size: 20px; font-weight: bold; margin: 0;"">Is there a person in this image?</p>
                    </div>
                </div>","1","main_experiment_trial","8","flight_scheme","schematic_sequence","","","",""
"","","","","","html-keyboard-response","117","499290","0.0-117.0","586F38177DCB4BF3A602395132F6FD80","019cefb1-5bb0-7aa7-b4f6-89125156be7d","019cef87-c56d-7b55-9135-c5814367ec25","","null","
                <div class=""stimulus-container"">
                    <img src=""images/schematic_sequence/flight_scheme/flight_scheme_9.png"" class=""exp-image"">
                    <div class=""question-area""></div> 
                </div>","null","","","","","","","",""
"","","","","","html-button-response","118","500165","0.0-118.0","586F38177DCB4BF3A602395132F6FD80","019cefb1-5bb0-7aa7-b4f6-89125156be7d","019cef87-c56d-7b55-9135-c5814367ec25","","875","
                <div class=""stimulus-container"">
                    <img src=""images/schematic_sequence/flight_scheme/flight_scheme_9.png"" class=""exp-image"">
                    <div class=""question-area"">
                        <p style=""font-size: 20px; font-weight: bold; margin: 0;"">Is there a person in this image?</p>
                    </div>
                </div>","0","main_experiment_trial","9","flight_scheme","schematic_sequence","","","",""
"","","","","","html-keyboard-response","119","505175","0.0-119.0","586F38177DCB4BF3A602395132F6FD80","019cefb1-5bb0-7aa7-b4f6-89125156be7d","019cef87-c56d-7b55-9135-c5814367ec25","","null","
                <div class=""stimulus-container"">
                    <img src=""images/schematic_sequence/flight_scheme/flight_scheme_ten.png"" class=""exp-image"">
                    <div class=""question-area""></div> 
                </div>","null","","","","","","","",""
"","","","","","html-button-response","120","505902","0.0-120.0","586F38177DCB4BF3A602395132F6FD80","019cefb1-5bb0-7aa7-b4f6-89125156be7d","019cef87-c56d-7b55-9135-c5814367ec25","","725","
                <div class=""stimulus-container"">
                    <img src=""images/schematic_sequence/flight_scheme/flight_scheme_ten.png"" class=""exp-image"">
                    <div class=""question-area"">
                        <p style=""font-size: 20px; font-weight: bold; margin: 0;"">Is there a person in this image?</p>
                    </div>
                </div>","0","main_experiment_trial","ten","flight_scheme","schematic_sequence","","","",""
"","","","","","html-keyboard-response","121","506912","0.0-121.0","586F38177DCB4BF3A602395132F6FD80","019cefb1-5bb0-7aa7-b4f6-89125156be7d","019cef87-c56d-7b55-9135-c5814367ec25","","null","<div style=""background-color: white; width: 100vw; height: 100vh;""></div>","null","","","","","","","",""
"","","","","","html-keyboard-response","122","511913","0.0-122.0","586F38177DCB4BF3A602395132F6FD80","019cefb1-5bb0-7aa7-b4f6-89125156be7d","019cef87-c56d-7b55-9135-c5814367ec25","","null","
                <div class=""stimulus-container"">
                    <img src=""images/schematic_sequence/restaurant_scheme/restaurant_scheme_1.png"" class=""exp-image"">
                    <div class=""question-area""></div> 
                </div>","null","","","","","","","",""
"","","","","","html-button-response","123","512638","0.0-123.0","586F38177DCB4BF3A602395132F6FD80","019cefb1-5bb0-7aa7-b4f6-89125156be7d","019cef87-c56d-7b55-9135-c5814367ec25","","723","
                <div class=""stimulus-container"">
                    <img src=""images/schematic_sequence/restaurant_scheme/restaurant_scheme_1.png"" class=""exp-image"">
                    <div class=""question-area"">
                        <p style=""font-size: 20px; font-weight: bold; margin: 0;"">Is there a person in this image?</p>
                    </div>
                </div>","0","main_experiment_trial","1","restaurant_scheme","schematic_sequence","","","",""
"","","","","","html-keyboard-response","124","517639","0.0-124.0","586F38177DCB4BF3A602395132F6FD80","019cefb1-5bb0-7aa7-b4f6-89125156be7d","019cef87-c56d-7b55-9135-c5814367ec25","","null","
                <div class=""stimulus-container"">
                    <img src=""images/schematic_sequence/restaurant_scheme/restaurant_scheme_2.png"" class=""exp-image"">
                    <div class=""question-area""></div> 
                </div>","null","","","","","","","",""
"","","","","","html-button-response","125","518533","0.0-125.0","586F38177DCB4BF3A602395132F6FD80","019cefb1-5bb0-7aa7-b4f6-89125156be7d","019cef87-c56d-7b55-9135-c5814367ec25","","893","
                <div class=""stimulus-container"">
                    <img src=""images/schematic_sequence/restaurant_scheme/restaurant_scheme_2.png"" class=""exp-image"">
                    <div class=""question-area"">
                        <p style=""font-size: 20px; font-weight: bold; margin: 0;"">Is there a person in this image?</p>
                    </div>
                </div>","1","main_experiment_trial","2","restaurant_scheme","schematic_sequence","","","",""
"","","","","","html-keyboard-response","126","523549","0.0-126.0","586F38177DCB4BF3A602395132F6FD80","019cefb1-5bb0-7aa7-b4f6-89125156be7d","019cef87-c56d-7b55-9135-c5814367ec25","","null","
                <div class=""stimulus-container"">
                    <img src=""images/schematic_sequence/restaurant_scheme/restaurant_scheme_3.png"" class=""exp-image"">
                    <div class=""question-area""></div> 
                </div>","null","","","","","","","",""
"","","","","","html-button-response","127","524132","0.0-127.0","586F38177DCB4BF3A602395132F6FD80","019cefb1-5bb0-7aa7-b4f6-89125156be7d","019cef87-c56d-7b55-9135-c5814367ec25","","582","
                <div class=""stimulus-container"">
                    <img src=""images/schematic_sequence/restaurant_scheme/restaurant_scheme_3.png"" class=""exp-image"">
                    <div class=""question-area"">
                        <p style=""font-size: 20px; font-weight: bold; margin: 0;"">Is there a person in this image?</p>
                    </div>
                </div>","1","main_experiment_trial","3","restaurant_scheme","schematic_sequence","","","",""
"","","","","","html-keyboard-response","128","529137","0.0-128.0","586F38177DCB4BF3A602395132F6FD80","019cefb1-5bb0-7aa7-b4f6-89125156be7d","019cef87-c56d-7b55-9135-c5814367ec25","","null","
                <div class=""stimulus-container"">
                    <img src=""images/schematic_sequence/restaurant_scheme/restaurant_scheme_4.png"" class=""exp-image"">
                    <div class=""question-area""></div> 
                </div>","null","","","","","","","",""
"","","","","","html-button-response","129","529799","0.0-129.0","586F38177DCB4BF3A602395132F6FD80","019cefb1-5bb0-7aa7-b4f6-89125156be7d","019cef87-c56d-7b55-9135-c5814367ec25","","661","
                <div class=""stimulus-container"">
                    <img src=""images/schematic_sequence/restaurant_scheme/restaurant_scheme_4.png"" class=""exp-image"">
                    <div class=""question-area"">
                        <p style=""font-size: 20px; font-weight: bold; margin: 0;"">Is there a person in this image?</p>
                    </div>
                </div>","0","main_experiment_trial","4","restaurant_scheme","schematic_sequence","","","",""
"","","","","","html-keyboard-response","130","534800","0.0-130.0","586F38177DCB4BF3A602395132F6FD80","019cefb1-5bb0-7aa7-b4f6-89125156be7d","019cef87-c56d-7b55-9135-c5814367ec25","","null","
                <div class=""stimulus-container"">
                    <img src=""images/schematic_sequence/restaurant_scheme/restaurant_scheme_5.png"" class=""exp-image"">
                    <div class=""question-area""></div> 
                </div>","null","","","","","","","",""
"","","","","","html-button-response","131","535394","0.0-131.0","586F38177DCB4BF3A602395132F6FD80","019cefb1-5bb0-7aa7-b4f6-89125156be7d","019cef87-c56d-7b55-9135-c5814367ec25","","592","
                <div class=""stimulus-container"">
                    <img src=""images/schematic_sequence/restaurant_scheme/restaurant_scheme_5.png"" class=""exp-image"">
                    <div class=""question-area"">
                        <p style=""font-size: 20px; font-weight: bold; margin: 0;"">Is there a person in this image?</p>
                    </div>
                </div>","0","main_experiment_trial","5","restaurant_scheme","schematic_sequence","","","",""
"","","","","","html-keyboard-response","132","540399","0.0-132.0","586F38177DCB4BF3A602395132F6FD80","019cefb1-5bb0-7aa7-b4f6-89125156be7d","019cef87-c56d-7b55-9135-c5814367ec25","","null","
                <div class=""stimulus-container"">
                    <img src=""images/schematic_sequence/restaurant_scheme/restaurant_scheme_6.png"" class=""exp-image"">
                    <div class=""question-area""></div> 
                </div>","null","","","","","","","",""
"","","","","","html-button-response","133","541044","0.0-133.0","586F38177DCB4BF3A602395132F6FD80","019cefb1-5bb0-7aa7-b4f6-89125156be7d","019cef87-c56d-7b55-9135-c5814367ec25","","644","
                <div class=""stimulus-container"">
                    <img src=""images/schematic_sequence/restaurant_scheme/restaurant_scheme_6.png"" class=""exp-image"">
                    <div class=""question-area"">
                        <p style=""font-size: 20px; font-weight: bold; margin: 0;"">Is there a person in this image?</p>
                    </div>
                </div>","1","main_experiment_trial","6","restaurant_scheme","schematic_sequence","","","",""
"","","","","","html-keyboard-response","134","546055","0.0-134.0","586F38177DCB4BF3A602395132F6FD80","019cefb1-5bb0-7aa7-b4f6-89125156be7d","019cef87-c56d-7b55-9135-c5814367ec25","","null","
                <div class=""stimulus-container"">
                    <img src=""images/schematic_sequence/restaurant_scheme/restaurant_scheme_7.png"" class=""exp-image"">
                    <div class=""question-area""></div> 
                </div>","null","","","","","","","",""
"","","","","","html-button-response","135","546658","0.0-135.0","586F38177DCB4BF3A602395132F6FD80","019cefb1-5bb0-7aa7-b4f6-89125156be7d","019cef87-c56d-7b55-9135-c5814367ec25","","602","
                <div class=""stimulus-container"">
                    <img src=""images/schematic_sequence/restaurant_scheme/restaurant_scheme_7.png"" class=""exp-image"">
                    <div class=""question-area"">
                        <p style=""font-size: 20px; font-weight: bold; margin: 0;"">Is there a person in this image?</p>
                    </div>
                </div>","1","main_experiment_trial","7","restaurant_scheme","schematic_sequence","","","",""
"","","","","","html-keyboard-response","136","551664","0.0-136.0","586F38177DCB4BF3A602395132F6FD80","019cefb1-5bb0-7aa7-b4f6-89125156be7d","019cef87-c56d-7b55-9135-c5814367ec25","","null","
                <div class=""stimulus-container"">
                    <img src=""images/schematic_sequence/restaurant_scheme/restaurant_scheme_8.png"" class=""exp-image"">
                    <div class=""question-area""></div> 
                </div>","null","","","","","","","",""
"","","","","","html-button-response","137","552587","0.0-137.0","586F38177DCB4BF3A602395132F6FD80","019cefb1-5bb0-7aa7-b4f6-89125156be7d","019cef87-c56d-7b55-9135-c5814367ec25","","922","
                <div class=""stimulus-container"">
                    <img src=""images/schematic_sequence/restaurant_scheme/restaurant_scheme_8.png"" class=""exp-image"">
                    <div class=""question-area"">
                        <p style=""font-size: 20px; font-weight: bold; margin: 0;"">Is there a person in this image?</p>
                    </div>
                </div>","0","main_experiment_trial","8","restaurant_scheme","schematic_sequence","","","",""
"","","","","","html-keyboard-response","138","557589","0.0-138.0","586F38177DCB4BF3A602395132F6FD80","019cefb1-5bb0-7aa7-b4f6-89125156be7d","019cef87-c56d-7b55-9135-c5814367ec25","","null","
                <div class=""stimulus-container"">
                    <img src=""images/schematic_sequence/restaurant_scheme/restaurant_scheme_9.png"" class=""exp-image"">
                    <div class=""question-area""></div> 
                </div>","null","","","","","","","",""
"","","","","","html-button-response","139","558200","0.0-139.0","586F38177DCB4BF3A602395132F6FD80","019cefb1-5bb0-7aa7-b4f6-89125156be7d","019cef87-c56d-7b55-9135-c5814367ec25","","610","
                <div class=""stimulus-container"">
                    <img src=""images/schematic_sequence/restaurant_scheme/restaurant_scheme_9.png"" class=""exp-image"">
                    <div class=""question-area"">
                        <p style=""font-size: 20px; font-weight: bold; margin: 0;"">Is there a person in this image?</p>
                    </div>
                </div>","0","main_experiment_trial","9","restaurant_scheme","schematic_sequence","","","",""
"","","","","","html-keyboard-response","140","563206","0.0-140.0","586F38177DCB4BF3A602395132F6FD80","019cefb1-5bb0-7aa7-b4f6-89125156be7d","019cef87-c56d-7b55-9135-c5814367ec25","","null","
                <div class=""stimulus-container"">
                    <img src=""images/schematic_sequence/restaurant_scheme/restaurant_scheme_ten.png"" class=""exp-image"">
                    <div class=""question-area""></div> 
                </div>","null","","","","","","","",""
"","","","","","html-button-response","141","563605","0.0-141.0","586F38177DCB4BF3A602395132F6FD80","019cefb1-5bb0-7aa7-b4f6-89125156be7d","019cef87-c56d-7b55-9135-c5814367ec25","","398","
                <div class=""stimulus-container"">
                    <img src=""images/schematic_sequence/restaurant_scheme/restaurant_scheme_ten.png"" class=""exp-image"">
                    <div class=""question-area"">
                        <p style=""font-size: 20px; font-weight: bold; margin: 0;"">Is there a person in this image?</p>
                    </div>
                </div>","0","main_experiment_trial","ten","restaurant_scheme","schematic_sequence","","","",""
"","","","","","html-keyboard-response","142","564609","0.0-142.0","586F38177DCB4BF3A602395132F6FD80","019cefb1-5bb0-7aa7-b4f6-89125156be7d","019cef87-c56d-7b55-9135-c5814367ec25","","null","<div style=""background-color: white; width: 100vw; height: 100vh;""></div>","null","","","","","","","",""
"","","","","","html-keyboard-response","143","569622","0.0-143.0","586F38177DCB4BF3A602395132F6FD80","019cefb1-5bb0-7aa7-b4f6-89125156be7d","019cef87-c56d-7b55-9135-c5814367ec25","","null","
                <div class=""stimulus-container"">
                    <img src=""images/causal_sequence/dog_causal/dog_causal_1.png"" class=""exp-image"">
                    <div class=""question-area""></div> 
                </div>","null","","","","","","","",""
"","","","","","html-button-response","144","570298","0.0-144.0","586F38177DCB4BF3A602395132F6FD80","019cefb1-5bb0-7aa7-b4f6-89125156be7d","019cef87-c56d-7b55-9135-c5814367ec25","","675","
                <div class=""stimulus-container"">
                    <img src=""images/causal_sequence/dog_causal/dog_causal_1.png"" class=""exp-image"">
                    <div class=""question-area"">
                        <p style=""font-size: 20px; font-weight: bold; margin: 0;"">Is there a person in this image?</p>
                    </div>
                </div>","0","main_experiment_trial","1","dog_causal","causal_sequence","","","",""
"","","","","","html-keyboard-response","145","575306","0.0-145.0","586F38177DCB4BF3A602395132F6FD80","019cefb1-5bb0-7aa7-b4f6-89125156be7d","019cef87-c56d-7b55-9135-c5814367ec25","","null","
                <div class=""stimulus-container"">
                    <img src=""images/causal_sequence/dog_causal/dog_causal_2.png"" class=""exp-image"">
                    <div class=""question-area""></div> 
                </div>","null","","","","","","","",""
"","","","","","html-button-response","146","576300","0.0-146.0","586F38177DCB4BF3A602395132F6FD80","019cefb1-5bb0-7aa7-b4f6-89125156be7d","019cef87-c56d-7b55-9135-c5814367ec25","","993","
                <div class=""stimulus-container"">
                    <img src=""images/causal_sequence/dog_causal/dog_causal_2.png"" class=""exp-image"">
                    <div class=""question-area"">
                        <p style=""font-size: 20px; font-weight: bold; margin: 0;"">Is there a person in this image?</p>
                    </div>
                </div>","0","main_experiment_trial","2","dog_causal","causal_sequence","","","",""
"","","","","","html-keyboard-response","147","581312","0.0-147.0","586F38177DCB4BF3A602395132F6FD80","019cefb1-5bb0-7aa7-b4f6-89125156be7d","019cef87-c56d-7b55-9135-c5814367ec25","","null","
                <div class=""stimulus-container"">
                    <img src=""images/causal_sequence/dog_causal/dog_causal_3.png"" class=""exp-image"">
                    <div class=""question-area""></div> 
                </div>","null","","","","","","","",""
"","","","","","html-button-response","148","582179","0.0-148.0","586F38177DCB4BF3A602395132F6FD80","019cefb1-5bb0-7aa7-b4f6-89125156be7d","019cef87-c56d-7b55-9135-c5814367ec25","","866","
                <div class=""stimulus-container"">
                    <img src=""images/causal_sequence/dog_causal/dog_causal_3.png"" class=""exp-image"">
                    <div class=""question-area"">
                        <p style=""font-size: 20px; font-weight: bold; margin: 0;"">Is there a person in this image?</p>
                    </div>
                </div>","0","main_experiment_trial","3","dog_causal","causal_sequence","","","",""
"","","","","","html-keyboard-response","149","587180","0.0-149.0","586F38177DCB4BF3A602395132F6FD80","019cefb1-5bb0-7aa7-b4f6-89125156be7d","019cef87-c56d-7b55-9135-c5814367ec25","","null","
                <div class=""stimulus-container"">
                    <img src=""images/causal_sequence/dog_causal/dog_causal_4.png"" class=""exp-image"">
                    <div class=""question-area""></div> 
                </div>","null","","","","","","","",""
"","","","","","html-button-response","150","589192","0.0-150.0","586F38177DCB4BF3A602395132F6FD80","019cefb1-5bb0-7aa7-b4f6-89125156be7d","019cef87-c56d-7b55-9135-c5814367ec25","","2010","
                <div class=""stimulus-container"">
                    <img src=""images/causal_sequence/dog_causal/dog_causal_4.png"" class=""exp-image"">
                    <div class=""question-area"">
                        <p style=""font-size: 20px; font-weight: bold; margin: 0;"">Is there a person in this image?</p>
                    </div>
                </div>","0","main_experiment_trial","4","dog_causal","causal_sequence","","","",""
"","","","","","html-keyboard-response","151","594195","0.0-151.0","586F38177DCB4BF3A602395132F6FD80","019cefb1-5bb0-7aa7-b4f6-89125156be7d","019cef87-c56d-7b55-9135-c5814367ec25","","null","
                <div class=""stimulus-container"">
                    <img src=""images/causal_sequence/dog_causal/dog_causal_5.png"" class=""exp-image"">
                    <div class=""question-area""></div> 
                </div>","null","","","","","","","",""
"","","","","","html-button-response","152","595451","0.0-152.0","586F38177DCB4BF3A602395132F6FD80","019cefb1-5bb0-7aa7-b4f6-89125156be7d","019cef87-c56d-7b55-9135-c5814367ec25","","1254","
                <div class=""stimulus-container"">
                    <img src=""images/causal_sequence/dog_causal/dog_causal_5.png"" class=""exp-image"">
                    <div class=""question-area"">
                        <p style=""font-size: 20px; font-weight: bold; margin: 0;"">Is there a person in this image?</p>
                    </div>
                </div>","0","main_experiment_trial","5","dog_causal","causal_sequence","","","",""
"","","","","","html-keyboard-response","153","600453","0.0-153.0","586F38177DCB4BF3A602395132F6FD80","019cefb1-5bb0-7aa7-b4f6-89125156be7d","019cef87-c56d-7b55-9135-c5814367ec25","","null","
                <div class=""stimulus-container"">
                    <img src=""images/causal_sequence/dog_causal/dog_causal_6.png"" class=""exp-image"">
                    <div class=""question-area""></div> 
                </div>","null","","","","","","","",""
"","","","","","html-button-response","154","602713","0.0-154.0","586F38177DCB4BF3A602395132F6FD80","019cefb1-5bb0-7aa7-b4f6-89125156be7d","019cef87-c56d-7b55-9135-c5814367ec25","","2259","
                <div class=""stimulus-container"">
                    <img src=""images/causal_sequence/dog_causal/dog_causal_6.png"" class=""exp-image"">
                    <div class=""question-area"">
                        <p style=""font-size: 20px; font-weight: bold; margin: 0;"">Is there a person in this image?</p>
                    </div>
                </div>","0","main_experiment_trial","6","dog_causal","causal_sequence","","","",""
"","","","","","html-keyboard-response","155","607724","0.0-155.0","586F38177DCB4BF3A602395132F6FD80","019cefb1-5bb0-7aa7-b4f6-89125156be7d","019cef87-c56d-7b55-9135-c5814367ec25","","null","
                <div class=""stimulus-container"">
                    <img src=""images/causal_sequence/dog_causal/dog_causal_7.png"" class=""exp-image"">
                    <div class=""question-area""></div> 
                </div>","null","","","","","","","",""
"","","","","","html-button-response","156","610491","0.0-156.0","586F38177DCB4BF3A602395132F6FD80","019cefb1-5bb0-7aa7-b4f6-89125156be7d","019cef87-c56d-7b55-9135-c5814367ec25","","2766","
                <div class=""stimulus-container"">
                    <img src=""images/causal_sequence/dog_causal/dog_causal_7.png"" class=""exp-image"">
                    <div class=""question-area"">
                        <p style=""font-size: 20px; font-weight: bold; margin: 0;"">Is there a person in this image?</p>
                    </div>
                </div>","0","main_experiment_trial","7","dog_causal","causal_sequence","","","",""
"","","","","","html-keyboard-response","157","615498","0.0-157.0","586F38177DCB4BF3A602395132F6FD80","019cefb1-5bb0-7aa7-b4f6-89125156be7d","019cef87-c56d-7b55-9135-c5814367ec25","","null","
                <div class=""stimulus-container"">
                    <img src=""images/causal_sequence/dog_causal/dog_causal_8.png"" class=""exp-image"">
                    <div class=""question-area""></div> 
                </div>","null","","","","","","","",""
"","","","","","html-button-response","158","616639","0.0-158.0","586F38177DCB4BF3A602395132F6FD80","019cefb1-5bb0-7aa7-b4f6-89125156be7d","019cef87-c56d-7b55-9135-c5814367ec25","","1140","
                <div class=""stimulus-container"">
                    <img src=""images/causal_sequence/dog_causal/dog_causal_8.png"" class=""exp-image"">
                    <div class=""question-area"">
                        <p style=""font-size: 20px; font-weight: bold; margin: 0;"">Is there a person in this image?</p>
                    </div>
                </div>","0","main_experiment_trial","8","dog_causal","causal_sequence","","","",""
"","","","","","html-keyboard-response","159","621640","0.0-159.0","586F38177DCB4BF3A602395132F6FD80","019cefb1-5bb0-7aa7-b4f6-89125156be7d","019cef87-c56d-7b55-9135-c5814367ec25","","null","
                <div class=""stimulus-container"">
                    <img src=""images/causal_sequence/dog_causal/dog_causal_9.png"" class=""exp-image"">
                    <div class=""question-area""></div> 
                </div>","null","","","","","","","",""
"","","","","","html-button-response","160","623278","0.0-160.0","586F38177DCB4BF3A602395132F6FD80","019cefb1-5bb0-7aa7-b4f6-89125156be7d","019cef87-c56d-7b55-9135-c5814367ec25","","1637","
                <div class=""stimulus-container"">
                    <img src=""images/causal_sequence/dog_causal/dog_causal_9.png"" class=""exp-image"">
                    <div class=""question-area"">
                        <p style=""font-size: 20px; font-weight: bold; margin: 0;"">Is there a person in this image?</p>
                    </div>
                </div>","0","main_experiment_trial","9","dog_causal","causal_sequence","","","",""
"","","","","","html-keyboard-response","161","628280","0.0-161.0","586F38177DCB4BF3A602395132F6FD80","019cefb1-5bb0-7aa7-b4f6-89125156be7d","019cef87-c56d-7b55-9135-c5814367ec25","","null","
                <div class=""stimulus-container"">
                    <img src=""images/causal_sequence/dog_causal/dog_causal_ten.png"" class=""exp-image"">
                    <div class=""question-area""></div> 
                </div>","null","","","","","","","",""
"","","","","","html-button-response","162","630664","0.0-162.0","586F38177DCB4BF3A602395132F6FD80","019cefb1-5bb0-7aa7-b4f6-89125156be7d","019cef87-c56d-7b55-9135-c5814367ec25","","2383","
                <div class=""stimulus-container"">
                    <img src=""images/causal_sequence/dog_causal/dog_causal_ten.png"" class=""exp-image"">
                    <div class=""question-area"">
                        <p style=""font-size: 20px; font-weight: bold; margin: 0;"">Is there a person in this image?</p>
                    </div>
                </div>","0","main_experiment_trial","ten","dog_causal","causal_sequence","","","",""
"","","","","","html-keyboard-response","163","631677","0.0-163.0","586F38177DCB4BF3A602395132F6FD80","019cefb1-5bb0-7aa7-b4f6-89125156be7d","019cef87-c56d-7b55-9135-c5814367ec25","","null","<div style=""background-color: white; width: 100vw; height: 100vh;""></div>","null","","","","","","","",""
"","","","","","html-keyboard-response","164","636681","0.0-164.0","586F38177DCB4BF3A602395132F6FD80","019cefb1-5bb0-7aa7-b4f6-89125156be7d","019cef87-c56d-7b55-9135-c5814367ec25","","null","
                <div class=""stimulus-container"">
                    <img src=""images/schematic_sequence/interview_scheme/interview_scheme_1.png"" class=""exp-image"">
                    <div class=""question-area""></div> 
                </div>","null","","","","","","","",""
"","","","","","html-button-response","165","638584","0.0-165.0","586F38177DCB4BF3A602395132F6FD80","019cefb1-5bb0-7aa7-b4f6-89125156be7d","019cef87-c56d-7b55-9135-c5814367ec25","","1902","
                <div class=""stimulus-container"">
                    <img src=""images/schematic_sequence/interview_scheme/interview_scheme_1.png"" class=""exp-image"">
                    <div class=""question-area"">
                        <p style=""font-size: 20px; font-weight: bold; margin: 0;"">Is there a person in this image?</p>
                    </div>
                </div>","1","main_experiment_trial","1","interview_scheme","schematic_sequence","","","",""
"","","","","","html-keyboard-response","166","643589","0.0-166.0","586F38177DCB4BF3A602395132F6FD80","019cefb1-5bb0-7aa7-b4f6-89125156be7d","019cef87-c56d-7b55-9135-c5814367ec25","","null","
                <div class=""stimulus-container"">
                    <img src=""images/schematic_sequence/interview_scheme/interview_scheme_2.png"" class=""exp-image"">
                    <div class=""question-area""></div> 
                </div>","null","","","","","","","",""
"","","","","","html-button-response","167","645059","0.0-167.0","586F38177DCB4BF3A602395132F6FD80","019cefb1-5bb0-7aa7-b4f6-89125156be7d","019cef87-c56d-7b55-9135-c5814367ec25","","1469","
                <div class=""stimulus-container"">
                    <img src=""images/schematic_sequence/interview_scheme/interview_scheme_2.png"" class=""exp-image"">
                    <div class=""question-area"">
                        <p style=""font-size: 20px; font-weight: bold; margin: 0;"">Is there a person in this image?</p>
                    </div>
                </div>","0","main_experiment_trial","2","interview_scheme","schematic_sequence","","","",""
"","","","","","html-keyboard-response","168","650072","0.0-168.0","586F38177DCB4BF3A602395132F6FD80","019cefb1-5bb0-7aa7-b4f6-89125156be7d","019cef87-c56d-7b55-9135-c5814367ec25","","null","
                <div class=""stimulus-container"">
                    <img src=""images/schematic_sequence/interview_scheme/interview_scheme_3.png"" class=""exp-image"">
                    <div class=""question-area""></div> 
                </div>","null","","","","","","","",""
"","","","","","html-button-response","169","652871","0.0-169.0","586F38177DCB4BF3A602395132F6FD80","019cefb1-5bb0-7aa7-b4f6-89125156be7d","019cef87-c56d-7b55-9135-c5814367ec25","","2798","
                <div class=""stimulus-container"">
                    <img src=""images/schematic_sequence/interview_scheme/interview_scheme_3.png"" class=""exp-image"">
                    <div class=""question-area"">
                        <p style=""font-size: 20px; font-weight: bold; margin: 0;"">Is there a person in this image?</p>
                    </div>
                </div>","1","main_experiment_trial","3","interview_scheme","schematic_sequence","","","",""
"","","","","","html-keyboard-response","170","657873","0.0-170.0","586F38177DCB4BF3A602395132F6FD80","019cefb1-5bb0-7aa7-b4f6-89125156be7d","019cef87-c56d-7b55-9135-c5814367ec25","","null","
                <div class=""stimulus-container"">
                    <img src=""images/schematic_sequence/interview_scheme/interview_scheme_4.png"" class=""exp-image"">
                    <div class=""question-area""></div> 
                </div>","null","","","","","","","",""
"","","","","","html-button-response","171","659096","0.0-171.0","586F38177DCB4BF3A602395132F6FD80","019cefb1-5bb0-7aa7-b4f6-89125156be7d","019cef87-c56d-7b55-9135-c5814367ec25","","1222","
                <div class=""stimulus-container"">
                    <img src=""images/schematic_sequence/interview_scheme/interview_scheme_4.png"" class=""exp-image"">
                    <div class=""question-area"">
                        <p style=""font-size: 20px; font-weight: bold; margin: 0;"">Is there a person in this image?</p>
                    </div>
                </div>","1","main_experiment_trial","4","interview_scheme","schematic_sequence","","","",""
"","","","","","html-keyboard-response","172","664106","0.0-172.0","586F38177DCB4BF3A602395132F6FD80","019cefb1-5bb0-7aa7-b4f6-89125156be7d","019cef87-c56d-7b55-9135-c5814367ec25","","null","
                <div class=""stimulus-container"">
                    <img src=""images/schematic_sequence/interview_scheme/interview_scheme_5.png"" class=""exp-image"">
                    <div class=""question-area""></div> 
                </div>","null","","","","","","","",""
"","","","","","html-button-response","173","665448","0.0-173.0","586F38177DCB4BF3A602395132F6FD80","019cefb1-5bb0-7aa7-b4f6-89125156be7d","019cef87-c56d-7b55-9135-c5814367ec25","","1341","
                <div class=""stimulus-container"">
                    <img src=""images/schematic_sequence/interview_scheme/interview_scheme_5.png"" class=""exp-image"">
                    <div class=""question-area"">
                        <p style=""font-size: 20px; font-weight: bold; margin: 0;"">Is there a person in this image?</p>
                    </div>
                </div>","0","main_experiment_trial","5","interview_scheme","schematic_sequence","","","",""
"","","","","","html-keyboard-response","174","670462","0.0-174.0","586F38177DCB4BF3A602395132F6FD80","019cefb1-5bb0-7aa7-b4f6-89125156be7d","019cef87-c56d-7b55-9135-c5814367ec25","","null","
                <div class=""stimulus-container"">
                    <img src=""images/schematic_sequence/interview_scheme/interview_scheme_6.png"" class=""exp-image"">
                    <div class=""question-area""></div> 
                </div>","null","","","","","","","",""
"","","","","","html-button-response","175","671407","0.0-175.0","586F38177DCB4BF3A602395132F6FD80","019cefb1-5bb0-7aa7-b4f6-89125156be7d","019cef87-c56d-7b55-9135-c5814367ec25","","944","
                <div class=""stimulus-container"">
                    <img src=""images/schematic_sequence/interview_scheme/interview_scheme_6.png"" class=""exp-image"">
                    <div class=""question-area"">
                        <p style=""font-size: 20px; font-weight: bold; margin: 0;"">Is there a person in this image?</p>
                    </div>
                </div>","0","main_experiment_trial","6","interview_scheme","schematic_sequence","","","",""
"","","","","","html-keyboard-response","176","676410","0.0-176.0","586F38177DCB4BF3A602395132F6FD80","019cefb1-5bb0-7aa7-b4f6-89125156be7d","019cef87-c56d-7b55-9135-c5814367ec25","","null","
                <div class=""stimulus-container"">
                    <img src=""images/schematic_sequence/interview_scheme/interview_scheme_7.png"" class=""exp-image"">
                    <div class=""question-area""></div> 
                </div>","null","","","","","","","",""
"","","","","","html-button-response","177","677351","0.0-177.0","586F38177DCB4BF3A602395132F6FD80","019cefb1-5bb0-7aa7-b4f6-89125156be7d","019cef87-c56d-7b55-9135-c5814367ec25","","939","
                <div class=""stimulus-container"">
                    <img src=""images/schematic_sequence/interview_scheme/interview_scheme_7.png"" class=""exp-image"">
                    <div class=""question-area"">
                        <p style=""font-size: 20px; font-weight: bold; margin: 0;"">Is there a person in this image?</p>
                    </div>
                </div>","0","main_experiment_trial","7","interview_scheme","schematic_sequence","","","",""
"","","","","","html-keyboard-response","178","682355","0.0-178.0","586F38177DCB4BF3A602395132F6FD80","019cefb1-5bb0-7aa7-b4f6-89125156be7d","019cef87-c56d-7b55-9135-c5814367ec25","","null","
                <div class=""stimulus-container"">
                    <img src=""images/schematic_sequence/interview_scheme/interview_scheme_8.png"" class=""exp-image"">
                    <div class=""question-area""></div> 
                </div>","null","","","","","","","",""
"","","","","","html-button-response","179","682959","0.0-179.0","586F38177DCB4BF3A602395132F6FD80","019cefb1-5bb0-7aa7-b4f6-89125156be7d","019cef87-c56d-7b55-9135-c5814367ec25","","603","
                <div class=""stimulus-container"">
                    <img src=""images/schematic_sequence/interview_scheme/interview_scheme_8.png"" class=""exp-image"">
                    <div class=""question-area"">
                        <p style=""font-size: 20px; font-weight: bold; margin: 0;"">Is there a person in this image?</p>
                    </div>
                </div>","0","main_experiment_trial","8","interview_scheme","schematic_sequence","","","",""
"","","","","","html-keyboard-response","180","687972","0.0-180.0","586F38177DCB4BF3A602395132F6FD80","019cefb1-5bb0-7aa7-b4f6-89125156be7d","019cef87-c56d-7b55-9135-c5814367ec25","","null","
                <div class=""stimulus-container"">
                    <img src=""images/schematic_sequence/interview_scheme/interview_scheme_9.png"" class=""exp-image"">
                    <div class=""question-area""></div> 
                </div>","null","","","","","","","",""
"","","","","","html-button-response","181","689137","0.0-181.0","586F38177DCB4BF3A602395132F6FD80","019cefb1-5bb0-7aa7-b4f6-89125156be7d","019cef87-c56d-7b55-9135-c5814367ec25","","1164","
                <div class=""stimulus-container"">
                    <img src=""images/schematic_sequence/interview_scheme/interview_scheme_9.png"" class=""exp-image"">
                    <div class=""question-area"">
                        <p style=""font-size: 20px; font-weight: bold; margin: 0;"">Is there a person in this image?</p>
                    </div>
                </div>","0","main_experiment_trial","9","interview_scheme","schematic_sequence","","","",""
"","","","","","html-keyboard-response","182","694139","0.0-182.0","586F38177DCB4BF3A602395132F6FD80","019cefb1-5bb0-7aa7-b4f6-89125156be7d","019cef87-c56d-7b55-9135-c5814367ec25","","null","
                <div class=""stimulus-container"">
                    <img src=""images/schematic_sequence/interview_scheme/interview_scheme_ten.png"" class=""exp-image"">
                    <div class=""question-area""></div> 
                </div>","null","","","","","","","",""
"","","","","","html-button-response","183","695124","0.0-183.0","586F38177DCB4BF3A602395132F6FD80","019cefb1-5bb0-7aa7-b4f6-89125156be7d","019cef87-c56d-7b55-9135-c5814367ec25","","983","
                <div class=""stimulus-container"">
                    <img src=""images/schematic_sequence/interview_scheme/interview_scheme_ten.png"" class=""exp-image"">
                    <div class=""question-area"">
                        <p style=""font-size: 20px; font-weight: bold; margin: 0;"">Is there a person in this image?</p>
                    </div>
                </div>","0","main_experiment_trial","ten","interview_scheme","schematic_sequence","","","",""
"","","","","","html-keyboard-response","184","696129","0.0-184.0","586F38177DCB4BF3A602395132F6FD80","019cefb1-5bb0-7aa7-b4f6-89125156be7d","019cef87-c56d-7b55-9135-c5814367ec25","","null","<div style=""background-color: white; width: 100vw; height: 100vh;""></div>","null","","","","","","","",""
"","","","","","html-keyboard-response","185","701132","0.0-185.0","586F38177DCB4BF3A602395132F6FD80","019cefb1-5bb0-7aa7-b4f6-89125156be7d","019cef87-c56d-7b55-9135-c5814367ec25","","null","
                <div class=""stimulus-container"">
                    <img src=""images/causal_sequence/saving_a_cat_causal/saving_a_cat_causal_1.png"" class=""exp-image"">
                    <div class=""question-area""></div> 
                </div>","null","","","","","","","",""
"","","","","","html-button-response","186","701826","0.0-186.0","586F38177DCB4BF3A602395132F6FD80","019cefb1-5bb0-7aa7-b4f6-89125156be7d","019cef87-c56d-7b55-9135-c5814367ec25","","693","
