"success","timeout","failed_images","failed_audio","failed_video","trial_type","trial_index","time_elapsed","internal_node_id","subject_id","study_id","session_id","view_history","rt","stimulus","response","task","image_index","folder","sequence_type","presentation_order","valuable_image_index","reward_type","distance_from_x","target_X","chosen_image_index","is_x_plus_dist","correct_choice"
"true","false","[]","[]","[]","preload","0","276726","0.0-0.0","C3EDA99F4B0F410395C4676EB1DF6E21","019cfcb6-eda6-7937-a0c5-ce52babaf31c","019cfc7b-6c7b-7b1b-afe7-acad8efc6711","","","","","","","","","","","","","","","",""
"","","","","","instructions","1","280795","0.0-1.0","C3EDA99F4B0F410395C4676EB1DF6E21","019cfcb6-eda6-7937-a0c5-ce52babaf31c","019cfc7b-6c7b-7b1b-afe7-acad8efc6711","[{""page_index"":0,""viewing_time"":4068}]","4068","","","","","","","","","","","","","",""
"","","","","","instructions","2","283126","0.0-2.0","C3EDA99F4B0F410395C4676EB1DF6E21","019cfcb6-eda6-7937-a0c5-ce52babaf31c","019cfc7b-6c7b-7b1b-afe7-acad8efc6711","[{""page_index"":0,""viewing_time"":2330}]","2330","","","","","","","","","","","","","",""
"true","","","","","fullscreen","3","285773","0.0-3.0","C3EDA99F4B0F410395C4676EB1DF6E21","019cfcb6-eda6-7937-a0c5-ce52babaf31c","019cfc7b-6c7b-7b1b-afe7-acad8efc6711","","1641","","","","","","","","","","","","","",""
"","","","","","instructions","4","297068","0.0-4.0","C3EDA99F4B0F410395C4676EB1DF6E21","019cfcb6-eda6-7937-a0c5-ce52babaf31c","019cfc7b-6c7b-7b1b-afe7-acad8efc6711","[{""page_index"":0,""viewing_time"":11295}]","11295","","","","","","","","","","","","","",""
"","","","","","instructions","5","303962","0.0-5.0","C3EDA99F4B0F410395C4676EB1DF6E21","019cfcb6-eda6-7937-a0c5-ce52babaf31c","019cfc7b-6c7b-7b1b-afe7-acad8efc6711","[{""page_index"":0,""viewing_time"":6893}]","6893","","","","","","","","","","","","","",""
"","","","","","html-keyboard-response","6","307975","0.0-6.0","C3EDA99F4B0F410395C4676EB1DF6E21","019cfcb6-eda6-7937-a0c5-ce52babaf31c","019cfc7b-6c7b-7b1b-afe7-acad8efc6711","","null","
                <div class=""stimulus-container"">
                    <img src=""images/instructions/movie_1.png"" class=""exp-image"">
                    <div class=""question-area""></div> 
                </div>","null","","","","","","","","","","","",""
"","","","","","html-button-response","7","310599","0.0-7.0","C3EDA99F4B0F410395C4676EB1DF6E21","019cfcb6-eda6-7937-a0c5-ce52babaf31c","019cfc7b-6c7b-7b1b-afe7-acad8efc6711","","2623","
                <div class=""stimulus-container"">
                    <img src=""images/instructions/movie_1.png"" class=""exp-image"">
                    <div class=""question-area"">
                        <p style=""font-size: 20px; font-weight: bold; margin: 0;"">Was there a person in this image?</p>
                    </div>
                </div>","0","example_question","1","","","","","","","","","",""
"","","","","","html-keyboard-response","8","314604","0.0-8.0","C3EDA99F4B0F410395C4676EB1DF6E21","019cfcb6-eda6-7937-a0c5-ce52babaf31c","019cfc7b-6c7b-7b1b-afe7-acad8efc6711","","null","
                <div class=""stimulus-container"">
                    <img src=""images/instructions/movie_2.png"" class=""exp-image"">
                    <div class=""question-area""></div> 
                </div>","null","","","","","","","","","","","",""
"","","","","","html-button-response","9","315585","0.0-9.0","C3EDA99F4B0F410395C4676EB1DF6E21","019cfcb6-eda6-7937-a0c5-ce52babaf31c","019cfc7b-6c7b-7b1b-afe7-acad8efc6711","","980","
                <div class=""stimulus-container"">
                    <img src=""images/instructions/movie_2.png"" class=""exp-image"">
                    <div class=""question-area"">
                        <p style=""font-size: 20px; font-weight: bold; margin: 0;"">Was there a person in this image?</p>
                    </div>
                </div>","0","example_question","2","","","","","","","","","",""
"","","","","","html-keyboard-response","10","319587","0.0-10.0","C3EDA99F4B0F410395C4676EB1DF6E21","019cfcb6-eda6-7937-a0c5-ce52babaf31c","019cfc7b-6c7b-7b1b-afe7-acad8efc6711","","null","
                <div class=""stimulus-container"">
                    <img src=""images/instructions/movie_3.png"" class=""exp-image"">
                    <div class=""question-area""></div> 
                </div>","null","","","","","","","","","","","",""
"","","","","","html-button-response","11","320654","0.0-11.0","C3EDA99F4B0F410395C4676EB1DF6E21","019cfcb6-eda6-7937-a0c5-ce52babaf31c","019cfc7b-6c7b-7b1b-afe7-acad8efc6711","","1066","
                <div class=""stimulus-container"">
                    <img src=""images/instructions/movie_3.png"" class=""exp-image"">
                    <div class=""question-area"">
                        <p style=""font-size: 20px; font-weight: bold; margin: 0;"">Was there a person in this image?</p>
                    </div>
                </div>","0","example_question","3","","","","","","","","","",""
"","","","","","html-keyboard-response","12","324658","0.0-12.0","C3EDA99F4B0F410395C4676EB1DF6E21","019cfcb6-eda6-7937-a0c5-ce52babaf31c","019cfc7b-6c7b-7b1b-afe7-acad8efc6711","","null","
                <div class=""stimulus-container"">
                    <img src=""images/instructions/movie_4.png"" class=""exp-image"">
                    <div class=""question-area""></div> 
                </div>","null","","","","","","","","","","","",""
"","","","","","html-button-response","13","325311","0.0-13.0","C3EDA99F4B0F410395C4676EB1DF6E21","019cfcb6-eda6-7937-a0c5-ce52babaf31c","019cfc7b-6c7b-7b1b-afe7-acad8efc6711","","653","
                <div class=""stimulus-container"">
                    <img src=""images/instructions/movie_4.png"" class=""exp-image"">
                    <div class=""question-area"">
                        <p style=""font-size: 20px; font-weight: bold; margin: 0;"">Was there a person in this image?</p>
                    </div>
                </div>","0","example_question","4","","","","","","","","","",""
"","","","","","instructions","14","326926","0.0-14.0","C3EDA99F4B0F410395C4676EB1DF6E21","019cfcb6-eda6-7937-a0c5-ce52babaf31c","019cfc7b-6c7b-7b1b-afe7-acad8efc6711","[{""page_index"":0,""viewing_time"":1614}]","1615","","","","","","","","","","","","","",""
"","","","","","instructions","15","334729","0.0-15.0","C3EDA99F4B0F410395C4676EB1DF6E21","019cfcb6-eda6-7937-a0c5-ce52babaf31c","019cfc7b-6c7b-7b1b-afe7-acad8efc6711","[{""page_index"":0,""viewing_time"":7803}]","7803","","","","","","","","","","","","","",""
"","","","","","html-keyboard-response","16","339732","0.0-16.0","C3EDA99F4B0F410395C4676EB1DF6E21","019cfcb6-eda6-7937-a0c5-ce52babaf31c","019cfc7b-6c7b-7b1b-afe7-acad8efc6711","","null","<div style=""background-color: white; width: 100vw; height: 100vh;""></div>","null","","","","","","","","","","","",""
"","","","","","html-keyboard-response","17","344733","0.0-17.0","C3EDA99F4B0F410395C4676EB1DF6E21","019cfcb6-eda6-7937-a0c5-ce52babaf31c","019cfc7b-6c7b-7b1b-afe7-acad8efc6711","","null","
                <div class=""stimulus-container"">
                    <img src=""images/causal_sequence/dog_causal/dog_causal_1.png"" class=""exp-image"">
                    <div class=""question-area""></div> 
                </div>","null","","","","","","","","","","","",""
"","","","","","html-button-response","18","345636","0.0-18.0","C3EDA99F4B0F410395C4676EB1DF6E21","019cfcb6-eda6-7937-a0c5-ce52babaf31c","019cfc7b-6c7b-7b1b-afe7-acad8efc6711","","902","
                <div class=""stimulus-container"">
                    <img src=""images/causal_sequence/dog_causal/dog_causal_1.png"" class=""exp-image"">
                    <div class=""question-area"">
                        <p style=""font-size: 20px; font-weight: bold; margin: 0;"">Is there a person in this image?</p>
                    </div>
                </div>","0","main_experiment_trial","1","dog_causal","causal_sequence","chronological","","","","","","",""
"","","","","","html-keyboard-response","19","350643","0.0-19.0","C3EDA99F4B0F410395C4676EB1DF6E21","019cfcb6-eda6-7937-a0c5-ce52babaf31c","019cfc7b-6c7b-7b1b-afe7-acad8efc6711","","null","
                <div class=""stimulus-container"">
                    <img src=""images/causal_sequence/dog_causal/dog_causal_2.png"" class=""exp-image"">
                    <div class=""question-area""></div> 
                </div>","null","","","","","","","","","","","",""
"","","","","","html-button-response","20","351025","0.0-20.0","C3EDA99F4B0F410395C4676EB1DF6E21","019cfcb6-eda6-7937-a0c5-ce52babaf31c","019cfc7b-6c7b-7b1b-afe7-acad8efc6711","","381","
                <div class=""stimulus-container"">
                    <img src=""images/causal_sequence/dog_causal/dog_causal_2.png"" class=""exp-image"">
                    <div class=""question-area"">
                        <p style=""font-size: 20px; font-weight: bold; margin: 0;"">Is there a person in this image?</p>
                    </div>
                </div>","0","main_experiment_trial","2","dog_causal","causal_sequence","chronological","","","","","","",""
"","","","","","html-keyboard-response","21","356038","0.0-21.0","C3EDA99F4B0F410395C4676EB1DF6E21","019cfcb6-eda6-7937-a0c5-ce52babaf31c","019cfc7b-6c7b-7b1b-afe7-acad8efc6711","","null","
                <div class=""stimulus-container"">
                    <img src=""images/causal_sequence/dog_causal/dog_causal_3.png"" class=""exp-image"">
                    <div class=""question-area""></div> 
                </div>","null","","","","","","","","","","","",""
"","","","","","html-button-response","22","356499","0.0-22.0","C3EDA99F4B0F410395C4676EB1DF6E21","019cfcb6-eda6-7937-a0c5-ce52babaf31c","019cfc7b-6c7b-7b1b-afe7-acad8efc6711","","461","
                <div class=""stimulus-container"">
                    <img src=""images/causal_sequence/dog_causal/dog_causal_3.png"" class=""exp-image"">
                    <div class=""question-area"">
                        <p style=""font-size: 20px; font-weight: bold; margin: 0;"">Is there a person in this image?</p>
                    </div>
                </div>","0","main_experiment_trial","3","dog_causal","causal_sequence","chronological","","","","","","",""
"","","","","","html-keyboard-response","23","361501","0.0-23.0","C3EDA99F4B0F410395C4676EB1DF6E21","019cfcb6-eda6-7937-a0c5-ce52babaf31c","019cfc7b-6c7b-7b1b-afe7-acad8efc6711","","null","
                <div class=""stimulus-container"">
                    <img src=""images/causal_sequence/dog_causal/dog_causal_4.png"" class=""exp-image"">
                    <div class=""question-area""></div> 
                </div>","null","","","","","","","","","","","",""
"","","","","","html-button-response","24","361905","0.0-24.0","C3EDA99F4B0F410395C4676EB1DF6E21","019cfcb6-eda6-7937-a0c5-ce52babaf31c","019cfc7b-6c7b-7b1b-afe7-acad8efc6711","","403","
                <div class=""stimulus-container"">
                    <img src=""images/causal_sequence/dog_causal/dog_causal_4.png"" class=""exp-image"">
                    <div class=""question-area"">
                        <p style=""font-size: 20px; font-weight: bold; margin: 0;"">Is there a person in this image?</p>
                    </div>
                </div>","0","main_experiment_trial","4","dog_causal","causal_sequence","chronological","","","","","","",""
"","","","","","html-keyboard-response","25","366913","0.0-25.0","C3EDA99F4B0F410395C4676EB1DF6E21","019cfcb6-eda6-7937-a0c5-ce52babaf31c","019cfc7b-6c7b-7b1b-afe7-acad8efc6711","","null","
                <div class=""stimulus-container"">
                    <img src=""images/causal_sequence/dog_causal/dog_causal_5.png"" class=""exp-image"">
                    <div class=""question-area""></div> 
                </div>","null","","","","","","","","","","","",""
"","","","","","html-button-response","26","367592","0.0-26.0","C3EDA99F4B0F410395C4676EB1DF6E21","019cfcb6-eda6-7937-a0c5-ce52babaf31c","019cfc7b-6c7b-7b1b-afe7-acad8efc6711","","677","
                <div class=""stimulus-container"">
                    <img src=""images/causal_sequence/dog_causal/dog_causal_5.png"" class=""exp-image"">
                    <div class=""question-area"">
                        <p style=""font-size: 20px; font-weight: bold; margin: 0;"">Is there a person in this image?</p>
                    </div>
                </div>","0","main_experiment_trial","5","dog_causal","causal_sequence","chronological","","","","","","",""
"","","","","","html-keyboard-response","27","372606","0.0-27.0","C3EDA99F4B0F410395C4676EB1DF6E21","019cfcb6-eda6-7937-a0c5-ce52babaf31c","019cfc7b-6c7b-7b1b-afe7-acad8efc6711","","null","
                <div class=""stimulus-container"">
                    <img src=""images/causal_sequence/dog_causal/dog_causal_6.png"" class=""exp-image"">
                    <div class=""question-area""></div> 
                </div>","null","","","","","","","","","","","",""
"","","","","","html-button-response","28","372995","0.0-28.0","C3EDA99F4B0F410395C4676EB1DF6E21","019cfcb6-eda6-7937-a0c5-ce52babaf31c","019cfc7b-6c7b-7b1b-afe7-acad8efc6711","","388","
                <div class=""stimulus-container"">
                    <img src=""images/causal_sequence/dog_causal/dog_causal_6.png"" class=""exp-image"">
                    <div class=""question-area"">
                        <p style=""font-size: 20px; font-weight: bold; margin: 0;"">Is there a person in this image?</p>
                    </div>
                </div>","0","main_experiment_trial","6","dog_causal","causal_sequence","chronological","","","","","","",""
"","","","","","html-keyboard-response","29","378005","0.0-29.0","C3EDA99F4B0F410395C4676EB1DF6E21","019cfcb6-eda6-7937-a0c5-ce52babaf31c","019cfc7b-6c7b-7b1b-afe7-acad8efc6711","","null","
                <div class=""stimulus-container"">
                    <img src=""images/causal_sequence/dog_causal/dog_causal_7.png"" class=""exp-image"">
                    <div class=""question-area""></div> 
                </div>","null","","","","","","","","","","","",""
"","","","","","html-button-response","30","378429","0.0-30.0","C3EDA99F4B0F410395C4676EB1DF6E21","019cfcb6-eda6-7937-a0c5-ce52babaf31c","019cfc7b-6c7b-7b1b-afe7-acad8efc6711","","423","
                <div class=""stimulus-container"">
                    <img src=""images/causal_sequence/dog_causal/dog_causal_7.png"" class=""exp-image"">
                    <div class=""question-area"">
                        <p style=""font-size: 20px; font-weight: bold; margin: 0;"">Is there a person in this image?</p>
                    </div>
                </div>","0","main_experiment_trial","7","dog_causal","causal_sequence","chronological","","","","","","",""
"","","","","","html-keyboard-response","31","383442","0.0-31.0","C3EDA99F4B0F410395C4676EB1DF6E21","019cfcb6-eda6-7937-a0c5-ce52babaf31c","019cfc7b-6c7b-7b1b-afe7-acad8efc6711","","null","
                <div class=""stimulus-container"">
                    <img src=""images/causal_sequence/dog_causal/dog_causal_8.png"" class=""exp-image"">
                    <div class=""question-area""></div> 
                </div>","null","","","","","","","","","","","",""
"","","","","","html-button-response","32","383978","0.0-32.0","C3EDA99F4B0F410395C4676EB1DF6E21","019cfcb6-eda6-7937-a0c5-ce52babaf31c","019cfc7b-6c7b-7b1b-afe7-acad8efc6711","","535","
                <div class=""stimulus-container"">
                    <img src=""images/causal_sequence/dog_causal/dog_causal_8.png"" class=""exp-image"">
                    <div class=""question-area"">
                        <p style=""font-size: 20px; font-weight: bold; margin: 0;"">Is there a person in this image?</p>
                    </div>
                </div>","0","main_experiment_trial","8","dog_causal","causal_sequence","chronological","","","","","","",""
"","","","","","html-keyboard-response","33","388982","0.0-33.0","C3EDA99F4B0F410395C4676EB1DF6E21","019cfcb6-eda6-7937-a0c5-ce52babaf31c","019cfc7b-6c7b-7b1b-afe7-acad8efc6711","","null","
                <div class=""stimulus-container"">
                    <img src=""images/causal_sequence/dog_causal/dog_causal_9.png"" class=""exp-image"">
                    <div class=""question-area""></div> 
                </div>","null","","","","","","","","","","","",""
"","","","","","html-button-response","34","389462","0.0-34.0","C3EDA99F4B0F410395C4676EB1DF6E21","019cfcb6-eda6-7937-a0c5-ce52babaf31c","019cfc7b-6c7b-7b1b-afe7-acad8efc6711","","479","
                <div class=""stimulus-container"">
                    <img src=""images/causal_sequence/dog_causal/dog_causal_9.png"" class=""exp-image"">
                    <div class=""question-area"">
                        <p style=""font-size: 20px; font-weight: bold; margin: 0;"">Is there a person in this image?</p>
                    </div>
                </div>","0","main_experiment_trial","9","dog_causal","causal_sequence","chronological","","","","","","",""
"","","","","","html-keyboard-response","35","394476","0.0-35.0","C3EDA99F4B0F410395C4676EB1DF6E21","019cfcb6-eda6-7937-a0c5-ce52babaf31c","019cfc7b-6c7b-7b1b-afe7-acad8efc6711","","null","
                <div class=""stimulus-container"">
                    <img src=""images/causal_sequence/dog_causal/dog_causal_ten.png"" class=""exp-image"">
                    <div class=""question-area""></div> 
                </div>","null","","","","","","","","","","","",""
"","","","","","html-button-response","36","395677","0.0-36.0","C3EDA99F4B0F410395C4676EB1DF6E21","019cfcb6-eda6-7937-a0c5-ce52babaf31c","019cfc7b-6c7b-7b1b-afe7-acad8efc6711","","1201","
                <div class=""stimulus-container"">
                    <img src=""images/causal_sequence/dog_causal/dog_causal_ten.png"" class=""exp-image"">
                    <div class=""question-area"">
                        <p style=""font-size: 20px; font-weight: bold; margin: 0;"">Is there a person in this image?</p>
                    </div>
                </div>","0","main_experiment_trial","ten","dog_causal","causal_sequence","chronological","","","","","","",""
"","","","","","html-keyboard-response","37","400678","0.0-37.0","C3EDA99F4B0F410395C4676EB1DF6E21","019cfcb6-eda6-7937-a0c5-ce52babaf31c","019cfc7b-6c7b-7b1b-afe7-acad8efc6711","","null","<div style=""background-color: white; width: 100vw; height: 100vh;""></div>","null","","","","","","","","","","","",""
"","","","","","html-keyboard-response","38","405680","0.0-38.0","C3EDA99F4B0F410395C4676EB1DF6E21","019cfcb6-eda6-7937-a0c5-ce52babaf31c","019cfc7b-6c7b-7b1b-afe7-acad8efc6711","","null","
                <div class=""stimulus-container"">
                    <img src=""images/schematic_sequence/hotel_scheme/hotel_scheme_1.png"" class=""exp-image"">
                    <div class=""question-area""></div> 
                </div>","null","","","","","","","","","","","",""
"","","","","","html-button-response","39","406703","0.0-39.0","C3EDA99F4B0F410395C4676EB1DF6E21","019cfcb6-eda6-7937-a0c5-ce52babaf31c","019cfc7b-6c7b-7b1b-afe7-acad8efc6711","","1023","
                <div class=""stimulus-container"">
                    <img src=""images/schematic_sequence/hotel_scheme/hotel_scheme_1.png"" class=""exp-image"">
                    <div class=""question-area"">
                        <p style=""font-size: 20px; font-weight: bold; margin: 0;"">Is there a person in this image?</p>
                    </div>
                </div>","1","main_experiment_trial","1","hotel_scheme","schematic_sequence","chronological","","","","","","",""
"","","","","","html-keyboard-response","40","411709","0.0-40.0","C3EDA99F4B0F410395C4676EB1DF6E21","019cfcb6-eda6-7937-a0c5-ce52babaf31c","019cfc7b-6c7b-7b1b-afe7-acad8efc6711","","null","
                <div class=""stimulus-container"">
                    <img src=""images/schematic_sequence/hotel_scheme/hotel_scheme_2.png"" class=""exp-image"">
                    <div class=""question-area""></div> 
                </div>","null","","","","","","","","","","","",""
"","","","","","html-button-response","41","412203","0.0-41.0","C3EDA99F4B0F410395C4676EB1DF6E21","019cfcb6-eda6-7937-a0c5-ce52babaf31c","019cfc7b-6c7b-7b1b-afe7-acad8efc6711","","493","
                <div class=""stimulus-container"">
                    <img src=""images/schematic_sequence/hotel_scheme/hotel_scheme_2.png"" class=""exp-image"">
                    <div class=""question-area"">
                        <p style=""font-size: 20px; font-weight: bold; margin: 0;"">Is there a person in this image?</p>
                    </div>
                </div>","0","main_experiment_trial","2","hotel_scheme","schematic_sequence","chronological","","","","","","",""
"","","","","","html-keyboard-response","42","417213","0.0-42.0","C3EDA99F4B0F410395C4676EB1DF6E21","019cfcb6-eda6-7937-a0c5-ce52babaf31c","019cfc7b-6c7b-7b1b-afe7-acad8efc6711","","null","
                <div class=""stimulus-container"">
                    <img src=""images/schematic_sequence/hotel_scheme/hotel_scheme_3.png"" class=""exp-image"">
                    <div class=""question-area""></div> 
                </div>","null","","","","","","","","","","","",""
"","","","","","html-button-response","43","418388","0.0-43.0","C3EDA99F4B0F410395C4676EB1DF6E21","019cfcb6-eda6-7937-a0c5-ce52babaf31c","019cfc7b-6c7b-7b1b-afe7-acad8efc6711","","1174","
                <div class=""stimulus-container"">
                    <img src=""images/schematic_sequence/hotel_scheme/hotel_scheme_3.png"" class=""exp-image"">
                    <div class=""question-area"">
                        <p style=""font-size: 20px; font-weight: bold; margin: 0;"">Is there a person in this image?</p>
                    </div>
                </div>","0","main_experiment_trial","3","hotel_scheme","schematic_sequence","chronological","","","","","","",""
"","","","","","html-keyboard-response","44","423395","0.0-44.0","C3EDA99F4B0F410395C4676EB1DF6E21","019cfcb6-eda6-7937-a0c5-ce52babaf31c","019cfc7b-6c7b-7b1b-afe7-acad8efc6711","","null","
                <div class=""stimulus-container"">
                    <img src=""images/schematic_sequence/hotel_scheme/hotel_scheme_4.png"" class=""exp-image"">
                    <div class=""question-area""></div> 
                </div>","null","","","","","","","","","","","",""
"","","","","","html-button-response","45","424051","0.0-45.0","C3EDA99F4B0F410395C4676EB1DF6E21","019cfcb6-eda6-7937-a0c5-ce52babaf31c","019cfc7b-6c7b-7b1b-afe7-acad8efc6711","","655","
                <div class=""stimulus-container"">
                    <img src=""images/schematic_sequence/hotel_scheme/hotel_scheme_4.png"" class=""exp-image"">
                    <div class=""question-area"">
                        <p style=""font-size: 20px; font-weight: bold; margin: 0;"">Is there a person in this image?</p>
                    </div>
                </div>","1","main_experiment_trial","4","hotel_scheme","schematic_sequence","chronological","","","","","","",""
"","","","","","html-keyboard-response","46","429058","0.0-46.0","C3EDA99F4B0F410395C4676EB1DF6E21","019cfcb6-eda6-7937-a0c5-ce52babaf31c","019cfc7b-6c7b-7b1b-afe7-acad8efc6711","","null","
                <div class=""stimulus-container"">
                    <img src=""images/schematic_sequence/hotel_scheme/hotel_scheme_5.png"" class=""exp-image"">
                    <div class=""question-area""></div> 
                </div>","null","","","","","","","","","","","",""
"","","","","","html-button-response","47","430080","0.0-47.0","C3EDA99F4B0F410395C4676EB1DF6E21","019cfcb6-eda6-7937-a0c5-ce52babaf31c","019cfc7b-6c7b-7b1b-afe7-acad8efc6711","","1021","
                <div class=""stimulus-container"">
                    <img src=""images/schematic_sequence/hotel_scheme/hotel_scheme_5.png"" class=""exp-image"">
                    <div class=""question-area"">
                        <p style=""font-size: 20px; font-weight: bold; margin: 0;"">Is there a person in this image?</p>
                    </div>
                </div>","0","main_experiment_trial","5","hotel_scheme","schematic_sequence","chronological","","","","","","",""
"","","","","","html-keyboard-response","48","435083","0.0-48.0","C3EDA99F4B0F410395C4676EB1DF6E21","019cfcb6-eda6-7937-a0c5-ce52babaf31c","019cfc7b-6c7b-7b1b-afe7-acad8efc6711","","null","
                <div class=""stimulus-container"">
                    <img src=""images/schematic_sequence/hotel_scheme/hotel_scheme_6.png"" class=""exp-image"">
                    <div class=""question-area""></div> 
                </div>","null","","","","","","","","","","","",""
"","","","","","html-button-response","49","435554","0.0-49.0","C3EDA99F4B0F410395C4676EB1DF6E21","019cfcb6-eda6-7937-a0c5-ce52babaf31c","019cfc7b-6c7b-7b1b-afe7-acad8efc6711","","470","
                <div class=""stimulus-container"">
                    <img src=""images/schematic_sequence/hotel_scheme/hotel_scheme_6.png"" class=""exp-image"">
                    <div class=""question-area"">
                        <p style=""font-size: 20px; font-weight: bold; margin: 0;"">Is there a person in this image?</p>
                    </div>
                </div>","0","main_experiment_trial","6","hotel_scheme","schematic_sequence","chronological","","","","","","",""
"","","","","","html-keyboard-response","50","440564","0.0-50.0","C3EDA99F4B0F410395C4676EB1DF6E21","019cfcb6-eda6-7937-a0c5-ce52babaf31c","019cfc7b-6c7b-7b1b-afe7-acad8efc6711","","null","
                <div class=""stimulus-container"">
                    <img src=""images/schematic_sequence/hotel_scheme/hotel_scheme_7.png"" class=""exp-image"">
                    <div class=""question-area""></div> 
                </div>","null","","","","","","","","","","","",""
"","","","","","html-button-response","51","441027","0.0-51.0","C3EDA99F4B0F410395C4676EB1DF6E21","019cfcb6-eda6-7937-a0c5-ce52babaf31c","019cfc7b-6c7b-7b1b-afe7-acad8efc6711","","463","
                <div class=""stimulus-container"">
                    <img src=""images/schematic_sequence/hotel_scheme/hotel_scheme_7.png"" class=""exp-image"">
                    <div class=""question-area"">
                        <p style=""font-size: 20px; font-weight: bold; margin: 0;"">Is there a person in this image?</p>
                    </div>
                </div>","0","main_experiment_trial","7","hotel_scheme","schematic_sequence","chronological","","","","","","",""
"","","","","","html-keyboard-response","52","446042","0.0-52.0","C3EDA99F4B0F410395C4676EB1DF6E21","019cfcb6-eda6-7937-a0c5-ce52babaf31c","019cfc7b-6c7b-7b1b-afe7-acad8efc6711","","null","
                <div class=""stimulus-container"">
                    <img src=""images/schematic_sequence/hotel_scheme/hotel_scheme_8.png"" class=""exp-image"">
                    <div class=""question-area""></div> 
                </div>","null","","","","","","","","","","","",""
"","","","","","html-button-response","53","446654","0.0-53.0","C3EDA99F4B0F410395C4676EB1DF6E21","019cfcb6-eda6-7937-a0c5-ce52babaf31c","019cfc7b-6c7b-7b1b-afe7-acad8efc6711","","611","
                <div class=""stimulus-container"">
                    <img src=""images/schematic_sequence/hotel_scheme/hotel_scheme_8.png"" class=""exp-image"">
                    <div class=""question-area"">
                        <p style=""font-size: 20px; font-weight: bold; margin: 0;"">Is there a person in this image?</p>
                    </div>
                </div>","0","main_experiment_trial","8","hotel_scheme","schematic_sequence","chronological","","","","","","",""
"","","","","","html-keyboard-response","54","451664","0.0-54.0","C3EDA99F4B0F410395C4676EB1DF6E21","019cfcb6-eda6-7937-a0c5-ce52babaf31c","019cfc7b-6c7b-7b1b-afe7-acad8efc6711","","null","
                <div class=""stimulus-container"">
                    <img src=""images/schematic_sequence/hotel_scheme/hotel_scheme_9.png"" class=""exp-image"">
                    <div class=""question-area""></div> 
                </div>","null","","","","","","","","","","","",""
"","","","","","html-button-response","55","452407","0.0-55.0","C3EDA99F4B0F410395C4676EB1DF6E21","019cfcb6-eda6-7937-a0c5-ce52babaf31c","019cfc7b-6c7b-7b1b-afe7-acad8efc6711","","742","
                <div class=""stimulus-container"">
                    <img src=""images/schematic_sequence/hotel_scheme/hotel_scheme_9.png"" class=""exp-image"">
                    <div class=""question-area"">
                        <p style=""font-size: 20px; font-weight: bold; margin: 0;"">Is there a person in this image?</p>
                    </div>
                </div>","0","main_experiment_trial","9","hotel_scheme","schematic_sequence","chronological","","","","","","",""
"","","","","","html-keyboard-response","56","457412","0.0-56.0","C3EDA99F4B0F410395C4676EB1DF6E21","019cfcb6-eda6-7937-a0c5-ce52babaf31c","019cfc7b-6c7b-7b1b-afe7-acad8efc6711","","null","
                <div class=""stimulus-container"">
                    <img src=""images/schematic_sequence/hotel_scheme/hotel_scheme_ten.png"" class=""exp-image"">
                    <div class=""question-area""></div> 
                </div>","null","","","","","","","","","","","",""
"","","","","","html-button-response","57","458160","0.0-57.0","C3EDA99F4B0F410395C4676EB1DF6E21","019cfcb6-eda6-7937-a0c5-ce52babaf31c","019cfc7b-6c7b-7b1b-afe7-acad8efc6711","","748","
                <div class=""stimulus-container"">
                    <img src=""images/schematic_sequence/hotel_scheme/hotel_scheme_ten.png"" class=""exp-image"">
                    <div class=""question-area"">
                        <p style=""font-size: 20px; font-weight: bold; margin: 0;"">Is there a person in this image?</p>
                    </div>
                </div>","0","main_experiment_trial","ten","hotel_scheme","schematic_sequence","chronological","","","","","","",""
"","","","","","html-keyboard-response","58","463161","0.0-58.0","C3EDA99F4B0F410395C4676EB1DF6E21","019cfcb6-eda6-7937-a0c5-ce52babaf31c","019cfc7b-6c7b-7b1b-afe7-acad8efc6711","","null","<div style=""background-color: white; width: 100vw; height: 100vh;""></div>","null","","","","","","","","","","","",""
"","","","","","html-keyboard-response","59","468163","0.0-59.0","C3EDA99F4B0F410395C4676EB1DF6E21","019cfcb6-eda6-7937-a0c5-ce52babaf31c","019cfc7b-6c7b-7b1b-afe7-acad8efc6711","","null","
                <div class=""stimulus-container"">
                    <img src=""images/semantic_sequence/kitchen_operations_semantic/kitchen_operations_semantic_1.png"" class=""exp-image"">
                    <div class=""question-area""></div> 
                </div>","null","","","","","","","","","","","",""
"","","","","","html-button-response","60","468967","0.0-60.0","C3EDA99F4B0F410395C4676EB1DF6E21","019cfcb6-eda6-7937-a0c5-ce52babaf31c","019cfc7b-6c7b-7b1b-afe7-acad8efc6711","","803","
                <div class=""stimulus-container"">
                    <img src=""images/semantic_sequence/kitchen_operations_semantic/kitchen_operations_semantic_1.png"" class=""exp-image"">
                    <div class=""question-area"">
                        <p style=""font-size: 20px; font-weight: bold; margin: 0;"">Is there a person in this image?</p>
                    </div>
                </div>","0","main_experiment_trial","1","kitchen_operations_semantic","semantic_sequence","chronological","","","","","","",""
"","","","","","html-keyboard-response","61","473974","0.0-61.0","C3EDA99F4B0F410395C4676EB1DF6E21","019cfcb6-eda6-7937-a0c5-ce52babaf31c","019cfc7b-6c7b-7b1b-afe7-acad8efc6711","","null","
                <div class=""stimulus-container"">
                    <img src=""images/semantic_sequence/kitchen_operations_semantic/kitchen_operations_semantic_2.png"" class=""exp-image"">
                    <div class=""question-area""></div> 
                </div>","null","","","","","","","","","","","",""
"","","","","","html-button-response","62","474699","0.0-62.0","C3EDA99F4B0F410395C4676EB1DF6E21","019cfcb6-eda6-7937-a0c5-ce52babaf31c","019cfc7b-6c7b-7b1b-afe7-acad8efc6711","","724","
                <div class=""stimulus-container"">
                    <img src=""images/semantic_sequence/kitchen_operations_semantic/kitchen_operations_semantic_2.png"" class=""exp-image"">
                    <div class=""question-area"">
                        <p style=""font-size: 20px; font-weight: bold; margin: 0;"">Is there a person in this image?</p>
                    </div>
                </div>","0","main_experiment_trial","2","kitchen_operations_semantic","semantic_sequence","chronological","","","","","","",""
"","","","","","html-keyboard-response","63","479706","0.0-63.0","C3EDA99F4B0F410395C4676EB1DF6E21","019cfcb6-eda6-7937-a0c5-ce52babaf31c","019cfc7b-6c7b-7b1b-afe7-acad8efc6711","","null","
                <div class=""stimulus-container"">
                    <img src=""images/semantic_sequence/kitchen_operations_semantic/kitchen_operations_semantic_3.png"" class=""exp-image"">
                    <div class=""question-area""></div> 
                </div>","null","","","","","","","","","","","",""
"","","","","","html-button-response","64","480406","0.0-64.0","C3EDA99F4B0F410395C4676EB1DF6E21","019cfcb6-eda6-7937-a0c5-ce52babaf31c","019cfc7b-6c7b-7b1b-afe7-acad8efc6711","","700","
                <div class=""stimulus-container"">
                    <img src=""images/semantic_sequence/kitchen_operations_semantic/kitchen_operations_semantic_3.png"" class=""exp-image"">
                    <div class=""question-area"">
                        <p style=""font-size: 20px; font-weight: bold; margin: 0;"">Is there a person in this image?</p>
                    </div>
                </div>","0","main_experiment_trial","3","kitchen_operations_semantic","semantic_sequence","chronological","","","","","","",""
"","","","","","html-keyboard-response","65","485419","0.0-65.0","C3EDA99F4B0F410395C4676EB1DF6E21","019cfcb6-eda6-7937-a0c5-ce52babaf31c","019cfc7b-6c7b-7b1b-afe7-acad8efc6711","","null","
                <div class=""stimulus-container"">
                    <img src=""images/semantic_sequence/kitchen_operations_semantic/kitchen_operations_semantic_4.png"" class=""exp-image"">
                    <div class=""question-area""></div> 
                </div>","null","","","","","","","","","","","",""
"","","","","","html-button-response","66","485819","0.0-66.0","C3EDA99F4B0F410395C4676EB1DF6E21","019cfcb6-eda6-7937-a0c5-ce52babaf31c","019cfc7b-6c7b-7b1b-afe7-acad8efc6711","","399","
                <div class=""stimulus-container"">
                    <img src=""images/semantic_sequence/kitchen_operations_semantic/kitchen_operations_semantic_4.png"" class=""exp-image"">
                    <div class=""question-area"">
                        <p style=""font-size: 20px; font-weight: bold; margin: 0;"">Is there a person in this image?</p>
                    </div>
                </div>","0","main_experiment_trial","4","kitchen_operations_semantic","semantic_sequence","chronological","","","","","","",""
"","","","","","html-keyboard-response","67","490823","0.0-67.0","C3EDA99F4B0F410395C4676EB1DF6E21","019cfcb6-eda6-7937-a0c5-ce52babaf31c","019cfc7b-6c7b-7b1b-afe7-acad8efc6711","","null","
                <div class=""stimulus-container"">
                    <img src=""images/semantic_sequence/kitchen_operations_semantic/kitchen_operations_semantic_5.png"" class=""exp-image"">
                    <div class=""question-area""></div> 
                </div>","null","","","","","","","","","","","",""
"","","","","","html-button-response","68","491231","0.0-68.0","C3EDA99F4B0F410395C4676EB1DF6E21","019cfcb6-eda6-7937-a0c5-ce52babaf31c","019cfc7b-6c7b-7b1b-afe7-acad8efc6711","","408","
                <div class=""stimulus-container"">
                    <img src=""images/semantic_sequence/kitchen_operations_semantic/kitchen_operations_semantic_5.png"" class=""exp-image"">
                    <div class=""question-area"">
                        <p style=""font-size: 20px; font-weight: bold; margin: 0;"">Is there a person in this image?</p>
                    </div>
                </div>","0","main_experiment_trial","5","kitchen_operations_semantic","semantic_sequence","chronological","","","","","","",""
"","","","","","html-keyboard-response","69","496233","0.0-69.0","C3EDA99F4B0F410395C4676EB1DF6E21","019cfcb6-eda6-7937-a0c5-ce52babaf31c","019cfc7b-6c7b-7b1b-afe7-acad8efc6711","","null","
                <div class=""stimulus-container"">
                    <img src=""images/semantic_sequence/kitchen_operations_semantic/kitchen_operations_semantic_6.png"" class=""exp-image"">
                    <div class=""question-area""></div> 
                </div>","null","","","","","","","","","","","",""
"","","","","","html-button-response","70","496820","0.0-70.0","C3EDA99F4B0F410395C4676EB1DF6E21","019cfcb6-eda6-7937-a0c5-ce52babaf31c","019cfc7b-6c7b-7b1b-afe7-acad8efc6711","","586","
                <div class=""stimulus-container"">
                    <img src=""images/semantic_sequence/kitchen_operations_semantic/kitchen_operations_semantic_6.png"" class=""exp-image"">
                    <div class=""question-area"">
                        <p style=""font-size: 20px; font-weight: bold; margin: 0;"">Is there a person in this image?</p>
                    </div>
                </div>","0","main_experiment_trial","6","kitchen_operations_semantic","semantic_sequence","chronological","","","","","","",""
"","","","","","html-keyboard-response","71","501829","0.0-71.0","C3EDA99F4B0F410395C4676EB1DF6E21","019cfcb6-eda6-7937-a0c5-ce52babaf31c","019cfc7b-6c7b-7b1b-afe7-acad8efc6711","","null","
                <div class=""stimulus-container"">
                    <img src=""images/semantic_sequence/kitchen_operations_semantic/kitchen_operations_semantic_7.png"" class=""exp-image"">
                    <div class=""question-area""></div> 
                </div>","null","","","","","","","","","","","",""
"","","","","","html-button-response","72","502610","0.0-72.0","C3EDA99F4B0F410395C4676EB1DF6E21","019cfcb6-eda6-7937-a0c5-ce52babaf31c","019cfc7b-6c7b-7b1b-afe7-acad8efc6711","","781","
                <div class=""stimulus-container"">
                    <img src=""images/semantic_sequence/kitchen_operations_semantic/kitchen_operations_semantic_7.png"" class=""exp-image"">
                    <div class=""question-area"">
                        <p style=""font-size: 20px; font-weight: bold; margin: 0;"">Is there a person in this image?</p>
                    </div>
                </div>","0","main_experiment_trial","7","kitchen_operations_semantic","semantic_sequence","chronological","","","","","","",""
"","","","","","html-keyboard-response","73","507621","0.0-73.0","C3EDA99F4B0F410395C4676EB1DF6E21","019cfcb6-eda6-7937-a0c5-ce52babaf31c","019cfc7b-6c7b-7b1b-afe7-acad8efc6711","","null","
                <div class=""stimulus-container"">
                    <img src=""images/semantic_sequence/kitchen_operations_semantic/kitchen_operations_semantic_8.png"" class=""exp-image"">
                    <div class=""question-area""></div> 
                </div>","null","","","","","","","","","","","",""
"","","","","","html-button-response","74","508037","0.0-74.0","C3EDA99F4B0F410395C4676EB1DF6E21","019cfcb6-eda6-7937-a0c5-ce52babaf31c","019cfc7b-6c7b-7b1b-afe7-acad8efc6711","","416","
                <div class=""stimulus-container"">
                    <img src=""images/semantic_sequence/kitchen_operations_semantic/kitchen_operations_semantic_8.png"" class=""exp-image"">
                    <div class=""question-area"">
                        <p style=""font-size: 20px; font-weight: bold; margin: 0;"">Is there a person in this image?</p>
                    </div>
                </div>","0","main_experiment_trial","8","kitchen_operations_semantic","semantic_sequence","chronological","","","","","","",""
"","","","","","html-keyboard-response","75","513048","0.0-75.0","C3EDA99F4B0F410395C4676EB1DF6E21","019cfcb6-eda6-7937-a0c5-ce52babaf31c","019cfc7b-6c7b-7b1b-afe7-acad8efc6711","","null","
                <div class=""stimulus-container"">
                    <img src=""images/semantic_sequence/kitchen_operations_semantic/kitchen_operations_semantic_9.png"" class=""exp-image"">
                    <div class=""question-area""></div> 
                </div>","null","","","","","","","","","","","",""
"","","","","","html-button-response","76","513512","0.0-76.0","C3EDA99F4B0F410395C4676EB1DF6E21","019cfcb6-eda6-7937-a0c5-ce52babaf31c","019cfc7b-6c7b-7b1b-afe7-acad8efc6711","","463","
                <div class=""stimulus-container"">
                    <img src=""images/semantic_sequence/kitchen_operations_semantic/kitchen_operations_semantic_9.png"" class=""exp-image"">
                    <div class=""question-area"">
                        <p style=""font-size: 20px; font-weight: bold; margin: 0;"">Is there a person in this image?</p>
                    </div>
                </div>","0","main_experiment_trial","9","kitchen_operations_semantic","semantic_sequence","chronological","","","","","","",""
"","","","","","html-keyboard-response","77","518522","0.0-77.0","C3EDA99F4B0F410395C4676EB1DF6E21","019cfcb6-eda6-7937-a0c5-ce52babaf31c","019cfc7b-6c7b-7b1b-afe7-acad8efc6711","","null","
                <div class=""stimulus-container"">
                    <img src=""images/semantic_sequence/kitchen_operations_semantic/kitchen_operations_semantic_ten.png"" class=""exp-image"">
                    <div class=""question-area""></div> 
                </div>","null","","","","","","","","","","","",""
"","","","","","html-button-response","78","519460","0.0-78.0","C3EDA99F4B0F410395C4676EB1DF6E21","019cfcb6-eda6-7937-a0c5-ce52babaf31c","019cfc7b-6c7b-7b1b-afe7-acad8efc6711","","937","
                <div class=""stimulus-container"">
                    <img src=""images/semantic_sequence/kitchen_operations_semantic/kitchen_operations_semantic_ten.png"" class=""exp-image"">
                    <div class=""question-area"">
                        <p style=""font-size: 20px; font-weight: bold; margin: 0;"">Is there a person in this image?</p>
                    </div>
                </div>","0","main_experiment_trial","ten","kitchen_operations_semantic","semantic_sequence","chronological","","","","","","",""
"","","","","","html-keyboard-response","79","524462","0.0-79.0","C3EDA99F4B0F410395C4676EB1DF6E21","019cfcb6-eda6-7937-a0c5-ce52babaf31c","019cfc7b-6c7b-7b1b-afe7-acad8efc6711","","null","<div style=""background-color: white; width: 100vw; height: 100vh;""></div>","null","","","","","","","","","","","",""
"","","","","","html-keyboard-response","80","529467","0.0-80.0","C3EDA99F4B0F410395C4676EB1DF6E21","019cfcb6-eda6-7937-a0c5-ce52babaf31c","019cfc7b-6c7b-7b1b-afe7-acad8efc6711","","null","
                <div class=""stimulus-container"">
                    <img src=""images/schematic_sequence/supermarket_scheme/supermarket_scheme_1.png"" class=""exp-image"">
                    <div class=""question-area""></div> 
                </div>","null","","","","","","","","","","","",""
"","","","","","html-button-response","81","530242","0.0-81.0","C3EDA99F4B0F410395C4676EB1DF6E21","019cfcb6-eda6-7937-a0c5-ce52babaf31c","019cfc7b-6c7b-7b1b-afe7-acad8efc6711","","775","
                <div class=""stimulus-container"">
                    <img src=""images/schematic_sequence/supermarket_scheme/supermarket_scheme_1.png"" class=""exp-image"">
                    <div class=""question-area"">
                        <p style=""font-size: 20px; font-weight: bold; margin: 0;"">Is there a person in this image?</p>
                    </div>
                </div>","1","main_experiment_trial","1","supermarket_scheme","schematic_sequence","chronological","","","","","","",""
"","","","","","html-keyboard-response","82","535247","0.0-82.0","C3EDA99F4B0F410395C4676EB1DF6E21","019cfcb6-eda6-7937-a0c5-ce52babaf31c","019cfc7b-6c7b-7b1b-afe7-acad8efc6711","","null","
                <div class=""stimulus-container"">
                    <img src=""images/schematic_sequence/supermarket_scheme/supermarket_scheme_2.png"" class=""exp-image"">
                    <div class=""question-area""></div> 
                </div>","null","","","","","","","","","","","",""
"","","","","","html-button-response","83","535706","0.0-83.0","C3EDA99F4B0F410395C4676EB1DF6E21","019cfcb6-eda6-7937-a0c5-ce52babaf31c","019cfc7b-6c7b-7b1b-afe7-acad8efc6711","","459","
                <div class=""stimulus-container"">
                    <img src=""images/schematic_sequence/supermarket_scheme/supermarket_scheme_2.png"" class=""exp-image"">
                    <div class=""question-area"">
                        <p style=""font-size: 20px; font-weight: bold; margin: 0;"">Is there a person in this image?</p>
                    </div>
                </div>","1","main_experiment_trial","2","supermarket_scheme","schematic_sequence","chronological","","","","","","",""
"","","","","","html-keyboard-response","84","540711","0.0-84.0","C3EDA99F4B0F410395C4676EB1DF6E21","019cfcb6-eda6-7937-a0c5-ce52babaf31c","019cfc7b-6c7b-7b1b-afe7-acad8efc6711","","null","
                <div class=""stimulus-container"">
                    <img src=""images/schematic_sequence/supermarket_scheme/supermarket_scheme_3.png"" class=""exp-image"">
                    <div class=""question-area""></div> 
                </div>","null","","","","","","","","","","","",""
"","","","","","html-button-response","85","541122","0.0-85.0","C3EDA99F4B0F410395C4676EB1DF6E21","019cfcb6-eda6-7937-a0c5-ce52babaf31c","019cfc7b-6c7b-7b1b-afe7-acad8efc6711","","410","
                <div class=""stimulus-container"">
                    <img src=""images/schematic_sequence/supermarket_scheme/supermarket_scheme_3.png"" class=""exp-image"">
                    <div class=""question-area"">
                        <p style=""font-size: 20px; font-weight: bold; margin: 0;"">Is there a person in this image?</p>
                    </div>
                </div>","1","main_experiment_trial","3","supermarket_scheme","schematic_sequence","chronological","","","","","","",""
"","","","","","html-keyboard-response","86","546131","0.0-86.0","C3EDA99F4B0F410395C4676EB1DF6E21","019cfcb6-eda6-7937-a0c5-ce52babaf31c","019cfc7b-6c7b-7b1b-afe7-acad8efc6711","","null","
                <div class=""stimulus-container"">
                    <img src=""images/schematic_sequence/supermarket_scheme/supermarket_scheme_4.png"" class=""exp-image"">
                    <div class=""question-area""></div> 
                </div>","null","","","","","","","","","","","",""
"","","","","","html-button-response","87","548283","0.0-87.0","C3EDA99F4B0F410395C4676EB1DF6E21","019cfcb6-eda6-7937-a0c5-ce52babaf31c","019cfc7b-6c7b-7b1b-afe7-acad8efc6711","","2152","
                <div class=""stimulus-container"">
                    <img src=""images/schematic_sequence/supermarket_scheme/supermarket_scheme_4.png"" class=""exp-image"">
                    <div class=""question-area"">
                        <p style=""font-size: 20px; font-weight: bold; margin: 0;"">Is there a person in this image?</p>
                    </div>
                </div>","0","main_experiment_trial","4","supermarket_scheme","schematic_sequence","chronological","","","","","","",""
"","","","","","html-keyboard-response","88","553291","0.0-88.0","C3EDA99F4B0F410395C4676EB1DF6E21","019cfcb6-eda6-7937-a0c5-ce52babaf31c","019cfc7b-6c7b-7b1b-afe7-acad8efc6711","","null","
                <div class=""stimulus-container"">
                    <img src=""images/schematic_sequence/supermarket_scheme/supermarket_scheme_5.png"" class=""exp-image"">
                    <div class=""question-area""></div> 
                </div>","null","","","","","","","","","","","",""
"","","","","","html-button-response","89","553805","0.0-89.0","C3EDA99F4B0F410395C4676EB1DF6E21","019cfcb6-eda6-7937-a0c5-ce52babaf31c","019cfc7b-6c7b-7b1b-afe7-acad8efc6711","","513","
                <div class=""stimulus-container"">
                    <img src=""images/schematic_sequence/supermarket_scheme/supermarket_scheme_5.png"" class=""exp-image"">
                    <div class=""question-area"">
                        <p style=""font-size: 20px; font-weight: bold; margin: 0;"">Is there a person in this image?</p>
                    </div>
                </div>","1","main_experiment_trial","5","supermarket_scheme","schematic_sequence","chronological","","","","","","",""
"","","","","","html-keyboard-response","90","558814","0.0-90.0","C3EDA99F4B0F410395C4676EB1DF6E21","019cfcb6-eda6-7937-a0c5-ce52babaf31c","019cfc7b-6c7b-7b1b-afe7-acad8efc6711","","null","
                <div class=""stimulus-container"">
                    <img src=""images/schematic_sequence/supermarket_scheme/supermarket_scheme_6.png"" class=""exp-image"">
                    <div class=""question-area""></div> 
                </div>","null","","","","","","","","","","","",""
"","","","","","html-button-response","91","559575","0.0-91.0","C3EDA99F4B0F410395C4676EB1DF6E21","019cfcb6-eda6-7937-a0c5-ce52babaf31c","019cfc7b-6c7b-7b1b-afe7-acad8efc6711","","760","
                <div class=""stimulus-container"">
                    <img src=""images/schematic_sequence/supermarket_scheme/supermarket_scheme_6.png"" class=""exp-image"">
                    <div class=""question-area"">
                        <p style=""font-size: 20px; font-weight: bold; margin: 0;"">Is there a person in this image?</p>
                    </div>
                </div>","0","main_experiment_trial","6","supermarket_scheme","schematic_sequence","chronological","","","","","","",""
"","","","","","html-keyboard-response","92","564590","0.0-92.0","C3EDA99F4B0F410395C4676EB1DF6E21","019cfcb6-eda6-7937-a0c5-ce52babaf31c","019cfc7b-6c7b-7b1b-afe7-acad8efc6711","","null","
                <div class=""stimulus-container"">
                    <img src=""images/schematic_sequence/supermarket_scheme/supermarket_scheme_7.png"" class=""exp-image"">
                    <div class=""question-area""></div> 
                </div>","null","","","","","","","","","","","",""
"","","","","","html-button-response","93","565236","0.0-93.0","C3EDA99F4B0F410395C4676EB1DF6E21","019cfcb6-eda6-7937-a0c5-ce52babaf31c","019cfc7b-6c7b-7b1b-afe7-acad8efc6711","","645","
                <div class=""stimulus-container"">
                    <img src=""images/schematic_sequence/supermarket_scheme/supermarket_scheme_7.png"" class=""exp-image"">
                    <div class=""question-area"">
                        <p style=""font-size: 20px; font-weight: bold; margin: 0;"">Is there a person in this image?</p>
                    </div>
                </div>","0","main_experiment_trial","7","supermarket_scheme","schematic_sequence","chronological","","","","","","",""
"","","","","","html-keyboard-response","94","570241","0.0-94.0","C3EDA99F4B0F410395C4676EB1DF6E21","019cfcb6-eda6-7937-a0c5-ce52babaf31c","019cfc7b-6c7b-7b1b-afe7-acad8efc6711","","null","
                <div class=""stimulus-container"">
                    <img src=""images/schematic_sequence/supermarket_scheme/supermarket_scheme_8.png"" class=""exp-image"">
                    <div class=""question-area""></div> 
                </div>","null","","","","","","","","","","","",""
"","","","","","html-button-response","95","571189","0.0-95.0","C3EDA99F4B0F410395C4676EB1DF6E21","019cfcb6-eda6-7937-a0c5-ce52babaf31c","019cfc7b-6c7b-7b1b-afe7-acad8efc6711","","947","
                <div class=""stimulus-container"">
                    <img src=""images/schematic_sequence/supermarket_scheme/supermarket_scheme_8.png"" class=""exp-image"">
                    <div class=""question-area"">
                        <p style=""font-size: 20px; font-weight: bold; margin: 0;"">Is there a person in this image?</p>
                    </div>
                </div>","0","main_experiment_trial","8","supermarket_scheme","schematic_sequence","chronological","","","","","","",""
"","","","","","html-keyboard-response","96","576205","0.0-96.0","C3EDA99F4B0F410395C4676EB1DF6E21","019cfcb6-eda6-7937-a0c5-ce52babaf31c","019cfc7b-6c7b-7b1b-afe7-acad8efc6711","","null","
                <div class=""stimulus-container"">
                    <img src=""images/schematic_sequence/supermarket_scheme/supermarket_scheme_9.png"" class=""exp-image"">
                    <div class=""question-area""></div> 
                </div>","null","","","","","","","","","","","",""
"","","","","","html-button-response","97","576929","0.0-97.0","C3EDA99F4B0F410395C4676EB1DF6E21","019cfcb6-eda6-7937-a0c5-ce52babaf31c","019cfc7b-6c7b-7b1b-afe7-acad8efc6711","","723","
                <div class=""stimulus-container"">
                    <img src=""images/schematic_sequence/supermarket_scheme/supermarket_scheme_9.png"" class=""exp-image"">
                    <div class=""question-area"">
                        <p style=""font-size: 20px; font-weight: bold; margin: 0;"">Is there a person in this image?</p>
                    </div>
                </div>","0","main_experiment_trial","9","supermarket_scheme","schematic_sequence","chronological","","","","","","",""
"","","","","","html-keyboard-response","98","581931","0.0-98.0","C3EDA99F4B0F410395C4676EB1DF6E21","019cfcb6-eda6-7937-a0c5-ce52babaf31c","019cfc7b-6c7b-7b1b-afe7-acad8efc6711","","null","
                <div class=""stimulus-container"">
                    <img src=""images/schematic_sequence/supermarket_scheme/supermarket_scheme_ten.png"" class=""exp-image"">
                    <div class=""question-area""></div> 
                </div>","null","","","","","","","","","","","",""
"","","","","","html-button-response","99","583085","0.0-99.0","C3EDA99F4B0F410395C4676EB1DF6E21","019cfcb6-eda6-7937-a0c5-ce52babaf31c","019cfc7b-6c7b-7b1b-afe7-acad8efc6711","","1153","
                <div class=""stimulus-container"">
                    <img src=""images/schematic_sequence/supermarket_scheme/supermarket_scheme_ten.png"" class=""exp-image"">
                    <div class=""question-area"">
                        <p style=""font-size: 20px; font-weight: bold; margin: 0;"">Is there a person in this image?</p>
                    </div>
                </div>","1","main_experiment_trial","ten","supermarket_scheme","schematic_sequence","chronological","","","","","","",""
"","","","","","html-keyboard-response","100","588096","0.0-100.0","C3EDA99F4B0F410395C4676EB1DF6E21","019cfcb6-eda6-7937-a0c5-ce52babaf31c","019cfc7b-6c7b-7b1b-afe7-acad8efc6711","","null","<div style=""background-color: white; width: 100vw; height: 100vh;""></div>","null","","","","","","","","","","","",""
"","","","","","html-keyboard-response","101","593097","0.0-101.0","C3EDA99F4B0F410395C4676EB1DF6E21","019cfcb6-eda6-7937-a0c5-ce52babaf31c","019cfc7b-6c7b-7b1b-afe7-acad8efc6711","","null","
                <div class=""stimulus-container"">
                    <img src=""images/causal_sequence/the_performance_causal/the_performance_causal_1.png"" class=""exp-image"">
                    <div class=""question-area""></div> 
                </div>","null","","","","","","","","","","","",""
"","","","","","html-button-response","102","593914","0.0-102.0","C3EDA99F4B0F410395C4676EB1DF6E21","019cfcb6-eda6-7937-a0c5-ce52babaf31c","019cfc7b-6c7b-7b1b-afe7-acad8efc6711","","816","
                <div class=""stimulus-container"">
                    <img src=""images/causal_sequence/the_performance_causal/the_performance_causal_1.png"" class=""exp-image"">
                    <div class=""question-area"">
                        <p style=""font-size: 20px; font-weight: bold; margin: 0;"">Is there a person in this image?</p>
                    </div>
                </div>","0","main_experiment_trial","1","the_performance_causal","causal_sequence","chronological","","","","","","",""
"","","","","","html-keyboard-response","103","598915","0.0-103.0","C3EDA99F4B0F410395C4676EB1DF6E21","019cfcb6-eda6-7937-a0c5-ce52babaf31c","019cfc7b-6c7b-7b1b-afe7-acad8efc6711","","null","
                <div class=""stimulus-container"">
                    <img src=""images/causal_sequence/the_performance_causal/the_performance_causal_2.png"" class=""exp-image"">
                    <div class=""question-area""></div> 
                </div>","null","","","","","","","","","","","",""
"","","","","","html-button-response","104","599744","0.0-104.0","C3EDA99F4B0F410395C4676EB1DF6E21","019cfcb6-eda6-7937-a0c5-ce52babaf31c","019cfc7b-6c7b-7b1b-afe7-acad8efc6711","","829","
                <div class=""stimulus-container"">
                    <img src=""images/causal_sequence/the_performance_causal/the_performance_causal_2.png"" class=""exp-image"">
                    <div class=""question-area"">
                        <p style=""font-size: 20px; font-weight: bold; margin: 0;"">Is there a person in this image?</p>
                    </div>
                </div>","0","main_experiment_trial","2","the_performance_causal","causal_sequence","chronological","","","","","","",""
"","","","","","html-keyboard-response","105","604758","0.0-105.0","C3EDA99F4B0F410395C4676EB1DF6E21","019cfcb6-eda6-7937-a0c5-ce52babaf31c","019cfc7b-6c7b-7b1b-afe7-acad8efc6711","","null","
                <div class=""stimulus-container"">
                    <img src=""images/causal_sequence/the_performance_causal/the_performance_causal_3.png"" class=""exp-image"">
                    <div class=""question-area""></div> 
                </div>","null","","","","","","","","","","","",""
"","","","","","html-button-response","106","605562","0.0-106.0","C3EDA99F4B0F410395C4676EB1DF6E21","019cfcb6-eda6-7937-a0c5-ce52babaf31c","019cfc7b-6c7b-7b1b-afe7-acad8efc6711","","803","
                <div class=""stimulus-container"">
                    <img src=""images/causal_sequence/the_performance_causal/the_performance_causal_3.png"" class=""exp-image"">
                    <div class=""question-area"">
                        <p style=""font-size: 20px; font-weight: bold; margin: 0;"">Is there a person in this image?</p>
                    </div>
                </div>","0","main_experiment_trial","3","the_performance_causal","causal_sequence","chronological","","","","","","",""
"","","","","","html-keyboard-response","107","610564","0.0-107.0","C3EDA99F4B0F410395C4676EB1DF6E21","019cfcb6-eda6-7937-a0c5-ce52babaf31c","019cfc7b-6c7b-7b1b-afe7-acad8efc6711","","null","
                <div class=""stimulus-container"">
                    <img src=""images/causal_sequence/the_performance_causal/the_performance_causal_4.png"" class=""exp-image"">
                    <div class=""question-area""></div> 
                </div>","null","","","","","","","","","","","",""
"","","","","","html-button-response","108","611249","0.0-108.0","C3EDA99F4B0F410395C4676EB1DF6E21","019cfcb6-eda6-7937-a0c5-ce52babaf31c","019cfc7b-6c7b-7b1b-afe7-acad8efc6711","","684","
                <div class=""stimulus-container"">
                    <img src=""images/causal_sequence/the_performance_causal/the_performance_causal_4.png"" class=""exp-image"">
                    <div class=""question-area"">
                        <p style=""font-size: 20px; font-weight: bold; margin: 0;"">Is there a person in this image?</p>
                    </div>
                </div>","0","main_experiment_trial","4","the_performance_causal","causal_sequence","chronological","","","","","","",""
"","","","","","html-keyboard-response","109","616256","0.0-109.0","C3EDA99F4B0F410395C4676EB1DF6E21","019cfcb6-eda6-7937-a0c5-ce52babaf31c","019cfc7b-6c7b-7b1b-afe7-acad8efc6711","","null","
                <div class=""stimulus-container"">
                    <img src=""images/causal_sequence/the_performance_causal/the_performance_causal_5.png"" class=""exp-image"">
                    <div class=""question-area""></div> 
                </div>","null","","","","","","","","","","","",""
"","","","","","html-button-response","110","617017","0.0-110.0","C3EDA99F4B0F410395C4676EB1DF6E21","019cfcb6-eda6-7937-a0c5-ce52babaf31c","019cfc7b-6c7b-7b1b-afe7-acad8efc6711","","760","
                <div class=""stimulus-container"">
                    <img src=""images/causal_sequence/the_performance_causal/the_performance_causal_5.png"" class=""exp-image"">
                    <div class=""question-area"">
                        <p style=""font-size: 20px; font-weight: bold; margin: 0;"">Is there a person in this image?</p>
                    </div>
                </div>","0","main_experiment_trial","5","the_performance_causal","causal_sequence","chronological","","","","","","",""
"","","","","","html-keyboard-response","111","622020","0.0-111.0","C3EDA99F4B0F410395C4676EB1DF6E21","019cfcb6-eda6-7937-a0c5-ce52babaf31c","019cfc7b-6c7b-7b1b-afe7-acad8efc6711","","null","
                <div class=""stimulus-container"">
                    <img src=""images/causal_sequence/the_performance_causal/the_performance_causal_6.png"" class=""exp-image"">
                    <div class=""question-area""></div> 
                </div>","null","","","","","","","","","","","",""
"","","","","","html-button-response","112","623448","0.0-112.0","C3EDA99F4B0F410395C4676EB1DF6E21","019cfcb6-eda6-7937-a0c5-ce52babaf31c","019cfc7b-6c7b-7b1b-afe7-acad8efc6711","","1427","
                <div class=""stimulus-container"">
                    <img src=""images/causal_sequence/the_performance_causal/the_performance_causal_6.png"" class=""exp-image"">
                    <div class=""question-area"">
                        <p style=""font-size: 20px; font-weight: bold; margin: 0;"">Is there a person in this image?</p>
                    </div>
                </div>","0","main_experiment_trial","6","the_performance_causal","causal_sequence","chronological","","","","","","",""
"","","","","","html-keyboard-response","113","628453","0.0-113.0","C3EDA99F4B0F410395C4676EB1DF6E21","019cfcb6-eda6-7937-a0c5-ce52babaf31c","019cfc7b-6c7b-7b1b-afe7-acad8efc6711","","null","
                <div class=""stimulus-container"">
                    <img src=""images/causal_sequence/the_performance_causal/the_performance_causal_7.png"" class=""exp-image"">
                    <div class=""question-area""></div> 
                </div>","null","","","","","","","","","","","",""
"","","","","","html-button-response","114","628953","0.0-114.0","C3EDA99F4B0F410395C4676EB1DF6E21","019cfcb6-eda6-7937-a0c5-ce52babaf31c","019cfc7b-6c7b-7b1b-afe7-acad8efc6711","","499","
                <div class=""stimulus-container"">
                    <img src=""images/causal_sequence/the_performance_causal/the_performance_causal_7.png"" class=""exp-image"">
                    <div class=""question-area"">
                        <p style=""font-size: 20px; font-weight: bold; margin: 0;"">Is there a person in this image?</p>
                    </div>
                </div>","0","main_experiment_trial","7","the_performance_causal","causal_sequence","chronological","","","","","","",""
"","","","","","html-keyboard-response","115","633962","0.0-115.0","C3EDA99F4B0F410395C4676EB1DF6E21","019cfcb6-eda6-7937-a0c5-ce52babaf31c","019cfc7b-6c7b-7b1b-afe7-acad8efc6711","","null","
                <div class=""stimulus-container"">
                    <img src=""images/causal_sequence/the_performance_causal/the_performance_causal_8.png"" class=""exp-image"">
                    <div class=""question-area""></div> 
                </div>","null","","","","","","","","","","","",""
"","","","","","html-button-response","116","634974","0.0-116.0","C3EDA99F4B0F410395C4676EB1DF6E21","019cfcb6-eda6-7937-a0c5-ce52babaf31c","019cfc7b-6c7b-7b1b-afe7-acad8efc6711","","1011","
                <div class=""stimulus-container"">
                    <img src=""images/causal_sequence/the_performance_causal/the_performance_causal_8.png"" class=""exp-image"">
                    <div class=""question-area"">
                        <p style=""font-size: 20px; font-weight: bold; margin: 0;"">Is there a person in this image?</p>
                    </div>
                </div>","0","main_experiment_trial","8","the_performance_causal","causal_sequence","chronological","","","","","","",""
"","","","","","html-keyboard-response","117","639985","0.0-117.0","C3EDA99F4B0F410395C4676EB1DF6E21","019cfcb6-eda6-7937-a0c5-ce52babaf31c","019cfc7b-6c7b-7b1b-afe7-acad8efc6711","","null","
                <div class=""stimulus-container"">
                    <img src=""images/causal_sequence/the_performance_causal/the_performance_causal_9.png"" class=""exp-image"">
                    <div class=""question-area""></div> 
                </div>","null","","","","","","","","","","","",""
"","","","","","html-button-response","118","640932","0.0-118.0","C3EDA99F4B0F410395C4676EB1DF6E21","019cfcb6-eda6-7937-a0c5-ce52babaf31c","019cfc7b-6c7b-7b1b-afe7-acad8efc6711","","947","
                <div class=""stimulus-container"">
                    <img src=""images/causal_sequence/the_performance_causal/the_performance_causal_9.png"" class=""exp-image"">
                    <div class=""question-area"">
                        <p style=""font-size: 20px; font-weight: bold; margin: 0;"">Is there a person in this image?</p>
                    </div>
                </div>","0","main_experiment_trial","9","the_performance_causal","causal_sequence","chronological","","","","","","",""
"","","","","","html-keyboard-response","119","645946","0.0-119.0","C3EDA99F4B0F410395C4676EB1DF6E21","019cfcb6-eda6-7937-a0c5-ce52babaf31c","019cfc7b-6c7b-7b1b-afe7-acad8efc6711","","null","
                <div class=""stimulus-container"">
                    <img src=""images/causal_sequence/the_performance_causal/the_performance_causal_ten.png"" class=""exp-image"">
                    <div class=""question-area""></div> 
                </div>","null","","","","","","","","","","","",""
"","","","","","html-button-response","120","646514","0.0-120.0","C3EDA99F4B0F410395C4676EB1DF6E21","019cfcb6-eda6-7937-a0c5-ce52babaf31c","019cfc7b-6c7b-7b1b-afe7-acad8efc6711","","567","
                <div class=""stimulus-container"">
                    <img src=""images/causal_sequence/the_performance_causal/the_performance_causal_ten.png"" class=""exp-image"">
                    <div class=""question-area"">
                        <p style=""font-size: 20px; font-weight: bold; margin: 0;"">Is there a person in this image?</p>
                    </div>
                </div>","0","main_experiment_trial","ten","the_performance_causal","causal_sequence","chronological","","","","","","",""
"","","","","","html-keyboard-response","121","651520","0.0-121.0","C3EDA99F4B0F410395C4676EB1DF6E21","019cfcb6-eda6-7937-a0c5-ce52babaf31c","019cfc7b-6c7b-7b1b-afe7-acad8efc6711","","null","<div style=""background-color: white; width: 100vw; height: 100vh;""></div>","null","","","","","","","","","","","",""
"","","","","","html-keyboard-response","122","656537","0.0-122.0","C3EDA99F4B0F410395C4676EB1DF6E21","019cfcb6-eda6-7937-a0c5-ce52babaf31c","019cfc7b-6c7b-7b1b-afe7-acad8efc6711","","null","
                <div class=""stimulus-container"">
                    <img src=""images/semantic_sequence/maintaining_a_car_semantic/maintaining_a_car_semantic_1.png"" class=""exp-image"">
                    <div class=""question-area""></div> 
                </div>","null","","","","","","","","","","","",""
"","","","","","html-button-response","123","657174","0.0-123.0","C3EDA99F4B0F410395C4676EB1DF6E21","019cfcb6-eda6-7937-a0c5-ce52babaf31c","019cfc7b-6c7b-7b1b-afe7-acad8efc6711","","637","
                <div class=""stimulus-container"">
                    <img src=""images/semantic_sequence/maintaining_a_car_semantic/maintaining_a_car_semantic_1.png"" class=""exp-image"">
                    <div class=""question-area"">
                        <p style=""font-size: 20px; font-weight: bold; margin: 0;"">Is there a person in this image?</p>
                    </div>
                </div>","0","main_experiment_trial","1","maintaining_a_car_semantic","semantic_sequence","chronological","","","","","","",""
"","","","","","html-keyboard-response","124","662185","0.0-124.0","C3EDA99F4B0F410395C4676EB1DF6E21","019cfcb6-eda6-7937-a0c5-ce52babaf31c","019cfc7b-6c7b-7b1b-afe7-acad8efc6711","","null","
                <div class=""stimulus-container"">
                    <img src=""images/semantic_sequence/maintaining_a_car_semantic/maintaining_a_car_semantic_2.png"" class=""exp-image"">
                    <div class=""question-area""></div> 
                </div>","null","","","","","","","","","","","",""
"","","","","","html-button-response","125","662713","0.0-125.0","C3EDA99F4B0F410395C4676EB1DF6E21","019cfcb6-eda6-7937-a0c5-ce52babaf31c","019cfc7b-6c7b-7b1b-afe7-acad8efc6711","","527","
                <div class=""stimulus-container"">
                    <img src=""images/semantic_sequence/maintaining_a_car_semantic/maintaining_a_car_semantic_2.png"" class=""exp-image"">
                    <div class=""question-area"">
                        <p style=""font-size: 20px; font-weight: bold; margin: 0;"">Is there a person in this image?</p>
                    </div>
                </div>","0","main_experiment_trial","2","maintaining_a_car_semantic","semantic_sequence","chronological","","","","","","",""
"","","","","","html-keyboard-response","126","667729","0.0-126.0","C3EDA99F4B0F410395C4676EB1DF6E21","019cfcb6-eda6-7937-a0c5-ce52babaf31c","019cfc7b-6c7b-7b1b-afe7-acad8efc6711","","null","
                <div class=""stimulus-container"">
                    <img src=""images/semantic_sequence/maintaining_a_car_semantic/maintaining_a_car_semantic_3.png"" class=""exp-image"">
                    <div class=""question-area""></div> 
                </div>","null","","","","","","","","","","","",""
"","","","","","html-button-response","127","668173","0.0-127.0","C3EDA99F4B0F410395C4676EB1DF6E21","019cfcb6-eda6-7937-a0c5-ce52babaf31c","019cfc7b-6c7b-7b1b-afe7-acad8efc6711","","444","
                <div class=""stimulus-container"">
                    <img src=""images/semantic_sequence/maintaining_a_car_semantic/maintaining_a_car_semantic_3.png"" class=""exp-image"">
                    <div class=""question-area"">
                        <p style=""font-size: 20px; font-weight: bold; margin: 0;"">Is there a person in this image?</p>
                    </div>
                </div>","0","main_experiment_trial","3","maintaining_a_car_semantic","semantic_sequence","chronological","","","","","","",""
"","","","","","html-keyboard-response","128","673176","0.0-128.0","C3EDA99F4B0F410395C4676EB1DF6E21","019cfcb6-eda6-7937-a0c5-ce52babaf31c","019cfc7b-6c7b-7b1b-afe7-acad8efc6711","","null","
                <div class=""stimulus-container"">
                    <img src=""images/semantic_sequence/maintaining_a_car_semantic/maintaining_a_car_semantic_4.png"" class=""exp-image"">
                    <div class=""question-area""></div> 
                </div>","null","","","","","","","","","","","",""
"","","","","","html-button-response","129","673681","0.0-129.0","C3EDA99F4B0F410395C4676EB1DF6E21","019cfcb6-eda6-7937-a0c5-ce52babaf31c","019cfc7b-6c7b-7b1b-afe7-acad8efc6711","","504","
                <div class=""stimulus-container"">
                    <img src=""images/semantic_sequence/maintaining_a_car_semantic/maintaining_a_car_semantic_4.png"" class=""exp-image"">
                    <div class=""question-area"">
                        <p style=""font-size: 20px; font-weight: bold; margin: 0;"">Is there a person in this image?</p>
                    </div>
                </div>","0","main_experiment_trial","4","maintaining_a_car_semantic","semantic_sequence","chronological","","","","","","",""
"","","","","","html-keyboard-response","130","678691","0.0-130.0","C3EDA99F4B0F410395C4676EB1DF6E21","019cfcb6-eda6-7937-a0c5-ce52babaf31c","019cfc7b-6c7b-7b1b-afe7-acad8efc6711","","null","
                <div class=""stimulus-container"">
                    <img src=""images/semantic_sequence/maintaining_a_car_semantic/maintaining_a_car_semantic_5.png"" class=""exp-image"">
                    <div class=""question-area""></div> 
                </div>","null","","","","","","","","","","","",""
"","","","","","html-button-response","131","679144","0.0-131.0","C3EDA99F4B0F410395C4676EB1DF6E21","019cfcb6-eda6-7937-a0c5-ce52babaf31c","019cfc7b-6c7b-7b1b-afe7-acad8efc6711","","453","
                <div class=""stimulus-container"">
                    <img src=""images/semantic_sequence/maintaining_a_car_semantic/maintaining_a_car_semantic_5.png"" class=""exp-image"">
                    <div class=""question-area"">
                        <p style=""font-size: 20px; font-weight: bold; margin: 0;"">Is there a person in this image?</p>
                    </div>
                </div>","0","main_experiment_trial","5","maintaining_a_car_semantic","semantic_sequence","chronological","","","","","","",""
"","","","","","html-keyboard-response","132","684157","0.0-132.0","C3EDA99F4B0F410395C4676EB1DF6E21","019cfcb6-eda6-7937-a0c5-ce52babaf31c","019cfc7b-6c7b-7b1b-afe7-acad8efc6711","","null","
                <div class=""stimulus-container"">
                    <img src=""images/semantic_sequence/maintaining_a_car_semantic/maintaining_a_car_semantic_6.png"" class=""exp-image"">
                    <div class=""question-area""></div> 
                </div>","null","","","","","","","","","","","",""
"","","","","","html-button-response","133","684882","0.0-133.0","C3EDA99F4B0F410395C4676EB1DF6E21","019cfcb6-eda6-7937-a0c5-ce52babaf31c","019cfc7b-6c7b-7b1b-afe7-acad8efc6711","","725","
                <div class=""stimulus-container"">
                    <img src=""images/semantic_sequence/maintaining_a_car_semantic/maintaining_a_car_semantic_6.png"" class=""exp-image"">
                    <div class=""question-area"">
                        <p style=""font-size: 20px; font-weight: bold; margin: 0;"">Is there a person in this image?</p>
                    </div>
                </div>","0","main_experiment_trial","6","maintaining_a_car_semantic","semantic_sequence","chronological","","","","","","",""
"","","","","","html-keyboard-response","134","689887","0.0-134.0","C3EDA99F4B0F410395C4676EB1DF6E21","019cfcb6-eda6-7937-a0c5-ce52babaf31c","019cfc7b-6c7b-7b1b-afe7-acad8efc6711","","null","
                <div class=""stimulus-container"">
                    <img src=""images/semantic_sequence/maintaining_a_car_semantic/maintaining_a_car_semantic_7.png"" class=""exp-image"">
                    <div class=""question-area""></div> 
                </div>","null","","","","","","","","","","","",""
"","","","","","html-button-response","135","690565","0.0-135.0","C3EDA99F4B0F410395C4676EB1DF6E21","019cfcb6-eda6-7937-a0c5-ce52babaf31c","019cfc7b-6c7b-7b1b-afe7-acad8efc6711","","677","
                <div class=""stimulus-container"">
                    <img src=""images/semantic_sequence/maintaining_a_car_semantic/maintaining_a_car_semantic_7.png"" class=""exp-image"">
                    <div class=""question-area"">
                        <p style=""font-size: 20px; font-weight: bold; margin: 0;"">Is there a person in this image?</p>
                    </div>
                </div>","0","main_experiment_trial","7","maintaining_a_car_semantic","semantic_sequence","chronological","","","","","","",""
"","","","","","html-keyboard-response","136","695566","0.0-136.0","C3EDA99F4B0F410395C4676EB1DF6E21","019cfcb6-eda6-7937-a0c5-ce52babaf31c","019cfc7b-6c7b-7b1b-afe7-acad8efc6711","","null","
                <div class=""stimulus-container"">
                    <img src=""images/semantic_sequence/maintaining_a_car_semantic/maintaining_a_car_semantic_8.png"" class=""exp-image"">
                    <div class=""question-area""></div> 
                </div>","null","","","","","","","","","","","",""
"","","","","","html-button-response","137","696507","0.0-137.0","C3EDA99F4B0F410395C4676EB1DF6E21","019cfcb6-eda6-7937-a0c5-ce52babaf31c","019cfc7b-6c7b-7b1b-afe7-acad8efc6711","","941","
                <div class=""stimulus-container"">
                    <img src=""images/semantic_sequence/maintaining_a_car_semantic/maintaining_a_car_semantic_8.png"" class=""exp-image"">
                    <div class=""question-area"">
                        <p style=""font-size: 20px; font-weight: bold; margin: 0;"">Is there a person in this image?</p>
                    </div>
                </div>","0","main_experiment_trial","8","maintaining_a_car_semantic","semantic_sequence","chronological","","","","","","",""
"","","","","","html-keyboard-response","138","701520","0.0-138.0","C3EDA99F4B0F410395C4676EB1DF6E21","019cfcb6-eda6-7937-a0c5-ce52babaf31c","019cfc7b-6c7b-7b1b-afe7-acad8efc6711","","null","
                <div class=""stimulus-container"">
                    <img src=""images/semantic_sequence/maintaining_a_car_semantic/maintaining_a_car_semantic_9.png"" class=""exp-image"">
                    <div class=""question-area""></div> 
                </div>","null","","","","","","","","","","","",""
"","","","","","html-button-response","139","701982","0.0-139.0","C3EDA99F4B0F410395C4676EB1DF6E21","019cfcb6-eda6-7937-a0c5-ce52babaf31c","019cfc7b-6c7b-7b1b-afe7-acad8efc6711","","462","
                <div class=""stimulus-container"">
                    <img src=""images/semantic_sequence/maintaining_a_car_semantic/maintaining_a_car_semantic_9.png"" class=""exp-image"">
                    <div class=""question-area"">
                        <p style=""font-size: 20px; font-weight: bold; margin: 0;"">Is there a person in this image?</p>
                    </div>
                </div>","0","main_experiment_trial","9","maintaining_a_car_semantic","semantic_sequence","chronological","","","","","","",""
"","","","","","html-keyboard-response","140","706987","0.0-140.0","C3EDA99F4B0F410395C4676EB1DF6E21","019cfcb6-eda6-7937-a0c5-ce52babaf31c","019cfc7b-6c7b-7b1b-afe7-acad8efc6711","","null","
                <div class=""stimulus-container"">
                    <img src=""images/semantic_sequence/maintaining_a_car_semantic/maintaining_a_car_semantic_ten.png"" class=""exp-image"">
                    <div class=""question-area""></div> 
                </div>","null","","","","","","","","","","","",""
"","","","","","html-button-response","141","707633","0.0-141.0","C3EDA99F4B0F410395C4676EB1DF6E21","019cfcb6-eda6-7937-a0c5-ce52babaf31c","019cfc7b-6c7b-7b1b-afe7-acad8efc6711","","644","
                <div class=""stimulus-container"">
                    <img src=""images/semantic_sequence/maintaining_a_car_semantic/maintaining_a_car_semantic_ten.png"" class=""exp-image"">
                    <div class=""question-area"">
                        <p style=""font-size: 20px; font-weight: bold; margin: 0;"">Is there a person in this image?</p>
                    </div>
                </div>","0","main_experiment_trial","ten","maintaining_a_car_semantic","semantic_sequence","chronological","","","","","","",""
"","","","","","html-keyboard-response","142","712638","0.0-142.0","C3EDA99F4B0F410395C4676EB1DF6E21","019cfcb6-eda6-7937-a0c5-ce52babaf31c","019cfc7b-6c7b-7b1b-afe7-acad8efc6711","","null","<div style=""background-color: white; width: 100vw; height: 100vh;""></div>","null","","","","","","","","","","","",""
"","","","","","html-keyboard-response","143","717641","0.0-143.0","C3EDA99F4B0F410395C4676EB1DF6E21","019cfcb6-eda6-7937-a0c5-ce52babaf31c","019cfc7b-6c7b-7b1b-afe7-acad8efc6711","","null","
                <div class=""stimulus-container"">
                    <img src=""images/schematic_sequence/flight_scheme/flight_scheme_1.png"" class=""exp-image"">
                    <div class=""question-area""></div> 
                </div>","null","","","","","","","","","","","",""
"","","","","","html-button-response","144","718136","0.0-144.0","C3EDA99F4B0F410395C4676EB1DF6E21","019cfcb6-eda6-7937-a0c5-ce52babaf31c","019cfc7b-6c7b-7b1b-afe7-acad8efc6711","","495","
                <div class=""stimulus-container"">
                    <img src=""images/schematic_sequence/flight_scheme/flight_scheme_1.png"" class=""exp-image"">
                    <div class=""question-area"">
                        <p style=""font-size: 20px; font-weight: bold; margin: 0;"">Is there a person in this image?</p>
                    </div>
                </div>","0","main_experiment_trial","1","flight_scheme","schematic_sequence","chronological","","","","","","",""
"","","","","","html-keyboard-response","145","723142","0.0-145.0","C3EDA99F4B0F410395C4676EB1DF6E21","019cfcb6-eda6-7937-a0c5-ce52babaf31c","019cfc7b-6c7b-7b1b-afe7-acad8efc6711","","null","
                <div class=""stimulus-container"">
                    <img src=""images/schematic_sequence/flight_scheme/flight_scheme_2.png"" class=""exp-image"">
                    <div class=""question-area""></div> 
                </div>","null","","","","","","","","","","","",""
"","","","","","html-button-response","146","723581","0.0-146.0","C3EDA99F4B0F410395C4676EB1DF6E21","019cfcb6-eda6-7937-a0c5-ce52babaf31c","019cfc7b-6c7b-7b1b-afe7-acad8efc6711","","438","
                <div class=""stimulus-container"">
                    <img src=""images/schematic_sequence/flight_scheme/flight_scheme_2.png"" class=""exp-image"">
                    <div class=""question-area"">
                        <p style=""font-size: 20px; font-weight: bold; margin: 0;"">Is there a person in this image?</p>
                    </div>
                </div>","1","main_experiment_trial","2","flight_scheme","schematic_sequence","chronological","","","","","","",""
"","","","","","html-keyboard-response","147","728595","0.0-147.0","C3EDA99F4B0F410395C4676EB1DF6E21","019cfcb6-eda6-7937-a0c5-ce52babaf31c","019cfc7b-6c7b-7b1b-afe7-acad8efc6711","","null","
                <div class=""stimulus-container"">
                    <img src=""images/schematic_sequence/flight_scheme/flight_scheme_3.png"" class=""exp-image"">
                    <div class=""question-area""></div> 
                </div>","null","","","","","","","","","","","",""
"","","","","","html-button-response","148","729194","0.0-148.0","C3EDA99F4B0F410395C4676EB1DF6E21","019cfcb6-eda6-7937-a0c5-ce52babaf31c","019cfc7b-6c7b-7b1b-afe7-acad8efc6711","","598","
                <div class=""stimulus-container"">
                    <img src=""images/schematic_sequence/flight_scheme/flight_scheme_3.png"" class=""exp-image"">
                    <div class=""question-area"">
                        <p style=""font-size: 20px; font-weight: bold; margin: 0;"">Is there a person in this image?</p>
                    </div>
                </div>","0","main_experiment_trial","3","flight_scheme","schematic_sequence","chronological","","","","","","",""
"","","","","","html-keyboard-response","149","734196","0.0-149.0","C3EDA99F4B0F410395C4676EB1DF6E21","019cfcb6-eda6-7937-a0c5-ce52babaf31c","019cfc7b-6c7b-7b1b-afe7-acad8efc6711","","null","
                <div class=""stimulus-container"">
                    <img src=""images/schematic_sequence/flight_scheme/flight_scheme_4.png"" class=""exp-image"">
                    <div class=""question-area""></div> 
                </div>","null","","","","","","","","","","","",""
"","","","","","html-button-response","150","734654","0.0-150.0","C3EDA99F4B0F410395C4676EB1DF6E21","019cfcb6-eda6-7937-a0c5-ce52babaf31c","019cfc7b-6c7b-7b1b-afe7-acad8efc6711","","458","
                <div class=""stimulus-container"">
                    <img src=""images/schematic_sequence/flight_scheme/flight_scheme_4.png"" class=""exp-image"">
                    <div class=""question-area"">
                        <p style=""font-size: 20px; font-weight: bold; margin: 0;"">Is there a person in this image?</p>
                    </div>
                </div>","0","main_experiment_trial","4","flight_scheme","schematic_sequence","chronological","","","","","","",""
"","","","","","html-keyboard-response","151","739658","0.0-151.0","C3EDA99F4B0F410395C4676EB1DF6E21","019cfcb6-eda6-7937-a0c5-ce52babaf31c","019cfc7b-6c7b-7b1b-afe7-acad8efc6711","","null","
                <div class=""stimulus-container"">
                    <img src=""images/schematic_sequence/flight_scheme/flight_scheme_5.png"" class=""exp-image"">
                    <div class=""question-area""></div> 
                </div>","null","","","","","","","","","","","",""
"","","","","","html-button-response","152","740245","0.0-152.0","C3EDA99F4B0F410395C4676EB1DF6E21","019cfcb6-eda6-7937-a0c5-ce52babaf31c","019cfc7b-6c7b-7b1b-afe7-acad8efc6711","","587","
                <div class=""stimulus-container"">
                    <img src=""images/schematic_sequence/flight_scheme/flight_scheme_5.png"" class=""exp-image"">
                    <div class=""question-area"">
                        <p style=""font-size: 20px; font-weight: bold; margin: 0;"">Is there a person in this image?</p>
                    </div>
                </div>","0","main_experiment_trial","5","flight_scheme","schematic_sequence","chronological","","","","","","",""
"","","","","","html-keyboard-response","153","745254","0.0-153.0","C3EDA99F4B0F410395C4676EB1DF6E21","019cfcb6-eda6-7937-a0c5-ce52babaf31c","019cfc7b-6c7b-7b1b-afe7-acad8efc6711","","null","
                <div class=""stimulus-container"">
                    <img src=""images/schematic_sequence/flight_scheme/flight_scheme_6.png"" class=""exp-image"">
                    <div class=""question-area""></div> 
                </div>","null","","","","","","","","","","","",""
"","","","","","html-button-response","154","745676","0.0-154.0","C3EDA99F4B0F410395C4676EB1DF6E21","019cfcb6-eda6-7937-a0c5-ce52babaf31c","019cfc7b-6c7b-7b1b-afe7-acad8efc6711","","421","
                <div class=""stimulus-container"">
                    <img src=""images/schematic_sequence/flight_scheme/flight_scheme_6.png"" class=""exp-image"">
                    <div class=""question-area"">
                        <p style=""font-size: 20px; font-weight: bold; margin: 0;"">Is there a person in this image?</p>
                    </div>
                </div>","1","main_experiment_trial","6","flight_scheme","schematic_sequence","chronological","","","","","","",""
"","","","","","html-keyboard-response","155","750680","0.0-155.0","C3EDA99F4B0F410395C4676EB1DF6E21","019cfcb6-eda6-7937-a0c5-ce52babaf31c","019cfc7b-6c7b-7b1b-afe7-acad8efc6711","","null","
                <div class=""stimulus-container"">
                    <img src=""images/schematic_sequence/flight_scheme/flight_scheme_7.png"" class=""exp-image"">
                    <div class=""question-area""></div> 
                </div>","null","","","","","","","","","","","",""
"","","","","","html-button-response","156","751131","0.0-156.0","C3EDA99F4B0F410395C4676EB1DF6E21","019cfcb6-eda6-7937-a0c5-ce52babaf31c","019cfc7b-6c7b-7b1b-afe7-acad8efc6711","","450","
                <div class=""stimulus-container"">
                    <img src=""images/schematic_sequence/flight_scheme/flight_scheme_7.png"" class=""exp-image"">
                    <div class=""question-area"">
                        <p style=""font-size: 20px; font-weight: bold; margin: 0;"">Is there a person in this image?</p>
                    </div>
                </div>","0","main_experiment_trial","7","flight_scheme","schematic_sequence","chronological","","","","","","",""
"","","","","","html-keyboard-response","157","756132","0.0-157.0","C3EDA99F4B0F410395C4676EB1DF6E21","019cfcb6-eda6-7937-a0c5-ce52babaf31c","019cfc7b-6c7b-7b1b-afe7-acad8efc6711","","null","
                <div class=""stimulus-container"">
                    <img src=""images/schematic_sequence/flight_scheme/flight_scheme_8.png"" class=""exp-image"">
                    <div class=""question-area""></div> 
                </div>","null","","","","","","","","","","","",""
"","","","","","html-button-response","158","756701","0.0-158.0","C3EDA99F4B0F410395C4676EB1DF6E21","019cfcb6-eda6-7937-a0c5-ce52babaf31c","019cfc7b-6c7b-7b1b-afe7-acad8efc6711","","569","
                <div class=""stimulus-container"">
                    <img src=""images/schematic_sequence/flight_scheme/flight_scheme_8.png"" class=""exp-image"">
                    <div class=""question-area"">
                        <p style=""font-size: 20px; font-weight: bold; margin: 0;"">Is there a person in this image?</p>
                    </div>
                </div>","1","main_experiment_trial","8","flight_scheme","schematic_sequence","chronological","","","","","","",""
"","","","","","html-keyboard-response","159","761707","0.0-159.0","C3EDA99F4B0F410395C4676EB1DF6E21","019cfcb6-eda6-7937-a0c5-ce52babaf31c","019cfc7b-6c7b-7b1b-afe7-acad8efc6711","","null","
                <div class=""stimulus-container"">
                    <img src=""images/schematic_sequence/flight_scheme/flight_scheme_9.png"" class=""exp-image"">
                    <div class=""question-area""></div> 
                </div>","null","","","","","","","","","","","",""
"","","","","","html-button-response","160","762224","0.0-160.0","C3EDA99F4B0F410395C4676EB1DF6E21","019cfcb6-eda6-7937-a0c5-ce52babaf31c","019cfc7b-6c7b-7b1b-afe7-acad8efc6711","","516","
                <div class=""stimulus-container"">
                    <img src=""images/schematic_sequence/flight_scheme/flight_scheme_9.png"" class=""exp-image"">
                    <div class=""question-area"">
                        <p style=""font-size: 20px; font-weight: bold; margin: 0;"">Is there a person in this image?</p>
                    </div>
                </div>","0","main_experiment_trial","9","flight_scheme","schematic_sequence","chronological","","","","","","",""
"","","","","","html-keyboard-response","161","767240","0.0-161.0","C3EDA99F4B0F410395C4676EB1DF6E21","019cfcb6-eda6-7937-a0c5-ce52babaf31c","019cfc7b-6c7b-7b1b-afe7-acad8efc6711","","null","
                <div class=""stimulus-container"">
                    <img src=""images/schematic_sequence/flight_scheme/flight_scheme_ten.png"" class=""exp-image"">
                    <div class=""question-area""></div> 
                </div>","null","","","","","","","","","","","",""
"","","","","","html-button-response","162","767837","0.0-162.0","C3EDA99F4B0F410395C4676EB1DF6E21","019cfcb6-eda6-7937-a0c5-ce52babaf31c","019cfc7b-6c7b-7b1b-afe7-acad8efc6711","","597","
                <div class=""stimulus-container"">
                    <img src=""images/schematic_sequence/flight_scheme/flight_scheme_ten.png"" class=""exp-image"">
                    <div class=""question-area"">
                        <p style=""font-size: 20px; font-weight: bold; margin: 0;"">Is there a person in this image?</p>
                    </div>
                </div>","0","main_experiment_trial","ten","flight_scheme","schematic_sequence","chronological","","","","","","",""
"","","","","","html-keyboard-response","163","772845","0.0-163.0","C3EDA99F4B0F410395C4676EB1DF6E21","019cfcb6-eda6-7937-a0c5-ce52babaf31c","019cfc7b-6c7b-7b1b-afe7-acad8efc6711","","null","<div style=""background-color: white; width: 100vw; height: 100vh;""></div>","null","","","","","","","","","","","",""
"","","","","","html-keyboard-response","164","777855","0.0-164.0","C3EDA99F4B0F410395C4676EB1DF6E21","019cfcb6-eda6-7937-a0c5-ce52babaf31c","019cfc7b-6c7b-7b1b-afe7-acad8efc6711","","null","
                <div class=""stimulus-container"">
                    <img src=""images/causal_sequence/coin_causal/coin_causal_1.png"" class=""exp-image"">
                    <div class=""question-area""></div> 
                </div>","null","","","","","","","","","","","",""
"","","","","","html-button-response","165","778591","0.0-165.0","C3EDA99F4B0F410395C4676EB1DF6E21","019cfcb6-eda6-7937-a0c5-ce52babaf31c","019cfc7b-6c7b-7b1b-afe7-acad8efc6711","","735","
                <div class=""stimulus-container"">
                    <img src=""images/causal_sequence/coin_causal/coin_causal_1.png"" class=""exp-image"">
                    <div class=""question-area"">
                        <p style=""font-size: 20px; font-weight: bold; margin: 0;"">Is there a person in this image?</p>
                    </div>
                </div>","0","main_experiment_trial","1","coin_causal","causal_sequence","chronological","","","","","","",""
"","","","","","html-keyboard-response","166","783600","0.0-166.0","C3EDA99F4B0F410395C4676EB1DF6E21","019cfcb6-eda6-7937-a0c5-ce52babaf31c","019cfc7b-6c7b-7b1b-afe7-acad8efc6711","","null","
                <div class=""stimulus-container"">
                    <img src=""images/causal_sequence/coin_causal/coin_causal_2.png"" class=""exp-image"">
                    <div class=""question-area""></div> 
                </div>","null","","","","","","","","","","","",""
"","","","","","html-button-response","167","784074","0.0-167.0","C3EDA99F4B0F410395C4676EB1DF6E21","019cfcb6-eda6-7937-a0c5-ce52babaf31c","019cfc7b-6c7b-7b1b-afe7-acad8efc6711","","473","
                <div class=""stimulus-container"">
                    <img src=""images/causal_sequence/coin_causal/coin_causal_2.png"" class=""exp-image"">
                    <div class=""question-area"">
                        <p style=""font-size: 20px; font-weight: bold; margin: 0;"">Is there a person in this image?</p>
                    </div>
                </div>","0","main_experiment_trial","2","coin_causal","causal_sequence","chronological","","","","","","",""
"","","","","","html-keyboard-response","168","789086","0.0-168.0","C3EDA99F4B0F410395C4676EB1DF6E21","019cfcb6-eda6-7937-a0c5-ce52babaf31c","019cfc7b-6c7b-7b1b-afe7-acad8efc6711","","null","
                <div class=""stimulus-container"">
                    <img src=""images/causal_sequence/coin_causal/coin_causal_3.png"" class=""exp-image"">
                    <div class=""question-area""></div> 
                </div>","null","","","","","","","","","","","",""
"","","","","","html-button-response","169","789564","0.0-169.0","C3EDA99F4B0F410395C4676EB1DF6E21","019cfcb6-eda6-7937-a0c5-ce52babaf31c","019cfc7b-6c7b-7b1b-afe7-acad8efc6711","","478","
                <div class=""stimulus-container"">
                    <img src=""images/causal_sequence/coin_causal/coin_causal_3.png"" class=""exp-image"">
                    <div class=""question-area"">
                        <p style=""font-size: 20px; font-weight: bold; margin: 0;"">Is there a person in this image?</p>
                    </div>
                </div>","0","main_experiment_trial","3","coin_causal","causal_sequence","chronological","","","","","","",""
"","","","","","html-keyboard-response","170","794580","0.0-170.0","C3EDA99F4B0F410395C4676EB1DF6E21","019cfcb6-eda6-7937-a0c5-ce52babaf31c","019cfc7b-6c7b-7b1b-afe7-acad8efc6711","","null","
                <div class=""stimulus-container"">
                    <img src=""images/causal_sequence/coin_causal/coin_causal_4.png"" class=""exp-image"">
                    <div class=""question-area""></div> 
                </div>","null","","","","","","","","","","","",""
"","","","","","html-button-response","171","795114","0.0-171.0","C3EDA99F4B0F410395C4676EB1DF6E21","019cfcb6-eda6-7937-a0c5-ce52babaf31c","019cfc7b-6c7b-7b1b-afe7-acad8efc6711","","534","
                <div class=""stimulus-container"">
                    <img src=""images/causal_sequence/coin_causal/coin_causal_4.png"" class=""exp-image"">
                    <div class=""question-area"">
                        <p style=""font-size: 20px; font-weight: bold; margin: 0;"">Is there a person in this image?</p>
                    </div>
                </div>","0","main_experiment_trial","4","coin_causal","causal_sequence","chronological","","","","","","",""
"","","","","","html-keyboard-response","172","800126","0.0-172.0","C3EDA99F4B0F410395C4676EB1DF6E21","019cfcb6-eda6-7937-a0c5-ce52babaf31c","019cfc7b-6c7b-7b1b-afe7-acad8efc6711","","null","
                <div class=""stimulus-container"">
                    <img src=""images/causal_sequence/coin_causal/coin_causal_5.png"" class=""exp-image"">
                    <div class=""question-area""></div> 
                </div>","null","","","","","","","","","","","",""
"","","","","","html-button-response","173","800768","0.0-173.0","C3EDA99F4B0F410395C4676EB1DF6E21","019cfcb6-eda6-7937-a0c5-ce52babaf31c","019cfc7b-6c7b-7b1b-afe7-acad8efc6711","","642","
                <div class=""stimulus-container"">
                    <img src=""images/causal_sequence/coin_causal/coin_causal_5.png"" class=""exp-image"">
                    <div class=""question-area"">
                        <p style=""font-size: 20px; font-weight: bold; margin: 0;"">Is there a person in this image?</p>
                    </div>
                </div>","0","main_experiment_trial","5","coin_causal","causal_sequence","chronological","","","","","","",""
"","","","","","html-keyboard-response","174","805770","0.0-174.0","C3EDA99F4B0F410395C4676EB1DF6E21","019cfcb6-eda6-7937-a0c5-ce52babaf31c","019cfc7b-6c7b-7b1b-afe7-acad8efc6711","","null","
                <div class=""stimulus-container"">
                    <img src=""images/causal_sequence/coin_causal/coin_causal_6.png"" class=""exp-image"">
                    <div class=""question-area""></div> 
                </div>","null","","","","","","","","","","","",""
"","","","","","html-button-response","175","806289","0.0-175.0","C3EDA99F4B0F410395C4676EB1DF6E21","019cfcb6-eda6-7937-a0c5-ce52babaf31c","019cfc7b-6c7b-7b1b-afe7-acad8efc6711","","519","
                <div class=""stimulus-container"">
                    <img src=""images/causal_sequence/coin_causal/coin_causal_6.png"" class=""exp-image"">
                    <div class=""question-area"">
                        <p style=""font-size: 20px; font-weight: bold; margin: 0;"">Is there a person in this image?</p>
                    </div>
                </div>","0","main_experiment_trial","6","coin_causal","causal_sequence","chronological","","","","","","",""
"","","","","","html-keyboard-response","176","811298","0.0-176.0","C3EDA99F4B0F410395C4676EB1DF6E21","019cfcb6-eda6-7937-a0c5-ce52babaf31c","019cfc7b-6c7b-7b1b-afe7-acad8efc6711","","null","
                <div class=""stimulus-container"">
                    <img src=""images/causal_sequence/coin_causal/coin_causal_7.png"" class=""exp-image"">
                    <div class=""question-area""></div> 
                </div>","null","","","","","","","","","","","",""
"","","","","","html-button-response","177","812812","0.0-177.0","C3EDA99F4B0F410395C4676EB1DF6E21","019cfcb6-eda6-7937-a0c5-ce52babaf31c","019cfc7b-6c7b-7b1b-afe7-acad8efc6711","","1514","
                <div class=""stimulus-container"">
                    <img src=""images/causal_sequence/coin_causal/coin_causal_7.png"" class=""exp-image"">
                    <div class=""question-area"">
