"success","timeout","failed_images","failed_audio","failed_video","trial_type","trial_index","time_elapsed","internal_node_id","subject_id","study_id","session_id","view_history","rt","stimulus","response","task","image_index","folder","sequence_type","valuable_image_index","reward_type","chosen_image_index","correct_choice"
"true","false","[]","[]","[]","preload","0","4998","0.0-0.0","751BE5FDCB6A4F7793DB8E68382B95F2","019cefa9-f1c6-75be-8d3a-821d56bf1d5a","019cef87-c56d-7b55-9135-c5814367ec25","","","","","","","","","","","",""
"","","","","","instructions","1","28796","0.0-1.0","751BE5FDCB6A4F7793DB8E68382B95F2","019cefa9-f1c6-75be-8d3a-821d56bf1d5a","019cef87-c56d-7b55-9135-c5814367ec25","[{""page_index"":0,""viewing_time"":23797}]","23797","","","","","","","","","",""
"","","","","","instructions","2","31473","0.0-2.0","751BE5FDCB6A4F7793DB8E68382B95F2","019cefa9-f1c6-75be-8d3a-821d56bf1d5a","019cef87-c56d-7b55-9135-c5814367ec25","[{""page_index"":0,""viewing_time"":2677}]","2677","","","","","","","","","",""
"true","","","","","fullscreen","3","34360","0.0-3.0","751BE5FDCB6A4F7793DB8E68382B95F2","019cefa9-f1c6-75be-8d3a-821d56bf1d5a","019cef87-c56d-7b55-9135-c5814367ec25","","1865","","","","","","","","","",""
"","","","","","instructions","4","36882","0.0-4.0","751BE5FDCB6A4F7793DB8E68382B95F2","019cefa9-f1c6-75be-8d3a-821d56bf1d5a","019cef87-c56d-7b55-9135-c5814367ec25","[{""page_index"":0,""viewing_time"":2521}]","2521","","","","","","","","","",""
"","","","","","instructions","5","38184","0.0-5.0","751BE5FDCB6A4F7793DB8E68382B95F2","019cefa9-f1c6-75be-8d3a-821d56bf1d5a","019cef87-c56d-7b55-9135-c5814367ec25","[{""page_index"":0,""viewing_time"":1301}]","1302","","","","","","","","","",""
"","","","","","html-keyboard-response","6","42198","0.0-6.0","751BE5FDCB6A4F7793DB8E68382B95F2","019cefa9-f1c6-75be-8d3a-821d56bf1d5a","019cef87-c56d-7b55-9135-c5814367ec25","","null","
                <div class=""stimulus-container"">
                    <img src=""images/instructions/movie_1.png"" class=""exp-image"">
                    <div class=""question-area""></div> 
                </div>","null","","","","","","","",""
"","","","","","html-button-response","7","45210","0.0-7.0","751BE5FDCB6A4F7793DB8E68382B95F2","019cefa9-f1c6-75be-8d3a-821d56bf1d5a","019cef87-c56d-7b55-9135-c5814367ec25","","null","
                <div class=""stimulus-container"">
                    <img src=""images/instructions/movie_1.png"" class=""exp-image"">
                    <div class=""question-area"">
                        <p style=""font-size: 20px; font-weight: bold; margin: 0;"">Was there a person in this image?</p>
                    </div>
                </div>","null","example_question","1","","","","","",""
"","","","","","html-keyboard-response","8","49219","0.0-8.0","751BE5FDCB6A4F7793DB8E68382B95F2","019cefa9-f1c6-75be-8d3a-821d56bf1d5a","019cef87-c56d-7b55-9135-c5814367ec25","","null","
                <div class=""stimulus-container"">
                    <img src=""images/instructions/movie_2.png"" class=""exp-image"">
                    <div class=""question-area""></div> 
                </div>","null","","","","","","","",""
"","","","","","html-button-response","9","52210","0.0-9.0","751BE5FDCB6A4F7793DB8E68382B95F2","019cefa9-f1c6-75be-8d3a-821d56bf1d5a","019cef87-c56d-7b55-9135-c5814367ec25","","2969","
                <div class=""stimulus-container"">
                    <img src=""images/instructions/movie_2.png"" class=""exp-image"">
                    <div class=""question-area"">
                        <p style=""font-size: 20px; font-weight: bold; margin: 0;"">Was there a person in this image?</p>
                    </div>
                </div>","1","example_question","2","","","","","",""
"","","","","","html-keyboard-response","10","56229","0.0-10.0","751BE5FDCB6A4F7793DB8E68382B95F2","019cefa9-f1c6-75be-8d3a-821d56bf1d5a","019cef87-c56d-7b55-9135-c5814367ec25","","null","
                <div class=""stimulus-container"">
                    <img src=""images/instructions/movie_3.png"" class=""exp-image"">
                    <div class=""question-area""></div> 
                </div>","null","","","","","","","",""
"","","","","","html-button-response","11","57725","0.0-11.0","751BE5FDCB6A4F7793DB8E68382B95F2","019cefa9-f1c6-75be-8d3a-821d56bf1d5a","019cef87-c56d-7b55-9135-c5814367ec25","","1493","
                <div class=""stimulus-container"">
                    <img src=""images/instructions/movie_3.png"" class=""exp-image"">
                    <div class=""question-area"">
                        <p style=""font-size: 20px; font-weight: bold; margin: 0;"">Was there a person in this image?</p>
                    </div>
                </div>","0","example_question","3","","","","","",""
"","","","","","html-keyboard-response","12","61729","0.0-12.0","751BE5FDCB6A4F7793DB8E68382B95F2","019cefa9-f1c6-75be-8d3a-821d56bf1d5a","019cef87-c56d-7b55-9135-c5814367ec25","","null","
                <div class=""stimulus-container"">
                    <img src=""images/instructions/movie_4.png"" class=""exp-image"">
                    <div class=""question-area""></div> 
                </div>","null","","","","","","","",""
"","","","","","html-button-response","13","62759","0.0-13.0","751BE5FDCB6A4F7793DB8E68382B95F2","019cefa9-f1c6-75be-8d3a-821d56bf1d5a","019cef87-c56d-7b55-9135-c5814367ec25","","1028","
                <div class=""stimulus-container"">
                    <img src=""images/instructions/movie_4.png"" class=""exp-image"">
                    <div class=""question-area"">
                        <p style=""font-size: 20px; font-weight: bold; margin: 0;"">Was there a person in this image?</p>
                    </div>
                </div>","0","example_question","4","","","","","",""
"","","","","","instructions","14","64850","0.0-14.0","751BE5FDCB6A4F7793DB8E68382B95F2","019cefa9-f1c6-75be-8d3a-821d56bf1d5a","019cef87-c56d-7b55-9135-c5814367ec25","[{""page_index"":0,""viewing_time"":2087}]","2089","","","","","","","","","",""
"","","","","","instructions","15","66044","0.0-15.0","751BE5FDCB6A4F7793DB8E68382B95F2","019cefa9-f1c6-75be-8d3a-821d56bf1d5a","019cef87-c56d-7b55-9135-c5814367ec25","[{""page_index"":0,""viewing_time"":1192}]","1193","","","","","","","","","",""
"","","","","","html-keyboard-response","16","67048","0.0-16.0","751BE5FDCB6A4F7793DB8E68382B95F2","019cefa9-f1c6-75be-8d3a-821d56bf1d5a","019cef87-c56d-7b55-9135-c5814367ec25","","null","<div style=""background-color: white; width: 100vw; height: 100vh;""></div>","null","","","","","","","",""
"","","","","","html-keyboard-response","17","72053","0.0-17.0","751BE5FDCB6A4F7793DB8E68382B95F2","019cefa9-f1c6-75be-8d3a-821d56bf1d5a","019cef87-c56d-7b55-9135-c5814367ec25","","null","
                <div class=""stimulus-container"">
                    <img src=""images/causal_sequence/dog_causal/dog_causal_1.png"" class=""exp-image"">
                    <div class=""question-area""></div> 
                </div>","null","","","","","","","",""
"","","","","","html-button-response","18","73185","0.0-18.0","751BE5FDCB6A4F7793DB8E68382B95F2","019cefa9-f1c6-75be-8d3a-821d56bf1d5a","019cef87-c56d-7b55-9135-c5814367ec25","","1129","
                <div class=""stimulus-container"">
                    <img src=""images/causal_sequence/dog_causal/dog_causal_1.png"" class=""exp-image"">
                    <div class=""question-area"">
                        <p style=""font-size: 20px; font-weight: bold; margin: 0;"">Is there a person in this image?</p>
                    </div>
                </div>","0","main_experiment_trial","1","dog_causal","causal_sequence","","","",""
"","","","","","html-keyboard-response","19","78195","0.0-19.0","751BE5FDCB6A4F7793DB8E68382B95F2","019cefa9-f1c6-75be-8d3a-821d56bf1d5a","019cef87-c56d-7b55-9135-c5814367ec25","","null","
                <div class=""stimulus-container"">
                    <img src=""images/causal_sequence/dog_causal/dog_causal_2.png"" class=""exp-image"">
                    <div class=""question-area""></div> 
                </div>","null","","","","","","","",""
"","","","","","html-button-response","20","78753","0.0-20.0","751BE5FDCB6A4F7793DB8E68382B95F2","019cefa9-f1c6-75be-8d3a-821d56bf1d5a","019cef87-c56d-7b55-9135-c5814367ec25","","556","
                <div class=""stimulus-container"">
                    <img src=""images/causal_sequence/dog_causal/dog_causal_2.png"" class=""exp-image"">
                    <div class=""question-area"">
                        <p style=""font-size: 20px; font-weight: bold; margin: 0;"">Is there a person in this image?</p>
                    </div>
                </div>","0","main_experiment_trial","2","dog_causal","causal_sequence","","","",""
"","","","","","html-keyboard-response","21","83769","0.0-21.0","751BE5FDCB6A4F7793DB8E68382B95F2","019cefa9-f1c6-75be-8d3a-821d56bf1d5a","019cef87-c56d-7b55-9135-c5814367ec25","","null","
                <div class=""stimulus-container"">
                    <img src=""images/causal_sequence/dog_causal/dog_causal_3.png"" class=""exp-image"">
                    <div class=""question-area""></div> 
                </div>","null","","","","","","","",""
"","","","","","html-button-response","22","84101","0.0-22.0","751BE5FDCB6A4F7793DB8E68382B95F2","019cefa9-f1c6-75be-8d3a-821d56bf1d5a","019cef87-c56d-7b55-9135-c5814367ec25","","329","
                <div class=""stimulus-container"">
                    <img src=""images/causal_sequence/dog_causal/dog_causal_3.png"" class=""exp-image"">
                    <div class=""question-area"">
                        <p style=""font-size: 20px; font-weight: bold; margin: 0;"">Is there a person in this image?</p>
                    </div>
                </div>","0","main_experiment_trial","3","dog_causal","causal_sequence","","","",""
"","","","","","html-keyboard-response","23","89109","0.0-23.0","751BE5FDCB6A4F7793DB8E68382B95F2","019cefa9-f1c6-75be-8d3a-821d56bf1d5a","019cef87-c56d-7b55-9135-c5814367ec25","","null","
                <div class=""stimulus-container"">
                    <img src=""images/causal_sequence/dog_causal/dog_causal_4.png"" class=""exp-image"">
                    <div class=""question-area""></div> 
                </div>","null","","","","","","","",""
"","","","","","html-button-response","24","92120","0.0-24.0","751BE5FDCB6A4F7793DB8E68382B95F2","019cefa9-f1c6-75be-8d3a-821d56bf1d5a","019cef87-c56d-7b55-9135-c5814367ec25","","null","
                <div class=""stimulus-container"">
                    <img src=""images/causal_sequence/dog_causal/dog_causal_4.png"" class=""exp-image"">
                    <div class=""question-area"">
                        <p style=""font-size: 20px; font-weight: bold; margin: 0;"">Is there a person in this image?</p>
                    </div>
                </div>","null","main_experiment_trial","4","dog_causal","causal_sequence","","","",""
"","","","","","html-keyboard-response","25","97123","0.0-25.0","751BE5FDCB6A4F7793DB8E68382B95F2","019cefa9-f1c6-75be-8d3a-821d56bf1d5a","019cef87-c56d-7b55-9135-c5814367ec25","","null","
                <div class=""stimulus-container"">
                    <img src=""images/causal_sequence/dog_causal/dog_causal_5.png"" class=""exp-image"">
                    <div class=""question-area""></div> 
                </div>","null","","","","","","","",""
"","","","","","html-button-response","26","100125","0.0-26.0","751BE5FDCB6A4F7793DB8E68382B95F2","019cefa9-f1c6-75be-8d3a-821d56bf1d5a","019cef87-c56d-7b55-9135-c5814367ec25","","null","
                <div class=""stimulus-container"">
                    <img src=""images/causal_sequence/dog_causal/dog_causal_5.png"" class=""exp-image"">
                    <div class=""question-area"">
                        <p style=""font-size: 20px; font-weight: bold; margin: 0;"">Is there a person in this image?</p>
                    </div>
                </div>","null","main_experiment_trial","5","dog_causal","causal_sequence","","","",""
"","","","","","html-keyboard-response","27","105142","0.0-27.0","751BE5FDCB6A4F7793DB8E68382B95F2","019cefa9-f1c6-75be-8d3a-821d56bf1d5a","019cef87-c56d-7b55-9135-c5814367ec25","","null","
                <div class=""stimulus-container"">
                    <img src=""images/causal_sequence/dog_causal/dog_causal_6.png"" class=""exp-image"">
                    <div class=""question-area""></div> 
                </div>","null","","","","","","","",""
"","","","","","html-button-response","28","108147","0.0-28.0","751BE5FDCB6A4F7793DB8E68382B95F2","019cefa9-f1c6-75be-8d3a-821d56bf1d5a","019cef87-c56d-7b55-9135-c5814367ec25","","null","
                <div class=""stimulus-container"">
                    <img src=""images/causal_sequence/dog_causal/dog_causal_6.png"" class=""exp-image"">
                    <div class=""question-area"">
                        <p style=""font-size: 20px; font-weight: bold; margin: 0;"">Is there a person in this image?</p>
                    </div>
                </div>","null","main_experiment_trial","6","dog_causal","causal_sequence","","","",""
"","","","","","html-keyboard-response","29","113160","0.0-29.0","751BE5FDCB6A4F7793DB8E68382B95F2","019cefa9-f1c6-75be-8d3a-821d56bf1d5a","019cef87-c56d-7b55-9135-c5814367ec25","","null","
                <div class=""stimulus-container"">
                    <img src=""images/causal_sequence/dog_causal/dog_causal_7.png"" class=""exp-image"">
                    <div class=""question-area""></div> 
                </div>","null","","","","","","","",""
"","","","","","html-button-response","30","116162","0.0-30.0","751BE5FDCB6A4F7793DB8E68382B95F2","019cefa9-f1c6-75be-8d3a-821d56bf1d5a","019cef87-c56d-7b55-9135-c5814367ec25","","null","
                <div class=""stimulus-container"">
                    <img src=""images/causal_sequence/dog_causal/dog_causal_7.png"" class=""exp-image"">
                    <div class=""question-area"">
                        <p style=""font-size: 20px; font-weight: bold; margin: 0;"">Is there a person in this image?</p>
                    </div>
                </div>","null","main_experiment_trial","7","dog_causal","causal_sequence","","","",""
"","","","","","html-keyboard-response","31","121179","0.0-31.0","751BE5FDCB6A4F7793DB8E68382B95F2","019cefa9-f1c6-75be-8d3a-821d56bf1d5a","019cef87-c56d-7b55-9135-c5814367ec25","","null","
                <div class=""stimulus-container"">
                    <img src=""images/causal_sequence/dog_causal/dog_causal_8.png"" class=""exp-image"">
                    <div class=""question-area""></div> 
                </div>","null","","","","","","","",""
"","","","","","html-button-response","32","124186","0.0-32.0","751BE5FDCB6A4F7793DB8E68382B95F2","019cefa9-f1c6-75be-8d3a-821d56bf1d5a","019cef87-c56d-7b55-9135-c5814367ec25","","null","
                <div class=""stimulus-container"">
                    <img src=""images/causal_sequence/dog_causal/dog_causal_8.png"" class=""exp-image"">
                    <div class=""question-area"">
                        <p style=""font-size: 20px; font-weight: bold; margin: 0;"">Is there a person in this image?</p>
                    </div>
                </div>","null","main_experiment_trial","8","dog_causal","causal_sequence","","","",""
"","","","","","html-keyboard-response","33","129201","0.0-33.0","751BE5FDCB6A4F7793DB8E68382B95F2","019cefa9-f1c6-75be-8d3a-821d56bf1d5a","019cef87-c56d-7b55-9135-c5814367ec25","","null","
                <div class=""stimulus-container"">
                    <img src=""images/causal_sequence/dog_causal/dog_causal_9.png"" class=""exp-image"">
                    <div class=""question-area""></div> 
                </div>","null","","","","","","","",""
"","","","","","html-button-response","34","132203","0.0-34.0","751BE5FDCB6A4F7793DB8E68382B95F2","019cefa9-f1c6-75be-8d3a-821d56bf1d5a","019cef87-c56d-7b55-9135-c5814367ec25","","null","
                <div class=""stimulus-container"">
                    <img src=""images/causal_sequence/dog_causal/dog_causal_9.png"" class=""exp-image"">
                    <div class=""question-area"">
                        <p style=""font-size: 20px; font-weight: bold; margin: 0;"">Is there a person in this image?</p>
                    </div>
                </div>","null","main_experiment_trial","9","dog_causal","causal_sequence","","","",""
"","","","","","html-keyboard-response","35","137211","0.0-35.0","751BE5FDCB6A4F7793DB8E68382B95F2","019cefa9-f1c6-75be-8d3a-821d56bf1d5a","019cef87-c56d-7b55-9135-c5814367ec25","","null","
                <div class=""stimulus-container"">
                    <img src=""images/causal_sequence/dog_causal/dog_causal_ten.png"" class=""exp-image"">
                    <div class=""question-area""></div> 
                </div>","null","","","","","","","",""
"","","","","","html-button-response","36","140218","0.0-36.0","751BE5FDCB6A4F7793DB8E68382B95F2","019cefa9-f1c6-75be-8d3a-821d56bf1d5a","019cef87-c56d-7b55-9135-c5814367ec25","","null","
                <div class=""stimulus-container"">
                    <img src=""images/causal_sequence/dog_causal/dog_causal_ten.png"" class=""exp-image"">
                    <div class=""question-area"">
                        <p style=""font-size: 20px; font-weight: bold; margin: 0;"">Is there a person in this image?</p>
                    </div>
                </div>","null","main_experiment_trial","ten","dog_causal","causal_sequence","","","",""
"","","","","","html-keyboard-response","37","141226","0.0-37.0","751BE5FDCB6A4F7793DB8E68382B95F2","019cefa9-f1c6-75be-8d3a-821d56bf1d5a","019cef87-c56d-7b55-9135-c5814367ec25","","null","<div style=""background-color: white; width: 100vw; height: 100vh;""></div>","null","","","","","","","",""
"","","","","","html-keyboard-response","38","146240","0.0-38.0","751BE5FDCB6A4F7793DB8E68382B95F2","019cefa9-f1c6-75be-8d3a-821d56bf1d5a","019cef87-c56d-7b55-9135-c5814367ec25","","null","
                <div class=""stimulus-container"">
                    <img src=""images/schematic_sequence/interview_scheme/interview_scheme_1.png"" class=""exp-image"">
                    <div class=""question-area""></div> 
                </div>","null","","","","","","","",""
"","","","","","html-button-response","39","148716","0.0-39.0","751BE5FDCB6A4F7793DB8E68382B95F2","019cefa9-f1c6-75be-8d3a-821d56bf1d5a","019cef87-c56d-7b55-9135-c5814367ec25","","2475","
                <div class=""stimulus-container"">
                    <img src=""images/schematic_sequence/interview_scheme/interview_scheme_1.png"" class=""exp-image"">
                    <div class=""question-area"">
                        <p style=""font-size: 20px; font-weight: bold; margin: 0;"">Is there a person in this image?</p>
                    </div>
                </div>","1","main_experiment_trial","1","interview_scheme","schematic_sequence","","","",""
"","","","","","html-keyboard-response","40","153723","0.0-40.0","751BE5FDCB6A4F7793DB8E68382B95F2","019cefa9-f1c6-75be-8d3a-821d56bf1d5a","019cef87-c56d-7b55-9135-c5814367ec25","","null","
                <div class=""stimulus-container"">
                    <img src=""images/schematic_sequence/interview_scheme/interview_scheme_2.png"" class=""exp-image"">
                    <div class=""question-area""></div> 
                </div>","null","","","","","","","",""
"","","","","","html-button-response","41","156740","0.0-41.0","751BE5FDCB6A4F7793DB8E68382B95F2","019cefa9-f1c6-75be-8d3a-821d56bf1d5a","019cef87-c56d-7b55-9135-c5814367ec25","","null","
                <div class=""stimulus-container"">
                    <img src=""images/schematic_sequence/interview_scheme/interview_scheme_2.png"" class=""exp-image"">
                    <div class=""question-area"">
                        <p style=""font-size: 20px; font-weight: bold; margin: 0;"">Is there a person in this image?</p>
                    </div>
                </div>","null","main_experiment_trial","2","interview_scheme","schematic_sequence","","","",""
"","","","","","html-keyboard-response","42","161745","0.0-42.0","751BE5FDCB6A4F7793DB8E68382B95F2","019cefa9-f1c6-75be-8d3a-821d56bf1d5a","019cef87-c56d-7b55-9135-c5814367ec25","","null","
                <div class=""stimulus-container"">
                    <img src=""images/schematic_sequence/interview_scheme/interview_scheme_3.png"" class=""exp-image"">
                    <div class=""question-area""></div> 
                </div>","null","","","","","","","",""
"","","","","","html-button-response","43","164753","0.0-43.0","751BE5FDCB6A4F7793DB8E68382B95F2","019cefa9-f1c6-75be-8d3a-821d56bf1d5a","019cef87-c56d-7b55-9135-c5814367ec25","","null","
                <div class=""stimulus-container"">
                    <img src=""images/schematic_sequence/interview_scheme/interview_scheme_3.png"" class=""exp-image"">
                    <div class=""question-area"">
                        <p style=""font-size: 20px; font-weight: bold; margin: 0;"">Is there a person in this image?</p>
                    </div>
                </div>","null","main_experiment_trial","3","interview_scheme","schematic_sequence","","","",""
"","","","","","html-keyboard-response","44","169765","0.0-44.0","751BE5FDCB6A4F7793DB8E68382B95F2","019cefa9-f1c6-75be-8d3a-821d56bf1d5a","019cef87-c56d-7b55-9135-c5814367ec25","","null","
                <div class=""stimulus-container"">
                    <img src=""images/schematic_sequence/interview_scheme/interview_scheme_4.png"" class=""exp-image"">
                    <div class=""question-area""></div> 
                </div>","null","","","","","","","",""
"","","","","","html-button-response","45","172777","0.0-45.0","751BE5FDCB6A4F7793DB8E68382B95F2","019cefa9-f1c6-75be-8d3a-821d56bf1d5a","019cef87-c56d-7b55-9135-c5814367ec25","","null","
                <div class=""stimulus-container"">
                    <img src=""images/schematic_sequence/interview_scheme/interview_scheme_4.png"" class=""exp-image"">
                    <div class=""question-area"">
                        <p style=""font-size: 20px; font-weight: bold; margin: 0;"">Is there a person in this image?</p>
                    </div>
                </div>","null","main_experiment_trial","4","interview_scheme","schematic_sequence","","","",""
"","","","","","html-keyboard-response","46","177801","0.0-46.0","751BE5FDCB6A4F7793DB8E68382B95F2","019cefa9-f1c6-75be-8d3a-821d56bf1d5a","019cef87-c56d-7b55-9135-c5814367ec25","","null","
                <div class=""stimulus-container"">
                    <img src=""images/schematic_sequence/interview_scheme/interview_scheme_5.png"" class=""exp-image"">
                    <div class=""question-area""></div> 
                </div>","null","","","","","","","",""
"","","","","","html-button-response","47","180804","0.0-47.0","751BE5FDCB6A4F7793DB8E68382B95F2","019cefa9-f1c6-75be-8d3a-821d56bf1d5a","019cef87-c56d-7b55-9135-c5814367ec25","","null","
                <div class=""stimulus-container"">
                    <img src=""images/schematic_sequence/interview_scheme/interview_scheme_5.png"" class=""exp-image"">
                    <div class=""question-area"">
                        <p style=""font-size: 20px; font-weight: bold; margin: 0;"">Is there a person in this image?</p>
                    </div>
                </div>","null","main_experiment_trial","5","interview_scheme","schematic_sequence","","","",""
"","","","","","html-keyboard-response","48","185818","0.0-48.0","751BE5FDCB6A4F7793DB8E68382B95F2","019cefa9-f1c6-75be-8d3a-821d56bf1d5a","019cef87-c56d-7b55-9135-c5814367ec25","","null","
                <div class=""stimulus-container"">
                    <img src=""images/schematic_sequence/interview_scheme/interview_scheme_6.png"" class=""exp-image"">
                    <div class=""question-area""></div> 
                </div>","null","","","","","","","",""
"","","","","","html-button-response","49","188835","0.0-49.0","751BE5FDCB6A4F7793DB8E68382B95F2","019cefa9-f1c6-75be-8d3a-821d56bf1d5a","019cef87-c56d-7b55-9135-c5814367ec25","","null","
                <div class=""stimulus-container"">
                    <img src=""images/schematic_sequence/interview_scheme/interview_scheme_6.png"" class=""exp-image"">
                    <div class=""question-area"">
                        <p style=""font-size: 20px; font-weight: bold; margin: 0;"">Is there a person in this image?</p>
                    </div>
                </div>","null","main_experiment_trial","6","interview_scheme","schematic_sequence","","","",""
"","","","","","html-keyboard-response","50","193843","0.0-50.0","751BE5FDCB6A4F7793DB8E68382B95F2","019cefa9-f1c6-75be-8d3a-821d56bf1d5a","019cef87-c56d-7b55-9135-c5814367ec25","","null","
                <div class=""stimulus-container"">
                    <img src=""images/schematic_sequence/interview_scheme/interview_scheme_7.png"" class=""exp-image"">
                    <div class=""question-area""></div> 
                </div>","null","","","","","","","",""
"","","","","","html-button-response","51","196852","0.0-51.0","751BE5FDCB6A4F7793DB8E68382B95F2","019cefa9-f1c6-75be-8d3a-821d56bf1d5a","019cef87-c56d-7b55-9135-c5814367ec25","","null","
                <div class=""stimulus-container"">
                    <img src=""images/schematic_sequence/interview_scheme/interview_scheme_7.png"" class=""exp-image"">
                    <div class=""question-area"">
                        <p style=""font-size: 20px; font-weight: bold; margin: 0;"">Is there a person in this image?</p>
                    </div>
                </div>","null","main_experiment_trial","7","interview_scheme","schematic_sequence","","","",""
"","","","","","html-keyboard-response","52","201868","0.0-52.0","751BE5FDCB6A4F7793DB8E68382B95F2","019cefa9-f1c6-75be-8d3a-821d56bf1d5a","019cef87-c56d-7b55-9135-c5814367ec25","","null","
                <div class=""stimulus-container"">
                    <img src=""images/schematic_sequence/interview_scheme/interview_scheme_8.png"" class=""exp-image"">
                    <div class=""question-area""></div> 
                </div>","null","","","","","","","",""
"","","","","","html-button-response","53","204882","0.0-53.0","751BE5FDCB6A4F7793DB8E68382B95F2","019cefa9-f1c6-75be-8d3a-821d56bf1d5a","019cef87-c56d-7b55-9135-c5814367ec25","","null","
                <div class=""stimulus-container"">
                    <img src=""images/schematic_sequence/interview_scheme/interview_scheme_8.png"" class=""exp-image"">
                    <div class=""question-area"">
                        <p style=""font-size: 20px; font-weight: bold; margin: 0;"">Is there a person in this image?</p>
                    </div>
                </div>","null","main_experiment_trial","8","interview_scheme","schematic_sequence","","","",""
"","","","","","html-keyboard-response","54","209900","0.0-54.0","751BE5FDCB6A4F7793DB8E68382B95F2","019cefa9-f1c6-75be-8d3a-821d56bf1d5a","019cef87-c56d-7b55-9135-c5814367ec25","","null","
                <div class=""stimulus-container"">
                    <img src=""images/schematic_sequence/interview_scheme/interview_scheme_9.png"" class=""exp-image"">
                    <div class=""question-area""></div> 
                </div>","null","","","","","","","",""
"","","","","","html-button-response","55","212902","0.0-55.0","751BE5FDCB6A4F7793DB8E68382B95F2","019cefa9-f1c6-75be-8d3a-821d56bf1d5a","019cef87-c56d-7b55-9135-c5814367ec25","","null","
                <div class=""stimulus-container"">
                    <img src=""images/schematic_sequence/interview_scheme/interview_scheme_9.png"" class=""exp-image"">
                    <div class=""question-area"">
                        <p style=""font-size: 20px; font-weight: bold; margin: 0;"">Is there a person in this image?</p>
                    </div>
                </div>","null","main_experiment_trial","9","interview_scheme","schematic_sequence","","","",""
"","","","","","html-keyboard-response","56","217908","0.0-56.0","751BE5FDCB6A4F7793DB8E68382B95F2","019cefa9-f1c6-75be-8d3a-821d56bf1d5a","019cef87-c56d-7b55-9135-c5814367ec25","","null","
                <div class=""stimulus-container"">
                    <img src=""images/schematic_sequence/interview_scheme/interview_scheme_ten.png"" class=""exp-image"">
                    <div class=""question-area""></div> 
                </div>","null","","","","","","","",""
"","","","","","html-button-response","57","220925","0.0-57.0","751BE5FDCB6A4F7793DB8E68382B95F2","019cefa9-f1c6-75be-8d3a-821d56bf1d5a","019cef87-c56d-7b55-9135-c5814367ec25","","null","
                <div class=""stimulus-container"">
                    <img src=""images/schematic_sequence/interview_scheme/interview_scheme_ten.png"" class=""exp-image"">
                    <div class=""question-area"">
                        <p style=""font-size: 20px; font-weight: bold; margin: 0;"">Is there a person in this image?</p>
                    </div>
                </div>","null","main_experiment_trial","ten","interview_scheme","schematic_sequence","","","",""
"","","","","","html-keyboard-response","58","221938","0.0-58.0","751BE5FDCB6A4F7793DB8E68382B95F2","019cefa9-f1c6-75be-8d3a-821d56bf1d5a","019cef87-c56d-7b55-9135-c5814367ec25","","null","<div style=""background-color: white; width: 100vw; height: 100vh;""></div>","null","","","","","","","",""
"","","","","","html-keyboard-response","59","226954","0.0-59.0","751BE5FDCB6A4F7793DB8E68382B95F2","019cefa9-f1c6-75be-8d3a-821d56bf1d5a","019cef87-c56d-7b55-9135-c5814367ec25","","null","
                <div class=""stimulus-container"">
                    <img src=""images/causal_sequence/the_performance_causal/the_performance_causal_1.png"" class=""exp-image"">
                    <div class=""question-area""></div> 
                </div>","null","","","","","","","",""
"","","","","","html-button-response","60","229958","0.0-60.0","751BE5FDCB6A4F7793DB8E68382B95F2","019cefa9-f1c6-75be-8d3a-821d56bf1d5a","019cef87-c56d-7b55-9135-c5814367ec25","","null","
                <div class=""stimulus-container"">
                    <img src=""images/causal_sequence/the_performance_causal/the_performance_causal_1.png"" class=""exp-image"">
                    <div class=""question-area"">
                        <p style=""font-size: 20px; font-weight: bold; margin: 0;"">Is there a person in this image?</p>
                    </div>
                </div>","null","main_experiment_trial","1","the_performance_causal","causal_sequence","","","",""
"","","","","","html-keyboard-response","61","234959","0.0-61.0","751BE5FDCB6A4F7793DB8E68382B95F2","019cefa9-f1c6-75be-8d3a-821d56bf1d5a","019cef87-c56d-7b55-9135-c5814367ec25","","null","
                <div class=""stimulus-container"">
                    <img src=""images/causal_sequence/the_performance_causal/the_performance_causal_2.png"" class=""exp-image"">
                    <div class=""question-area""></div> 
                </div>","null","","","","","","","",""
"","","","","","html-button-response","62","237975","0.0-62.0","751BE5FDCB6A4F7793DB8E68382B95F2","019cefa9-f1c6-75be-8d3a-821d56bf1d5a","019cef87-c56d-7b55-9135-c5814367ec25","","null","
                <div class=""stimulus-container"">
                    <img src=""images/causal_sequence/the_performance_causal/the_performance_causal_2.png"" class=""exp-image"">
                    <div class=""question-area"">
                        <p style=""font-size: 20px; font-weight: bold; margin: 0;"">Is there a person in this image?</p>
                    </div>
                </div>","null","main_experiment_trial","2","the_performance_causal","causal_sequence","","","",""
"","","","","","html-keyboard-response","63","243009","0.0-63.0","751BE5FDCB6A4F7793DB8E68382B95F2","019cefa9-f1c6-75be-8d3a-821d56bf1d5a","019cef87-c56d-7b55-9135-c5814367ec25","","null","
                <div class=""stimulus-container"">
                    <img src=""images/causal_sequence/the_performance_causal/the_performance_causal_3.png"" class=""exp-image"">
                    <div class=""question-area""></div> 
                </div>","null","","","","","","","",""
"","","","","","html-button-response","64","246015","0.0-64.0","751BE5FDCB6A4F7793DB8E68382B95F2","019cefa9-f1c6-75be-8d3a-821d56bf1d5a","019cef87-c56d-7b55-9135-c5814367ec25","","null","
                <div class=""stimulus-container"">
                    <img src=""images/causal_sequence/the_performance_causal/the_performance_causal_3.png"" class=""exp-image"">
                    <div class=""question-area"">
                        <p style=""font-size: 20px; font-weight: bold; margin: 0;"">Is there a person in this image?</p>
                    </div>
                </div>","null","main_experiment_trial","3","the_performance_causal","causal_sequence","","","",""
"","","","","","html-keyboard-response","65","251026","0.0-65.0","751BE5FDCB6A4F7793DB8E68382B95F2","019cefa9-f1c6-75be-8d3a-821d56bf1d5a","019cef87-c56d-7b55-9135-c5814367ec25","","null","
                <div class=""stimulus-container"">
                    <img src=""images/causal_sequence/the_performance_causal/the_performance_causal_4.png"" class=""exp-image"">
                    <div class=""question-area""></div> 
                </div>","null","","","","","","","",""
"","","","","","html-button-response","66","254030","0.0-66.0","751BE5FDCB6A4F7793DB8E68382B95F2","019cefa9-f1c6-75be-8d3a-821d56bf1d5a","019cef87-c56d-7b55-9135-c5814367ec25","","null","
                <div class=""stimulus-container"">
                    <img src=""images/causal_sequence/the_performance_causal/the_performance_causal_4.png"" class=""exp-image"">
                    <div class=""question-area"">
                        <p style=""font-size: 20px; font-weight: bold; margin: 0;"">Is there a person in this image?</p>
                    </div>
                </div>","null","main_experiment_trial","4","the_performance_causal","causal_sequence","","","",""
"","","","","","html-keyboard-response","67","259033","0.0-67.0","751BE5FDCB6A4F7793DB8E68382B95F2","019cefa9-f1c6-75be-8d3a-821d56bf1d5a","019cef87-c56d-7b55-9135-c5814367ec25","","null","
                <div class=""stimulus-container"">
                    <img src=""images/causal_sequence/the_performance_causal/the_performance_causal_5.png"" class=""exp-image"">
                    <div class=""question-area""></div> 
                </div>","null","","","","","","","",""
"","","","","","html-button-response","68","262038","0.0-68.0","751BE5FDCB6A4F7793DB8E68382B95F2","019cefa9-f1c6-75be-8d3a-821d56bf1d5a","019cef87-c56d-7b55-9135-c5814367ec25","","null","
                <div class=""stimulus-container"">
                    <img src=""images/causal_sequence/the_performance_causal/the_performance_causal_5.png"" class=""exp-image"">
                    <div class=""question-area"">
                        <p style=""font-size: 20px; font-weight: bold; margin: 0;"">Is there a person in this image?</p>
                    </div>
                </div>","null","main_experiment_trial","5","the_performance_causal","causal_sequence","","","",""
"","","","","","html-keyboard-response","69","267049","0.0-69.0","751BE5FDCB6A4F7793DB8E68382B95F2","019cefa9-f1c6-75be-8d3a-821d56bf1d5a","019cef87-c56d-7b55-9135-c5814367ec25","","null","
                <div class=""stimulus-container"">
                    <img src=""images/causal_sequence/the_performance_causal/the_performance_causal_6.png"" class=""exp-image"">
                    <div class=""question-area""></div> 
                </div>","null","","","","","","","",""
"","","","","","html-button-response","70","270050","0.0-70.0","751BE5FDCB6A4F7793DB8E68382B95F2","019cefa9-f1c6-75be-8d3a-821d56bf1d5a","019cef87-c56d-7b55-9135-c5814367ec25","","null","
                <div class=""stimulus-container"">
                    <img src=""images/causal_sequence/the_performance_causal/the_performance_causal_6.png"" class=""exp-image"">
                    <div class=""question-area"">
                        <p style=""font-size: 20px; font-weight: bold; margin: 0;"">Is there a person in this image?</p>
                    </div>
                </div>","null","main_experiment_trial","6","the_performance_causal","causal_sequence","","","",""
"","","","","","html-keyboard-response","71","275060","0.0-71.0","751BE5FDCB6A4F7793DB8E68382B95F2","019cefa9-f1c6-75be-8d3a-821d56bf1d5a","019cef87-c56d-7b55-9135-c5814367ec25","","null","
                <div class=""stimulus-container"">
                    <img src=""images/causal_sequence/the_performance_causal/the_performance_causal_7.png"" class=""exp-image"">
                    <div class=""question-area""></div> 
                </div>","null","","","","","","","",""
"","","","","","html-button-response","72","278077","0.0-72.0","751BE5FDCB6A4F7793DB8E68382B95F2","019cefa9-f1c6-75be-8d3a-821d56bf1d5a","019cef87-c56d-7b55-9135-c5814367ec25","","null","
                <div class=""stimulus-container"">
                    <img src=""images/causal_sequence/the_performance_causal/the_performance_causal_7.png"" class=""exp-image"">
                    <div class=""question-area"">
                        <p style=""font-size: 20px; font-weight: bold; margin: 0;"">Is there a person in this image?</p>
                    </div>
                </div>","null","main_experiment_trial","7","the_performance_causal","causal_sequence","","","",""
"","","","","","html-keyboard-response","73","283085","0.0-73.0","751BE5FDCB6A4F7793DB8E68382B95F2","019cefa9-f1c6-75be-8d3a-821d56bf1d5a","019cef87-c56d-7b55-9135-c5814367ec25","","null","
                <div class=""stimulus-container"">
                    <img src=""images/causal_sequence/the_performance_causal/the_performance_causal_8.png"" class=""exp-image"">
                    <div class=""question-area""></div> 
                </div>","null","","","","","","","",""
"","","","","","html-button-response","74","286088","0.0-74.0","751BE5FDCB6A4F7793DB8E68382B95F2","019cefa9-f1c6-75be-8d3a-821d56bf1d5a","019cef87-c56d-7b55-9135-c5814367ec25","","null","
                <div class=""stimulus-container"">
                    <img src=""images/causal_sequence/the_performance_causal/the_performance_causal_8.png"" class=""exp-image"">
                    <div class=""question-area"">
                        <p style=""font-size: 20px; font-weight: bold; margin: 0;"">Is there a person in this image?</p>
                    </div>
                </div>","null","main_experiment_trial","8","the_performance_causal","causal_sequence","","","",""
"","","","","","html-keyboard-response","75","291093","0.0-75.0","751BE5FDCB6A4F7793DB8E68382B95F2","019cefa9-f1c6-75be-8d3a-821d56bf1d5a","019cef87-c56d-7b55-9135-c5814367ec25","","null","
                <div class=""stimulus-container"">
                    <img src=""images/causal_sequence/the_performance_causal/the_performance_causal_9.png"" class=""exp-image"">
                    <div class=""question-area""></div> 
                </div>","null","","","","","","","",""
"","","","","","html-button-response","76","294097","0.0-76.0","751BE5FDCB6A4F7793DB8E68382B95F2","019cefa9-f1c6-75be-8d3a-821d56bf1d5a","019cef87-c56d-7b55-9135-c5814367ec25","","null","
                <div class=""stimulus-container"">
                    <img src=""images/causal_sequence/the_performance_causal/the_performance_causal_9.png"" class=""exp-image"">
                    <div class=""question-area"">
                        <p style=""font-size: 20px; font-weight: bold; margin: 0;"">Is there a person in this image?</p>
                    </div>
                </div>","null","main_experiment_trial","9","the_performance_causal","causal_sequence","","","",""
"","","","","","html-keyboard-response","77","299099","0.0-77.0","751BE5FDCB6A4F7793DB8E68382B95F2","019cefa9-f1c6-75be-8d3a-821d56bf1d5a","019cef87-c56d-7b55-9135-c5814367ec25","","null","
                <div class=""stimulus-container"">
                    <img src=""images/causal_sequence/the_performance_causal/the_performance_causal_ten.png"" class=""exp-image"">
                    <div class=""question-area""></div> 
                </div>","null","","","","","","","",""
"","","","","","html-button-response","78","302104","0.0-78.0","751BE5FDCB6A4F7793DB8E68382B95F2","019cefa9-f1c6-75be-8d3a-821d56bf1d5a","019cef87-c56d-7b55-9135-c5814367ec25","","null","
                <div class=""stimulus-container"">
                    <img src=""images/causal_sequence/the_performance_causal/the_performance_causal_ten.png"" class=""exp-image"">
                    <div class=""question-area"">
                        <p style=""font-size: 20px; font-weight: bold; margin: 0;"">Is there a person in this image?</p>
                    </div>
                </div>","null","main_experiment_trial","ten","the_performance_causal","causal_sequence","","","",""
"","","","","","html-keyboard-response","79","303117","0.0-79.0","751BE5FDCB6A4F7793DB8E68382B95F2","019cefa9-f1c6-75be-8d3a-821d56bf1d5a","019cef87-c56d-7b55-9135-c5814367ec25","","null","<div style=""background-color: white; width: 100vw; height: 100vh;""></div>","null","","","","","","","",""
"","","","","","html-keyboard-response","80","308132","0.0-80.0","751BE5FDCB6A4F7793DB8E68382B95F2","019cefa9-f1c6-75be-8d3a-821d56bf1d5a","019cef87-c56d-7b55-9135-c5814367ec25","","null","
                <div class=""stimulus-container"">
                    <img src=""images/schematic_sequence/restaurant_scheme/restaurant_scheme_1.png"" class=""exp-image"">
                    <div class=""question-area""></div> 
                </div>","null","","","","","","","",""
"","","","","","html-button-response","81","311142","0.0-81.0","751BE5FDCB6A4F7793DB8E68382B95F2","019cefa9-f1c6-75be-8d3a-821d56bf1d5a","019cef87-c56d-7b55-9135-c5814367ec25","","null","
                <div class=""stimulus-container"">
                    <img src=""images/schematic_sequence/restaurant_scheme/restaurant_scheme_1.png"" class=""exp-image"">
                    <div class=""question-area"">
                        <p style=""font-size: 20px; font-weight: bold; margin: 0;"">Is there a person in this image?</p>
                    </div>
                </div>","null","main_experiment_trial","1","restaurant_scheme","schematic_sequence","","","",""
"","","","","","html-keyboard-response","82","316150","0.0-82.0","751BE5FDCB6A4F7793DB8E68382B95F2","019cefa9-f1c6-75be-8d3a-821d56bf1d5a","019cef87-c56d-7b55-9135-c5814367ec25","","null","
                <div class=""stimulus-container"">
                    <img src=""images/schematic_sequence/restaurant_scheme/restaurant_scheme_2.png"" class=""exp-image"">
                    <div class=""question-area""></div> 
                </div>","null","","","","","","","",""
"","","","","","html-button-response","83","319159","0.0-83.0","751BE5FDCB6A4F7793DB8E68382B95F2","019cefa9-f1c6-75be-8d3a-821d56bf1d5a","019cef87-c56d-7b55-9135-c5814367ec25","","null","
                <div class=""stimulus-container"">
                    <img src=""images/schematic_sequence/restaurant_scheme/restaurant_scheme_2.png"" class=""exp-image"">
                    <div class=""question-area"">
                        <p style=""font-size: 20px; font-weight: bold; margin: 0;"">Is there a person in this image?</p>
                    </div>
                </div>","null","main_experiment_trial","2","restaurant_scheme","schematic_sequence","","","",""
"","","","","","html-keyboard-response","84","324174","0.0-84.0","751BE5FDCB6A4F7793DB8E68382B95F2","019cefa9-f1c6-75be-8d3a-821d56bf1d5a","019cef87-c56d-7b55-9135-c5814367ec25","","null","
                <div class=""stimulus-container"">
                    <img src=""images/schematic_sequence/restaurant_scheme/restaurant_scheme_3.png"" class=""exp-image"">
                    <div class=""question-area""></div> 
                </div>","null","","","","","","","",""
"","","","","","html-button-response","85","327178","0.0-85.0","751BE5FDCB6A4F7793DB8E68382B95F2","019cefa9-f1c6-75be-8d3a-821d56bf1d5a","019cef87-c56d-7b55-9135-c5814367ec25","","null","
                <div class=""stimulus-container"">
                    <img src=""images/schematic_sequence/restaurant_scheme/restaurant_scheme_3.png"" class=""exp-image"">
                    <div class=""question-area"">
                        <p style=""font-size: 20px; font-weight: bold; margin: 0;"">Is there a person in this image?</p>
                    </div>
                </div>","null","main_experiment_trial","3","restaurant_scheme","schematic_sequence","","","",""
"","","","","","html-keyboard-response","86","332196","0.0-86.0","751BE5FDCB6A4F7793DB8E68382B95F2","019cefa9-f1c6-75be-8d3a-821d56bf1d5a","019cef87-c56d-7b55-9135-c5814367ec25","","null","
                <div class=""stimulus-container"">
                    <img src=""images/schematic_sequence/restaurant_scheme/restaurant_scheme_4.png"" class=""exp-image"">
                    <div class=""question-area""></div> 
                </div>","null","","","","","","","",""
"","","","","","html-button-response","87","335204","0.0-87.0","751BE5FDCB6A4F7793DB8E68382B95F2","019cefa9-f1c6-75be-8d3a-821d56bf1d5a","019cef87-c56d-7b55-9135-c5814367ec25","","null","
                <div class=""stimulus-container"">
                    <img src=""images/schematic_sequence/restaurant_scheme/restaurant_scheme_4.png"" class=""exp-image"">
                    <div class=""question-area"">
                        <p style=""font-size: 20px; font-weight: bold; margin: 0;"">Is there a person in this image?</p>
                    </div>
                </div>","null","main_experiment_trial","4","restaurant_scheme","schematic_sequence","","","",""
"","","","","","html-keyboard-response","88","340213","0.0-88.0","751BE5FDCB6A4F7793DB8E68382B95F2","019cefa9-f1c6-75be-8d3a-821d56bf1d5a","019cef87-c56d-7b55-9135-c5814367ec25","","null","
                <div class=""stimulus-container"">
                    <img src=""images/schematic_sequence/restaurant_scheme/restaurant_scheme_5.png"" class=""exp-image"">
                    <div class=""question-area""></div> 
                </div>","null","","","","","","","",""
"","","","","","html-button-response","89","343232","0.0-89.0","751BE5FDCB6A4F7793DB8E68382B95F2","019cefa9-f1c6-75be-8d3a-821d56bf1d5a","019cef87-c56d-7b55-9135-c5814367ec25","","null","
                <div class=""stimulus-container"">
                    <img src=""images/schematic_sequence/restaurant_scheme/restaurant_scheme_5.png"" class=""exp-image"">
                    <div class=""question-area"">
                        <p style=""font-size: 20px; font-weight: bold; margin: 0;"">Is there a person in this image?</p>
                    </div>
                </div>","null","main_experiment_trial","5","restaurant_scheme","schematic_sequence","","","",""
"","","","","","html-keyboard-response","90","348245","0.0-90.0","751BE5FDCB6A4F7793DB8E68382B95F2","019cefa9-f1c6-75be-8d3a-821d56bf1d5a","019cef87-c56d-7b55-9135-c5814367ec25","","null","
                <div class=""stimulus-container"">
                    <img src=""images/schematic_sequence/restaurant_scheme/restaurant_scheme_6.png"" class=""exp-image"">
                    <div class=""question-area""></div> 
                </div>","null","","","","","","","",""
"","","","","","html-button-response","91","351259","0.0-91.0","751BE5FDCB6A4F7793DB8E68382B95F2","019cefa9-f1c6-75be-8d3a-821d56bf1d5a","019cef87-c56d-7b55-9135-c5814367ec25","","null","
                <div class=""stimulus-container"">
                    <img src=""images/schematic_sequence/restaurant_scheme/restaurant_scheme_6.png"" class=""exp-image"">
                    <div class=""question-area"">
                        <p style=""font-size: 20px; font-weight: bold; margin: 0;"">Is there a person in this image?</p>
                    </div>
                </div>","null","main_experiment_trial","6","restaurant_scheme","schematic_sequence","","","",""
"","","","","","html-keyboard-response","92","356276","0.0-92.0","751BE5FDCB6A4F7793DB8E68382B95F2","019cefa9-f1c6-75be-8d3a-821d56bf1d5a","019cef87-c56d-7b55-9135-c5814367ec25","","null","
                <div class=""stimulus-container"">
                    <img src=""images/schematic_sequence/restaurant_scheme/restaurant_scheme_7.png"" class=""exp-image"">
                    <div class=""question-area""></div> 
                </div>","null","","","","","","","",""
"","","","","","html-button-response","93","359280","0.0-93.0","751BE5FDCB6A4F7793DB8E68382B95F2","019cefa9-f1c6-75be-8d3a-821d56bf1d5a","019cef87-c56d-7b55-9135-c5814367ec25","","null","
                <div class=""stimulus-container"">
                    <img src=""images/schematic_sequence/restaurant_scheme/restaurant_scheme_7.png"" class=""exp-image"">
                    <div class=""question-area"">
                        <p style=""font-size: 20px; font-weight: bold; margin: 0;"">Is there a person in this image?</p>
                    </div>
                </div>","null","main_experiment_trial","7","restaurant_scheme","schematic_sequence","","","",""
"","","","","","html-keyboard-response","94","364285","0.0-94.0","751BE5FDCB6A4F7793DB8E68382B95F2","019cefa9-f1c6-75be-8d3a-821d56bf1d5a","019cef87-c56d-7b55-9135-c5814367ec25","","null","
                <div class=""stimulus-container"">
                    <img src=""images/schematic_sequence/restaurant_scheme/restaurant_scheme_8.png"" class=""exp-image"">
                    <div class=""question-area""></div> 
                </div>","null","","","","","","","",""
"","","","","","html-button-response","95","367297","0.0-95.0","751BE5FDCB6A4F7793DB8E68382B95F2","019cefa9-f1c6-75be-8d3a-821d56bf1d5a","019cef87-c56d-7b55-9135-c5814367ec25","","null","
                <div class=""stimulus-container"">
                    <img src=""images/schematic_sequence/restaurant_scheme/restaurant_scheme_8.png"" class=""exp-image"">
                    <div class=""question-area"">
                        <p style=""font-size: 20px; font-weight: bold; margin: 0;"">Is there a person in this image?</p>
                    </div>
                </div>","null","main_experiment_trial","8","restaurant_scheme","schematic_sequence","","","",""
"","","","","","html-keyboard-response","96","372305","0.0-96.0","751BE5FDCB6A4F7793DB8E68382B95F2","019cefa9-f1c6-75be-8d3a-821d56bf1d5a","019cef87-c56d-7b55-9135-c5814367ec25","","null","
                <div class=""stimulus-container"">
                    <img src=""images/schematic_sequence/restaurant_scheme/restaurant_scheme_9.png"" class=""exp-image"">
                    <div class=""question-area""></div> 
                </div>","null","","","","","","","",""
"","","","","","html-button-response","97","375310","0.0-97.0","751BE5FDCB6A4F7793DB8E68382B95F2","019cefa9-f1c6-75be-8d3a-821d56bf1d5a","019cef87-c56d-7b55-9135-c5814367ec25","","null","
                <div class=""stimulus-container"">
                    <img src=""images/schematic_sequence/restaurant_scheme/restaurant_scheme_9.png"" class=""exp-image"">
                    <div class=""question-area"">
                        <p style=""font-size: 20px; font-weight: bold; margin: 0;"">Is there a person in this image?</p>
                    </div>
                </div>","null","main_experiment_trial","9","restaurant_scheme","schematic_sequence","","","",""
"","","","","","html-keyboard-response","98","380320","0.0-98.0","751BE5FDCB6A4F7793DB8E68382B95F2","019cefa9-f1c6-75be-8d3a-821d56bf1d5a","019cef87-c56d-7b55-9135-c5814367ec25","","null","
                <div class=""stimulus-container"">
                    <img src=""images/schematic_sequence/restaurant_scheme/restaurant_scheme_ten.png"" class=""exp-image"">
                    <div class=""question-area""></div> 
                </div>","null","","","","","","","",""
"","","","","","html-button-response","99","383329","0.0-99.0","751BE5FDCB6A4F7793DB8E68382B95F2","019cefa9-f1c6-75be-8d3a-821d56bf1d5a","019cef87-c56d-7b55-9135-c5814367ec25","","null","
                <div class=""stimulus-container"">
                    <img src=""images/schematic_sequence/restaurant_scheme/restaurant_scheme_ten.png"" class=""exp-image"">
                    <div class=""question-area"">
                        <p style=""font-size: 20px; font-weight: bold; margin: 0;"">Is there a person in this image?</p>
                    </div>
                </div>","null","main_experiment_trial","ten","restaurant_scheme","schematic_sequence","","","",""
"","","","","","html-keyboard-response","100","384340","0.0-100.0","751BE5FDCB6A4F7793DB8E68382B95F2","019cefa9-f1c6-75be-8d3a-821d56bf1d5a","019cef87-c56d-7b55-9135-c5814367ec25","","null","<div style=""background-color: white; width: 100vw; height: 100vh;""></div>","null","","","","","","","",""
"","","","","","html-keyboard-response","101","389351","0.0-101.0","751BE5FDCB6A4F7793DB8E68382B95F2","019cefa9-f1c6-75be-8d3a-821d56bf1d5a","019cef87-c56d-7b55-9135-c5814367ec25","","null","
                <div class=""stimulus-container"">
                    <img src=""images/causal_sequence/museum_causal/museum_causal_1.png"" class=""exp-image"">
                    <div class=""question-area""></div> 
                </div>","null","","","","","","","",""
"","","","","","html-button-response","102","392361","0.0-102.0","751BE5FDCB6A4F7793DB8E68382B95F2","019cefa9-f1c6-75be-8d3a-821d56bf1d5a","019cef87-c56d-7b55-9135-c5814367ec25","","null","
                <div class=""stimulus-container"">
                    <img src=""images/causal_sequence/museum_causal/museum_causal_1.png"" class=""exp-image"">
                    <div class=""question-area"">
                        <p style=""font-size: 20px; font-weight: bold; margin: 0;"">Is there a person in this image?</p>
                    </div>
                </div>","null","main_experiment_trial","1","museum_causal","causal_sequence","","","",""
"","","","","","html-keyboard-response","103","397372","0.0-103.0","751BE5FDCB6A4F7793DB8E68382B95F2","019cefa9-f1c6-75be-8d3a-821d56bf1d5a","019cef87-c56d-7b55-9135-c5814367ec25","","null","
                <div class=""stimulus-container"">
                    <img src=""images/causal_sequence/museum_causal/museum_causal_2.png"" class=""exp-image"">
                    <div class=""question-area""></div> 
                </div>","null","","","","","","","",""
"","","","","","html-button-response","104","400380","0.0-104.0","751BE5FDCB6A4F7793DB8E68382B95F2","019cefa9-f1c6-75be-8d3a-821d56bf1d5a","019cef87-c56d-7b55-9135-c5814367ec25","","null","
                <div class=""stimulus-container"">
                    <img src=""images/causal_sequence/museum_causal/museum_causal_2.png"" class=""exp-image"">
                    <div class=""question-area"">
                        <p style=""font-size: 20px; font-weight: bold; margin: 0;"">Is there a person in this image?</p>
                    </div>
                </div>","null","main_experiment_trial","2","museum_causal","causal_sequence","","","",""
"","","","","","html-keyboard-response","105","405383","0.0-105.0","751BE5FDCB6A4F7793DB8E68382B95F2","019cefa9-f1c6-75be-8d3a-821d56bf1d5a","019cef87-c56d-7b55-9135-c5814367ec25","","null","
                <div class=""stimulus-container"">
                    <img src=""images/causal_sequence/museum_causal/museum_causal_3.png"" class=""exp-image"">
                    <div class=""question-area""></div> 
                </div>","null","","","","","","","",""
"","","","","","html-button-response","106","408392","0.0-106.0","751BE5FDCB6A4F7793DB8E68382B95F2","019cefa9-f1c6-75be-8d3a-821d56bf1d5a","019cef87-c56d-7b55-9135-c5814367ec25","","null","
                <div class=""stimulus-container"">
                    <img src=""images/causal_sequence/museum_causal/museum_causal_3.png"" class=""exp-image"">
                    <div class=""question-area"">
                        <p style=""font-size: 20px; font-weight: bold; margin: 0;"">Is there a person in this image?</p>
                    </div>
                </div>","null","main_experiment_trial","3","museum_causal","causal_sequence","","","",""
"","","","","","html-keyboard-response","107","413399","0.0-107.0","751BE5FDCB6A4F7793DB8E68382B95F2","019cefa9-f1c6-75be-8d3a-821d56bf1d5a","019cef87-c56d-7b55-9135-c5814367ec25","","null","
                <div class=""stimulus-container"">
                    <img src=""images/causal_sequence/museum_causal/museum_causal_4.png"" class=""exp-image"">
                    <div class=""question-area""></div> 
                </div>","null","","","","","","","",""
"","","","","","html-button-response","108","416414","0.0-108.0","751BE5FDCB6A4F7793DB8E68382B95F2","019cefa9-f1c6-75be-8d3a-821d56bf1d5a","019cef87-c56d-7b55-9135-c5814367ec25","","null","
                <div class=""stimulus-container"">
                    <img src=""images/causal_sequence/museum_causal/museum_causal_4.png"" class=""exp-image"">
                    <div class=""question-area"">
                        <p style=""font-size: 20px; font-weight: bold; margin: 0;"">Is there a person in this image?</p>
                    </div>
                </div>","null","main_experiment_trial","4","museum_causal","causal_sequence","","","",""
"","","","","","html-keyboard-response","109","421426","0.0-109.0","751BE5FDCB6A4F7793DB8E68382B95F2","019cefa9-f1c6-75be-8d3a-821d56bf1d5a","019cef87-c56d-7b55-9135-c5814367ec25","","null","
                <div class=""stimulus-container"">
                    <img src=""images/causal_sequence/museum_causal/museum_causal_5.png"" class=""exp-image"">
                    <div class=""question-area""></div> 
                </div>","null","","","","","","","",""
"","","","","","html-button-response","110","424434","0.0-110.0","751BE5FDCB6A4F7793DB8E68382B95F2","019cefa9-f1c6-75be-8d3a-821d56bf1d5a","019cef87-c56d-7b55-9135-c5814367ec25","","null","
                <div class=""stimulus-container"">
                    <img src=""images/causal_sequence/museum_causal/museum_causal_5.png"" class=""exp-image"">
                    <div class=""question-area"">
                        <p style=""font-size: 20px; font-weight: bold; margin: 0;"">Is there a person in this image?</p>
                    </div>
                </div>","null","main_experiment_trial","5","museum_causal","causal_sequence","","","",""
"","","","","","html-keyboard-response","111","429441","0.0-111.0","751BE5FDCB6A4F7793DB8E68382B95F2","019cefa9-f1c6-75be-8d3a-821d56bf1d5a","019cef87-c56d-7b55-9135-c5814367ec25","","null","
                <div class=""stimulus-container"">
                    <img src=""images/causal_sequence/museum_causal/museum_causal_6.png"" class=""exp-image"">
                    <div class=""question-area""></div> 
                </div>","null","","","","","","","",""
"","","","","","html-button-response","112","432456","0.0-112.0","751BE5FDCB6A4F7793DB8E68382B95F2","019cefa9-f1c6-75be-8d3a-821d56bf1d5a","019cef87-c56d-7b55-9135-c5814367ec25","","null","
                <div class=""stimulus-container"">
                    <img src=""images/causal_sequence/museum_causal/museum_causal_6.png"" class=""exp-image"">
                    <div class=""question-area"">
                        <p style=""font-size: 20px; font-weight: bold; margin: 0;"">Is there a person in this image?</p>
                    </div>
                </div>","null","main_experiment_trial","6","museum_causal","causal_sequence","","","",""
"","","","","","html-keyboard-response","113","437477","0.0-113.0","751BE5FDCB6A4F7793DB8E68382B95F2","019cefa9-f1c6-75be-8d3a-821d56bf1d5a","019cef87-c56d-7b55-9135-c5814367ec25","","null","
                <div class=""stimulus-container"">
                    <img src=""images/causal_sequence/museum_causal/museum_causal_7.png"" class=""exp-image"">
                    <div class=""question-area""></div> 
                </div>","null","","","","","","","",""
"","","","","","html-button-response","114","440485","0.0-114.0","751BE5FDCB6A4F7793DB8E68382B95F2","019cefa9-f1c6-75be-8d3a-821d56bf1d5a","019cef87-c56d-7b55-9135-c5814367ec25","","null","
                <div class=""stimulus-container"">
                    <img src=""images/causal_sequence/museum_causal/museum_causal_7.png"" class=""exp-image"">
                    <div class=""question-area"">
                        <p style=""font-size: 20px; font-weight: bold; margin: 0;"">Is there a person in this image?</p>
                    </div>
                </div>","null","main_experiment_trial","7","museum_causal","causal_sequence","","","",""
"","","","","","html-keyboard-response","115","445495","0.0-115.0","751BE5FDCB6A4F7793DB8E68382B95F2","019cefa9-f1c6-75be-8d3a-821d56bf1d5a","019cef87-c56d-7b55-9135-c5814367ec25","","null","
                <div class=""stimulus-container"">
                    <img src=""images/causal_sequence/museum_causal/museum_causal_8.png"" class=""exp-image"">
                    <div class=""question-area""></div> 
                </div>","null","","","","","","","",""
"","","","","","html-button-response","116","448509","0.0-116.0","751BE5FDCB6A4F7793DB8E68382B95F2","019cefa9-f1c6-75be-8d3a-821d56bf1d5a","019cef87-c56d-7b55-9135-c5814367ec25","","null","
                <div class=""stimulus-container"">
                    <img src=""images/causal_sequence/museum_causal/museum_causal_8.png"" class=""exp-image"">
                    <div class=""question-area"">
                        <p style=""font-size: 20px; font-weight: bold; margin: 0;"">Is there a person in this image?</p>
                    </div>
                </div>","null","main_experiment_trial","8","museum_causal","causal_sequence","","","",""
"","","","","","html-keyboard-response","117","453514","0.0-117.0","751BE5FDCB6A4F7793DB8E68382B95F2","019cefa9-f1c6-75be-8d3a-821d56bf1d5a","019cef87-c56d-7b55-9135-c5814367ec25","","null","
                <div class=""stimulus-container"">
                    <img src=""images/causal_sequence/museum_causal/museum_causal_9.png"" class=""exp-image"">
                    <div class=""question-area""></div> 
                </div>","null","","","","","","","",""
"","","","","","html-button-response","118","456522","0.0-118.0","751BE5FDCB6A4F7793DB8E68382B95F2","019cefa9-f1c6-75be-8d3a-821d56bf1d5a","019cef87-c56d-7b55-9135-c5814367ec25","","null","
                <div class=""stimulus-container"">
                    <img src=""images/causal_sequence/museum_causal/museum_causal_9.png"" class=""exp-image"">
                    <div class=""question-area"">
                        <p style=""font-size: 20px; font-weight: bold; margin: 0;"">Is there a person in this image?</p>
                    </div>
                </div>","null","main_experiment_trial","9","museum_causal","causal_sequence","","","",""
"","","","","","html-keyboard-response","119","461529","0.0-119.0","751BE5FDCB6A4F7793DB8E68382B95F2","019cefa9-f1c6-75be-8d3a-821d56bf1d5a","019cef87-c56d-7b55-9135-c5814367ec25","","null","
                <div class=""stimulus-container"">
                    <img src=""images/causal_sequence/museum_causal/museum_causal_ten.png"" class=""exp-image"">
                    <div class=""question-area""></div> 
                </div>","null","","","","","","","",""
"","","","","","html-button-response","120","464547","0.0-120.0","751BE5FDCB6A4F7793DB8E68382B95F2","019cefa9-f1c6-75be-8d3a-821d56bf1d5a","019cef87-c56d-7b55-9135-c5814367ec25","","null","
                <div class=""stimulus-container"">
                    <img src=""images/causal_sequence/museum_causal/museum_causal_ten.png"" class=""exp-image"">
                    <div class=""question-area"">
                        <p style=""font-size: 20px; font-weight: bold; margin: 0;"">Is there a person in this image?</p>
                    </div>
                </div>","null","main_experiment_trial","ten","museum_causal","causal_sequence","","","",""
"","","","","","html-keyboard-response","121","465561","0.0-121.0","751BE5FDCB6A4F7793DB8E68382B95F2","019cefa9-f1c6-75be-8d3a-821d56bf1d5a","019cef87-c56d-7b55-9135-c5814367ec25","","null","<div style=""background-color: white; width: 100vw; height: 100vh;""></div>","null","","","","","","","",""
"","","","","","html-keyboard-response","122","470568","0.0-122.0","751BE5FDCB6A4F7793DB8E68382B95F2","019cefa9-f1c6-75be-8d3a-821d56bf1d5a","019cef87-c56d-7b55-9135-c5814367ec25","","null","
                <div class=""stimulus-container"">
                    <img src=""images/schematic_sequence/dinner_party_scheme/dinner_party_scheme_1.png"" class=""exp-image"">
                    <div class=""question-area""></div> 
                </div>","null","","","","","","","",""
"","","","","","html-button-response","123","471069","0.0-123.0","751BE5FDCB6A4F7793DB8E68382B95F2","019cefa9-f1c6-75be-8d3a-821d56bf1d5a","019cef87-c56d-7b55-9135-c5814367ec25","","499","
                <div class=""stimulus-container"">
                    <img src=""images/schematic_sequence/dinner_party_scheme/dinner_party_scheme_1.png"" class=""exp-image"">
                    <div class=""question-area"">
                        <p style=""font-size: 20px; font-weight: bold; margin: 0;"">Is there a person in this image?</p>
                    </div>
                </div>","1","main_experiment_trial","1","dinner_party_scheme","schematic_sequence","","","",""
"","","","","","html-keyboard-response","124","476080","0.0-124.0","751BE5FDCB6A4F7793DB8E68382B95F2","019cefa9-f1c6-75be-8d3a-821d56bf1d5a","019cef87-c56d-7b55-9135-c5814367ec25","","null","
                <div class=""stimulus-container"">
                    <img src=""images/schematic_sequence/dinner_party_scheme/dinner_party_scheme_2.png"" class=""exp-image"">
                    <div class=""question-area""></div> 
                </div>","null","","","","","","","",""
"","","","","","html-button-response","125","479088","0.0-125.0","751BE5FDCB6A4F7793DB8E68382B95F2","019cefa9-f1c6-75be-8d3a-821d56bf1d5a","019cef87-c56d-7b55-9135-c5814367ec25","","null","
                <div class=""stimulus-container"">
                    <img src=""images/schematic_sequence/dinner_party_scheme/dinner_party_scheme_2.png"" class=""exp-image"">
                    <div class=""question-area"">
                        <p style=""font-size: 20px; font-weight: bold; margin: 0;"">Is there a person in this image?</p>
                    </div>
                </div>","null","main_experiment_trial","2","dinner_party_scheme","schematic_sequence","","","",""
"","","","","","html-keyboard-response","126","484094","0.0-126.0","751BE5FDCB6A4F7793DB8E68382B95F2","019cefa9-f1c6-75be-8d3a-821d56bf1d5a","019cef87-c56d-7b55-9135-c5814367ec25","","null","
                <div class=""stimulus-container"">
                    <img src=""images/schematic_sequence/dinner_party_scheme/dinner_party_scheme_3.png"" class=""exp-image"">
                    <div class=""question-area""></div> 
                </div>","null","","","","","","","",""
"","","","","","html-button-response","127","487105","0.0-127.0","751BE5FDCB6A4F7793DB8E68382B95F2","019cefa9-f1c6-75be-8d3a-821d56bf1d5a","019cef87-c56d-7b55-9135-c5814367ec25","","null","
                <div class=""stimulus-container"">
                    <img src=""images/schematic_sequence/dinner_party_scheme/dinner_party_scheme_3.png"" class=""exp-image"">
                    <div class=""question-area"">
                        <p style=""font-size: 20px; font-weight: bold; margin: 0;"">Is there a person in this image?</p>
                    </div>
                </div>","null","main_experiment_trial","3","dinner_party_scheme","schematic_sequence","","","",""
"","","","","","html-keyboard-response","128","492108","0.0-128.0","751BE5FDCB6A4F7793DB8E68382B95F2","019cefa9-f1c6-75be-8d3a-821d56bf1d5a","019cef87-c56d-7b55-9135-c5814367ec25","","null","
                <div class=""stimulus-container"">
                    <img src=""images/schematic_sequence/dinner_party_scheme/dinner_party_scheme_4.png"" class=""exp-image"">
                    <div class=""question-area""></div> 
                </div>","null","","","","","","","",""
"","","","","","html-button-response","129","495111","0.0-129.0","751BE5FDCB6A4F7793DB8E68382B95F2","019cefa9-f1c6-75be-8d3a-821d56bf1d5a","019cef87-c56d-7b55-9135-c5814367ec25","","null","
                <div class=""stimulus-container"">
                    <img src=""images/schematic_sequence/dinner_party_scheme/dinner_party_scheme_4.png"" class=""exp-image"">
                    <div class=""question-area"">
                        <p style=""font-size: 20px; font-weight: bold; margin: 0;"">Is there a person in this image?</p>
                    </div>
                </div>","null","main_experiment_trial","4","dinner_party_scheme","schematic_sequence","","","",""
"","","","","","html-keyboard-response","130","500115","0.0-130.0","751BE5FDCB6A4F7793DB8E68382B95F2","019cefa9-f1c6-75be-8d3a-821d56bf1d5a","019cef87-c56d-7b55-9135-c5814367ec25","","null","
                <div class=""stimulus-container"">
                    <img src=""images/schematic_sequence/dinner_party_scheme/dinner_party_scheme_5.png"" class=""exp-image"">
                    <div class=""question-area""></div> 
                </div>","null","","","","","","","",""
"","","","","","html-button-response","131","503127","0.0-131.0","751BE5FDCB6A4F7793DB8E68382B95F2","019cefa9-f1c6-75be-8d3a-821d56bf1d5a","019cef87-c56d-7b55-9135-c5814367ec25","","null","
                <div class=""stimulus-container"">
                    <img src=""images/schematic_sequence/dinner_party_scheme/dinner_party_scheme_5.png"" class=""exp-image"">
                    <div class=""question-area"">
                        <p style=""font-size: 20px; font-weight: bold; margin: 0;"">Is there a person in this image?</p>
                    </div>
                </div>","null","main_experiment_trial","5","dinner_party_scheme","schematic_sequence","","","",""
"","","","","","html-keyboard-response","132","508153","0.0-132.0","751BE5FDCB6A4F7793DB8E68382B95F2","019cefa9-f1c6-75be-8d3a-821d56bf1d5a","019cef87-c56d-7b55-9135-c5814367ec25","","null","
                <div class=""stimulus-container"">
                    <img src=""images/schematic_sequence/dinner_party_scheme/dinner_party_scheme_6.png"" class=""exp-image"">
                    <div class=""question-area""></div> 
                </div>","null","","","","","","","",""
"","","","","","html-button-response","133","511159","0.0-133.0","751BE5FDCB6A4F7793DB8E68382B95F2","019cefa9-f1c6-75be-8d3a-821d56bf1d5a","019cef87-c56d-7b55-9135-c5814367ec25","","null","
                <div class=""stimulus-container"">
                    <img src=""images/schematic_sequence/dinner_party_scheme/dinner_party_scheme_6.png"" class=""exp-image"">
                    <div class=""question-area"">
                        <p style=""font-size: 20px; font-weight: bold; margin: 0;"">Is there a person in this image?</p>
                    </div>
                </div>","null","main_experiment_trial","6","dinner_party_scheme","schematic_sequence","","","",""
"","","","","","html-keyboard-response","134","516175","0.0-134.0","751BE5FDCB6A4F7793DB8E68382B95F2","019cefa9-f1c6-75be-8d3a-821d56bf1d5a","019cef87-c56d-7b55-9135-c5814367ec25","","null","
                <div class=""stimulus-container"">
                    <img src=""images/schematic_sequence/dinner_party_scheme/dinner_party_scheme_7.png"" class=""exp-image"">
                    <div class=""question-area""></div> 
                </div>","null","","","","","","","",""
"","","","","","html-button-response","135","519189","0.0-135.0","751BE5FDCB6A4F7793DB8E68382B95F2","019cefa9-f1c6-75be-8d3a-821d56bf1d5a","019cef87-c56d-7b55-9135-c5814367ec25","","null","
                <div class=""stimulus-container"">
                    <img src=""images/schematic_sequence/dinner_party_scheme/dinner_party_scheme_7.png"" class=""exp-image"">
                    <div class=""question-area"">
                        <p style=""font-size: 20px; font-weight: bold; margin: 0;"">Is there a person in this image?</p>
                    </div>
                </div>","null","main_experiment_trial","7","dinner_party_scheme","schematic_sequence","","","",""
"","","","","","html-keyboard-response","136","524203","0.0-136.0","751BE5FDCB6A4F7793DB8E68382B95F2","019cefa9-f1c6-75be-8d3a-821d56bf1d5a","019cef87-c56d-7b55-9135-c5814367ec25","","null","
                <div class=""stimulus-container"">
                    <img src=""images/schematic_sequence/dinner_party_scheme/dinner_party_scheme_8.png"" class=""exp-image"">
                    <div class=""question-area""></div> 
                </div>","null","","","","","","","",""
"","","","","","html-button-response","137","527213","0.0-137.0","751BE5FDCB6A4F7793DB8E68382B95F2","019cefa9-f1c6-75be-8d3a-821d56bf1d5a","019cef87-c56d-7b55-9135-c5814367ec25","","null","
                <div class=""stimulus-container"">
                    <img src=""images/schematic_sequence/dinner_party_scheme/dinner_party_scheme_8.png"" class=""exp-image"">
                    <div class=""question-area"">
                        <p style=""font-size: 20px; font-weight: bold; margin: 0;"">Is there a person in this image?</p>
                    </div>
                </div>","null","main_experiment_trial","8","dinner_party_scheme","schematic_sequence","","","",""
"","","","","","html-keyboard-response","138","532224","0.0-138.0","751BE5FDCB6A4F7793DB8E68382B95F2","019cefa9-f1c6-75be-8d3a-821d56bf1d5a","019cef87-c56d-7b55-9135-c5814367ec25","","null","
                <div class=""stimulus-container"">
                    <img src=""images/schematic_sequence/dinner_party_scheme/dinner_party_scheme_9.png"" class=""exp-image"">
                    <div class=""question-area""></div> 
                </div>","null","","","","","","","",""
"","","","","","html-button-response","139","535243","0.0-139.0","751BE5FDCB6A4F7793DB8E68382B95F2","019cefa9-f1c6-75be-8d3a-821d56bf1d5a","019cef87-c56d-7b55-9135-c5814367ec25","","null","
                <div class=""stimulus-container"">
                    <img src=""images/schematic_sequence/dinner_party_scheme/dinner_party_scheme_9.png"" class=""exp-image"">
                    <div class=""question-area"">
                        <p style=""font-size: 20px; font-weight: bold; margin: 0;"">Is there a person in this image?</p>
                    </div>
                </div>","null","main_experiment_trial","9","dinner_party_scheme","schematic_sequence","","","",""
"","","","","","html-keyboard-response","140","540247","0.0-140.0","751BE5FDCB6A4F7793DB8E68382B95F2","019cefa9-f1c6-75be-8d3a-821d56bf1d5a","019cef87-c56d-7b55-9135-c5814367ec25","","null","
                <div class=""stimulus-container"">
                    <img src=""images/schematic_sequence/dinner_party_scheme/dinner_party_scheme_ten.png"" class=""exp-image"">
                    <div class=""question-area""></div> 
                </div>","null","","","","","","","",""
"","","","","","html-button-response","141","543261","0.0-141.0","751BE5FDCB6A4F7793DB8E68382B95F2","019cefa9-f1c6-75be-8d3a-821d56bf1d5a","019cef87-c56d-7b55-9135-c5814367ec25","","null","
                <div class=""stimulus-container"">
                    <img src=""images/schematic_sequence/dinner_party_scheme/dinner_party_scheme_ten.png"" class=""exp-image"">
                    <div class=""question-area"">
                        <p style=""font-size: 20px; font-weight: bold; margin: 0;"">Is there a person in this image?</p>
                    </div>
                </div>","null","main_experiment_trial","ten","dinner_party_scheme","schematic_sequence","","","",""
"","","","","","html-keyboard-response","142","544277","0.0-142.0","751BE5FDCB6A4F7793DB8E68382B95F2","019cefa9-f1c6-75be-8d3a-821d56bf1d5a","019cef87-c56d-7b55-9135-c5814367ec25","","null","<div style=""background-color: white; width: 100vw; height: 100vh;""></div>","null","","","","","","","",""
"","","","","","html-keyboard-response","143","549288","0.0-143.0","751BE5FDCB6A4F7793DB8E68382B95F2","019cefa9-f1c6-75be-8d3a-821d56bf1d5a","019cef87-c56d-7b55-9135-c5814367ec25","","null","
                <div class=""stimulus-container"">
                    <img src=""images/schematic_sequence/flight_scheme/flight_scheme_1.png"" class=""exp-image"">
                    <div class=""question-area""></div> 
                </div>","null","","","","","","","",""
"","","","","","html-button-response","144","552293","0.0-144.0","751BE5FDCB6A4F7793DB8E68382B95F2","019cefa9-f1c6-75be-8d3a-821d56bf1d5a","019cef87-c56d-7b55-9135-c5814367ec25","","null","
                <div class=""stimulus-container"">
                    <img src=""images/schematic_sequence/flight_scheme/flight_scheme_1.png"" class=""exp-image"">
                    <div class=""question-area"">
                        <p style=""font-size: 20px; font-weight: bold; margin: 0;"">Is there a person in this image?</p>
                    </div>
                </div>","null","main_experiment_trial","1","flight_scheme","schematic_sequence","","","",""
"","","","","","html-keyboard-response","145","557313","0.0-145.0","751BE5FDCB6A4F7793DB8E68382B95F2","019cefa9-f1c6-75be-8d3a-821d56bf1d5a","019cef87-c56d-7b55-9135-c5814367ec25","","null","
                <div class=""stimulus-container"">
                    <img src=""images/schematic_sequence/flight_scheme/flight_scheme_2.png"" class=""exp-image"">
                    <div class=""question-area""></div> 
                </div>","null","","","","","","","",""
"","","","","","html-button-response","146","560319","0.0-146.0","751BE5FDCB6A4F7793DB8E68382B95F2","019cefa9-f1c6-75be-8d3a-821d56bf1d5a","019cef87-c56d-7b55-9135-c5814367ec25","","null","
                <div class=""stimulus-container"">
                    <img src=""images/schematic_sequence/flight_scheme/flight_scheme_2.png"" class=""exp-image"">
                    <div class=""question-area"">
                        <p style=""font-size: 20px; font-weight: bold; margin: 0;"">Is there a person in this image?</p>
                    </div>
                </div>","null","main_experiment_trial","2","flight_scheme","schematic_sequence","","","",""
"","","","","","html-keyboard-response","147","565321","0.0-147.0","751BE5FDCB6A4F7793DB8E68382B95F2","019cefa9-f1c6-75be-8d3a-821d56bf1d5a","019cef87-c56d-7b55-9135-c5814367ec25","","null","
                <div class=""stimulus-container"">
                    <img src=""images/schematic_sequence/flight_scheme/flight_scheme_3.png"" class=""exp-image"">
                    <div class=""question-area""></div> 
                </div>","null","","","","","","","",""
"","","","","","html-button-response","148","568325","0.0-148.0","751BE5FDCB6A4F7793DB8E68382B95F2","019cefa9-f1c6-75be-8d3a-821d56bf1d5a","019cef87-c56d-7b55-9135-c5814367ec25","","null","
                <div class=""stimulus-container"">
                    <img src=""images/schematic_sequence/flight_scheme/flight_scheme_3.png"" class=""exp-image"">
                    <div class=""question-area"">
                        <p style=""font-size: 20px; font-weight: bold; margin: 0;"">Is there a person in this image?</p>
                    </div>
                </div>","null","main_experiment_trial","3","flight_scheme","schematic_sequence","","","",""
"","","","","","html-keyboard-response","149","573330","0.0-149.0","751BE5FDCB6A4F7793DB8E68382B95F2","019cefa9-f1c6-75be-8d3a-821d56bf1d5a","019cef87-c56d-7b55-9135-c5814367ec25","","null","
                <div class=""stimulus-container"">
                    <img src=""images/schematic_sequence/flight_scheme/flight_scheme_4.png"" class=""exp-image"">
                    <div class=""question-area""></div> 
                </div>","null","","","","","","","",""
"","","","","","html-button-response","150","576336","0.0-150.0","751BE5FDCB6A4F7793DB8E68382B95F2","019cefa9-f1c6-75be-8d3a-821d56bf1d5a","019cef87-c56d-7b55-9135-c5814367ec25","","null","
                <div class=""stimulus-container"">
                    <img src=""images/schematic_sequence/flight_scheme/flight_scheme_4.png"" class=""exp-image"">
                    <div class=""question-area"">
                        <p style=""font-size: 20px; font-weight: bold; margin: 0;"">Is there a person in this image?</p>
                    </div>
                </div>","null","main_experiment_trial","4","flight_scheme","schematic_sequence","","","",""
"","","","","","html-keyboard-response","151","581343","0.0-151.0","751BE5FDCB6A4F7793DB8E68382B95F2","019cefa9-f1c6-75be-8d3a-821d56bf1d5a","019cef87-c56d-7b55-9135-c5814367ec25","","null","
                <div class=""stimulus-container"">
                    <img src=""images/schematic_sequence/flight_scheme/flight_scheme_5.png"" class=""exp-image"">
                    <div class=""question-area""></div> 
                </div>","null","","","","","","","",""
"","","","","","html-button-response","152","584352","0.0-152.0","751BE5FDCB6A4F7793DB8E68382B95F2","019cefa9-f1c6-75be-8d3a-821d56bf1d5a","019cef87-c56d-7b55-9135-c5814367ec25","","null","
                <div class=""stimulus-container"">
                    <img src=""images/schematic_sequence/flight_scheme/flight_scheme_5.png"" class=""exp-image"">
                    <div class=""question-area"">
                        <p style=""font-size: 20px; font-weight: bold; margin: 0;"">Is there a person in this image?</p>
                    </div>
                </div>","null","main_experiment_trial","5","flight_scheme","schematic_sequence","","","",""
"","","","","","html-keyboard-response","153","589358","0.0-153.0","751BE5FDCB6A4F7793DB8E68382B95F2","019cefa9-f1c6-75be-8d3a-821d56bf1d5a","019cef87-c56d-7b55-9135-c5814367ec25","","null","
                <div class=""stimulus-container"">
                    <img src=""images/schematic_sequence/flight_scheme/flight_scheme_6.png"" class=""exp-image"">
                    <div class=""question-area""></div> 
                </div>","null","","","","","","","",""
"","","","","","html-button-response","154","592368","0.0-154.0","751BE5FDCB6A4F7793DB8E68382B95F2","019cefa9-f1c6-75be-8d3a-821d56bf1d5a","019cef87-c56d-7b55-9135-c5814367ec25","","null","
                <div class=""stimulus-container"">
                    <img src=""images/schematic_sequence/flight_scheme/flight_scheme_6.png"" class=""exp-image"">
                    <div class=""question-area"">
                        <p style=""font-size: 20px; font-weight: bold; margin: 0;"">Is there a person in this image?</p>
                    </div>
                </div>","null","main_experiment_trial","6","flight_scheme","schematic_sequence","","","",""
"","","","","","html-keyboard-response","155","597374","0.0-155.0","751BE5FDCB6A4F7793DB8E68382B95F2","019cefa9-f1c6-75be-8d3a-821d56bf1d5a","019cef87-c56d-7b55-9135-c5814367ec25","","null","
                <div class=""stimulus-container"">
                    <img src=""images/schematic_sequence/flight_scheme/flight_scheme_7.png"" class=""exp-image"">
                    <div class=""question-area""></div> 
                </div>","null","","","","","","","",""
"","","","","","html-button-response","156","600383","0.0-156.0","751BE5FDCB6A4F7793DB8E68382B95F2","019cefa9-f1c6-75be-8d3a-821d56bf1d5a","019cef87-c56d-7b55-9135-c5814367ec25","","null","
                <div class=""stimulus-container"">
                    <img src=""images/schematic_sequence/flight_scheme/flight_scheme_7.png"" class=""exp-image"">
                    <div class=""question-area"">
                        <p style=""font-size: 20px; font-weight: bold; margin: 0;"">Is there a person in this image?</p>
                    </div>
                </div>","null","main_experiment_trial","7","flight_scheme","schematic_sequence","","","",""
"","","","","","html-keyboard-response","157","605388","0.0-157.0","751BE5FDCB6A4F7793DB8E68382B95F2","019cefa9-f1c6-75be-8d3a-821d56bf1d5a","019cef87-c56d-7b55-9135-c5814367ec25","","null","
                <div class=""stimulus-container"">
                    <img src=""images/schematic_sequence/flight_scheme/flight_scheme_8.png"" class=""exp-image"">
                    <div class=""question-area""></div> 
                </div>","null","","","","","","","",""
"","","","","","html-button-response","158","608401","0.0-158.0","751BE5FDCB6A4F7793DB8E68382B95F2","019cefa9-f1c6-75be-8d3a-821d56bf1d5a","019cef87-c56d-7b55-9135-c5814367ec25","","null","
                <div class=""stimulus-container"">
                    <img src=""images/schematic_sequence/flight_scheme/flight_scheme_8.png"" class=""exp-image"">
                    <div class=""question-area"">
                        <p style=""font-size: 20px; font-weight: bold; margin: 0;"">Is there a person in this image?</p>
                    </div>
                </div>","null","main_experiment_trial","8","flight_scheme","schematic_sequence","","","",""
"","","","","","html-keyboard-response","159","613404","0.0-159.0","751BE5FDCB6A4F7793DB8E68382B95F2","019cefa9-f1c6-75be-8d3a-821d56bf1d5a","019cef87-c56d-7b55-9135-c5814367ec25","","null","
                <div class=""stimulus-container"">
                    <img src=""images/schematic_sequence/flight_scheme/flight_scheme_9.png"" class=""exp-image"">
                    <div class=""question-area""></div> 
                </div>","null","","","","","","","",""
"","","","","","html-button-response","160","616411","0.0-160.0","751BE5FDCB6A4F7793DB8E68382B95F2","019cefa9-f1c6-75be-8d3a-821d56bf1d5a","019cef87-c56d-7b55-9135-c5814367ec25","","null","
                <div class=""stimulus-container"">
                    <img src=""images/schematic_sequence/flight_scheme/flight_scheme_9.png"" class=""exp-image"">
                    <div class=""question-area"">
                        <p style=""font-size: 20px; font-weight: bold; margin: 0;"">Is there a person in this image?</p>
                    </div>
                </div>","null","main_experiment_trial","9","flight_scheme","schematic_sequence","","","",""
"","","","","","html-keyboard-response","161","621427","0.0-161.0","751BE5FDCB6A4F7793DB8E68382B95F2","019cefa9-f1c6-75be-8d3a-821d56bf1d5a","019cef87-c56d-7b55-9135-c5814367ec25","","null","
                <div class=""stimulus-container"">
                    <img src=""images/schematic_sequence/flight_scheme/flight_scheme_ten.png"" class=""exp-image"">
                    <div class=""question-area""></div> 
                </div>","null","","","","","","","",""
"","","","","","html-button-response","162","624428","0.0-162.0","751BE5FDCB6A4F7793DB8E68382B95F2","019cefa9-f1c6-75be-8d3a-821d56bf1d5a","019cef87-c56d-7b55-9135-c5814367ec25","","null","
                <div class=""stimulus-container"">
                    <img src=""images/schematic_sequence/flight_scheme/flight_scheme_ten.png"" class=""exp-image"">
                    <div class=""question-area"">
                        <p style=""font-size: 20px; font-weight: bold; margin: 0;"">Is there a person in this image?</p>
                    </div>
                </div>","null","main_experiment_trial","ten","flight_scheme","schematic_sequence","","","",""
"","","","","","html-keyboard-response","163","625442","0.0-163.0","751BE5FDCB6A4F7793DB8E68382B95F2","019cefa9-f1c6-75be-8d3a-821d56bf1d5a","019cef87-c56d-7b55-9135-c5814367ec25","","null","<div style=""background-color: white; width: 100vw; height: 100vh;""></div>","null","","","","","","","",""
"","","","","","html-keyboard-response","164","630456","0.0-164.0","751BE5FDCB6A4F7793DB8E68382B95F2","019cefa9-f1c6-75be-8d3a-821d56bf1d5a","019cef87-c56d-7b55-9135-c5814367ec25","","null","
                <div class=""stimulus-container"">
                    <img src=""images/schematic_sequence/hotel_scheme/hotel_scheme_1.png"" class=""exp-image"">
                    <div class=""question-area""></div> 
                </div>","null","","","","","","","",""
"","","","","","html-button-response","165","633461","0.0-165.0","751BE5FDCB6A4F7793DB8E68382B95F2","019cefa9-f1c6-75be-8d3a-821d56bf1d5a","019cef87-c56d-7b55-9135-c5814367ec25","","null","
                <div class=""stimulus-container"">
                    <img src=""images/schematic_sequence/hotel_scheme/hotel_scheme_1.png"" class=""exp-image"">
                    <div class=""question-area"">
                        <p style=""font-size: 20px; font-weight: bold; margin: 0;"">Is there a person in this image?</p>
                    </div>
                </div>","null","main_experiment_trial","1","hotel_scheme","schematic_sequence","","","",""
"","","","","","html-keyboard-response","166","638469","0.0-166.0","751BE5FDCB6A4F7793DB8E68382B95F2","019cefa9-f1c6-75be-8d3a-821d56bf1d5a","019cef87-c56d-7b55-9135-c5814367ec25","","null","
                <div class=""stimulus-container"">
                    <img src=""images/schematic_sequence/hotel_scheme/hotel_scheme_2.png"" class=""exp-image"">
                    <div class=""question-area""></div> 
                </div>","null","","","","","","","",""
"","","","","","html-button-response","167","641479","0.0-167.0","751BE5FDCB6A4F7793DB8E68382B95F2","019cefa9-f1c6-75be-8d3a-821d56bf1d5a","019cef87-c56d-7b55-9135-c5814367ec25","","null","
                <div class=""stimulus-container"">
                    <img src=""images/schematic_sequence/hotel_scheme/hotel_scheme_2.png"" class=""exp-image"">
                    <div class=""question-area"">
                        <p style=""font-size: 20px; font-weight: bold; margin: 0;"">Is there a person in this image?</p>
                    </div>
                </div>","null","main_experiment_trial","2","hotel_scheme","schematic_sequence","","","",""
"","","","","","html-keyboard-response","168","646494","0.0-168.0","751BE5FDCB6A4F7793DB8E68382B95F2","019cefa9-f1c6-75be-8d3a-821d56bf1d5a","019cef87-c56d-7b55-9135-c5814367ec25","","null","
                <div class=""stimulus-container"">
                    <img src=""images/schematic_sequence/hotel_scheme/hotel_scheme_3.png"" class=""exp-image"">
                    <div class=""question-area""></div> 
                </div>","null","","","","","","","",""
"","","","","","html-button-response","169","649510","0.0-169.0","751BE5FDCB6A4F7793DB8E68382B95F2","019cefa9-f1c6-75be-8d3a-821d56bf1d5a","019cef87-c56d-7b55-9135-c5814367ec25","","null","
                <div class=""stimulus-container"">
                    <img src=""images/schematic_sequence/hotel_scheme/hotel_scheme_3.png"" class=""exp-image"">
                    <div class=""question-area"">
                        <p style=""font-size: 20px; font-weight: bold; margin: 0;"">Is there a person in this image?</p>
                    </div>
                </div>","null","main_experiment_trial","3","hotel_scheme","schematic_sequence","","","",""
"","","","","","html-keyboard-response","170","654514","0.0-170.0","751BE5FDCB6A4F7793DB8E68382B95F2","019cefa9-f1c6-75be-8d3a-821d56bf1d5a","019cef87-c56d-7b55-9135-c5814367ec25","","null","
                <div class=""stimulus-container"">
                    <img src=""images/schematic_sequence/hotel_scheme/hotel_scheme_4.png"" class=""exp-image"">
                    <div class=""question-area""></div> 
                </div>","null","","","","","","","",""
"","","","","","html-button-response","171","657520","0.0-171.0","751BE5FDCB6A4F7793DB8E68382B95F2","019cefa9-f1c6-75be-8d3a-821d56bf1d5a","019cef87-c56d-7b55-9135-c5814367ec25","","null","
                <div class=""stimulus-container"">
                    <img src=""images/schematic_sequence/hotel_scheme/hotel_scheme_4.png"" class=""exp-image"">
                    <div class=""question-area"">
                        <p style=""font-size: 20px; font-weight: bold; margin: 0;"">Is there a person in this image?</p>
                    </div>
                </div>","null","main_experiment_trial","4","hotel_scheme","schematic_sequence","","","",""
"","","","","","html-keyboard-response","172","662534","0.0-172.0","751BE5FDCB6A4F7793DB8E68382B95F2","019cefa9-f1c6-75be-8d3a-821d56bf1d5a","019cef87-c56d-7b55-9135-c5814367ec25","","null","
                <div class=""stimulus-container"">
                    <img src=""images/schematic_sequence/hotel_scheme/hotel_scheme_5.png"" class=""exp-image"">
                    <div class=""question-area""></div> 
                </div>","null","","","","","","","",""
"","","","","","html-button-response","173","665551","0.0-173.0","751BE5FDCB6A4F7793DB8E68382B95F2","019cefa9-f1c6-75be-8d3a-821d56bf1d5a","019cef87-c56d-7b55-9135-c5814367ec25","","null","
                <div class=""stimulus-container"">
                    <img src=""images/schematic_sequence/hotel_scheme/hotel_scheme_5.png"" class=""exp-image"">
                    <div class=""question-area"">
                        <p style=""font-size: 20px; font-weight: bold; margin: 0;"">Is there a person in this image?</p>
                    </div>
                </div>","null","main_experiment_trial","5","hotel_scheme","schematic_sequence","","","",""
"","","","","","html-keyboard-response","174","670556","0.0-174.0","751BE5FDCB6A4F7793DB8E68382B95F2","019cefa9-f1c6-75be-8d3a-821d56bf1d5a","019cef87-c56d-7b55-9135-c5814367ec25","","null","
                <div class=""stimulus-container"">
                    <img src=""images/schematic_sequence/hotel_scheme/hotel_scheme_6.png"" class=""exp-image"">
                    <div class=""question-area""></div> 
                </div>","null","","","","","","","",""
"","","","","","html-button-response","175","673565","0.0-175.0","751BE5FDCB6A4F7793DB8E68382B95F2","019cefa9-f1c6-75be-8d3a-821d56bf1d5a","019cef87-c56d-7b55-9135-c5814367ec25","","null","
                <div class=""stimulus-container"">
                    <img src=""images/schematic_sequence/hotel_scheme/hotel_scheme_6.png"" class=""exp-image"">
                    <div class=""question-area"">
                        <p style=""font-size: 20px; font-weight: bold; margin: 0;"">Is there a person in this image?</p>
                    </div>
                </div>","null","main_experiment_trial","6","hotel_scheme","schematic_sequence","","","",""
"","","","","","html-keyboard-response","176","678578","0.0-176.0","751BE5FDCB6A4F7793DB8E68382B95F2","019cefa9-f1c6-75be-8d3a-821d56bf1d5a","019cef87-c56d-7b55-9135-c5814367ec25","","null","
                <div class=""stimulus-container"">
                    <img src=""images/schematic_sequence/hotel_scheme/hotel_scheme_7.png"" class=""exp-image"">
                    <div class=""question-area""></div> 
                </div>","null","","","","","","","",""
"","","","","","html-button-response","177","681587","0.0-177.0","751BE5FDCB6A4F7793DB8E68382B95F2","019cefa9-f1c6-75be-8d3a-821d56bf1d5a","019cef87-c56d-7b55-9135-c5814367ec25","","null","
                <div class=""stimulus-container"">
                    <img src=""images/schematic_sequence/hotel_scheme/hotel_scheme_7.png"" class=""exp-image"">
                    <div class=""question-area"">
                        <p style=""font-size: 20px; font-weight: bold; margin: 0;"">Is there a person in this image?</p>
                    </div>
                </div>","null","main_experiment_trial","7","hotel_scheme","schematic_sequence","","","",""
"","","","","","html-keyboard-response","178","686590","0.0-178.0","751BE5FDCB6A4F7793DB8E68382B95F2","019cefa9-f1c6-75be-8d3a-821d56bf1d5a","019cef87-c56d-7b55-9135-c5814367ec25","","null","
                <div class=""stimulus-container"">
                    <img src=""images/schematic_sequence/hotel_scheme/hotel_scheme_8.png"" class=""exp-image"">
                    <div class=""question-area""></div> 
                </div>","null","","","","","","","",""
"","","","","","html-button-response","179","689598","0.0-179.0","751BE5FDCB6A4F7793DB8E68382B95F2","019cefa9-f1c6-75be-8d3a-821d56bf1d5a","019cef87-c56d-7b55-9135-c5814367ec25","","null","
                <div class=""stimulus-container"">
                    <img src=""images/schematic_sequence/hotel_scheme/hotel_scheme_8.png"" class=""exp-image"">
                    <div class=""question-area"">
                        <p style=""font-size: 20px; font-weight: bold; margin: 0;"">Is there a person in this image?</p>
                    </div>
                </div>","null","main_experiment_trial","8","hotel_scheme","schematic_sequence","","","",""
"","","","","","html-keyboard-response","180","694603","0.0-180.0","751BE5FDCB6A4F7793DB8E68382B95F2","019cefa9-f1c6-75be-8d3a-821d56bf1d5a","019cef87-c56d-7b55-9135-c5814367ec25","","null","
                <div class=""stimulus-container"">
                    <img src=""images/schematic_sequence/hotel_scheme/hotel_scheme_9.png"" class=""exp-image"">
                    <div class=""question-area""></div> 
                </div>","null","","","","","","","",""
"","","","","","html-button-response","181","697618","0.0-181.0","751BE5FDCB6A4F7793DB8E68382B95F2","019cefa9-f1c6-75be-8d3a-821d56bf1d5a","019cef87-c56d-7b55-9135-c5814367ec25","","null","
                <div class=""stimulus-container"">
                    <img src=""images/schematic_sequence/hotel_scheme/hotel_scheme_9.png"" class=""exp-image"">
                    <div class=""question-area"">
                        <p style=""font-size: 20px; font-weight: bold; margin: 0;"">Is there a person in this image?</p>
                    </div>
                </div>","null","main_experiment_trial","9","hotel_scheme","schematic_sequence","","","",""
"","","","","","html-keyboard-response","182","702629","0.0-182.0","751BE5FDCB6A4F7793DB8E68382B95F2","019cefa9-f1c6-75be-8d3a-821d56bf1d5a","019cef87-c56d-7b55-9135-c5814367ec25","","null","
                <div class=""stimulus-container"">
                    <img src=""images/schematic_sequence/hotel_scheme/hotel_scheme_ten.png"" class=""exp-image"">
                    <div class=""question-area""></div> 
                </div>","null","","","","","","","",""
"","","","","","html-button-response","183","705637","0.0-183.0","751BE5FDCB6A4F7793DB8E68382B95F2","019cefa9-f1c6-75be-8d3a-821d56bf1d5a","019cef87-c56d-7b55-9135-c5814367ec25","","null","
                <div class=""stimulus-container"">
                    <img src=""images/schematic_sequence/hotel_scheme/hotel_scheme_ten.png"" class=""exp-image"">
                    <div class=""question-area"">
                        <p style=""font-size: 20px; font-weight: bold; margin: 0;"">Is there a person in this image?</p>
                    </div>
                </div>","null","main_experiment_trial","ten","hotel_scheme","schematic_sequence","","","",""
