"success","timeout","failed_images","failed_audio","failed_video","trial_type","trial_index","time_elapsed","internal_node_id","subject_id","study_id","session_id","view_history","rt","stimulus","response","task","image_index","folder","sequence_type","presentation_order","valuable_image_index","reward_type","distance_from_x","target_X","chosen_image_index","is_x_plus_dist","correct_choice"
"true","false","[]","[]","[]","preload","0","3206","0.0-0.0","F639409A702946128EDE0F85B0B8D02A","019d6b30-9ef9-7265-9f79-27df0cca6036","019d6b28-084c-76dd-a1cb-5ac041bdee9a","","","","","","","","","","","","","","","",""
"","","","","","instructions","1","50382","0.0-1.0","F639409A702946128EDE0F85B0B8D02A","019d6b30-9ef9-7265-9f79-27df0cca6036","019d6b28-084c-76dd-a1cb-5ac041bdee9a","[{""page_index"":0,""viewing_time"":47173}]","47173","","","","","","","","","","","","","",""
"","","","","","instructions","2","70434","0.0-2.0","F639409A702946128EDE0F85B0B8D02A","019d6b30-9ef9-7265-9f79-27df0cca6036","019d6b28-084c-76dd-a1cb-5ac041bdee9a","[{""page_index"":0,""viewing_time"":20051}]","20052","","","","","","","","","","","","","",""
"true","","","","","fullscreen","3","74504","0.0-3.0","F639409A702946128EDE0F85B0B8D02A","019d6b30-9ef9-7265-9f79-27df0cca6036","019d6b28-084c-76dd-a1cb-5ac041bdee9a","","3066","","","","","","","","","","","","","",""
"","","","","","instructions","4","224850","0.0-4.0","F639409A702946128EDE0F85B0B8D02A","019d6b30-9ef9-7265-9f79-27df0cca6036","019d6b28-084c-76dd-a1cb-5ac041bdee9a","[{""page_index"":0,""viewing_time"":150341}]","150341","","","","","","","","","","","","","",""
"","","","","","instructions","5","241618","0.0-5.0","F639409A702946128EDE0F85B0B8D02A","019d6b30-9ef9-7265-9f79-27df0cca6036","019d6b28-084c-76dd-a1cb-5ac041bdee9a","[{""page_index"":0,""viewing_time"":16767}]","16767","","","","","","","","","","","","","",""
"","","","","","html-keyboard-response","6","245622","0.0-6.0","F639409A702946128EDE0F85B0B8D02A","019d6b30-9ef9-7265-9f79-27df0cca6036","019d6b28-084c-76dd-a1cb-5ac041bdee9a","","null","
            <div class=""stimulus-container"">
                <img src=""images/instructions/movie_1.png"" class=""exp-image"">
                <div class=""question-area""></div> 
            </div>","null","","","","","","","","","","","",""
"","","","","","html-button-response","7","247986","0.0-7.0","F639409A702946128EDE0F85B0B8D02A","019d6b30-9ef9-7265-9f79-27df0cca6036","019d6b28-084c-76dd-a1cb-5ac041bdee9a","","2363","
            <div class=""stimulus-container"">
                <img src=""images/instructions/movie_1.png"" class=""exp-image"">
                <div class=""question-area"">
                    <p style=""font-size: 20px; font-weight: bold; margin: 0;"">Was there a person in this image?</p>
                </div>
            </div>","0","example_question","1","","","","","","","","","",""
"","","","","","html-keyboard-response","8","251989","0.0-8.0","F639409A702946128EDE0F85B0B8D02A","019d6b30-9ef9-7265-9f79-27df0cca6036","019d6b28-084c-76dd-a1cb-5ac041bdee9a","","null","
            <div class=""stimulus-container"">
                <img src=""images/instructions/movie_2.png"" class=""exp-image"">
                <div class=""question-area""></div> 
            </div>","null","","","","","","","","","","","",""
"","","","","","html-button-response","9","253303","0.0-9.0","F639409A702946128EDE0F85B0B8D02A","019d6b30-9ef9-7265-9f79-27df0cca6036","019d6b28-084c-76dd-a1cb-5ac041bdee9a","","1313","
            <div class=""stimulus-container"">
                <img src=""images/instructions/movie_2.png"" class=""exp-image"">
                <div class=""question-area"">
                    <p style=""font-size: 20px; font-weight: bold; margin: 0;"">Was there a person in this image?</p>
                </div>
            </div>","0","example_question","2","","","","","","","","","",""
"","","","","","html-keyboard-response","10","257305","0.0-10.0","F639409A702946128EDE0F85B0B8D02A","019d6b30-9ef9-7265-9f79-27df0cca6036","019d6b28-084c-76dd-a1cb-5ac041bdee9a","","null","
            <div class=""stimulus-container"">
                <img src=""images/instructions/movie_3.png"" class=""exp-image"">
                <div class=""question-area""></div> 
            </div>","null","","","","","","","","","","","",""
"","","","","","html-button-response","11","258487","0.0-11.0","F639409A702946128EDE0F85B0B8D02A","019d6b30-9ef9-7265-9f79-27df0cca6036","019d6b28-084c-76dd-a1cb-5ac041bdee9a","","1182","
            <div class=""stimulus-container"">
                <img src=""images/instructions/movie_3.png"" class=""exp-image"">
                <div class=""question-area"">
                    <p style=""font-size: 20px; font-weight: bold; margin: 0;"">Was there a person in this image?</p>
                </div>
            </div>","0","example_question","3","","","","","","","","","",""
"","","","","","html-keyboard-response","12","262491","0.0-12.0","F639409A702946128EDE0F85B0B8D02A","019d6b30-9ef9-7265-9f79-27df0cca6036","019d6b28-084c-76dd-a1cb-5ac041bdee9a","","null","
            <div class=""stimulus-container"">
                <img src=""images/instructions/movie_4.png"" class=""exp-image"">
                <div class=""question-area""></div> 
            </div>","null","","","","","","","","","","","",""
"","","","","","html-button-response","13","263589","0.0-13.0","F639409A702946128EDE0F85B0B8D02A","019d6b30-9ef9-7265-9f79-27df0cca6036","019d6b28-084c-76dd-a1cb-5ac041bdee9a","","1097","
            <div class=""stimulus-container"">
                <img src=""images/instructions/movie_4.png"" class=""exp-image"">
                <div class=""question-area"">
                    <p style=""font-size: 20px; font-weight: bold; margin: 0;"">Was there a person in this image?</p>
                </div>
            </div>","0","example_question","4","","","","","","","","","",""
"","","","","","instructions","14","267804","0.0-14.0","F639409A702946128EDE0F85B0B8D02A","019d6b30-9ef9-7265-9f79-27df0cca6036","019d6b28-084c-76dd-a1cb-5ac041bdee9a","[{""page_index"":0,""viewing_time"":4214}]","4215","","","","","","","","","","","","","",""
"","","","","","instructions","15","344545","0.0-15.0","F639409A702946128EDE0F85B0B8D02A","019d6b30-9ef9-7265-9f79-27df0cca6036","019d6b28-084c-76dd-a1cb-5ac041bdee9a","[{""page_index"":0,""viewing_time"":76738}]","76738","","","","","","","","","","","","","",""
"","","","","","html-keyboard-response","16","349548","0.0-16.0","F639409A702946128EDE0F85B0B8D02A","019d6b30-9ef9-7265-9f79-27df0cca6036","019d6b28-084c-76dd-a1cb-5ac041bdee9a","","null","<div style=""background-color: white; width: 100vw; height: 100vh;""></div>","null","","","","","","","","","","","",""
"","","","","","html-keyboard-response","17","354550","0.0-17.0","F639409A702946128EDE0F85B0B8D02A","019d6b30-9ef9-7265-9f79-27df0cca6036","019d6b28-084c-76dd-a1cb-5ac041bdee9a","","null","
                <div class=""stimulus-container"">
                    <img src=""semantic_sequence_notimeline/clothing_semantic/clothing_semantic_1.png"" class=""exp-image"">
                    <div class=""question-area""></div> 
                </div>","null","","","","","","","","","","","",""
"","","","","","html-button-response","18","356130","0.0-18.0","F639409A702946128EDE0F85B0B8D02A","019d6b30-9ef9-7265-9f79-27df0cca6036","019d6b28-084c-76dd-a1cb-5ac041bdee9a","","1578","
                <div class=""stimulus-container"">
                    <img src=""semantic_sequence_notimeline/clothing_semantic/clothing_semantic_1.png"" class=""exp-image"">
                    <div class=""question-area"">
                        <p style=""font-size: 20px; font-weight: bold; margin: 0;"">Is there a person in this image?</p>
                    </div>
                </div>","1","main_experiment_trial","1","clothing_semantic","semantic_sequence_notimeline","chronological","","","","","","",""
"","","","","","html-keyboard-response","19","361133","0.0-19.0","F639409A702946128EDE0F85B0B8D02A","019d6b30-9ef9-7265-9f79-27df0cca6036","019d6b28-084c-76dd-a1cb-5ac041bdee9a","","null","
                <div class=""stimulus-container"">
                    <img src=""semantic_sequence_notimeline/clothing_semantic/clothing_semantic_2.png"" class=""exp-image"">
                    <div class=""question-area""></div> 
                </div>","null","","","","","","","","","","","",""
"","","","","","html-button-response","20","364013","0.0-20.0","F639409A702946128EDE0F85B0B8D02A","019d6b30-9ef9-7265-9f79-27df0cca6036","019d6b28-084c-76dd-a1cb-5ac041bdee9a","","2880","
                <div class=""stimulus-container"">
                    <img src=""semantic_sequence_notimeline/clothing_semantic/clothing_semantic_2.png"" class=""exp-image"">
                    <div class=""question-area"">
                        <p style=""font-size: 20px; font-weight: bold; margin: 0;"">Is there a person in this image?</p>
                    </div>
                </div>","1","main_experiment_trial","2","clothing_semantic","semantic_sequence_notimeline","chronological","","","","","","",""
"","","","","","html-keyboard-response","21","369015","0.0-21.0","F639409A702946128EDE0F85B0B8D02A","019d6b30-9ef9-7265-9f79-27df0cca6036","019d6b28-084c-76dd-a1cb-5ac041bdee9a","","null","
                <div class=""stimulus-container"">
                    <img src=""semantic_sequence_notimeline/clothing_semantic/clothing_semantic_3.png"" class=""exp-image"">
                    <div class=""question-area""></div> 
                </div>","null","","","","","","","","","","","",""
"","","","","","html-button-response","22","370331","0.0-22.0","F639409A702946128EDE0F85B0B8D02A","019d6b30-9ef9-7265-9f79-27df0cca6036","019d6b28-084c-76dd-a1cb-5ac041bdee9a","","1314","
                <div class=""stimulus-container"">
                    <img src=""semantic_sequence_notimeline/clothing_semantic/clothing_semantic_3.png"" class=""exp-image"">
                    <div class=""question-area"">
                        <p style=""font-size: 20px; font-weight: bold; margin: 0;"">Is there a person in this image?</p>
                    </div>
                </div>","1","main_experiment_trial","3","clothing_semantic","semantic_sequence_notimeline","chronological","","","","","","",""
"","","","","","html-keyboard-response","23","375333","0.0-23.0","F639409A702946128EDE0F85B0B8D02A","019d6b30-9ef9-7265-9f79-27df0cca6036","019d6b28-084c-76dd-a1cb-5ac041bdee9a","","null","
                <div class=""stimulus-container"">
                    <img src=""semantic_sequence_notimeline/clothing_semantic/clothing_semantic_4.png"" class=""exp-image"">
                    <div class=""question-area""></div> 
                </div>","null","","","","","","","","","","","",""
"","","","","","html-button-response","24","376948","0.0-24.0","F639409A702946128EDE0F85B0B8D02A","019d6b30-9ef9-7265-9f79-27df0cca6036","019d6b28-084c-76dd-a1cb-5ac041bdee9a","","1613","
                <div class=""stimulus-container"">
                    <img src=""semantic_sequence_notimeline/clothing_semantic/clothing_semantic_4.png"" class=""exp-image"">
                    <div class=""question-area"">
                        <p style=""font-size: 20px; font-weight: bold; margin: 0;"">Is there a person in this image?</p>
                    </div>
                </div>","1","main_experiment_trial","4","clothing_semantic","semantic_sequence_notimeline","chronological","","","","","","",""
"","","","","","html-keyboard-response","25","381950","0.0-25.0","F639409A702946128EDE0F85B0B8D02A","019d6b30-9ef9-7265-9f79-27df0cca6036","019d6b28-084c-76dd-a1cb-5ac041bdee9a","","null","
                <div class=""stimulus-container"">
                    <img src=""semantic_sequence_notimeline/clothing_semantic/clothing_semantic_5.png"" class=""exp-image"">
                    <div class=""question-area""></div> 
                </div>","null","","","","","","","","","","","",""
"","","","","","html-button-response","26","382699","0.0-26.0","F639409A702946128EDE0F85B0B8D02A","019d6b30-9ef9-7265-9f79-27df0cca6036","019d6b28-084c-76dd-a1cb-5ac041bdee9a","","748","
                <div class=""stimulus-container"">
                    <img src=""semantic_sequence_notimeline/clothing_semantic/clothing_semantic_5.png"" class=""exp-image"">
                    <div class=""question-area"">
                        <p style=""font-size: 20px; font-weight: bold; margin: 0;"">Is there a person in this image?</p>
                    </div>
                </div>","1","main_experiment_trial","5","clothing_semantic","semantic_sequence_notimeline","chronological","","","","","","",""
"","","","","","html-keyboard-response","27","387700","0.0-27.0","F639409A702946128EDE0F85B0B8D02A","019d6b30-9ef9-7265-9f79-27df0cca6036","019d6b28-084c-76dd-a1cb-5ac041bdee9a","","null","
                <div class=""stimulus-container"">
                    <img src=""semantic_sequence_notimeline/clothing_semantic/clothing_semantic_6.png"" class=""exp-image"">
                    <div class=""question-area""></div> 
                </div>","null","","","","","","","","","","","",""
"","","","","","html-button-response","28","388533","0.0-28.0","F639409A702946128EDE0F85B0B8D02A","019d6b30-9ef9-7265-9f79-27df0cca6036","019d6b28-084c-76dd-a1cb-5ac041bdee9a","","832","
                <div class=""stimulus-container"">
                    <img src=""semantic_sequence_notimeline/clothing_semantic/clothing_semantic_6.png"" class=""exp-image"">
                    <div class=""question-area"">
                        <p style=""font-size: 20px; font-weight: bold; margin: 0;"">Is there a person in this image?</p>
                    </div>
                </div>","1","main_experiment_trial","6","clothing_semantic","semantic_sequence_notimeline","chronological","","","","","","",""
"","","","","","html-keyboard-response","29","393536","0.0-29.0","F639409A702946128EDE0F85B0B8D02A","019d6b30-9ef9-7265-9f79-27df0cca6036","019d6b28-084c-76dd-a1cb-5ac041bdee9a","","null","
                <div class=""stimulus-container"">
                    <img src=""semantic_sequence_notimeline/clothing_semantic/clothing_semantic_7.png"" class=""exp-image"">
                    <div class=""question-area""></div> 
                </div>","null","","","","","","","","","","","",""
"","","","","","html-button-response","30","394266","0.0-30.0","F639409A702946128EDE0F85B0B8D02A","019d6b30-9ef9-7265-9f79-27df0cca6036","019d6b28-084c-76dd-a1cb-5ac041bdee9a","","730","
                <div class=""stimulus-container"">
                    <img src=""semantic_sequence_notimeline/clothing_semantic/clothing_semantic_7.png"" class=""exp-image"">
                    <div class=""question-area"">
                        <p style=""font-size: 20px; font-weight: bold; margin: 0;"">Is there a person in this image?</p>
                    </div>
                </div>","1","main_experiment_trial","7","clothing_semantic","semantic_sequence_notimeline","chronological","","","","","","",""
"","","","","","html-keyboard-response","31","399269","0.0-31.0","F639409A702946128EDE0F85B0B8D02A","019d6b30-9ef9-7265-9f79-27df0cca6036","019d6b28-084c-76dd-a1cb-5ac041bdee9a","","null","
                <div class=""stimulus-container"">
                    <img src=""semantic_sequence_notimeline/clothing_semantic/clothing_semantic_8.png"" class=""exp-image"">
                    <div class=""question-area""></div> 
                </div>","null","","","","","","","","","","","",""
"","","","","","html-button-response","32","400050","0.0-32.0","F639409A702946128EDE0F85B0B8D02A","019d6b30-9ef9-7265-9f79-27df0cca6036","019d6b28-084c-76dd-a1cb-5ac041bdee9a","","781","
                <div class=""stimulus-container"">
                    <img src=""semantic_sequence_notimeline/clothing_semantic/clothing_semantic_8.png"" class=""exp-image"">
                    <div class=""question-area"">
                        <p style=""font-size: 20px; font-weight: bold; margin: 0;"">Is there a person in this image?</p>
                    </div>
                </div>","1","main_experiment_trial","8","clothing_semantic","semantic_sequence_notimeline","chronological","","","","","","",""
"","","","","","html-keyboard-response","33","405053","0.0-33.0","F639409A702946128EDE0F85B0B8D02A","019d6b30-9ef9-7265-9f79-27df0cca6036","019d6b28-084c-76dd-a1cb-5ac041bdee9a","","null","
                <div class=""stimulus-container"">
                    <img src=""semantic_sequence_notimeline/clothing_semantic/clothing_semantic_9.png"" class=""exp-image"">
                    <div class=""question-area""></div> 
                </div>","null","","","","","","","","","","","",""
"","","","","","html-button-response","34","405784","0.0-34.0","F639409A702946128EDE0F85B0B8D02A","019d6b30-9ef9-7265-9f79-27df0cca6036","019d6b28-084c-76dd-a1cb-5ac041bdee9a","","730","
                <div class=""stimulus-container"">
                    <img src=""semantic_sequence_notimeline/clothing_semantic/clothing_semantic_9.png"" class=""exp-image"">
                    <div class=""question-area"">
                        <p style=""font-size: 20px; font-weight: bold; margin: 0;"">Is there a person in this image?</p>
                    </div>
                </div>","1","main_experiment_trial","9","clothing_semantic","semantic_sequence_notimeline","chronological","","","","","","",""
"","","","","","html-keyboard-response","35","410787","0.0-35.0","F639409A702946128EDE0F85B0B8D02A","019d6b30-9ef9-7265-9f79-27df0cca6036","019d6b28-084c-76dd-a1cb-5ac041bdee9a","","null","
                <div class=""stimulus-container"">
                    <img src=""semantic_sequence_notimeline/clothing_semantic/clothing_semantic_ten.png"" class=""exp-image"">
                    <div class=""question-area""></div> 
                </div>","null","","","","","","","","","","","",""
"","","","","","html-button-response","36","411734","0.0-36.0","F639409A702946128EDE0F85B0B8D02A","019d6b30-9ef9-7265-9f79-27df0cca6036","019d6b28-084c-76dd-a1cb-5ac041bdee9a","","947","
                <div class=""stimulus-container"">
                    <img src=""semantic_sequence_notimeline/clothing_semantic/clothing_semantic_ten.png"" class=""exp-image"">
                    <div class=""question-area"">
                        <p style=""font-size: 20px; font-weight: bold; margin: 0;"">Is there a person in this image?</p>
                    </div>
                </div>","1","main_experiment_trial","ten","clothing_semantic","semantic_sequence_notimeline","chronological","","","","","","",""
"","","","","","html-keyboard-response","37","416737","0.0-37.0","F639409A702946128EDE0F85B0B8D02A","019d6b30-9ef9-7265-9f79-27df0cca6036","019d6b28-084c-76dd-a1cb-5ac041bdee9a","","null","<div style=""background-color: white; width: 100vw; height: 100vh;""></div>","null","","","","","","","","","","","",""
"","","","","","html-keyboard-response","38","421739","0.0-38.0","F639409A702946128EDE0F85B0B8D02A","019d6b30-9ef9-7265-9f79-27df0cca6036","019d6b28-084c-76dd-a1cb-5ac041bdee9a","","null","
                <div class=""stimulus-container"">
                    <img src=""images/causal_sequence/saving_a_cat_causal/saving_a_cat_causal_1.png"" class=""exp-image"">
                    <div class=""question-area""></div> 
                </div>","null","","","","","","","","","","","",""
"","","","","","html-button-response","39","422919","0.0-39.0","F639409A702946128EDE0F85B0B8D02A","019d6b30-9ef9-7265-9f79-27df0cca6036","019d6b28-084c-76dd-a1cb-5ac041bdee9a","","1179","
                <div class=""stimulus-container"">
                    <img src=""images/causal_sequence/saving_a_cat_causal/saving_a_cat_causal_1.png"" class=""exp-image"">
                    <div class=""question-area"">
                        <p style=""font-size: 20px; font-weight: bold; margin: 0;"">Is there a person in this image?</p>
                    </div>
                </div>","0","main_experiment_trial","1","saving_a_cat_causal","causal_sequence","chronological","","","","","","",""
"","","","","","html-keyboard-response","40","427921","0.0-40.0","F639409A702946128EDE0F85B0B8D02A","019d6b30-9ef9-7265-9f79-27df0cca6036","019d6b28-084c-76dd-a1cb-5ac041bdee9a","","null","
                <div class=""stimulus-container"">
                    <img src=""images/causal_sequence/saving_a_cat_causal/saving_a_cat_causal_2.png"" class=""exp-image"">
                    <div class=""question-area""></div> 
                </div>","null","","","","","","","","","","","",""
"","","","","","html-button-response","41","429103","0.0-41.0","F639409A702946128EDE0F85B0B8D02A","019d6b30-9ef9-7265-9f79-27df0cca6036","019d6b28-084c-76dd-a1cb-5ac041bdee9a","","1181","
                <div class=""stimulus-container"">
                    <img src=""images/causal_sequence/saving_a_cat_causal/saving_a_cat_causal_2.png"" class=""exp-image"">
                    <div class=""question-area"">
                        <p style=""font-size: 20px; font-weight: bold; margin: 0;"">Is there a person in this image?</p>
                    </div>
                </div>","1","main_experiment_trial","2","saving_a_cat_causal","causal_sequence","chronological","","","","","","",""
"","","","","","html-keyboard-response","42","434106","0.0-42.0","F639409A702946128EDE0F85B0B8D02A","019d6b30-9ef9-7265-9f79-27df0cca6036","019d6b28-084c-76dd-a1cb-5ac041bdee9a","","null","
                <div class=""stimulus-container"">
                    <img src=""images/causal_sequence/saving_a_cat_causal/saving_a_cat_causal_3.png"" class=""exp-image"">
                    <div class=""question-area""></div> 
                </div>","null","","","","","","","","","","","",""
"","","","","","html-button-response","43","434804","0.0-43.0","F639409A702946128EDE0F85B0B8D02A","019d6b30-9ef9-7265-9f79-27df0cca6036","019d6b28-084c-76dd-a1cb-5ac041bdee9a","","697","
                <div class=""stimulus-container"">
                    <img src=""images/causal_sequence/saving_a_cat_causal/saving_a_cat_causal_3.png"" class=""exp-image"">
                    <div class=""question-area"">
                        <p style=""font-size: 20px; font-weight: bold; margin: 0;"">Is there a person in this image?</p>
                    </div>
                </div>","1","main_experiment_trial","3","saving_a_cat_causal","causal_sequence","chronological","","","","","","",""
"","","","","","html-keyboard-response","44","439805","0.0-44.0","F639409A702946128EDE0F85B0B8D02A","019d6b30-9ef9-7265-9f79-27df0cca6036","019d6b28-084c-76dd-a1cb-5ac041bdee9a","","null","
                <div class=""stimulus-container"">
                    <img src=""images/causal_sequence/saving_a_cat_causal/saving_a_cat_causal_4.png"" class=""exp-image"">
                    <div class=""question-area""></div> 
                </div>","null","","","","","","","","","","","",""
"","","","","","html-button-response","45","440805","0.0-45.0","F639409A702946128EDE0F85B0B8D02A","019d6b30-9ef9-7265-9f79-27df0cca6036","019d6b28-084c-76dd-a1cb-5ac041bdee9a","","998","
                <div class=""stimulus-container"">
                    <img src=""images/causal_sequence/saving_a_cat_causal/saving_a_cat_causal_4.png"" class=""exp-image"">
                    <div class=""question-area"">
                        <p style=""font-size: 20px; font-weight: bold; margin: 0;"">Is there a person in this image?</p>
                    </div>
                </div>","0","main_experiment_trial","4","saving_a_cat_causal","causal_sequence","chronological","","","","","","",""
"","","","","","html-keyboard-response","46","445807","0.0-46.0","F639409A702946128EDE0F85B0B8D02A","019d6b30-9ef9-7265-9f79-27df0cca6036","019d6b28-084c-76dd-a1cb-5ac041bdee9a","","null","
                <div class=""stimulus-container"">
                    <img src=""images/causal_sequence/saving_a_cat_causal/saving_a_cat_causal_5.png"" class=""exp-image"">
                    <div class=""question-area""></div> 
                </div>","null","","","","","","","","","","","",""
"","","","","","html-button-response","47","446388","0.0-47.0","F639409A702946128EDE0F85B0B8D02A","019d6b30-9ef9-7265-9f79-27df0cca6036","019d6b28-084c-76dd-a1cb-5ac041bdee9a","","581","
                <div class=""stimulus-container"">
                    <img src=""images/causal_sequence/saving_a_cat_causal/saving_a_cat_causal_5.png"" class=""exp-image"">
                    <div class=""question-area"">
                        <p style=""font-size: 20px; font-weight: bold; margin: 0;"">Is there a person in this image?</p>
                    </div>
                </div>","0","main_experiment_trial","5","saving_a_cat_causal","causal_sequence","chronological","","","","","","",""
"","","","","","html-keyboard-response","48","451391","0.0-48.0","F639409A702946128EDE0F85B0B8D02A","019d6b30-9ef9-7265-9f79-27df0cca6036","019d6b28-084c-76dd-a1cb-5ac041bdee9a","","null","
                <div class=""stimulus-container"">
                    <img src=""images/causal_sequence/saving_a_cat_causal/saving_a_cat_causal_6.png"" class=""exp-image"">
                    <div class=""question-area""></div> 
                </div>","null","","","","","","","","","","","",""
"","","","","","html-button-response","49","452039","0.0-49.0","F639409A702946128EDE0F85B0B8D02A","019d6b30-9ef9-7265-9f79-27df0cca6036","019d6b28-084c-76dd-a1cb-5ac041bdee9a","","646","
                <div class=""stimulus-container"">
                    <img src=""images/causal_sequence/saving_a_cat_causal/saving_a_cat_causal_6.png"" class=""exp-image"">
                    <div class=""question-area"">
                        <p style=""font-size: 20px; font-weight: bold; margin: 0;"">Is there a person in this image?</p>
                    </div>
                </div>","0","main_experiment_trial","6","saving_a_cat_causal","causal_sequence","chronological","","","","","","",""
"","","","","","html-keyboard-response","50","457042","0.0-50.0","F639409A702946128EDE0F85B0B8D02A","019d6b30-9ef9-7265-9f79-27df0cca6036","019d6b28-084c-76dd-a1cb-5ac041bdee9a","","null","
                <div class=""stimulus-container"">
                    <img src=""images/causal_sequence/saving_a_cat_causal/saving_a_cat_causal_7.png"" class=""exp-image"">
                    <div class=""question-area""></div> 
                </div>","null","","","","","","","","","","","",""
"","","","","","html-button-response","51","457706","0.0-51.0","F639409A702946128EDE0F85B0B8D02A","019d6b30-9ef9-7265-9f79-27df0cca6036","019d6b28-084c-76dd-a1cb-5ac041bdee9a","","663","
                <div class=""stimulus-container"">
                    <img src=""images/causal_sequence/saving_a_cat_causal/saving_a_cat_causal_7.png"" class=""exp-image"">
                    <div class=""question-area"">
                        <p style=""font-size: 20px; font-weight: bold; margin: 0;"">Is there a person in this image?</p>
                    </div>
                </div>","0","main_experiment_trial","7","saving_a_cat_causal","causal_sequence","chronological","","","","","","",""
"","","","","","html-keyboard-response","52","462708","0.0-52.0","F639409A702946128EDE0F85B0B8D02A","019d6b30-9ef9-7265-9f79-27df0cca6036","019d6b28-084c-76dd-a1cb-5ac041bdee9a","","null","
                <div class=""stimulus-container"">
                    <img src=""images/causal_sequence/saving_a_cat_causal/saving_a_cat_causal_8.png"" class=""exp-image"">
                    <div class=""question-area""></div> 
                </div>","null","","","","","","","","","","","",""
"","","","","","html-button-response","53","463390","0.0-53.0","F639409A702946128EDE0F85B0B8D02A","019d6b30-9ef9-7265-9f79-27df0cca6036","019d6b28-084c-76dd-a1cb-5ac041bdee9a","","680","
                <div class=""stimulus-container"">
                    <img src=""images/causal_sequence/saving_a_cat_causal/saving_a_cat_causal_8.png"" class=""exp-image"">
                    <div class=""question-area"">
                        <p style=""font-size: 20px; font-weight: bold; margin: 0;"">Is there a person in this image?</p>
                    </div>
                </div>","0","main_experiment_trial","8","saving_a_cat_causal","causal_sequence","chronological","","","","","","",""
"","","","","","html-keyboard-response","54","468392","0.0-54.0","F639409A702946128EDE0F85B0B8D02A","019d6b30-9ef9-7265-9f79-27df0cca6036","019d6b28-084c-76dd-a1cb-5ac041bdee9a","","null","
                <div class=""stimulus-container"">
                    <img src=""images/causal_sequence/saving_a_cat_causal/saving_a_cat_causal_9.png"" class=""exp-image"">
                    <div class=""question-area""></div> 
                </div>","null","","","","","","","","","","","",""
"","","","","","html-button-response","55","469157","0.0-55.0","F639409A702946128EDE0F85B0B8D02A","019d6b30-9ef9-7265-9f79-27df0cca6036","019d6b28-084c-76dd-a1cb-5ac041bdee9a","","764","
                <div class=""stimulus-container"">
                    <img src=""images/causal_sequence/saving_a_cat_causal/saving_a_cat_causal_9.png"" class=""exp-image"">
                    <div class=""question-area"">
                        <p style=""font-size: 20px; font-weight: bold; margin: 0;"">Is there a person in this image?</p>
                    </div>
                </div>","0","main_experiment_trial","9","saving_a_cat_causal","causal_sequence","chronological","","","","","","",""
"","","","","","html-keyboard-response","56","474160","0.0-56.0","F639409A702946128EDE0F85B0B8D02A","019d6b30-9ef9-7265-9f79-27df0cca6036","019d6b28-084c-76dd-a1cb-5ac041bdee9a","","null","
                <div class=""stimulus-container"">
                    <img src=""images/causal_sequence/saving_a_cat_causal/saving_a_cat_causal_ten.png"" class=""exp-image"">
                    <div class=""question-area""></div> 
                </div>","null","","","","","","","","","","","",""
"","","","","","html-button-response","57","474891","0.0-57.0","F639409A702946128EDE0F85B0B8D02A","019d6b30-9ef9-7265-9f79-27df0cca6036","019d6b28-084c-76dd-a1cb-5ac041bdee9a","","730","
                <div class=""stimulus-container"">
                    <img src=""images/causal_sequence/saving_a_cat_causal/saving_a_cat_causal_ten.png"" class=""exp-image"">
                    <div class=""question-area"">
                        <p style=""font-size: 20px; font-weight: bold; margin: 0;"">Is there a person in this image?</p>
                    </div>
                </div>","0","main_experiment_trial","ten","saving_a_cat_causal","causal_sequence","chronological","","","","","","",""
"","","","","","html-keyboard-response","58","479894","0.0-58.0","F639409A702946128EDE0F85B0B8D02A","019d6b30-9ef9-7265-9f79-27df0cca6036","019d6b28-084c-76dd-a1cb-5ac041bdee9a","","null","<div style=""background-color: white; width: 100vw; height: 100vh;""></div>","null","","","","","","","","","","","",""
"","","","","","html-keyboard-response","59","484896","0.0-59.0","F639409A702946128EDE0F85B0B8D02A","019d6b30-9ef9-7265-9f79-27df0cca6036","019d6b28-084c-76dd-a1cb-5ac041bdee9a","","null","
                <div class=""stimulus-container"">
                    <img src=""images/causal_sequence/package_causal/package_causal_1.png"" class=""exp-image"">
                    <div class=""question-area""></div> 
                </div>","null","","","","","","","","","","","",""
"","","","","","html-button-response","60","485792","0.0-60.0","F639409A702946128EDE0F85B0B8D02A","019d6b30-9ef9-7265-9f79-27df0cca6036","019d6b28-084c-76dd-a1cb-5ac041bdee9a","","895","
                <div class=""stimulus-container"">
                    <img src=""images/causal_sequence/package_causal/package_causal_1.png"" class=""exp-image"">
                    <div class=""question-area"">
                        <p style=""font-size: 20px; font-weight: bold; margin: 0;"">Is there a person in this image?</p>
                    </div>
                </div>","0","main_experiment_trial","1","package_causal","causal_sequence","chronological","","","","","","",""
"","","","","","html-keyboard-response","61","490795","0.0-61.0","F639409A702946128EDE0F85B0B8D02A","019d6b30-9ef9-7265-9f79-27df0cca6036","019d6b28-084c-76dd-a1cb-5ac041bdee9a","","null","
                <div class=""stimulus-container"">
                    <img src=""images/causal_sequence/package_causal/package_causal_2.png"" class=""exp-image"">
                    <div class=""question-area""></div> 
                </div>","null","","","","","","","","","","","",""
"","","","","","html-button-response","62","491593","0.0-62.0","F639409A702946128EDE0F85B0B8D02A","019d6b30-9ef9-7265-9f79-27df0cca6036","019d6b28-084c-76dd-a1cb-5ac041bdee9a","","797","
                <div class=""stimulus-container"">
                    <img src=""images/causal_sequence/package_causal/package_causal_2.png"" class=""exp-image"">
                    <div class=""question-area"">
                        <p style=""font-size: 20px; font-weight: bold; margin: 0;"">Is there a person in this image?</p>
                    </div>
                </div>","0","main_experiment_trial","2","package_causal","causal_sequence","chronological","","","","","","",""
"","","","","","html-keyboard-response","63","496596","0.0-63.0","F639409A702946128EDE0F85B0B8D02A","019d6b30-9ef9-7265-9f79-27df0cca6036","019d6b28-084c-76dd-a1cb-5ac041bdee9a","","null","
                <div class=""stimulus-container"">
                    <img src=""images/causal_sequence/package_causal/package_causal_3.png"" class=""exp-image"">
                    <div class=""question-area""></div> 
                </div>","null","","","","","","","","","","","",""
"","","","","","html-button-response","64","497760","0.0-64.0","F639409A702946128EDE0F85B0B8D02A","019d6b30-9ef9-7265-9f79-27df0cca6036","019d6b28-084c-76dd-a1cb-5ac041bdee9a","","1163","
                <div class=""stimulus-container"">
                    <img src=""images/causal_sequence/package_causal/package_causal_3.png"" class=""exp-image"">
                    <div class=""question-area"">
                        <p style=""font-size: 20px; font-weight: bold; margin: 0;"">Is there a person in this image?</p>
                    </div>
                </div>","0","main_experiment_trial","3","package_causal","causal_sequence","chronological","","","","","","",""
"","","","","","html-keyboard-response","65","502763","0.0-65.0","F639409A702946128EDE0F85B0B8D02A","019d6b30-9ef9-7265-9f79-27df0cca6036","019d6b28-084c-76dd-a1cb-5ac041bdee9a","","null","
                <div class=""stimulus-container"">
                    <img src=""images/causal_sequence/package_causal/package_causal_4.png"" class=""exp-image"">
                    <div class=""question-area""></div> 
                </div>","null","","","","","","","","","","","",""
"","","","","","html-button-response","66","504494","0.0-66.0","F639409A702946128EDE0F85B0B8D02A","019d6b30-9ef9-7265-9f79-27df0cca6036","019d6b28-084c-76dd-a1cb-5ac041bdee9a","","1730","
                <div class=""stimulus-container"">
                    <img src=""images/causal_sequence/package_causal/package_causal_4.png"" class=""exp-image"">
                    <div class=""question-area"">
                        <p style=""font-size: 20px; font-weight: bold; margin: 0;"">Is there a person in this image?</p>
                    </div>
                </div>","1","main_experiment_trial","4","package_causal","causal_sequence","chronological","","","","","","",""
"","","","","","html-keyboard-response","67","509497","0.0-67.0","F639409A702946128EDE0F85B0B8D02A","019d6b30-9ef9-7265-9f79-27df0cca6036","019d6b28-084c-76dd-a1cb-5ac041bdee9a","","null","
                <div class=""stimulus-container"">
                    <img src=""images/causal_sequence/package_causal/package_causal_5.png"" class=""exp-image"">
                    <div class=""question-area""></div> 
                </div>","null","","","","","","","","","","","",""
"","","","","","html-button-response","68","510828","0.0-68.0","F639409A702946128EDE0F85B0B8D02A","019d6b30-9ef9-7265-9f79-27df0cca6036","019d6b28-084c-76dd-a1cb-5ac041bdee9a","","1330","
                <div class=""stimulus-container"">
                    <img src=""images/causal_sequence/package_causal/package_causal_5.png"" class=""exp-image"">
                    <div class=""question-area"">
                        <p style=""font-size: 20px; font-weight: bold; margin: 0;"">Is there a person in this image?</p>
                    </div>
                </div>","0","main_experiment_trial","5","package_causal","causal_sequence","chronological","","","","","","",""
"","","","","","html-keyboard-response","69","515830","0.0-69.0","F639409A702946128EDE0F85B0B8D02A","019d6b30-9ef9-7265-9f79-27df0cca6036","019d6b28-084c-76dd-a1cb-5ac041bdee9a","","null","
                <div class=""stimulus-container"">
                    <img src=""images/causal_sequence/package_causal/package_causal_6.png"" class=""exp-image"">
                    <div class=""question-area""></div> 
                </div>","null","","","","","","","","","","","",""
"","","","","","html-button-response","70","516762","0.0-70.0","F639409A702946128EDE0F85B0B8D02A","019d6b30-9ef9-7265-9f79-27df0cca6036","019d6b28-084c-76dd-a1cb-5ac041bdee9a","","931","
                <div class=""stimulus-container"">
                    <img src=""images/causal_sequence/package_causal/package_causal_6.png"" class=""exp-image"">
                    <div class=""question-area"">
                        <p style=""font-size: 20px; font-weight: bold; margin: 0;"">Is there a person in this image?</p>
                    </div>
                </div>","0","main_experiment_trial","6","package_causal","causal_sequence","chronological","","","","","","",""
"","","","","","html-keyboard-response","71","521765","0.0-71.0","F639409A702946128EDE0F85B0B8D02A","019d6b30-9ef9-7265-9f79-27df0cca6036","019d6b28-084c-76dd-a1cb-5ac041bdee9a","","null","
                <div class=""stimulus-container"">
                    <img src=""images/causal_sequence/package_causal/package_causal_7.png"" class=""exp-image"">
                    <div class=""question-area""></div> 
                </div>","null","","","","","","","","","","","",""
"","","","","","html-button-response","72","523113","0.0-72.0","F639409A702946128EDE0F85B0B8D02A","019d6b30-9ef9-7265-9f79-27df0cca6036","019d6b28-084c-76dd-a1cb-5ac041bdee9a","","1347","
                <div class=""stimulus-container"">
                    <img src=""images/causal_sequence/package_causal/package_causal_7.png"" class=""exp-image"">
                    <div class=""question-area"">
                        <p style=""font-size: 20px; font-weight: bold; margin: 0;"">Is there a person in this image?</p>
                    </div>
                </div>","0","main_experiment_trial","7","package_causal","causal_sequence","chronological","","","","","","",""
"","","","","","html-keyboard-response","73","528115","0.0-73.0","F639409A702946128EDE0F85B0B8D02A","019d6b30-9ef9-7265-9f79-27df0cca6036","019d6b28-084c-76dd-a1cb-5ac041bdee9a","","null","
                <div class=""stimulus-container"">
                    <img src=""images/causal_sequence/package_causal/package_causal_8.png"" class=""exp-image"">
                    <div class=""question-area""></div> 
                </div>","null","","","","","","","","","","","",""
"","","","","","html-button-response","74","528946","0.0-74.0","F639409A702946128EDE0F85B0B8D02A","019d6b30-9ef9-7265-9f79-27df0cca6036","019d6b28-084c-76dd-a1cb-5ac041bdee9a","","830","
                <div class=""stimulus-container"">
                    <img src=""images/causal_sequence/package_causal/package_causal_8.png"" class=""exp-image"">
                    <div class=""question-area"">
                        <p style=""font-size: 20px; font-weight: bold; margin: 0;"">Is there a person in this image?</p>
                    </div>
                </div>","0","main_experiment_trial","8","package_causal","causal_sequence","chronological","","","","","","",""
"","","","","","html-keyboard-response","75","533949","0.0-75.0","F639409A702946128EDE0F85B0B8D02A","019d6b30-9ef9-7265-9f79-27df0cca6036","019d6b28-084c-76dd-a1cb-5ac041bdee9a","","null","
                <div class=""stimulus-container"">
                    <img src=""images/causal_sequence/package_causal/package_causal_9.png"" class=""exp-image"">
                    <div class=""question-area""></div> 
                </div>","null","","","","","","","","","","","",""
"","","","","","html-button-response","76","536952","0.0-76.0","F639409A702946128EDE0F85B0B8D02A","019d6b30-9ef9-7265-9f79-27df0cca6036","019d6b28-084c-76dd-a1cb-5ac041bdee9a","","null","
                <div class=""stimulus-container"">
                    <img src=""images/causal_sequence/package_causal/package_causal_9.png"" class=""exp-image"">
                    <div class=""question-area"">
                        <p style=""font-size: 20px; font-weight: bold; margin: 0;"">Is there a person in this image?</p>
                    </div>
                </div>","null","main_experiment_trial","9","package_causal","causal_sequence","chronological","","","","","","",""
"","","","","","html-keyboard-response","77","541955","0.0-77.0","F639409A702946128EDE0F85B0B8D02A","019d6b30-9ef9-7265-9f79-27df0cca6036","019d6b28-084c-76dd-a1cb-5ac041bdee9a","","null","
                <div class=""stimulus-container"">
                    <img src=""images/causal_sequence/package_causal/package_causal_ten.png"" class=""exp-image"">
                    <div class=""question-area""></div> 
                </div>","null","","","","","","","","","","","",""
"","","","","","html-button-response","78","543098","0.0-78.0","F639409A702946128EDE0F85B0B8D02A","019d6b30-9ef9-7265-9f79-27df0cca6036","019d6b28-084c-76dd-a1cb-5ac041bdee9a","","1143","
                <div class=""stimulus-container"">
                    <img src=""images/causal_sequence/package_causal/package_causal_ten.png"" class=""exp-image"">
                    <div class=""question-area"">
                        <p style=""font-size: 20px; font-weight: bold; margin: 0;"">Is there a person in this image?</p>
                    </div>
                </div>","0","main_experiment_trial","ten","package_causal","causal_sequence","chronological","","","","","","",""
"","","","","","html-keyboard-response","79","548100","0.0-79.0","F639409A702946128EDE0F85B0B8D02A","019d6b30-9ef9-7265-9f79-27df0cca6036","019d6b28-084c-76dd-a1cb-5ac041bdee9a","","null","<div style=""background-color: white; width: 100vw; height: 100vh;""></div>","null","","","","","","","","","","","",""
"","","","","","html-keyboard-response","80","553101","0.0-80.0","F639409A702946128EDE0F85B0B8D02A","019d6b30-9ef9-7265-9f79-27df0cca6036","019d6b28-084c-76dd-a1cb-5ac041bdee9a","","null","
                <div class=""stimulus-container"">
                    <img src=""semantic_sequence_notimeline/animals_semantic/animals_semantic_1.png"" class=""exp-image"">
                    <div class=""question-area""></div> 
                </div>","null","","","","","","","","","","","",""
"","","","","","html-button-response","81","554149","0.0-81.0","F639409A702946128EDE0F85B0B8D02A","019d6b30-9ef9-7265-9f79-27df0cca6036","019d6b28-084c-76dd-a1cb-5ac041bdee9a","","1046","
                <div class=""stimulus-container"">
                    <img src=""semantic_sequence_notimeline/animals_semantic/animals_semantic_1.png"" class=""exp-image"">
                    <div class=""question-area"">
                        <p style=""font-size: 20px; font-weight: bold; margin: 0;"">Is there a person in this image?</p>
                    </div>
                </div>","1","main_experiment_trial","1","animals_semantic","semantic_sequence_notimeline","chronological","","","","","","",""
"","","","","","html-keyboard-response","82","559152","0.0-82.0","F639409A702946128EDE0F85B0B8D02A","019d6b30-9ef9-7265-9f79-27df0cca6036","019d6b28-084c-76dd-a1cb-5ac041bdee9a","","null","
                <div class=""stimulus-container"">
                    <img src=""semantic_sequence_notimeline/animals_semantic/animals_semantic_2.png"" class=""exp-image"">
                    <div class=""question-area""></div> 
                </div>","null","","","","","","","","","","","",""
"","","","","","html-button-response","83","560100","0.0-83.0","F639409A702946128EDE0F85B0B8D02A","019d6b30-9ef9-7265-9f79-27df0cca6036","019d6b28-084c-76dd-a1cb-5ac041bdee9a","","947","
                <div class=""stimulus-container"">
                    <img src=""semantic_sequence_notimeline/animals_semantic/animals_semantic_2.png"" class=""exp-image"">
                    <div class=""question-area"">
                        <p style=""font-size: 20px; font-weight: bold; margin: 0;"">Is there a person in this image?</p>
                    </div>
                </div>","1","main_experiment_trial","2","animals_semantic","semantic_sequence_notimeline","chronological","","","","","","",""
"","","","","","html-keyboard-response","84","565102","0.0-84.0","F639409A702946128EDE0F85B0B8D02A","019d6b30-9ef9-7265-9f79-27df0cca6036","019d6b28-084c-76dd-a1cb-5ac041bdee9a","","null","
                <div class=""stimulus-container"">
                    <img src=""semantic_sequence_notimeline/animals_semantic/animals_semantic_3.png"" class=""exp-image"">
                    <div class=""question-area""></div> 
                </div>","null","","","","","","","","","","","",""
"","","","","","html-button-response","85","565767","0.0-85.0","F639409A702946128EDE0F85B0B8D02A","019d6b30-9ef9-7265-9f79-27df0cca6036","019d6b28-084c-76dd-a1cb-5ac041bdee9a","","663","
                <div class=""stimulus-container"">
                    <img src=""semantic_sequence_notimeline/animals_semantic/animals_semantic_3.png"" class=""exp-image"">
                    <div class=""question-area"">
                        <p style=""font-size: 20px; font-weight: bold; margin: 0;"">Is there a person in this image?</p>
                    </div>
                </div>","1","main_experiment_trial","3","animals_semantic","semantic_sequence_notimeline","chronological","","","","","","",""
"","","","","","html-keyboard-response","86","570770","0.0-86.0","F639409A702946128EDE0F85B0B8D02A","019d6b30-9ef9-7265-9f79-27df0cca6036","019d6b28-084c-76dd-a1cb-5ac041bdee9a","","null","
                <div class=""stimulus-container"">
                    <img src=""semantic_sequence_notimeline/animals_semantic/animals_semantic_4.png"" class=""exp-image"">
                    <div class=""question-area""></div> 
                </div>","null","","","","","","","","","","","",""
"","","","","","html-button-response","87","571751","0.0-87.0","F639409A702946128EDE0F85B0B8D02A","019d6b30-9ef9-7265-9f79-27df0cca6036","019d6b28-084c-76dd-a1cb-5ac041bdee9a","","980","
                <div class=""stimulus-container"">
                    <img src=""semantic_sequence_notimeline/animals_semantic/animals_semantic_4.png"" class=""exp-image"">
                    <div class=""question-area"">
                        <p style=""font-size: 20px; font-weight: bold; margin: 0;"">Is there a person in this image?</p>
                    </div>
                </div>","1","main_experiment_trial","4","animals_semantic","semantic_sequence_notimeline","chronological","","","","","","",""
"","","","","","html-keyboard-response","88","576753","0.0-88.0","F639409A702946128EDE0F85B0B8D02A","019d6b30-9ef9-7265-9f79-27df0cca6036","019d6b28-084c-76dd-a1cb-5ac041bdee9a","","null","
                <div class=""stimulus-container"">
                    <img src=""semantic_sequence_notimeline/animals_semantic/animals_semantic_5.png"" class=""exp-image"">
                    <div class=""question-area""></div> 
                </div>","null","","","","","","","","","","","",""
"","","","","","html-button-response","89","577602","0.0-89.0","F639409A702946128EDE0F85B0B8D02A","019d6b30-9ef9-7265-9f79-27df0cca6036","019d6b28-084c-76dd-a1cb-5ac041bdee9a","","847","
                <div class=""stimulus-container"">
                    <img src=""semantic_sequence_notimeline/animals_semantic/animals_semantic_5.png"" class=""exp-image"">
                    <div class=""question-area"">
                        <p style=""font-size: 20px; font-weight: bold; margin: 0;"">Is there a person in this image?</p>
                    </div>
                </div>","1","main_experiment_trial","5","animals_semantic","semantic_sequence_notimeline","chronological","","","","","","",""
"","","","","","html-keyboard-response","90","582605","0.0-90.0","F639409A702946128EDE0F85B0B8D02A","019d6b30-9ef9-7265-9f79-27df0cca6036","019d6b28-084c-76dd-a1cb-5ac041bdee9a","","null","
                <div class=""stimulus-container"">
                    <img src=""semantic_sequence_notimeline/animals_semantic/animals_semantic_6.png"" class=""exp-image"">
                    <div class=""question-area""></div> 
                </div>","null","","","","","","","","","","","",""
"","","","","","html-button-response","91","583302","0.0-91.0","F639409A702946128EDE0F85B0B8D02A","019d6b30-9ef9-7265-9f79-27df0cca6036","019d6b28-084c-76dd-a1cb-5ac041bdee9a","","696","
                <div class=""stimulus-container"">
                    <img src=""semantic_sequence_notimeline/animals_semantic/animals_semantic_6.png"" class=""exp-image"">
                    <div class=""question-area"">
                        <p style=""font-size: 20px; font-weight: bold; margin: 0;"">Is there a person in this image?</p>
                    </div>
                </div>","1","main_experiment_trial","6","animals_semantic","semantic_sequence_notimeline","chronological","","","","","","",""
"","","","","","html-keyboard-response","92","588304","0.0-92.0","F639409A702946128EDE0F85B0B8D02A","019d6b30-9ef9-7265-9f79-27df0cca6036","019d6b28-084c-76dd-a1cb-5ac041bdee9a","","null","
                <div class=""stimulus-container"">
                    <img src=""semantic_sequence_notimeline/animals_semantic/animals_semantic_7.png"" class=""exp-image"">
                    <div class=""question-area""></div> 
                </div>","null","","","","","","","","","","","",""
"","","","","","html-button-response","93","589003","0.0-93.0","F639409A702946128EDE0F85B0B8D02A","019d6b30-9ef9-7265-9f79-27df0cca6036","019d6b28-084c-76dd-a1cb-5ac041bdee9a","","698","
                <div class=""stimulus-container"">
                    <img src=""semantic_sequence_notimeline/animals_semantic/animals_semantic_7.png"" class=""exp-image"">
                    <div class=""question-area"">
                        <p style=""font-size: 20px; font-weight: bold; margin: 0;"">Is there a person in this image?</p>
                    </div>
                </div>","1","main_experiment_trial","7","animals_semantic","semantic_sequence_notimeline","chronological","","","","","","",""
"","","","","","html-keyboard-response","94","594006","0.0-94.0","F639409A702946128EDE0F85B0B8D02A","019d6b30-9ef9-7265-9f79-27df0cca6036","019d6b28-084c-76dd-a1cb-5ac041bdee9a","","null","
                <div class=""stimulus-container"">
                    <img src=""semantic_sequence_notimeline/animals_semantic/animals_semantic_8.png"" class=""exp-image"">
                    <div class=""question-area""></div> 
                </div>","null","","","","","","","","","","","",""
"","","","","","html-button-response","95","594653","0.0-95.0","F639409A702946128EDE0F85B0B8D02A","019d6b30-9ef9-7265-9f79-27df0cca6036","019d6b28-084c-76dd-a1cb-5ac041bdee9a","","646","
                <div class=""stimulus-container"">
                    <img src=""semantic_sequence_notimeline/animals_semantic/animals_semantic_8.png"" class=""exp-image"">
                    <div class=""question-area"">
                        <p style=""font-size: 20px; font-weight: bold; margin: 0;"">Is there a person in this image?</p>
                    </div>
                </div>","1","main_experiment_trial","8","animals_semantic","semantic_sequence_notimeline","chronological","","","","","","",""
"","","","","","html-keyboard-response","96","599656","0.0-96.0","F639409A702946128EDE0F85B0B8D02A","019d6b30-9ef9-7265-9f79-27df0cca6036","019d6b28-084c-76dd-a1cb-5ac041bdee9a","","null","
                <div class=""stimulus-container"">
                    <img src=""semantic_sequence_notimeline/animals_semantic/animals_semantic_9.png"" class=""exp-image"">
                    <div class=""question-area""></div> 
                </div>","null","","","","","","","","","","","",""
"","","","","","html-button-response","97","600270","0.0-97.0","F639409A702946128EDE0F85B0B8D02A","019d6b30-9ef9-7265-9f79-27df0cca6036","019d6b28-084c-76dd-a1cb-5ac041bdee9a","","613","
                <div class=""stimulus-container"">
                    <img src=""semantic_sequence_notimeline/animals_semantic/animals_semantic_9.png"" class=""exp-image"">
                    <div class=""question-area"">
                        <p style=""font-size: 20px; font-weight: bold; margin: 0;"">Is there a person in this image?</p>
                    </div>
                </div>","1","main_experiment_trial","9","animals_semantic","semantic_sequence_notimeline","chronological","","","","","","",""
"","","","","","html-keyboard-response","98","605273","0.0-98.0","F639409A702946128EDE0F85B0B8D02A","019d6b30-9ef9-7265-9f79-27df0cca6036","019d6b28-084c-76dd-a1cb-5ac041bdee9a","","null","
                <div class=""stimulus-container"">
                    <img src=""semantic_sequence_notimeline/animals_semantic/animals_semantic_ten.png"" class=""exp-image"">
                    <div class=""question-area""></div> 
                </div>","null","","","","","","","","","","","",""
"","","","","","html-button-response","99","605904","0.0-99.0","F639409A702946128EDE0F85B0B8D02A","019d6b30-9ef9-7265-9f79-27df0cca6036","019d6b28-084c-76dd-a1cb-5ac041bdee9a","","630","
                <div class=""stimulus-container"">
                    <img src=""semantic_sequence_notimeline/animals_semantic/animals_semantic_ten.png"" class=""exp-image"">
                    <div class=""question-area"">
                        <p style=""font-size: 20px; font-weight: bold; margin: 0;"">Is there a person in this image?</p>
                    </div>
                </div>","1","main_experiment_trial","ten","animals_semantic","semantic_sequence_notimeline","chronological","","","","","","",""
"","","","","","html-keyboard-response","100","610906","0.0-100.0","F639409A702946128EDE0F85B0B8D02A","019d6b30-9ef9-7265-9f79-27df0cca6036","019d6b28-084c-76dd-a1cb-5ac041bdee9a","","null","<div style=""background-color: white; width: 100vw; height: 100vh;""></div>","null","","","","","","","","","","","",""
"","","","","","html-keyboard-response","101","615909","0.0-101.0","F639409A702946128EDE0F85B0B8D02A","019d6b30-9ef9-7265-9f79-27df0cca6036","019d6b28-084c-76dd-a1cb-5ac041bdee9a","","null","
                <div class=""stimulus-container"">
                    <img src=""semantic_sequence_notimeline/transportation_semantic/transportation_semantic_1.png"" class=""exp-image"">
                    <div class=""question-area""></div> 
                </div>","null","","","","","","","","","","","",""
"","","","","","html-button-response","102","616622","0.0-102.0","F639409A702946128EDE0F85B0B8D02A","019d6b30-9ef9-7265-9f79-27df0cca6036","019d6b28-084c-76dd-a1cb-5ac041bdee9a","","712","
                <div class=""stimulus-container"">
                    <img src=""semantic_sequence_notimeline/transportation_semantic/transportation_semantic_1.png"" class=""exp-image"">
                    <div class=""question-area"">
                        <p style=""font-size: 20px; font-weight: bold; margin: 0;"">Is there a person in this image?</p>
                    </div>
                </div>","1","main_experiment_trial","1","transportation_semantic","semantic_sequence_notimeline","chronological","","","","","","",""
"","","","","","html-keyboard-response","103","621624","0.0-103.0","F639409A702946128EDE0F85B0B8D02A","019d6b30-9ef9-7265-9f79-27df0cca6036","019d6b28-084c-76dd-a1cb-5ac041bdee9a","","null","
                <div class=""stimulus-container"">
                    <img src=""semantic_sequence_notimeline/transportation_semantic/transportation_semantic_2.png"" class=""exp-image"">
                    <div class=""question-area""></div> 
                </div>","null","","","","","","","","","","","",""
"","","","","","html-button-response","104","623189","0.0-104.0","F639409A702946128EDE0F85B0B8D02A","019d6b30-9ef9-7265-9f79-27df0cca6036","019d6b28-084c-76dd-a1cb-5ac041bdee9a","","1564","
                <div class=""stimulus-container"">
                    <img src=""semantic_sequence_notimeline/transportation_semantic/transportation_semantic_2.png"" class=""exp-image"">
                    <div class=""question-area"">
                        <p style=""font-size: 20px; font-weight: bold; margin: 0;"">Is there a person in this image?</p>
                    </div>
                </div>","1","main_experiment_trial","2","transportation_semantic","semantic_sequence_notimeline","chronological","","","","","","",""
"","","","","","html-keyboard-response","105","628191","0.0-105.0","F639409A702946128EDE0F85B0B8D02A","019d6b30-9ef9-7265-9f79-27df0cca6036","019d6b28-084c-76dd-a1cb-5ac041bdee9a","","null","
                <div class=""stimulus-container"">
                    <img src=""semantic_sequence_notimeline/transportation_semantic/transportation_semantic_3.png"" class=""exp-image"">
                    <div class=""question-area""></div> 
                </div>","null","","","","","","","","","","","",""
"","","","","","html-button-response","106","629557","0.0-106.0","F639409A702946128EDE0F85B0B8D02A","019d6b30-9ef9-7265-9f79-27df0cca6036","019d6b28-084c-76dd-a1cb-5ac041bdee9a","","1365","
                <div class=""stimulus-container"">
                    <img src=""semantic_sequence_notimeline/transportation_semantic/transportation_semantic_3.png"" class=""exp-image"">
                    <div class=""question-area"">
                        <p style=""font-size: 20px; font-weight: bold; margin: 0;"">Is there a person in this image?</p>
                    </div>
                </div>","1","main_experiment_trial","3","transportation_semantic","semantic_sequence_notimeline","chronological","","","","","","",""
"","","","","","html-keyboard-response","107","634560","0.0-107.0","F639409A702946128EDE0F85B0B8D02A","019d6b30-9ef9-7265-9f79-27df0cca6036","019d6b28-084c-76dd-a1cb-5ac041bdee9a","","null","
                <div class=""stimulus-container"">
                    <img src=""semantic_sequence_notimeline/transportation_semantic/transportation_semantic_4.png"" class=""exp-image"">
                    <div class=""question-area""></div> 
                </div>","null","","","","","","","","","","","",""
"","","","","","html-button-response","108","635658","0.0-108.0","F639409A702946128EDE0F85B0B8D02A","019d6b30-9ef9-7265-9f79-27df0cca6036","019d6b28-084c-76dd-a1cb-5ac041bdee9a","","1097","
                <div class=""stimulus-container"">
                    <img src=""semantic_sequence_notimeline/transportation_semantic/transportation_semantic_4.png"" class=""exp-image"">
                    <div class=""question-area"">
                        <p style=""font-size: 20px; font-weight: bold; margin: 0;"">Is there a person in this image?</p>
                    </div>
                </div>","1","main_experiment_trial","4","transportation_semantic","semantic_sequence_notimeline","chronological","","","","","","",""
"","","","","","html-keyboard-response","109","640661","0.0-109.0","F639409A702946128EDE0F85B0B8D02A","019d6b30-9ef9-7265-9f79-27df0cca6036","019d6b28-084c-76dd-a1cb-5ac041bdee9a","","null","
                <div class=""stimulus-container"">
                    <img src=""semantic_sequence_notimeline/transportation_semantic/transportation_semantic_5.png"" class=""exp-image"">
                    <div class=""question-area""></div> 
                </div>","null","","","","","","","","","","","",""
"","","","","","html-button-response","110","641691","0.0-110.0","F639409A702946128EDE0F85B0B8D02A","019d6b30-9ef9-7265-9f79-27df0cca6036","019d6b28-084c-76dd-a1cb-5ac041bdee9a","","1029","
                <div class=""stimulus-container"">
                    <img src=""semantic_sequence_notimeline/transportation_semantic/transportation_semantic_5.png"" class=""exp-image"">
                    <div class=""question-area"">
                        <p style=""font-size: 20px; font-weight: bold; margin: 0;"">Is there a person in this image?</p>
                    </div>
                </div>","1","main_experiment_trial","5","transportation_semantic","semantic_sequence_notimeline","chronological","","","","","","",""
"","","","","","html-keyboard-response","111","646694","0.0-111.0","F639409A702946128EDE0F85B0B8D02A","019d6b30-9ef9-7265-9f79-27df0cca6036","019d6b28-084c-76dd-a1cb-5ac041bdee9a","","null","
                <div class=""stimulus-container"">
                    <img src=""semantic_sequence_notimeline/transportation_semantic/transportation_semantic_6.png"" class=""exp-image"">
                    <div class=""question-area""></div> 
                </div>","null","","","","","","","","","","","",""
"","","","","","html-button-response","112","647760","0.0-112.0","F639409A702946128EDE0F85B0B8D02A","019d6b30-9ef9-7265-9f79-27df0cca6036","019d6b28-084c-76dd-a1cb-5ac041bdee9a","","1065","
                <div class=""stimulus-container"">
                    <img src=""semantic_sequence_notimeline/transportation_semantic/transportation_semantic_6.png"" class=""exp-image"">
                    <div class=""question-area"">
                        <p style=""font-size: 20px; font-weight: bold; margin: 0;"">Is there a person in this image?</p>
                    </div>
                </div>","1","main_experiment_trial","6","transportation_semantic","semantic_sequence_notimeline","chronological","","","","","","",""
"","","","","","html-keyboard-response","113","652761","0.0-113.0","F639409A702946128EDE0F85B0B8D02A","019d6b30-9ef9-7265-9f79-27df0cca6036","019d6b28-084c-76dd-a1cb-5ac041bdee9a","","null","
                <div class=""stimulus-container"">
                    <img src=""semantic_sequence_notimeline/transportation_semantic/transportation_semantic_7.png"" class=""exp-image"">
                    <div class=""question-area""></div> 
                </div>","null","","","","","","","","","","","",""
"","","","","","html-button-response","114","654226","0.0-114.0","F639409A702946128EDE0F85B0B8D02A","019d6b30-9ef9-7265-9f79-27df0cca6036","019d6b28-084c-76dd-a1cb-5ac041bdee9a","","1464","
                <div class=""stimulus-container"">
                    <img src=""semantic_sequence_notimeline/transportation_semantic/transportation_semantic_7.png"" class=""exp-image"">
                    <div class=""question-area"">
                        <p style=""font-size: 20px; font-weight: bold; margin: 0;"">Is there a person in this image?</p>
                    </div>
                </div>","1","main_experiment_trial","7","transportation_semantic","semantic_sequence_notimeline","chronological","","","","","","",""
"","","","","","html-keyboard-response","115","659229","0.0-115.0","F639409A702946128EDE0F85B0B8D02A","019d6b30-9ef9-7265-9f79-27df0cca6036","019d6b28-084c-76dd-a1cb-5ac041bdee9a","","null","
                <div class=""stimulus-container"">
                    <img src=""semantic_sequence_notimeline/transportation_semantic/transportation_semantic_8.png"" class=""exp-image"">
                    <div class=""question-area""></div> 
                </div>","null","","","","","","","","","","","",""
"","","","","","html-button-response","116","659993","0.0-116.0","F639409A702946128EDE0F85B0B8D02A","019d6b30-9ef9-7265-9f79-27df0cca6036","019d6b28-084c-76dd-a1cb-5ac041bdee9a","","763","
                <div class=""stimulus-container"">
                    <img src=""semantic_sequence_notimeline/transportation_semantic/transportation_semantic_8.png"" class=""exp-image"">
                    <div class=""question-area"">
                        <p style=""font-size: 20px; font-weight: bold; margin: 0;"">Is there a person in this image?</p>
                    </div>
                </div>","1","main_experiment_trial","8","transportation_semantic","semantic_sequence_notimeline","chronological","","","","","","",""
"","","","","","html-keyboard-response","117","664995","0.0-117.0","F639409A702946128EDE0F85B0B8D02A","019d6b30-9ef9-7265-9f79-27df0cca6036","019d6b28-084c-76dd-a1cb-5ac041bdee9a","","null","
                <div class=""stimulus-container"">
                    <img src=""semantic_sequence_notimeline/transportation_semantic/transportation_semantic_9.png"" class=""exp-image"">
                    <div class=""question-area""></div> 
                </div>","null","","","","","","","","","","","",""
"","","","","","html-button-response","118","665793","0.0-118.0","F639409A702946128EDE0F85B0B8D02A","019d6b30-9ef9-7265-9f79-27df0cca6036","019d6b28-084c-76dd-a1cb-5ac041bdee9a","","797","
                <div class=""stimulus-container"">
                    <img src=""semantic_sequence_notimeline/transportation_semantic/transportation_semantic_9.png"" class=""exp-image"">
                    <div class=""question-area"">
                        <p style=""font-size: 20px; font-weight: bold; margin: 0;"">Is there a person in this image?</p>
                    </div>
                </div>","1","main_experiment_trial","9","transportation_semantic","semantic_sequence_notimeline","chronological","","","","","","",""
"","","","","","html-keyboard-response","119","670795","0.0-119.0","F639409A702946128EDE0F85B0B8D02A","019d6b30-9ef9-7265-9f79-27df0cca6036","019d6b28-084c-76dd-a1cb-5ac041bdee9a","","null","
                <div class=""stimulus-container"">
                    <img src=""semantic_sequence_notimeline/transportation_semantic/transportation_semantic_ten.png"" class=""exp-image"">
                    <div class=""question-area""></div> 
                </div>","null","","","","","","","","","","","",""
"","","","","","html-button-response","120","672294","0.0-120.0","F639409A702946128EDE0F85B0B8D02A","019d6b30-9ef9-7265-9f79-27df0cca6036","019d6b28-084c-76dd-a1cb-5ac041bdee9a","","1498","
                <div class=""stimulus-container"">
                    <img src=""semantic_sequence_notimeline/transportation_semantic/transportation_semantic_ten.png"" class=""exp-image"">
                    <div class=""question-area"">
                        <p style=""font-size: 20px; font-weight: bold; margin: 0;"">Is there a person in this image?</p>
                    </div>
                </div>","1","main_experiment_trial","ten","transportation_semantic","semantic_sequence_notimeline","chronological","","","","","","",""
"","","","","","html-keyboard-response","121","677297","0.0-121.0","F639409A702946128EDE0F85B0B8D02A","019d6b30-9ef9-7265-9f79-27df0cca6036","019d6b28-084c-76dd-a1cb-5ac041bdee9a","","null","<div style=""background-color: white; width: 100vw; height: 100vh;""></div>","null","","","","","","","","","","","",""
"","","","","","html-keyboard-response","122","682299","0.0-122.0","F639409A702946128EDE0F85B0B8D02A","019d6b30-9ef9-7265-9f79-27df0cca6036","019d6b28-084c-76dd-a1cb-5ac041bdee9a","","null","
                <div class=""stimulus-container"">
                    <img src=""semantic_sequence_notimeline/fruits_semantic/fruits_semantic_1.png"" class=""exp-image"">
                    <div class=""question-area""></div> 
                </div>","null","","","","","","","","","","","",""
"","","","","","html-button-response","123","683728","0.0-123.0","F639409A702946128EDE0F85B0B8D02A","019d6b30-9ef9-7265-9f79-27df0cca6036","019d6b28-084c-76dd-a1cb-5ac041bdee9a","","1428","
                <div class=""stimulus-container"">
                    <img src=""semantic_sequence_notimeline/fruits_semantic/fruits_semantic_1.png"" class=""exp-image"">
                    <div class=""question-area"">
                        <p style=""font-size: 20px; font-weight: bold; margin: 0;"">Is there a person in this image?</p>
                    </div>
                </div>","1","main_experiment_trial","1","fruits_semantic","semantic_sequence_notimeline","chronological","","","","","","",""
"","","","","","html-keyboard-response","124","688731","0.0-124.0","F639409A702946128EDE0F85B0B8D02A","019d6b30-9ef9-7265-9f79-27df0cca6036","019d6b28-084c-76dd-a1cb-5ac041bdee9a","","null","
                <div class=""stimulus-container"">
                    <img src=""semantic_sequence_notimeline/fruits_semantic/fruits_semantic_2.png"" class=""exp-image"">
                    <div class=""question-area""></div> 
                </div>","null","","","","","","","","","","","",""
"","","","","","html-button-response","125","689779","0.0-125.0","F639409A702946128EDE0F85B0B8D02A","019d6b30-9ef9-7265-9f79-27df0cca6036","019d6b28-084c-76dd-a1cb-5ac041bdee9a","","1047","
                <div class=""stimulus-container"">
                    <img src=""semantic_sequence_notimeline/fruits_semantic/fruits_semantic_2.png"" class=""exp-image"">
                    <div class=""question-area"">
                        <p style=""font-size: 20px; font-weight: bold; margin: 0;"">Is there a person in this image?</p>
                    </div>
                </div>","1","main_experiment_trial","2","fruits_semantic","semantic_sequence_notimeline","chronological","","","","","","",""
"","","","","","html-keyboard-response","126","694782","0.0-126.0","F639409A702946128EDE0F85B0B8D02A","019d6b30-9ef9-7265-9f79-27df0cca6036","019d6b28-084c-76dd-a1cb-5ac041bdee9a","","null","
                <div class=""stimulus-container"">
                    <img src=""semantic_sequence_notimeline/fruits_semantic/fruits_semantic_3.png"" class=""exp-image"">
                    <div class=""question-area""></div> 
                </div>","null","","","","","","","","","","","",""
"","","","","","html-button-response","127","696230","0.0-127.0","F639409A702946128EDE0F85B0B8D02A","019d6b30-9ef9-7265-9f79-27df0cca6036","019d6b28-084c-76dd-a1cb-5ac041bdee9a","","1446","
                <div class=""stimulus-container"">
                    <img src=""semantic_sequence_notimeline/fruits_semantic/fruits_semantic_3.png"" class=""exp-image"">
                    <div class=""question-area"">
                        <p style=""font-size: 20px; font-weight: bold; margin: 0;"">Is there a person in this image?</p>
                    </div>
                </div>","1","main_experiment_trial","3","fruits_semantic","semantic_sequence_notimeline","chronological","","","","","","",""
"","","","","","html-keyboard-response","128","701232","0.0-128.0","F639409A702946128EDE0F85B0B8D02A","019d6b30-9ef9-7265-9f79-27df0cca6036","019d6b28-084c-76dd-a1cb-5ac041bdee9a","","null","
                <div class=""stimulus-container"">
                    <img src=""semantic_sequence_notimeline/fruits_semantic/fruits_semantic_4.png"" class=""exp-image"">
                    <div class=""question-area""></div> 
                </div>","null","","","","","","","","","","","",""
"","","","","","html-button-response","129","701897","0.0-129.0","F639409A702946128EDE0F85B0B8D02A","019d6b30-9ef9-7265-9f79-27df0cca6036","019d6b28-084c-76dd-a1cb-5ac041bdee9a","","664","
                <div class=""stimulus-container"">
                    <img src=""semantic_sequence_notimeline/fruits_semantic/fruits_semantic_4.png"" class=""exp-image"">
                    <div class=""question-area"">
                        <p style=""font-size: 20px; font-weight: bold; margin: 0;"">Is there a person in this image?</p>
                    </div>
                </div>","1","main_experiment_trial","4","fruits_semantic","semantic_sequence_notimeline","chronological","","","","","","",""
"","","","","","html-keyboard-response","130","706899","0.0-130.0","F639409A702946128EDE0F85B0B8D02A","019d6b30-9ef9-7265-9f79-27df0cca6036","019d6b28-084c-76dd-a1cb-5ac041bdee9a","","null","
                <div class=""stimulus-container"">
                    <img src=""semantic_sequence_notimeline/fruits_semantic/fruits_semantic_5.png"" class=""exp-image"">
                    <div class=""question-area""></div> 
                </div>","null","","","","","","","","","","","",""
"","","","","","html-button-response","131","708981","0.0-131.0","F639409A702946128EDE0F85B0B8D02A","019d6b30-9ef9-7265-9f79-27df0cca6036","019d6b28-084c-76dd-a1cb-5ac041bdee9a","","2081","
                <div class=""stimulus-container"">
                    <img src=""semantic_sequence_notimeline/fruits_semantic/fruits_semantic_5.png"" class=""exp-image"">
                    <div class=""question-area"">
                        <p style=""font-size: 20px; font-weight: bold; margin: 0;"">Is there a person in this image?</p>
                    </div>
                </div>","1","main_experiment_trial","5","fruits_semantic","semantic_sequence_notimeline","chronological","","","","","","",""
"","","","","","html-keyboard-response","132","713983","0.0-132.0","F639409A702946128EDE0F85B0B8D02A","019d6b30-9ef9-7265-9f79-27df0cca6036","019d6b28-084c-76dd-a1cb-5ac041bdee9a","","null","
                <div class=""stimulus-container"">
                    <img src=""semantic_sequence_notimeline/fruits_semantic/fruits_semantic_6.png"" class=""exp-image"">
                    <div class=""question-area""></div> 
                </div>","null","","","","","","","","","","","",""
"","","","","","html-button-response","133","714681","0.0-133.0","F639409A702946128EDE0F85B0B8D02A","019d6b30-9ef9-7265-9f79-27df0cca6036","019d6b28-084c-76dd-a1cb-5ac041bdee9a","","697","
                <div class=""stimulus-container"">
                    <img src=""semantic_sequence_notimeline/fruits_semantic/fruits_semantic_6.png"" class=""exp-image"">
                    <div class=""question-area"">
                        <p style=""font-size: 20px; font-weight: bold; margin: 0;"">Is there a person in this image?</p>
                    </div>
                </div>","1","main_experiment_trial","6","fruits_semantic","semantic_sequence_notimeline","chronological","","","","","","",""
"","","","","","html-keyboard-response","134","719684","0.0-134.0","F639409A702946128EDE0F85B0B8D02A","019d6b30-9ef9-7265-9f79-27df0cca6036","019d6b28-084c-76dd-a1cb-5ac041bdee9a","","null","
                <div class=""stimulus-container"">
                    <img src=""semantic_sequence_notimeline/fruits_semantic/fruits_semantic_7.png"" class=""exp-image"">
                    <div class=""question-area""></div> 
                </div>","null","","","","","","","","","","","",""
"","","","","","html-button-response","135","720282","0.0-135.0","F639409A702946128EDE0F85B0B8D02A","019d6b30-9ef9-7265-9f79-27df0cca6036","019d6b28-084c-76dd-a1cb-5ac041bdee9a","","597","
                <div class=""stimulus-container"">
                    <img src=""semantic_sequence_notimeline/fruits_semantic/fruits_semantic_7.png"" class=""exp-image"">
                    <div class=""question-area"">
                        <p style=""font-size: 20px; font-weight: bold; margin: 0;"">Is there a person in this image?</p>
                    </div>
                </div>","1","main_experiment_trial","7","fruits_semantic","semantic_sequence_notimeline","chronological","","","","","","",""
"","","","","","html-keyboard-response","136","725285","0.0-136.0","F639409A702946128EDE0F85B0B8D02A","019d6b30-9ef9-7265-9f79-27df0cca6036","019d6b28-084c-76dd-a1cb-5ac041bdee9a","","null","
                <div class=""stimulus-container"">
                    <img src=""semantic_sequence_notimeline/fruits_semantic/fruits_semantic_8.png"" class=""exp-image"">
                    <div class=""question-area""></div> 
                </div>","null","","","","","","","","","","","",""
"","","","","","html-button-response","137","726282","0.0-137.0","F639409A702946128EDE0F85B0B8D02A","019d6b30-9ef9-7265-9f79-27df0cca6036","019d6b28-084c-76dd-a1cb-5ac041bdee9a","","997","
                <div class=""stimulus-container"">
                    <img src=""semantic_sequence_notimeline/fruits_semantic/fruits_semantic_8.png"" class=""exp-image"">
                    <div class=""question-area"">
                        <p style=""font-size: 20px; font-weight: bold; margin: 0;"">Is there a person in this image?</p>
                    </div>
                </div>","1","main_experiment_trial","8","fruits_semantic","semantic_sequence_notimeline","chronological","","","","","","",""
"","","","","","html-keyboard-response","138","731285","0.0-138.0","F639409A702946128EDE0F85B0B8D02A","019d6b30-9ef9-7265-9f79-27df0cca6036","019d6b28-084c-76dd-a1cb-5ac041bdee9a","","null","
                <div class=""stimulus-container"">
                    <img src=""semantic_sequence_notimeline/fruits_semantic/fruits_semantic_9.png"" class=""exp-image"">
                    <div class=""question-area""></div> 
                </div>","null","","","","","","","","","","","",""
"","","","","","html-button-response","139","732333","0.0-139.0","F639409A702946128EDE0F85B0B8D02A","019d6b30-9ef9-7265-9f79-27df0cca6036","019d6b28-084c-76dd-a1cb-5ac041bdee9a","","1047","
                <div class=""stimulus-container"">
                    <img src=""semantic_sequence_notimeline/fruits_semantic/fruits_semantic_9.png"" class=""exp-image"">
                    <div class=""question-area"">
                        <p style=""font-size: 20px; font-weight: bold; margin: 0;"">Is there a person in this image?</p>
                    </div>
                </div>","1","main_experiment_trial","9","fruits_semantic","semantic_sequence_notimeline","chronological","","","","","","",""
"","","","","","html-keyboard-response","140","737335","0.0-140.0","F639409A702946128EDE0F85B0B8D02A","019d6b30-9ef9-7265-9f79-27df0cca6036","019d6b28-084c-76dd-a1cb-5ac041bdee9a","","null","
                <div class=""stimulus-container"">
                    <img src=""semantic_sequence_notimeline/fruits_semantic/fruits_semantic_ten.png"" class=""exp-image"">
                    <div class=""question-area""></div> 
                </div>","null","","","","","","","","","","","",""
"","","","","","html-button-response","141","738217","0.0-141.0","F639409A702946128EDE0F85B0B8D02A","019d6b30-9ef9-7265-9f79-27df0cca6036","019d6b28-084c-76dd-a1cb-5ac041bdee9a","","881","
                <div class=""stimulus-container"">
                    <img src=""semantic_sequence_notimeline/fruits_semantic/fruits_semantic_ten.png"" class=""exp-image"">
                    <div class=""question-area"">
                        <p style=""font-size: 20px; font-weight: bold; margin: 0;"">Is there a person in this image?</p>
                    </div>
                </div>","1","main_experiment_trial","ten","fruits_semantic","semantic_sequence_notimeline","chronological","","","","","","",""
"","","","","","html-keyboard-response","142","743219","0.0-142.0","F639409A702946128EDE0F85B0B8D02A","019d6b30-9ef9-7265-9f79-27df0cca6036","019d6b28-084c-76dd-a1cb-5ac041bdee9a","","null","<div style=""background-color: white; width: 100vw; height: 100vh;""></div>","null","","","","","","","","","","","",""
"","","","","","html-keyboard-response","143","748222","0.0-143.0","F639409A702946128EDE0F85B0B8D02A","019d6b30-9ef9-7265-9f79-27df0cca6036","019d6b28-084c-76dd-a1cb-5ac041bdee9a","","null","
                <div class=""stimulus-container"">
                    <img src=""images/causal_sequence/dog_causal/dog_causal_1.png"" class=""exp-image"">
                    <div class=""question-area""></div> 
                </div>","null","","","","","","","","","","","",""
"","","","","","html-button-response","144","749801","0.0-144.0","F639409A702946128EDE0F85B0B8D02A","019d6b30-9ef9-7265-9f79-27df0cca6036","019d6b28-084c-76dd-a1cb-5ac041bdee9a","","1578","
                <div class=""stimulus-container"">
                    <img src=""images/causal_sequence/dog_causal/dog_causal_1.png"" class=""exp-image"">
                    <div class=""question-area"">
                        <p style=""font-size: 20px; font-weight: bold; margin: 0;"">Is there a person in this image?</p>
                    </div>
                </div>","0","main_experiment_trial","1","dog_causal","causal_sequence","chronological","","","","","","",""
"","","","","","html-keyboard-response","145","754805","0.0-145.0","F639409A702946128EDE0F85B0B8D02A","019d6b30-9ef9-7265-9f79-27df0cca6036","019d6b28-084c-76dd-a1cb-5ac041bdee9a","","null","
                <div class=""stimulus-container"">
                    <img src=""images/causal_sequence/dog_causal/dog_causal_2.png"" class=""exp-image"">
                    <div class=""question-area""></div> 
                </div>","null","","","","","","","","","","","",""
"","","","","","html-button-response","146","755819","0.0-146.0","F639409A702946128EDE0F85B0B8D02A","019d6b30-9ef9-7265-9f79-27df0cca6036","019d6b28-084c-76dd-a1cb-5ac041bdee9a","","1013","
                <div class=""stimulus-container"">
                    <img src=""images/causal_sequence/dog_causal/dog_causal_2.png"" class=""exp-image"">
                    <div class=""question-area"">
                        <p style=""font-size: 20px; font-weight: bold; margin: 0;"">Is there a person in this image?</p>
                    </div>
                </div>","0","main_experiment_trial","2","dog_causal","causal_sequence","chronological","","","","","","",""
"","","","","","html-keyboard-response","147","760821","0.0-147.0","F639409A702946128EDE0F85B0B8D02A","019d6b30-9ef9-7265-9f79-27df0cca6036","019d6b28-084c-76dd-a1cb-5ac041bdee9a","","null","
                <div class=""stimulus-container"">
                    <img src=""images/causal_sequence/dog_causal/dog_causal_3.png"" class=""exp-image"">
                    <div class=""question-area""></div> 
                </div>","null","","","","","","","","","","","",""
"","","","","","html-button-response","148","762636","0.0-148.0","F639409A702946128EDE0F85B0B8D02A","019d6b30-9ef9-7265-9f79-27df0cca6036","019d6b28-084c-76dd-a1cb-5ac041bdee9a","","1815","
                <div class=""stimulus-container"">
                    <img src=""images/causal_sequence/dog_causal/dog_causal_3.png"" class=""exp-image"">
                    <div class=""question-area"">
                        <p style=""font-size: 20px; font-weight: bold; margin: 0;"">Is there a person in this image?</p>
                    </div>
                </div>","0","main_experiment_trial","3","dog_causal","causal_sequence","chronological","","","","","","",""
"","","","","","html-keyboard-response","149","767639","0.0-149.0","F639409A702946128EDE0F85B0B8D02A","019d6b30-9ef9-7265-9f79-27df0cca6036","019d6b28-084c-76dd-a1cb-5ac041bdee9a","","null","
                <div class=""stimulus-container"">
                    <img src=""images/causal_sequence/dog_causal/dog_causal_4.png"" class=""exp-image"">
                    <div class=""question-area""></div> 
                </div>","null","","","","","","","","","","","",""
"","","","","","html-button-response","150","768370","0.0-150.0","F639409A702946128EDE0F85B0B8D02A","019d6b30-9ef9-7265-9f79-27df0cca6036","019d6b28-084c-76dd-a1cb-5ac041bdee9a","","730","
                <div class=""stimulus-container"">
                    <img src=""images/causal_sequence/dog_causal/dog_causal_4.png"" class=""exp-image"">
                    <div class=""question-area"">
                        <p style=""font-size: 20px; font-weight: bold; margin: 0;"">Is there a person in this image?</p>
                    </div>
                </div>","0","main_experiment_trial","4","dog_causal","causal_sequence","chronological","","","","","","",""
"","","","","","html-keyboard-response","151","773372","0.0-151.0","F639409A702946128EDE0F85B0B8D02A","019d6b30-9ef9-7265-9f79-27df0cca6036","019d6b28-084c-76dd-a1cb-5ac041bdee9a","","null","
                <div class=""stimulus-container"">
                    <img src=""images/causal_sequence/dog_causal/dog_causal_5.png"" class=""exp-image"">
                    <div class=""question-area""></div> 
                </div>","null","","","","","","","","","","","",""
"","","","","","html-button-response","152","774354","0.0-152.0","F639409A702946128EDE0F85B0B8D02A","019d6b30-9ef9-7265-9f79-27df0cca6036","019d6b28-084c-76dd-a1cb-5ac041bdee9a","","981","
                <div class=""stimulus-container"">
                    <img src=""images/causal_sequence/dog_causal/dog_causal_5.png"" class=""exp-image"">
                    <div class=""question-area"">
                        <p style=""font-size: 20px; font-weight: bold; margin: 0;"">Is there a person in this image?</p>
                    </div>
                </div>","0","main_experiment_trial","5","dog_causal","causal_sequence","chronological","","","","","","",""
"","","","","","html-keyboard-response","153","779356","0.0-153.0","F639409A702946128EDE0F85B0B8D02A","019d6b30-9ef9-7265-9f79-27df0cca6036","019d6b28-084c-76dd-a1cb-5ac041bdee9a","","null","
                <div class=""stimulus-container"">
                    <img src=""images/causal_sequence/dog_causal/dog_causal_6.png"" class=""exp-image"">
                    <div class=""question-area""></div> 
                </div>","null","","","","","","","","","","","",""
"","","","","","html-button-response","154","780321","0.0-154.0","F639409A702946128EDE0F85B0B8D02A","019d6b30-9ef9-7265-9f79-27df0cca6036","019d6b28-084c-76dd-a1cb-5ac041bdee9a","","964","
                <div class=""stimulus-container"">
                    <img src=""images/causal_sequence/dog_causal/dog_causal_6.png"" class=""exp-image"">
                    <div class=""question-area"">
                        <p style=""font-size: 20px; font-weight: bold; margin: 0;"">Is there a person in this image?</p>
                    </div>
                </div>","0","main_experiment_trial","6","dog_causal","causal_sequence","chronological","","","","","","",""
"","","","","","html-keyboard-response","155","785324","0.0-155.0","F639409A702946128EDE0F85B0B8D02A","019d6b30-9ef9-7265-9f79-27df0cca6036","019d6b28-084c-76dd-a1cb-5ac041bdee9a","","null","
                <div class=""stimulus-container"">
                    <img src=""images/causal_sequence/dog_causal/dog_causal_7.png"" class=""exp-image"">
                    <div class=""question-area""></div> 
                </div>","null","","","","","","","","","","","",""
"","","","","","html-button-response","156","786105","0.0-156.0","F639409A702946128EDE0F85B0B8D02A","019d6b30-9ef9-7265-9f79-27df0cca6036","019d6b28-084c-76dd-a1cb-5ac041bdee9a","","781","
                <div class=""stimulus-container"">
                    <img src=""images/causal_sequence/dog_causal/dog_causal_7.png"" class=""exp-image"">
                    <div class=""question-area"">
                        <p style=""font-size: 20px; font-weight: bold; margin: 0;"">Is there a person in this image?</p>
                    </div>
                </div>","0","main_experiment_trial","7","dog_causal","causal_sequence","chronological","","","","","","",""
"","","","","","html-keyboard-response","157","791108","0.0-157.0","F639409A702946128EDE0F85B0B8D02A","019d6b30-9ef9-7265-9f79-27df0cca6036","019d6b28-084c-76dd-a1cb-5ac041bdee9a","","null","
                <div class=""stimulus-container"">
                    <img src=""images/causal_sequence/dog_causal/dog_causal_8.png"" class=""exp-image"">
                    <div class=""question-area""></div> 
                </div>","null","","","","","","","","","","","",""
"","","","","","html-button-response","158","791872","0.0-158.0","F639409A702946128EDE0F85B0B8D02A","019d6b30-9ef9-7265-9f79-27df0cca6036","019d6b28-084c-76dd-a1cb-5ac041bdee9a","","763","
                <div class=""stimulus-container"">
                    <img src=""images/causal_sequence/dog_causal/dog_causal_8.png"" class=""exp-image"">
                    <div class=""question-area"">
                        <p style=""font-size: 20px; font-weight: bold; margin: 0;"">Is there a person in this image?</p>
                    </div>
                </div>","0","main_experiment_trial","8","dog_causal","causal_sequence","chronological","","","","","","",""
"","","","","","html-keyboard-response","159","796874","0.0-159.0","F639409A702946128EDE0F85B0B8D02A","019d6b30-9ef9-7265-9f79-27df0cca6036","019d6b28-084c-76dd-a1cb-5ac041bdee9a","","null","
                <div class=""stimulus-container"">
                    <img src=""images/causal_sequence/dog_causal/dog_causal_9.png"" class=""exp-image"">
                    <div class=""question-area""></div> 
                </div>","null","","","","","","","","","","","",""
"","","","","","html-button-response","160","797623","0.0-160.0","F639409A702946128EDE0F85B0B8D02A","019d6b30-9ef9-7265-9f79-27df0cca6036","019d6b28-084c-76dd-a1cb-5ac041bdee9a","","748","
                <div class=""stimulus-container"">
                    <img src=""images/causal_sequence/dog_causal/dog_causal_9.png"" class=""exp-image"">
                    <div class=""question-area"">
                        <p style=""font-size: 20px; font-weight: bold; margin: 0;"">Is there a person in this image?</p>
                    </div>
                </div>","0","main_experiment_trial","9","dog_causal","causal_sequence","chronological","","","","","","",""
"","","","","","html-keyboard-response","161","802626","0.0-161.0","F639409A702946128EDE0F85B0B8D02A","019d6b30-9ef9-7265-9f79-27df0cca6036","019d6b28-084c-76dd-a1cb-5ac041bdee9a","","null","
                <div class=""stimulus-container"">
                    <img src=""images/causal_sequence/dog_causal/dog_causal_ten.png"" class=""exp-image"">
                    <div class=""question-area""></div> 
                </div>","null","","","","","","","","","","","",""
"","","","","","html-button-response","162","803724","0.0-162.0","F639409A702946128EDE0F85B0B8D02A","019d6b30-9ef9-7265-9f79-27df0cca6036","019d6b28-084c-76dd-a1cb-5ac041bdee9a","","1097","
                <div class=""stimulus-container"">
                    <img src=""images/causal_sequence/dog_causal/dog_causal_ten.png"" class=""exp-image"">
                    <div class=""question-area"">
                        <p style=""font-size: 20px; font-weight: bold; margin: 0;"">Is there a person in this image?</p>
                    </div>
                </div>","0","main_experiment_trial","ten","dog_causal","causal_sequence","chronological","","","","","","",""
"","","","","","html-keyboard-response","163","808725","0.0-163.0","F639409A702946128EDE0F85B0B8D02A","019d6b30-9ef9-7265-9f79-27df0cca6036","019d6b28-084c-76dd-a1cb-5ac041bdee9a","","null","<div style=""background-color: white; width: 100vw; height: 100vh;""></div>","null","","","","","","","","","","","",""
"","","","","","html-keyboard-response","164","813727","0.0-164.0","F639409A702946128EDE0F85B0B8D02A","019d6b30-9ef9-7265-9f79-27df0cca6036","019d6b28-084c-76dd-a1cb-5ac041bdee9a","","null","
                <div class=""stimulus-container"">
                    <img src=""semantic_sequence_notimeline/household_objects_semantic/household_objects_semantic_1.png"" class=""exp-image"">
                    <div class=""question-area""></div> 
                </div>","null","","","","","","","","","","","",""
"","","","","","html-button-response","165","815542","0.0-165.0","F639409A702946128EDE0F85B0B8D02A","019d6b30-9ef9-7265-9f79-27df0cca6036","019d6b28-084c-76dd-a1cb-5ac041bdee9a","","1814","
                <div class=""stimulus-container"">
                    <img src=""semantic_sequence_notimeline/household_objects_semantic/household_objects_semantic_1.png"" class=""exp-image"">
                    <div class=""question-area"">
                        <p style=""font-size: 20px; font-weight: bold; margin: 0;"">Is there a person in this image?</p>
                    </div>
                </div>","1","main_experiment_trial","1","household_objects_semantic","semantic_sequence_notimeline","chronological","","","","","","",""
"","","","","","html-keyboard-response","166","820544","0.0-166.0","F639409A702946128EDE0F85B0B8D02A","019d6b30-9ef9-7265-9f79-27df0cca6036","019d6b28-084c-76dd-a1cb-5ac041bdee9a","","null","
                <div class=""stimulus-container"">
                    <img src=""semantic_sequence_notimeline/household_objects_semantic/household_objects_semantic_2.png"" class=""exp-image"">
                    <div class=""question-area""></div> 
                </div>","null","","","","","","","","","","","",""
"","","","","","html-button-response","167","821542","0.0-167.0","F639409A702946128EDE0F85B0B8D02A","019d6b30-9ef9-7265-9f79-27df0cca6036","019d6b28-084c-76dd-a1cb-5ac041bdee9a","","997","
                <div class=""stimulus-container"">
                    <img src=""semantic_sequence_notimeline/household_objects_semantic/household_objects_semantic_2.png"" class=""exp-image"">
                    <div class=""question-area"">
                        <p style=""font-size: 20px; font-weight: bold; margin: 0;"">Is there a person in this image?</p>
                    </div>
                </div>","1","main_experiment_trial","2","household_objects_semantic","semantic_sequence_notimeline","chronological","","","","","","",""
"","","","","","html-keyboard-response","168","826596","0.0-168.0","F639409A702946128EDE0F85B0B8D02A","019d6b30-9ef9-7265-9f79-27df0cca6036","019d6b28-084c-76dd-a1cb-5ac041bdee9a","","null","
                <div class=""stimulus-container"">
                    <img src=""semantic_sequence_notimeline/household_objects_semantic/household_objects_semantic_3.png"" class=""exp-image"">
                    <div class=""question-area""></div> 
                </div>","null","","","","","","","","","","","",""
"","","","","","html-button-response","169","827828","0.0-169.0","F639409A702946128EDE0F85B0B8D02A","019d6b30-9ef9-7265-9f79-27df0cca6036","019d6b28-084c-76dd-a1cb-5ac041bdee9a","","1231","
                <div class=""stimulus-container"">
                    <img src=""semantic_sequence_notimeline/household_objects_semantic/household_objects_semantic_3.png"" class=""exp-image"">
                    <div class=""question-area"">
                        <p style=""font-size: 20px; font-weight: bold; margin: 0;"">Is there a person in this image?</p>
                    </div>
                </div>","1","main_experiment_trial","3","household_objects_semantic","semantic_sequence_notimeline","chronological","","","","","","",""
"","","","","","html-keyboard-response","170","832829","0.0-170.0","F639409A702946128EDE0F85B0B8D02A","019d6b30-9ef9-7265-9f79-27df0cca6036","019d6b28-084c-76dd-a1cb-5ac041bdee9a","","null","
                <div class=""stimulus-container"">
                    <img src=""semantic_sequence_notimeline/household_objects_semantic/household_objects_semantic_4.png"" class=""exp-image"">
                    <div class=""question-area""></div> 
                </div>","null","","","","","","","","","","","",""
"","","","","","html-button-response","171","834145","0.0-171.0","F639409A702946128EDE0F85B0B8D02A","019d6b30-9ef9-7265-9f79-27df0cca6036","019d6b28-084c-76dd-a1cb-5ac041bdee9a","","1315","
                <div class=""stimulus-container"">
                    <img src=""semantic_sequence_notimeline/household_objects_semantic/household_objects_semantic_4.png"" class=""exp-image"">
                    <div class=""question-area"">
                        <p style=""font-size: 20px; font-weight: bold; margin: 0;"">Is there a person in this image?</p>
                    </div>
                </div>","1","main_experiment_trial","4","household_objects_semantic","semantic_sequence_notimeline","chronological","","","","","","",""
"","","","","","html-keyboard-response","172","839147","0.0-172.0","F639409A702946128EDE0F85B0B8D02A","019d6b30-9ef9-7265-9f79-27df0cca6036","019d6b28-084c-76dd-a1cb-5ac041bdee9a","","null","
                <div class=""stimulus-container"">
                    <img src=""semantic_sequence_notimeline/household_objects_semantic/household_objects_semantic_5.png"" class=""exp-image"">
                    <div class=""question-area""></div> 
                </div>","null","","","","","","","","","","","",""
"","","","","","html-button-response","173","840229","0.0-173.0","F639409A702946128EDE0F85B0B8D02A","019d6b30-9ef9-7265-9f79-27df0cca6036","019d6b28-084c-76dd-a1cb-5ac041bdee9a","","1080","
                <div class=""stimulus-container"">
                    <img src=""semantic_sequence_notimeline/household_objects_semantic/household_objects_semantic_5.png"" class=""exp-image"">
                    <div class=""question-area"">
                        <p style=""font-size: 20px; font-weight: bold; margin: 0;"">Is there a person in this image?</p>
                    </div>
                </div>","1","main_experiment_trial","5","household_objects_semantic","semantic_sequence_notimeline","chronological","","","","","","",""
"","","","","","html-keyboard-response","174","845232","0.0-174.0","F639409A702946128EDE0F85B0B8D02A","019d6b30-9ef9-7265-9f79-27df0cca6036","019d6b28-084c-76dd-a1cb-5ac041bdee9a","","null","
                <div class=""stimulus-container"">
                    <img src=""semantic_sequence_notimeline/household_objects_semantic/household_objects_semantic_6.png"" class=""exp-image"">
                    <div class=""question-area""></div> 
                </div>","null","","","","","","","","","","","",""
"","","","","","html-button-response","175","846530","0.0-175.0","F639409A702946128EDE0F85B0B8D02A","019d6b30-9ef9-7265-9f79-27df0cca6036","019d6b28-084c-76dd-a1cb-5ac041bdee9a","","1297","
                <div class=""stimulus-container"">
                    <img src=""semantic_sequence_notimeline/household_objects_semantic/household_objects_semantic_6.png"" class=""exp-image"">
                    <div class=""question-area"">
                        <p style=""font-size: 20px; font-weight: bold; margin: 0;"">Is there a person in this image?</p>
                    </div>
                </div>","1","main_experiment_trial","6","household_objects_semantic","semantic_sequence_notimeline","chronological","","","","","","",""
"","","","","","html-keyboard-response","176","851532","0.0-176.0","F639409A702946128EDE0F85B0B8D02A","019d6b30-9ef9-7265-9f79-27df0cca6036","019d6b28-084c-76dd-a1cb-5ac041bdee9a","","null","
                <div class=""stimulus-container"">
                    <img src=""semantic_sequence_notimeline/household_objects_semantic/household_objects_semantic_7.png"" class=""exp-image"">
                    <div class=""question-area""></div> 
                </div>","null","","","","","","","","","","","",""
