"success","timeout","failed_images","failed_audio","failed_video","trial_type","trial_index","time_elapsed","internal_node_id","subject_id","study_id","session_id","view_history","rt","stimulus","response","task","image_index","folder","sequence_type","presentation_order","valuable_image_index","reward_type","correct_choice","chosen_image_index","target_X"
"true","false","[]","[]","[]","preload","0","69513","0.0-0.0","ECAEFE5A63CA472C8E6CABBEFAC0539D","019cf9c7-6565-7286-bae8-ec275b18291e","019cf99d-e445-78ae-88d0-91fe39b758eb","","","","","","","","","","","","","",""
"","","","","","instructions","1","134817","0.0-1.0","ECAEFE5A63CA472C8E6CABBEFAC0539D","019cf9c7-6565-7286-bae8-ec275b18291e","019cf99d-e445-78ae-88d0-91fe39b758eb","[{""page_index"":0,""viewing_time"":65303}]","65304","","","","","","","","","","","",""
"","","","","","instructions","2","391091","0.0-2.0","ECAEFE5A63CA472C8E6CABBEFAC0539D","019cf9c7-6565-7286-bae8-ec275b18291e","019cf99d-e445-78ae-88d0-91fe39b758eb","[{""page_index"":0,""viewing_time"":256273}]","256274","","","","","","","","","","","",""
"true","","","","","fullscreen","3","398753","0.0-3.0","ECAEFE5A63CA472C8E6CABBEFAC0539D","019cf9c7-6565-7286-bae8-ec275b18291e","019cf99d-e445-78ae-88d0-91fe39b758eb","","6647","","","","","","","","","","","",""
"","","","","","instructions","4","408056","0.0-4.0","ECAEFE5A63CA472C8E6CABBEFAC0539D","019cf9c7-6565-7286-bae8-ec275b18291e","019cf99d-e445-78ae-88d0-91fe39b758eb","[{""page_index"":0,""viewing_time"":9302}]","9302","","","","","","","","","","","",""
"","","","","","instructions","5","415541","0.0-5.0","ECAEFE5A63CA472C8E6CABBEFAC0539D","019cf9c7-6565-7286-bae8-ec275b18291e","019cf99d-e445-78ae-88d0-91fe39b758eb","[{""page_index"":0,""viewing_time"":7484}]","7485","","","","","","","","","","","",""
"","","","","","html-keyboard-response","6","419543","0.0-6.0","ECAEFE5A63CA472C8E6CABBEFAC0539D","019cf9c7-6565-7286-bae8-ec275b18291e","019cf99d-e445-78ae-88d0-91fe39b758eb","","null","
                <div class=""stimulus-container"">
                    <img src=""images/instructions/movie_1.png"" class=""exp-image"">
                    <div class=""question-area""></div> 
                </div>","null","","","","","","","","","",""
"","","","","","html-button-response","7","421650","0.0-7.0","ECAEFE5A63CA472C8E6CABBEFAC0539D","019cf9c7-6565-7286-bae8-ec275b18291e","019cf99d-e445-78ae-88d0-91fe39b758eb","","2106","
                <div class=""stimulus-container"">
                    <img src=""images/instructions/movie_1.png"" class=""exp-image"">
                    <div class=""question-area"">
                        <p style=""font-size: 20px; font-weight: bold; margin: 0;"">Was there a person in this image?</p>
                    </div>
                </div>","0","example_question","1","","","","","","","",""
"","","","","","html-keyboard-response","8","425656","0.0-8.0","ECAEFE5A63CA472C8E6CABBEFAC0539D","019cf9c7-6565-7286-bae8-ec275b18291e","019cf99d-e445-78ae-88d0-91fe39b758eb","","null","
                <div class=""stimulus-container"">
                    <img src=""images/instructions/movie_2.png"" class=""exp-image"">
                    <div class=""question-area""></div> 
                </div>","null","","","","","","","","","",""
"","","","","","html-button-response","9","427028","0.0-9.0","ECAEFE5A63CA472C8E6CABBEFAC0539D","019cf9c7-6565-7286-bae8-ec275b18291e","019cf99d-e445-78ae-88d0-91fe39b758eb","","1370","
                <div class=""stimulus-container"">
                    <img src=""images/instructions/movie_2.png"" class=""exp-image"">
                    <div class=""question-area"">
                        <p style=""font-size: 20px; font-weight: bold; margin: 0;"">Was there a person in this image?</p>
                    </div>
                </div>","0","example_question","2","","","","","","","",""
"","","","","","html-keyboard-response","10","431039","0.0-10.0","ECAEFE5A63CA472C8E6CABBEFAC0539D","019cf9c7-6565-7286-bae8-ec275b18291e","019cf99d-e445-78ae-88d0-91fe39b758eb","","null","
                <div class=""stimulus-container"">
                    <img src=""images/instructions/movie_3.png"" class=""exp-image"">
                    <div class=""question-area""></div> 
                </div>","null","","","","","","","","","",""
"","","","","","html-button-response","11","432265","0.0-11.0","ECAEFE5A63CA472C8E6CABBEFAC0539D","019cf9c7-6565-7286-bae8-ec275b18291e","019cf99d-e445-78ae-88d0-91fe39b758eb","","1224","
                <div class=""stimulus-container"">
                    <img src=""images/instructions/movie_3.png"" class=""exp-image"">
                    <div class=""question-area"">
                        <p style=""font-size: 20px; font-weight: bold; margin: 0;"">Was there a person in this image?</p>
                    </div>
                </div>","0","example_question","3","","","","","","","",""
"","","","","","html-keyboard-response","12","436276","0.0-12.0","ECAEFE5A63CA472C8E6CABBEFAC0539D","019cf9c7-6565-7286-bae8-ec275b18291e","019cf99d-e445-78ae-88d0-91fe39b758eb","","null","
                <div class=""stimulus-container"">
                    <img src=""images/instructions/movie_4.png"" class=""exp-image"">
                    <div class=""question-area""></div> 
                </div>","null","","","","","","","","","",""
"","","","","","html-button-response","13","437577","0.0-13.0","ECAEFE5A63CA472C8E6CABBEFAC0539D","019cf9c7-6565-7286-bae8-ec275b18291e","019cf99d-e445-78ae-88d0-91fe39b758eb","","1299","
                <div class=""stimulus-container"">
                    <img src=""images/instructions/movie_4.png"" class=""exp-image"">
                    <div class=""question-area"">
                        <p style=""font-size: 20px; font-weight: bold; margin: 0;"">Was there a person in this image?</p>
                    </div>
                </div>","0","example_question","4","","","","","","","",""
"","","","","","instructions","14","439427","0.0-14.0","ECAEFE5A63CA472C8E6CABBEFAC0539D","019cf9c7-6565-7286-bae8-ec275b18291e","019cf99d-e445-78ae-88d0-91fe39b758eb","[{""page_index"":0,""viewing_time"":1849}]","1849","","","","","","","","","","","",""
"","","","","","instructions","15","449080","0.0-15.0","ECAEFE5A63CA472C8E6CABBEFAC0539D","019cf9c7-6565-7286-bae8-ec275b18291e","019cf99d-e445-78ae-88d0-91fe39b758eb","[{""page_index"":0,""viewing_time"":9653}]","9653","","","","","","","","","","","",""
"","","","","","html-keyboard-response","16","454093","0.0-16.0","ECAEFE5A63CA472C8E6CABBEFAC0539D","019cf9c7-6565-7286-bae8-ec275b18291e","019cf99d-e445-78ae-88d0-91fe39b758eb","","null","<div style=""background-color: white; width: 100vw; height: 100vh;""></div>","null","","","","","","","","","",""
"","","","","","html-keyboard-response","17","455098","0.0-17.0","ECAEFE5A63CA472C8E6CABBEFAC0539D","019cf9c7-6565-7286-bae8-ec275b18291e","019cf99d-e445-78ae-88d0-91fe39b758eb","","null","
                <div class=""stimulus-container"">
                    <img src=""images/semantic_sequence/maintaining_a_car_semantic/maintaining_a_car_semantic_5.png"" class=""exp-image"">
                    <div class=""question-area""></div> 
                </div>","null","","","","","","","","","",""
"","","","","","html-button-response","18","456262","0.0-18.0","ECAEFE5A63CA472C8E6CABBEFAC0539D","019cf9c7-6565-7286-bae8-ec275b18291e","019cf99d-e445-78ae-88d0-91fe39b758eb","","1163","
                <div class=""stimulus-container"">
                    <img src=""images/semantic_sequence/maintaining_a_car_semantic/maintaining_a_car_semantic_5.png"" class=""exp-image"">
                    <div class=""question-area"">
                        <p style=""font-size: 20px; font-weight: bold; margin: 0;"">Is there a person in this image?</p>
                    </div>
                </div>","0","main_experiment_trial","5","maintaining_a_car_semantic","semantic_sequence","randomized","","","","",""
"","","","","","html-keyboard-response","19","457267","0.0-19.0","ECAEFE5A63CA472C8E6CABBEFAC0539D","019cf9c7-6565-7286-bae8-ec275b18291e","019cf99d-e445-78ae-88d0-91fe39b758eb","","null","
                <div class=""stimulus-container"">
                    <img src=""images/semantic_sequence/maintaining_a_car_semantic/maintaining_a_car_semantic_7.png"" class=""exp-image"">
                    <div class=""question-area""></div> 
                </div>","null","","","","","","","","","",""
"","","","","","html-button-response","20","458118","0.0-20.0","ECAEFE5A63CA472C8E6CABBEFAC0539D","019cf9c7-6565-7286-bae8-ec275b18291e","019cf99d-e445-78ae-88d0-91fe39b758eb","","849","
                <div class=""stimulus-container"">
                    <img src=""images/semantic_sequence/maintaining_a_car_semantic/maintaining_a_car_semantic_7.png"" class=""exp-image"">
                    <div class=""question-area"">
                        <p style=""font-size: 20px; font-weight: bold; margin: 0;"">Is there a person in this image?</p>
                    </div>
                </div>","0","main_experiment_trial","7","maintaining_a_car_semantic","semantic_sequence","randomized","","","","",""
"","","","","","html-keyboard-response","21","459127","0.0-21.0","ECAEFE5A63CA472C8E6CABBEFAC0539D","019cf9c7-6565-7286-bae8-ec275b18291e","019cf99d-e445-78ae-88d0-91fe39b758eb","","null","
                <div class=""stimulus-container"">
                    <img src=""images/semantic_sequence/maintaining_a_car_semantic/maintaining_a_car_semantic_6.png"" class=""exp-image"">
                    <div class=""question-area""></div> 
                </div>","null","","","","","","","","","",""
"","","","","","html-button-response","22","459834","0.0-22.0","ECAEFE5A63CA472C8E6CABBEFAC0539D","019cf9c7-6565-7286-bae8-ec275b18291e","019cf99d-e445-78ae-88d0-91fe39b758eb","","706","
                <div class=""stimulus-container"">
                    <img src=""images/semantic_sequence/maintaining_a_car_semantic/maintaining_a_car_semantic_6.png"" class=""exp-image"">
                    <div class=""question-area"">
                        <p style=""font-size: 20px; font-weight: bold; margin: 0;"">Is there a person in this image?</p>
                    </div>
                </div>","0","main_experiment_trial","6","maintaining_a_car_semantic","semantic_sequence","randomized","","","","",""
"","","","","","html-keyboard-response","23","460847","0.0-23.0","ECAEFE5A63CA472C8E6CABBEFAC0539D","019cf9c7-6565-7286-bae8-ec275b18291e","019cf99d-e445-78ae-88d0-91fe39b758eb","","null","
                <div class=""stimulus-container"">
                    <img src=""images/semantic_sequence/maintaining_a_car_semantic/maintaining_a_car_semantic_ten.png"" class=""exp-image"">
                    <div class=""question-area""></div> 
                </div>","null","","","","","","","","","",""
"","","","","","html-button-response","24","461832","0.0-24.0","ECAEFE5A63CA472C8E6CABBEFAC0539D","019cf9c7-6565-7286-bae8-ec275b18291e","019cf99d-e445-78ae-88d0-91fe39b758eb","","985","
                <div class=""stimulus-container"">
                    <img src=""images/semantic_sequence/maintaining_a_car_semantic/maintaining_a_car_semantic_ten.png"" class=""exp-image"">
                    <div class=""question-area"">
                        <p style=""font-size: 20px; font-weight: bold; margin: 0;"">Is there a person in this image?</p>
                    </div>
                </div>","0","main_experiment_trial","ten","maintaining_a_car_semantic","semantic_sequence","randomized","","","","",""
"","","","","","html-keyboard-response","25","462847","0.0-25.0","ECAEFE5A63CA472C8E6CABBEFAC0539D","019cf9c7-6565-7286-bae8-ec275b18291e","019cf99d-e445-78ae-88d0-91fe39b758eb","","null","
                <div class=""stimulus-container"">
                    <img src=""images/semantic_sequence/maintaining_a_car_semantic/maintaining_a_car_semantic_9.png"" class=""exp-image"">
                    <div class=""question-area""></div> 
                </div>","null","","","","","","","","","",""
"","","","","","html-button-response","26","463598","0.0-26.0","ECAEFE5A63CA472C8E6CABBEFAC0539D","019cf9c7-6565-7286-bae8-ec275b18291e","019cf99d-e445-78ae-88d0-91fe39b758eb","","750","
                <div class=""stimulus-container"">
                    <img src=""images/semantic_sequence/maintaining_a_car_semantic/maintaining_a_car_semantic_9.png"" class=""exp-image"">
                    <div class=""question-area"">
                        <p style=""font-size: 20px; font-weight: bold; margin: 0;"">Is there a person in this image?</p>
                    </div>
                </div>","0","main_experiment_trial","9","maintaining_a_car_semantic","semantic_sequence","randomized","","","","",""
"","","","","","html-keyboard-response","27","464608","0.0-27.0","ECAEFE5A63CA472C8E6CABBEFAC0539D","019cf9c7-6565-7286-bae8-ec275b18291e","019cf99d-e445-78ae-88d0-91fe39b758eb","","null","
                <div class=""stimulus-container"">
                    <img src=""images/semantic_sequence/maintaining_a_car_semantic/maintaining_a_car_semantic_3.png"" class=""exp-image"">
                    <div class=""question-area""></div> 
                </div>","null","","","","","","","","","",""
"","","","","","html-button-response","28","465398","0.0-28.0","ECAEFE5A63CA472C8E6CABBEFAC0539D","019cf9c7-6565-7286-bae8-ec275b18291e","019cf99d-e445-78ae-88d0-91fe39b758eb","","789","
                <div class=""stimulus-container"">
                    <img src=""images/semantic_sequence/maintaining_a_car_semantic/maintaining_a_car_semantic_3.png"" class=""exp-image"">
                    <div class=""question-area"">
                        <p style=""font-size: 20px; font-weight: bold; margin: 0;"">Is there a person in this image?</p>
                    </div>
                </div>","0","main_experiment_trial","3","maintaining_a_car_semantic","semantic_sequence","randomized","","","","",""
"","","","","","html-keyboard-response","29","466401","0.0-29.0","ECAEFE5A63CA472C8E6CABBEFAC0539D","019cf9c7-6565-7286-bae8-ec275b18291e","019cf99d-e445-78ae-88d0-91fe39b758eb","","null","
                <div class=""stimulus-container"">
                    <img src=""images/semantic_sequence/maintaining_a_car_semantic/maintaining_a_car_semantic_2.png"" class=""exp-image"">
                    <div class=""question-area""></div> 
                </div>","null","","","","","","","","","",""
"","","","","","html-button-response","30","467114","0.0-30.0","ECAEFE5A63CA472C8E6CABBEFAC0539D","019cf9c7-6565-7286-bae8-ec275b18291e","019cf99d-e445-78ae-88d0-91fe39b758eb","","712","
                <div class=""stimulus-container"">
                    <img src=""images/semantic_sequence/maintaining_a_car_semantic/maintaining_a_car_semantic_2.png"" class=""exp-image"">
                    <div class=""question-area"">
                        <p style=""font-size: 20px; font-weight: bold; margin: 0;"">Is there a person in this image?</p>
                    </div>
                </div>","0","main_experiment_trial","2","maintaining_a_car_semantic","semantic_sequence","randomized","","","","",""
"","","","","","html-keyboard-response","31","468120","0.0-31.0","ECAEFE5A63CA472C8E6CABBEFAC0539D","019cf9c7-6565-7286-bae8-ec275b18291e","019cf99d-e445-78ae-88d0-91fe39b758eb","","null","
                <div class=""stimulus-container"">
                    <img src=""images/semantic_sequence/maintaining_a_car_semantic/maintaining_a_car_semantic_8.png"" class=""exp-image"">
                    <div class=""question-area""></div> 
                </div>","null","","","","","","","","","",""
"","","","","","html-button-response","32","468784","0.0-32.0","ECAEFE5A63CA472C8E6CABBEFAC0539D","019cf9c7-6565-7286-bae8-ec275b18291e","019cf99d-e445-78ae-88d0-91fe39b758eb","","662","
                <div class=""stimulus-container"">
                    <img src=""images/semantic_sequence/maintaining_a_car_semantic/maintaining_a_car_semantic_8.png"" class=""exp-image"">
                    <div class=""question-area"">
                        <p style=""font-size: 20px; font-weight: bold; margin: 0;"">Is there a person in this image?</p>
                    </div>
                </div>","0","main_experiment_trial","8","maintaining_a_car_semantic","semantic_sequence","randomized","","","","",""
"","","","","","html-keyboard-response","33","469801","0.0-33.0","ECAEFE5A63CA472C8E6CABBEFAC0539D","019cf9c7-6565-7286-bae8-ec275b18291e","019cf99d-e445-78ae-88d0-91fe39b758eb","","null","
                <div class=""stimulus-container"">
                    <img src=""images/semantic_sequence/maintaining_a_car_semantic/maintaining_a_car_semantic_1.png"" class=""exp-image"">
                    <div class=""question-area""></div> 
                </div>","null","","","","","","","","","",""
"","","","","","html-button-response","34","470443","0.0-34.0","ECAEFE5A63CA472C8E6CABBEFAC0539D","019cf9c7-6565-7286-bae8-ec275b18291e","019cf99d-e445-78ae-88d0-91fe39b758eb","","641","
                <div class=""stimulus-container"">
                    <img src=""images/semantic_sequence/maintaining_a_car_semantic/maintaining_a_car_semantic_1.png"" class=""exp-image"">
                    <div class=""question-area"">
                        <p style=""font-size: 20px; font-weight: bold; margin: 0;"">Is there a person in this image?</p>
                    </div>
                </div>","0","main_experiment_trial","1","maintaining_a_car_semantic","semantic_sequence","randomized","","","","",""
"","","","","","html-keyboard-response","35","471456","0.0-35.0","ECAEFE5A63CA472C8E6CABBEFAC0539D","019cf9c7-6565-7286-bae8-ec275b18291e","019cf99d-e445-78ae-88d0-91fe39b758eb","","null","
                <div class=""stimulus-container"">
                    <img src=""images/semantic_sequence/maintaining_a_car_semantic/maintaining_a_car_semantic_4.png"" class=""exp-image"">
                    <div class=""question-area""></div> 
                </div>","null","","","","","","","","","",""
"","","","","","html-button-response","36","472077","0.0-36.0","ECAEFE5A63CA472C8E6CABBEFAC0539D","019cf9c7-6565-7286-bae8-ec275b18291e","019cf99d-e445-78ae-88d0-91fe39b758eb","","619","
                <div class=""stimulus-container"">
                    <img src=""images/semantic_sequence/maintaining_a_car_semantic/maintaining_a_car_semantic_4.png"" class=""exp-image"">
                    <div class=""question-area"">
                        <p style=""font-size: 20px; font-weight: bold; margin: 0;"">Is there a person in this image?</p>
                    </div>
                </div>","0","main_experiment_trial","4","maintaining_a_car_semantic","semantic_sequence","randomized","","","","",""
"","","","","","html-keyboard-response","37","477091","0.0-37.0","ECAEFE5A63CA472C8E6CABBEFAC0539D","019cf9c7-6565-7286-bae8-ec275b18291e","019cf99d-e445-78ae-88d0-91fe39b758eb","","null","<div style=""background-color: white; width: 100vw; height: 100vh;""></div>","null","","","","","","","","","",""
"","","","","","html-keyboard-response","38","478095","0.0-38.0","ECAEFE5A63CA472C8E6CABBEFAC0539D","019cf9c7-6565-7286-bae8-ec275b18291e","019cf99d-e445-78ae-88d0-91fe39b758eb","","null","
                <div class=""stimulus-container"">
                    <img src=""images/semantic_sequence/housework_semantic/housework_semantic_6.png"" class=""exp-image"">
                    <div class=""question-area""></div> 
                </div>","null","","","","","","","","","",""
"","","","","","html-button-response","39","479195","0.0-39.0","ECAEFE5A63CA472C8E6CABBEFAC0539D","019cf9c7-6565-7286-bae8-ec275b18291e","019cf99d-e445-78ae-88d0-91fe39b758eb","","1099","
                <div class=""stimulus-container"">
                    <img src=""images/semantic_sequence/housework_semantic/housework_semantic_6.png"" class=""exp-image"">
                    <div class=""question-area"">
                        <p style=""font-size: 20px; font-weight: bold; margin: 0;"">Is there a person in this image?</p>
                    </div>
                </div>","0","main_experiment_trial","6","housework_semantic","semantic_sequence","randomized","","","","",""
"","","","","","html-keyboard-response","40","480197","0.0-40.0","ECAEFE5A63CA472C8E6CABBEFAC0539D","019cf9c7-6565-7286-bae8-ec275b18291e","019cf99d-e445-78ae-88d0-91fe39b758eb","","null","
                <div class=""stimulus-container"">
                    <img src=""images/semantic_sequence/housework_semantic/housework_semantic_3.png"" class=""exp-image"">
                    <div class=""question-area""></div> 
                </div>","null","","","","","","","","","",""
"","","","","","html-button-response","41","480720","0.0-41.0","ECAEFE5A63CA472C8E6CABBEFAC0539D","019cf9c7-6565-7286-bae8-ec275b18291e","019cf99d-e445-78ae-88d0-91fe39b758eb","","522","
                <div class=""stimulus-container"">
                    <img src=""images/semantic_sequence/housework_semantic/housework_semantic_3.png"" class=""exp-image"">
                    <div class=""question-area"">
                        <p style=""font-size: 20px; font-weight: bold; margin: 0;"">Is there a person in this image?</p>
                    </div>
                </div>","0","main_experiment_trial","3","housework_semantic","semantic_sequence","randomized","","","","",""
"","","","","","html-keyboard-response","42","481723","0.0-42.0","ECAEFE5A63CA472C8E6CABBEFAC0539D","019cf9c7-6565-7286-bae8-ec275b18291e","019cf99d-e445-78ae-88d0-91fe39b758eb","","null","
                <div class=""stimulus-container"">
                    <img src=""images/semantic_sequence/housework_semantic/housework_semantic_9.png"" class=""exp-image"">
                    <div class=""question-area""></div> 
                </div>","null","","","","","","","","","",""
"","","","","","html-button-response","43","482398","0.0-43.0","ECAEFE5A63CA472C8E6CABBEFAC0539D","019cf9c7-6565-7286-bae8-ec275b18291e","019cf99d-e445-78ae-88d0-91fe39b758eb","","673","
                <div class=""stimulus-container"">
                    <img src=""images/semantic_sequence/housework_semantic/housework_semantic_9.png"" class=""exp-image"">
                    <div class=""question-area"">
                        <p style=""font-size: 20px; font-weight: bold; margin: 0;"">Is there a person in this image?</p>
                    </div>
                </div>","0","main_experiment_trial","9","housework_semantic","semantic_sequence","randomized","","","","",""
"","","","","","html-keyboard-response","44","483406","0.0-44.0","ECAEFE5A63CA472C8E6CABBEFAC0539D","019cf9c7-6565-7286-bae8-ec275b18291e","019cf99d-e445-78ae-88d0-91fe39b758eb","","null","
                <div class=""stimulus-container"">
                    <img src=""images/semantic_sequence/housework_semantic/housework_semantic_ten.png"" class=""exp-image"">
                    <div class=""question-area""></div> 
                </div>","null","","","","","","","","","",""
"","","","","","html-button-response","45","484122","0.0-45.0","ECAEFE5A63CA472C8E6CABBEFAC0539D","019cf9c7-6565-7286-bae8-ec275b18291e","019cf99d-e445-78ae-88d0-91fe39b758eb","","715","
                <div class=""stimulus-container"">
                    <img src=""images/semantic_sequence/housework_semantic/housework_semantic_ten.png"" class=""exp-image"">
                    <div class=""question-area"">
                        <p style=""font-size: 20px; font-weight: bold; margin: 0;"">Is there a person in this image?</p>
                    </div>
                </div>","0","main_experiment_trial","ten","housework_semantic","semantic_sequence","randomized","","","","",""
"","","","","","html-keyboard-response","46","485132","0.0-46.0","ECAEFE5A63CA472C8E6CABBEFAC0539D","019cf9c7-6565-7286-bae8-ec275b18291e","019cf99d-e445-78ae-88d0-91fe39b758eb","","null","
                <div class=""stimulus-container"">
                    <img src=""images/semantic_sequence/housework_semantic/housework_semantic_4.png"" class=""exp-image"">
                    <div class=""question-area""></div> 
                </div>","null","","","","","","","","","",""
"","","","","","html-button-response","47","485822","0.0-47.0","ECAEFE5A63CA472C8E6CABBEFAC0539D","019cf9c7-6565-7286-bae8-ec275b18291e","019cf99d-e445-78ae-88d0-91fe39b758eb","","689","
                <div class=""stimulus-container"">
                    <img src=""images/semantic_sequence/housework_semantic/housework_semantic_4.png"" class=""exp-image"">
                    <div class=""question-area"">
                        <p style=""font-size: 20px; font-weight: bold; margin: 0;"">Is there a person in this image?</p>
                    </div>
                </div>","0","main_experiment_trial","4","housework_semantic","semantic_sequence","randomized","","","","",""
"","","","","","html-keyboard-response","48","486830","0.0-48.0","ECAEFE5A63CA472C8E6CABBEFAC0539D","019cf9c7-6565-7286-bae8-ec275b18291e","019cf99d-e445-78ae-88d0-91fe39b758eb","","null","
                <div class=""stimulus-container"">
                    <img src=""images/semantic_sequence/housework_semantic/housework_semantic_2.png"" class=""exp-image"">
                    <div class=""question-area""></div> 
                </div>","null","","","","","","","","","",""
"","","","","","html-button-response","49","487544","0.0-49.0","ECAEFE5A63CA472C8E6CABBEFAC0539D","019cf9c7-6565-7286-bae8-ec275b18291e","019cf99d-e445-78ae-88d0-91fe39b758eb","","713","
                <div class=""stimulus-container"">
                    <img src=""images/semantic_sequence/housework_semantic/housework_semantic_2.png"" class=""exp-image"">
                    <div class=""question-area"">
                        <p style=""font-size: 20px; font-weight: bold; margin: 0;"">Is there a person in this image?</p>
                    </div>
                </div>","0","main_experiment_trial","2","housework_semantic","semantic_sequence","randomized","","","","",""
"","","","","","html-keyboard-response","50","488556","0.0-50.0","ECAEFE5A63CA472C8E6CABBEFAC0539D","019cf9c7-6565-7286-bae8-ec275b18291e","019cf99d-e445-78ae-88d0-91fe39b758eb","","null","
                <div class=""stimulus-container"">
                    <img src=""images/semantic_sequence/housework_semantic/housework_semantic_8.png"" class=""exp-image"">
                    <div class=""question-area""></div> 
                </div>","null","","","","","","","","","",""
"","","","","","html-button-response","51","488966","0.0-51.0","ECAEFE5A63CA472C8E6CABBEFAC0539D","019cf9c7-6565-7286-bae8-ec275b18291e","019cf99d-e445-78ae-88d0-91fe39b758eb","","409","
                <div class=""stimulus-container"">
                    <img src=""images/semantic_sequence/housework_semantic/housework_semantic_8.png"" class=""exp-image"">
                    <div class=""question-area"">
                        <p style=""font-size: 20px; font-weight: bold; margin: 0;"">Is there a person in this image?</p>
                    </div>
                </div>","0","main_experiment_trial","8","housework_semantic","semantic_sequence","randomized","","","","",""
"","","","","","html-keyboard-response","52","489974","0.0-52.0","ECAEFE5A63CA472C8E6CABBEFAC0539D","019cf9c7-6565-7286-bae8-ec275b18291e","019cf99d-e445-78ae-88d0-91fe39b758eb","","null","
                <div class=""stimulus-container"">
                    <img src=""images/semantic_sequence/housework_semantic/housework_semantic_1.png"" class=""exp-image"">
                    <div class=""question-area""></div> 
                </div>","null","","","","","","","","","",""
"","","","","","html-button-response","53","491198","0.0-53.0","ECAEFE5A63CA472C8E6CABBEFAC0539D","019cf9c7-6565-7286-bae8-ec275b18291e","019cf99d-e445-78ae-88d0-91fe39b758eb","","1223","
                <div class=""stimulus-container"">
                    <img src=""images/semantic_sequence/housework_semantic/housework_semantic_1.png"" class=""exp-image"">
                    <div class=""question-area"">
                        <p style=""font-size: 20px; font-weight: bold; margin: 0;"">Is there a person in this image?</p>
                    </div>
                </div>","0","main_experiment_trial","1","housework_semantic","semantic_sequence","randomized","","","","",""
"","","","","","html-keyboard-response","54","492212","0.0-54.0","ECAEFE5A63CA472C8E6CABBEFAC0539D","019cf9c7-6565-7286-bae8-ec275b18291e","019cf99d-e445-78ae-88d0-91fe39b758eb","","null","
                <div class=""stimulus-container"">
                    <img src=""images/semantic_sequence/housework_semantic/housework_semantic_5.png"" class=""exp-image"">
                    <div class=""question-area""></div> 
                </div>","null","","","","","","","","","",""
"","","","","","html-button-response","55","493378","0.0-55.0","ECAEFE5A63CA472C8E6CABBEFAC0539D","019cf9c7-6565-7286-bae8-ec275b18291e","019cf99d-e445-78ae-88d0-91fe39b758eb","","1166","
                <div class=""stimulus-container"">
                    <img src=""images/semantic_sequence/housework_semantic/housework_semantic_5.png"" class=""exp-image"">
                    <div class=""question-area"">
                        <p style=""font-size: 20px; font-weight: bold; margin: 0;"">Is there a person in this image?</p>
                    </div>
                </div>","0","main_experiment_trial","5","housework_semantic","semantic_sequence","randomized","","","","",""
"","","","","","html-keyboard-response","56","494389","0.0-56.0","ECAEFE5A63CA472C8E6CABBEFAC0539D","019cf9c7-6565-7286-bae8-ec275b18291e","019cf99d-e445-78ae-88d0-91fe39b758eb","","null","
                <div class=""stimulus-container"">
                    <img src=""images/semantic_sequence/housework_semantic/housework_semantic_7.png"" class=""exp-image"">
                    <div class=""question-area""></div> 
                </div>","null","","","","","","","","","",""
"","","","","","html-button-response","57","495533","0.0-57.0","ECAEFE5A63CA472C8E6CABBEFAC0539D","019cf9c7-6565-7286-bae8-ec275b18291e","019cf99d-e445-78ae-88d0-91fe39b758eb","","1142","
                <div class=""stimulus-container"">
                    <img src=""images/semantic_sequence/housework_semantic/housework_semantic_7.png"" class=""exp-image"">
                    <div class=""question-area"">
                        <p style=""font-size: 20px; font-weight: bold; margin: 0;"">Is there a person in this image?</p>
                    </div>
                </div>","1","main_experiment_trial","7","housework_semantic","semantic_sequence","randomized","","","","",""
"","","","","","html-keyboard-response","58","500547","0.0-58.0","ECAEFE5A63CA472C8E6CABBEFAC0539D","019cf9c7-6565-7286-bae8-ec275b18291e","019cf99d-e445-78ae-88d0-91fe39b758eb","","null","<div style=""background-color: white; width: 100vw; height: 100vh;""></div>","null","","","","","","","","","",""
"","","","","","html-keyboard-response","59","501548","0.0-59.0","ECAEFE5A63CA472C8E6CABBEFAC0539D","019cf9c7-6565-7286-bae8-ec275b18291e","019cf99d-e445-78ae-88d0-91fe39b758eb","","null","
                <div class=""stimulus-container"">
                    <img src=""images/causal_sequence/saving_a_cat_causal/saving_a_cat_causal_4.png"" class=""exp-image"">
                    <div class=""question-area""></div> 
                </div>","null","","","","","","","","","",""
"","","","","","html-button-response","60","502597","0.0-60.0","ECAEFE5A63CA472C8E6CABBEFAC0539D","019cf9c7-6565-7286-bae8-ec275b18291e","019cf99d-e445-78ae-88d0-91fe39b758eb","","1048","
                <div class=""stimulus-container"">
                    <img src=""images/causal_sequence/saving_a_cat_causal/saving_a_cat_causal_4.png"" class=""exp-image"">
                    <div class=""question-area"">
                        <p style=""font-size: 20px; font-weight: bold; margin: 0;"">Is there a person in this image?</p>
                    </div>
                </div>","0","main_experiment_trial","4","saving_a_cat_causal","causal_sequence","randomized","","","","",""
"","","","","","html-keyboard-response","61","503598","0.0-61.0","ECAEFE5A63CA472C8E6CABBEFAC0539D","019cf9c7-6565-7286-bae8-ec275b18291e","019cf99d-e445-78ae-88d0-91fe39b758eb","","null","
                <div class=""stimulus-container"">
                    <img src=""images/causal_sequence/saving_a_cat_causal/saving_a_cat_causal_3.png"" class=""exp-image"">
                    <div class=""question-area""></div> 
                </div>","null","","","","","","","","","",""
"","","","","","html-button-response","62","504499","0.0-62.0","ECAEFE5A63CA472C8E6CABBEFAC0539D","019cf9c7-6565-7286-bae8-ec275b18291e","019cf99d-e445-78ae-88d0-91fe39b758eb","","900","
                <div class=""stimulus-container"">
                    <img src=""images/causal_sequence/saving_a_cat_causal/saving_a_cat_causal_3.png"" class=""exp-image"">
                    <div class=""question-area"">
                        <p style=""font-size: 20px; font-weight: bold; margin: 0;"">Is there a person in this image?</p>
                    </div>
                </div>","1","main_experiment_trial","3","saving_a_cat_causal","causal_sequence","randomized","","","","",""
"","","","","","html-keyboard-response","63","505503","0.0-63.0","ECAEFE5A63CA472C8E6CABBEFAC0539D","019cf9c7-6565-7286-bae8-ec275b18291e","019cf99d-e445-78ae-88d0-91fe39b758eb","","null","
                <div class=""stimulus-container"">
                    <img src=""images/causal_sequence/saving_a_cat_causal/saving_a_cat_causal_5.png"" class=""exp-image"">
                    <div class=""question-area""></div> 
                </div>","null","","","","","","","","","",""
"","","","","","html-button-response","64","506432","0.0-64.0","ECAEFE5A63CA472C8E6CABBEFAC0539D","019cf9c7-6565-7286-bae8-ec275b18291e","019cf99d-e445-78ae-88d0-91fe39b758eb","","927","
                <div class=""stimulus-container"">
                    <img src=""images/causal_sequence/saving_a_cat_causal/saving_a_cat_causal_5.png"" class=""exp-image"">
                    <div class=""question-area"">
                        <p style=""font-size: 20px; font-weight: bold; margin: 0;"">Is there a person in this image?</p>
                    </div>
                </div>","0","main_experiment_trial","5","saving_a_cat_causal","causal_sequence","randomized","","","","",""
"","","","","","html-keyboard-response","65","507435","0.0-65.0","ECAEFE5A63CA472C8E6CABBEFAC0539D","019cf9c7-6565-7286-bae8-ec275b18291e","019cf99d-e445-78ae-88d0-91fe39b758eb","","null","
                <div class=""stimulus-container"">
                    <img src=""images/causal_sequence/saving_a_cat_causal/saving_a_cat_causal_7.png"" class=""exp-image"">
                    <div class=""question-area""></div> 
                </div>","null","","","","","","","","","",""
"","","","","","html-button-response","66","508340","0.0-66.0","ECAEFE5A63CA472C8E6CABBEFAC0539D","019cf9c7-6565-7286-bae8-ec275b18291e","019cf99d-e445-78ae-88d0-91fe39b758eb","","903","
                <div class=""stimulus-container"">
                    <img src=""images/causal_sequence/saving_a_cat_causal/saving_a_cat_causal_7.png"" class=""exp-image"">
                    <div class=""question-area"">
                        <p style=""font-size: 20px; font-weight: bold; margin: 0;"">Is there a person in this image?</p>
                    </div>
                </div>","0","main_experiment_trial","7","saving_a_cat_causal","causal_sequence","randomized","","","","",""
"","","","","","html-keyboard-response","67","509343","0.0-67.0","ECAEFE5A63CA472C8E6CABBEFAC0539D","019cf9c7-6565-7286-bae8-ec275b18291e","019cf99d-e445-78ae-88d0-91fe39b758eb","","null","
                <div class=""stimulus-container"">
                    <img src=""images/causal_sequence/saving_a_cat_causal/saving_a_cat_causal_ten.png"" class=""exp-image"">
                    <div class=""question-area""></div> 
                </div>","null","","","","","","","","","",""
"","","","","","html-button-response","68","510419","0.0-68.0","ECAEFE5A63CA472C8E6CABBEFAC0539D","019cf9c7-6565-7286-bae8-ec275b18291e","019cf99d-e445-78ae-88d0-91fe39b758eb","","1076","
                <div class=""stimulus-container"">
                    <img src=""images/causal_sequence/saving_a_cat_causal/saving_a_cat_causal_ten.png"" class=""exp-image"">
                    <div class=""question-area"">
                        <p style=""font-size: 20px; font-weight: bold; margin: 0;"">Is there a person in this image?</p>
                    </div>
                </div>","0","main_experiment_trial","ten","saving_a_cat_causal","causal_sequence","randomized","","","","",""
"","","","","","html-keyboard-response","69","511433","0.0-69.0","ECAEFE5A63CA472C8E6CABBEFAC0539D","019cf9c7-6565-7286-bae8-ec275b18291e","019cf99d-e445-78ae-88d0-91fe39b758eb","","null","
                <div class=""stimulus-container"">
                    <img src=""images/causal_sequence/saving_a_cat_causal/saving_a_cat_causal_1.png"" class=""exp-image"">
                    <div class=""question-area""></div> 
                </div>","null","","","","","","","","","",""
"","","","","","html-button-response","70","512342","0.0-70.0","ECAEFE5A63CA472C8E6CABBEFAC0539D","019cf9c7-6565-7286-bae8-ec275b18291e","019cf99d-e445-78ae-88d0-91fe39b758eb","","907","
                <div class=""stimulus-container"">
                    <img src=""images/causal_sequence/saving_a_cat_causal/saving_a_cat_causal_1.png"" class=""exp-image"">
                    <div class=""question-area"">
                        <p style=""font-size: 20px; font-weight: bold; margin: 0;"">Is there a person in this image?</p>
                    </div>
                </div>","0","main_experiment_trial","1","saving_a_cat_causal","causal_sequence","randomized","","","","",""
"","","","","","html-keyboard-response","71","513353","0.0-71.0","ECAEFE5A63CA472C8E6CABBEFAC0539D","019cf9c7-6565-7286-bae8-ec275b18291e","019cf99d-e445-78ae-88d0-91fe39b758eb","","null","
                <div class=""stimulus-container"">
                    <img src=""images/causal_sequence/saving_a_cat_causal/saving_a_cat_causal_2.png"" class=""exp-image"">
                    <div class=""question-area""></div> 
                </div>","null","","","","","","","","","",""
"","","","","","html-button-response","72","514662","0.0-72.0","ECAEFE5A63CA472C8E6CABBEFAC0539D","019cf9c7-6565-7286-bae8-ec275b18291e","019cf99d-e445-78ae-88d0-91fe39b758eb","","1307","
                <div class=""stimulus-container"">
                    <img src=""images/causal_sequence/saving_a_cat_causal/saving_a_cat_causal_2.png"" class=""exp-image"">
                    <div class=""question-area"">
                        <p style=""font-size: 20px; font-weight: bold; margin: 0;"">Is there a person in this image?</p>
                    </div>
                </div>","1","main_experiment_trial","2","saving_a_cat_causal","causal_sequence","randomized","","","","",""
"","","","","","html-keyboard-response","73","515671","0.0-73.0","ECAEFE5A63CA472C8E6CABBEFAC0539D","019cf9c7-6565-7286-bae8-ec275b18291e","019cf99d-e445-78ae-88d0-91fe39b758eb","","null","
                <div class=""stimulus-container"">
                    <img src=""images/causal_sequence/saving_a_cat_causal/saving_a_cat_causal_6.png"" class=""exp-image"">
                    <div class=""question-area""></div> 
                </div>","null","","","","","","","","","",""
"","","","","","html-button-response","74","517402","0.0-74.0","ECAEFE5A63CA472C8E6CABBEFAC0539D","019cf9c7-6565-7286-bae8-ec275b18291e","019cf99d-e445-78ae-88d0-91fe39b758eb","","1730","
                <div class=""stimulus-container"">
                    <img src=""images/causal_sequence/saving_a_cat_causal/saving_a_cat_causal_6.png"" class=""exp-image"">
                    <div class=""question-area"">
                        <p style=""font-size: 20px; font-weight: bold; margin: 0;"">Is there a person in this image?</p>
                    </div>
                </div>","0","main_experiment_trial","6","saving_a_cat_causal","causal_sequence","randomized","","","","",""
"","","","","","html-keyboard-response","75","518417","0.0-75.0","ECAEFE5A63CA472C8E6CABBEFAC0539D","019cf9c7-6565-7286-bae8-ec275b18291e","019cf99d-e445-78ae-88d0-91fe39b758eb","","null","
                <div class=""stimulus-container"">
                    <img src=""images/causal_sequence/saving_a_cat_causal/saving_a_cat_causal_8.png"" class=""exp-image"">
                    <div class=""question-area""></div> 
                </div>","null","","","","","","","","","",""
"","","","","","html-button-response","76","519360","0.0-76.0","ECAEFE5A63CA472C8E6CABBEFAC0539D","019cf9c7-6565-7286-bae8-ec275b18291e","019cf99d-e445-78ae-88d0-91fe39b758eb","","941","
                <div class=""stimulus-container"">
                    <img src=""images/causal_sequence/saving_a_cat_causal/saving_a_cat_causal_8.png"" class=""exp-image"">
                    <div class=""question-area"">
                        <p style=""font-size: 20px; font-weight: bold; margin: 0;"">Is there a person in this image?</p>
                    </div>
                </div>","0","main_experiment_trial","8","saving_a_cat_causal","causal_sequence","randomized","","","","",""
"","","","","","html-keyboard-response","77","520376","0.0-77.0","ECAEFE5A63CA472C8E6CABBEFAC0539D","019cf9c7-6565-7286-bae8-ec275b18291e","019cf99d-e445-78ae-88d0-91fe39b758eb","","null","
                <div class=""stimulus-container"">
                    <img src=""images/causal_sequence/saving_a_cat_causal/saving_a_cat_causal_9.png"" class=""exp-image"">
                    <div class=""question-area""></div> 
                </div>","null","","","","","","","","","",""
"","","","","","html-button-response","78","521210","0.0-78.0","ECAEFE5A63CA472C8E6CABBEFAC0539D","019cf9c7-6565-7286-bae8-ec275b18291e","019cf99d-e445-78ae-88d0-91fe39b758eb","","833","
                <div class=""stimulus-container"">
                    <img src=""images/causal_sequence/saving_a_cat_causal/saving_a_cat_causal_9.png"" class=""exp-image"">
                    <div class=""question-area"">
                        <p style=""font-size: 20px; font-weight: bold; margin: 0;"">Is there a person in this image?</p>
                    </div>
                </div>","0","main_experiment_trial","9","saving_a_cat_causal","causal_sequence","randomized","","","","",""
"","","","","","html-keyboard-response","79","526222","0.0-79.0","ECAEFE5A63CA472C8E6CABBEFAC0539D","019cf9c7-6565-7286-bae8-ec275b18291e","019cf99d-e445-78ae-88d0-91fe39b758eb","","null","<div style=""background-color: white; width: 100vw; height: 100vh;""></div>","null","","","","","","","","","",""
"","","","","","html-keyboard-response","80","527239","0.0-80.0","ECAEFE5A63CA472C8E6CABBEFAC0539D","019cf9c7-6565-7286-bae8-ec275b18291e","019cf99d-e445-78ae-88d0-91fe39b758eb","","null","
                <div class=""stimulus-container"">
                    <img src=""images/causal_sequence/package_causal/package_causal_3.png"" class=""exp-image"">
                    <div class=""question-area""></div> 
                </div>","null","","","","","","","","","",""
"","","","","","html-button-response","81","528165","0.0-81.0","ECAEFE5A63CA472C8E6CABBEFAC0539D","019cf9c7-6565-7286-bae8-ec275b18291e","019cf99d-e445-78ae-88d0-91fe39b758eb","","925","
                <div class=""stimulus-container"">
                    <img src=""images/causal_sequence/package_causal/package_causal_3.png"" class=""exp-image"">
                    <div class=""question-area"">
                        <p style=""font-size: 20px; font-weight: bold; margin: 0;"">Is there a person in this image?</p>
                    </div>
                </div>","0","main_experiment_trial","3","package_causal","causal_sequence","randomized","","","","",""
"","","","","","html-keyboard-response","82","529170","0.0-82.0","ECAEFE5A63CA472C8E6CABBEFAC0539D","019cf9c7-6565-7286-bae8-ec275b18291e","019cf99d-e445-78ae-88d0-91fe39b758eb","","null","
                <div class=""stimulus-container"">
                    <img src=""images/causal_sequence/package_causal/package_causal_6.png"" class=""exp-image"">
                    <div class=""question-area""></div> 
                </div>","null","","","","","","","","","",""
"","","","","","html-button-response","83","530085","0.0-83.0","ECAEFE5A63CA472C8E6CABBEFAC0539D","019cf9c7-6565-7286-bae8-ec275b18291e","019cf99d-e445-78ae-88d0-91fe39b758eb","","913","
                <div class=""stimulus-container"">
                    <img src=""images/causal_sequence/package_causal/package_causal_6.png"" class=""exp-image"">
                    <div class=""question-area"">
                        <p style=""font-size: 20px; font-weight: bold; margin: 0;"">Is there a person in this image?</p>
                    </div>
                </div>","0","main_experiment_trial","6","package_causal","causal_sequence","randomized","","","","",""
"","","","","","html-keyboard-response","84","531089","0.0-84.0","ECAEFE5A63CA472C8E6CABBEFAC0539D","019cf9c7-6565-7286-bae8-ec275b18291e","019cf99d-e445-78ae-88d0-91fe39b758eb","","null","
                <div class=""stimulus-container"">
                    <img src=""images/causal_sequence/package_causal/package_causal_7.png"" class=""exp-image"">
                    <div class=""question-area""></div> 
                </div>","null","","","","","","","","","",""
"","","","","","html-button-response","85","532073","0.0-85.0","ECAEFE5A63CA472C8E6CABBEFAC0539D","019cf9c7-6565-7286-bae8-ec275b18291e","019cf99d-e445-78ae-88d0-91fe39b758eb","","983","
                <div class=""stimulus-container"">
                    <img src=""images/causal_sequence/package_causal/package_causal_7.png"" class=""exp-image"">
                    <div class=""question-area"">
                        <p style=""font-size: 20px; font-weight: bold; margin: 0;"">Is there a person in this image?</p>
                    </div>
                </div>","0","main_experiment_trial","7","package_causal","causal_sequence","randomized","","","","",""
"","","","","","html-keyboard-response","86","533084","0.0-86.0","ECAEFE5A63CA472C8E6CABBEFAC0539D","019cf9c7-6565-7286-bae8-ec275b18291e","019cf99d-e445-78ae-88d0-91fe39b758eb","","null","
                <div class=""stimulus-container"">
                    <img src=""images/causal_sequence/package_causal/package_causal_4.png"" class=""exp-image"">
                    <div class=""question-area""></div> 
                </div>","null","","","","","","","","","",""
"","","","","","html-button-response","87","534515","0.0-87.0","ECAEFE5A63CA472C8E6CABBEFAC0539D","019cf9c7-6565-7286-bae8-ec275b18291e","019cf99d-e445-78ae-88d0-91fe39b758eb","","1430","
                <div class=""stimulus-container"">
                    <img src=""images/causal_sequence/package_causal/package_causal_4.png"" class=""exp-image"">
                    <div class=""question-area"">
                        <p style=""font-size: 20px; font-weight: bold; margin: 0;"">Is there a person in this image?</p>
                    </div>
                </div>","1","main_experiment_trial","4","package_causal","causal_sequence","randomized","","","","",""
"","","","","","html-keyboard-response","88","535521","0.0-88.0","ECAEFE5A63CA472C8E6CABBEFAC0539D","019cf9c7-6565-7286-bae8-ec275b18291e","019cf99d-e445-78ae-88d0-91fe39b758eb","","null","
                <div class=""stimulus-container"">
                    <img src=""images/causal_sequence/package_causal/package_causal_ten.png"" class=""exp-image"">
                    <div class=""question-area""></div> 
                </div>","null","","","","","","","","","",""
"","","","","","html-button-response","89","536348","0.0-89.0","ECAEFE5A63CA472C8E6CABBEFAC0539D","019cf9c7-6565-7286-bae8-ec275b18291e","019cf99d-e445-78ae-88d0-91fe39b758eb","","825","
                <div class=""stimulus-container"">
                    <img src=""images/causal_sequence/package_causal/package_causal_ten.png"" class=""exp-image"">
                    <div class=""question-area"">
                        <p style=""font-size: 20px; font-weight: bold; margin: 0;"">Is there a person in this image?</p>
                    </div>
                </div>","0","main_experiment_trial","ten","package_causal","causal_sequence","randomized","","","","",""
"","","","","","html-keyboard-response","90","537361","0.0-90.0","ECAEFE5A63CA472C8E6CABBEFAC0539D","019cf9c7-6565-7286-bae8-ec275b18291e","019cf99d-e445-78ae-88d0-91fe39b758eb","","null","
                <div class=""stimulus-container"">
                    <img src=""images/causal_sequence/package_causal/package_causal_5.png"" class=""exp-image"">
                    <div class=""question-area""></div> 
                </div>","null","","","","","","","","","",""
"","","","","","html-button-response","91","538287","0.0-91.0","ECAEFE5A63CA472C8E6CABBEFAC0539D","019cf9c7-6565-7286-bae8-ec275b18291e","019cf99d-e445-78ae-88d0-91fe39b758eb","","925","
                <div class=""stimulus-container"">
                    <img src=""images/causal_sequence/package_causal/package_causal_5.png"" class=""exp-image"">
                    <div class=""question-area"">
                        <p style=""font-size: 20px; font-weight: bold; margin: 0;"">Is there a person in this image?</p>
                    </div>
                </div>","0","main_experiment_trial","5","package_causal","causal_sequence","randomized","","","","",""
"","","","","","html-keyboard-response","92","539298","0.0-92.0","ECAEFE5A63CA472C8E6CABBEFAC0539D","019cf9c7-6565-7286-bae8-ec275b18291e","019cf99d-e445-78ae-88d0-91fe39b758eb","","null","
                <div class=""stimulus-container"">
                    <img src=""images/causal_sequence/package_causal/package_causal_9.png"" class=""exp-image"">
                    <div class=""question-area""></div> 
                </div>","null","","","","","","","","","",""
"","","","","","html-button-response","93","540038","0.0-93.0","ECAEFE5A63CA472C8E6CABBEFAC0539D","019cf9c7-6565-7286-bae8-ec275b18291e","019cf99d-e445-78ae-88d0-91fe39b758eb","","739","
                <div class=""stimulus-container"">
                    <img src=""images/causal_sequence/package_causal/package_causal_9.png"" class=""exp-image"">
                    <div class=""question-area"">
                        <p style=""font-size: 20px; font-weight: bold; margin: 0;"">Is there a person in this image?</p>
                    </div>
                </div>","0","main_experiment_trial","9","package_causal","causal_sequence","randomized","","","","",""
"","","","","","html-keyboard-response","94","541045","0.0-94.0","ECAEFE5A63CA472C8E6CABBEFAC0539D","019cf9c7-6565-7286-bae8-ec275b18291e","019cf99d-e445-78ae-88d0-91fe39b758eb","","null","
                <div class=""stimulus-container"">
                    <img src=""images/causal_sequence/package_causal/package_causal_1.png"" class=""exp-image"">
                    <div class=""question-area""></div> 
                </div>","null","","","","","","","","","",""
"","","","","","html-button-response","95","541714","0.0-95.0","ECAEFE5A63CA472C8E6CABBEFAC0539D","019cf9c7-6565-7286-bae8-ec275b18291e","019cf99d-e445-78ae-88d0-91fe39b758eb","","668","
                <div class=""stimulus-container"">
                    <img src=""images/causal_sequence/package_causal/package_causal_1.png"" class=""exp-image"">
                    <div class=""question-area"">
                        <p style=""font-size: 20px; font-weight: bold; margin: 0;"">Is there a person in this image?</p>
                    </div>
                </div>","0","main_experiment_trial","1","package_causal","causal_sequence","randomized","","","","",""
"","","","","","html-keyboard-response","96","542723","0.0-96.0","ECAEFE5A63CA472C8E6CABBEFAC0539D","019cf9c7-6565-7286-bae8-ec275b18291e","019cf99d-e445-78ae-88d0-91fe39b758eb","","null","
                <div class=""stimulus-container"">
                    <img src=""images/causal_sequence/package_causal/package_causal_2.png"" class=""exp-image"">
                    <div class=""question-area""></div> 
                </div>","null","","","","","","","","","",""
"","","","","","html-button-response","97","543490","0.0-97.0","ECAEFE5A63CA472C8E6CABBEFAC0539D","019cf9c7-6565-7286-bae8-ec275b18291e","019cf99d-e445-78ae-88d0-91fe39b758eb","","765","
                <div class=""stimulus-container"">
                    <img src=""images/causal_sequence/package_causal/package_causal_2.png"" class=""exp-image"">
                    <div class=""question-area"">
                        <p style=""font-size: 20px; font-weight: bold; margin: 0;"">Is there a person in this image?</p>
                    </div>
                </div>","0","main_experiment_trial","2","package_causal","causal_sequence","randomized","","","","",""
"","","","","","html-keyboard-response","98","544504","0.0-98.0","ECAEFE5A63CA472C8E6CABBEFAC0539D","019cf9c7-6565-7286-bae8-ec275b18291e","019cf99d-e445-78ae-88d0-91fe39b758eb","","null","
                <div class=""stimulus-container"">
                    <img src=""images/causal_sequence/package_causal/package_causal_8.png"" class=""exp-image"">
                    <div class=""question-area""></div> 
                </div>","null","","","","","","","","","",""
"","","","","","html-button-response","99","545306","0.0-99.0","ECAEFE5A63CA472C8E6CABBEFAC0539D","019cf9c7-6565-7286-bae8-ec275b18291e","019cf99d-e445-78ae-88d0-91fe39b758eb","","800","
                <div class=""stimulus-container"">
                    <img src=""images/causal_sequence/package_causal/package_causal_8.png"" class=""exp-image"">
                    <div class=""question-area"">
                        <p style=""font-size: 20px; font-weight: bold; margin: 0;"">Is there a person in this image?</p>
                    </div>
                </div>","0","main_experiment_trial","8","package_causal","causal_sequence","randomized","","","","",""
"","","","","","html-keyboard-response","100","550314","0.0-100.0","ECAEFE5A63CA472C8E6CABBEFAC0539D","019cf9c7-6565-7286-bae8-ec275b18291e","019cf99d-e445-78ae-88d0-91fe39b758eb","","null","<div style=""background-color: white; width: 100vw; height: 100vh;""></div>","null","","","","","","","","","",""
"","","","","","html-keyboard-response","101","551318","0.0-101.0","ECAEFE5A63CA472C8E6CABBEFAC0539D","019cf9c7-6565-7286-bae8-ec275b18291e","019cf99d-e445-78ae-88d0-91fe39b758eb","","null","
                <div class=""stimulus-container"">
                    <img src=""images/causal_sequence/the_performance_causal/the_performance_causal_5.png"" class=""exp-image"">
                    <div class=""question-area""></div> 
                </div>","null","","","","","","","","","",""
"","","","","","html-button-response","102","552260","0.0-102.0","ECAEFE5A63CA472C8E6CABBEFAC0539D","019cf9c7-6565-7286-bae8-ec275b18291e","019cf99d-e445-78ae-88d0-91fe39b758eb","","941","
                <div class=""stimulus-container"">
                    <img src=""images/causal_sequence/the_performance_causal/the_performance_causal_5.png"" class=""exp-image"">
                    <div class=""question-area"">
                        <p style=""font-size: 20px; font-weight: bold; margin: 0;"">Is there a person in this image?</p>
                    </div>
                </div>","0","main_experiment_trial","5","the_performance_causal","causal_sequence","randomized","","","","",""
"","","","","","html-keyboard-response","103","553269","0.0-103.0","ECAEFE5A63CA472C8E6CABBEFAC0539D","019cf9c7-6565-7286-bae8-ec275b18291e","019cf99d-e445-78ae-88d0-91fe39b758eb","","null","
                <div class=""stimulus-container"">
                    <img src=""images/causal_sequence/the_performance_causal/the_performance_causal_7.png"" class=""exp-image"">
                    <div class=""question-area""></div> 
                </div>","null","","","","","","","","","",""
"","","","","","html-button-response","104","553957","0.0-104.0","ECAEFE5A63CA472C8E6CABBEFAC0539D","019cf9c7-6565-7286-bae8-ec275b18291e","019cf99d-e445-78ae-88d0-91fe39b758eb","","687","
                <div class=""stimulus-container"">
                    <img src=""images/causal_sequence/the_performance_causal/the_performance_causal_7.png"" class=""exp-image"">
                    <div class=""question-area"">
                        <p style=""font-size: 20px; font-weight: bold; margin: 0;"">Is there a person in this image?</p>
                    </div>
                </div>","0","main_experiment_trial","7","the_performance_causal","causal_sequence","randomized","","","","",""
"","","","","","html-keyboard-response","105","554970","0.0-105.0","ECAEFE5A63CA472C8E6CABBEFAC0539D","019cf9c7-6565-7286-bae8-ec275b18291e","019cf99d-e445-78ae-88d0-91fe39b758eb","","null","
                <div class=""stimulus-container"">
                    <img src=""images/causal_sequence/the_performance_causal/the_performance_causal_ten.png"" class=""exp-image"">
                    <div class=""question-area""></div> 
                </div>","null","","","","","","","","","",""
"","","","","","html-button-response","106","555639","0.0-106.0","ECAEFE5A63CA472C8E6CABBEFAC0539D","019cf9c7-6565-7286-bae8-ec275b18291e","019cf99d-e445-78ae-88d0-91fe39b758eb","","667","
                <div class=""stimulus-container"">
                    <img src=""images/causal_sequence/the_performance_causal/the_performance_causal_ten.png"" class=""exp-image"">
                    <div class=""question-area"">
                        <p style=""font-size: 20px; font-weight: bold; margin: 0;"">Is there a person in this image?</p>
                    </div>
                </div>","0","main_experiment_trial","ten","the_performance_causal","causal_sequence","randomized","","","","",""
"","","","","","html-keyboard-response","107","556651","0.0-107.0","ECAEFE5A63CA472C8E6CABBEFAC0539D","019cf9c7-6565-7286-bae8-ec275b18291e","019cf99d-e445-78ae-88d0-91fe39b758eb","","null","
                <div class=""stimulus-container"">
                    <img src=""images/causal_sequence/the_performance_causal/the_performance_causal_4.png"" class=""exp-image"">
                    <div class=""question-area""></div> 
                </div>","null","","","","","","","","","",""
"","","","","","html-button-response","108","557537","0.0-108.0","ECAEFE5A63CA472C8E6CABBEFAC0539D","019cf9c7-6565-7286-bae8-ec275b18291e","019cf99d-e445-78ae-88d0-91fe39b758eb","","885","
                <div class=""stimulus-container"">
                    <img src=""images/causal_sequence/the_performance_causal/the_performance_causal_4.png"" class=""exp-image"">
                    <div class=""question-area"">
                        <p style=""font-size: 20px; font-weight: bold; margin: 0;"">Is there a person in this image?</p>
                    </div>
                </div>","0","main_experiment_trial","4","the_performance_causal","causal_sequence","randomized","","","","",""
"","","","","","html-keyboard-response","109","558550","0.0-109.0","ECAEFE5A63CA472C8E6CABBEFAC0539D","019cf9c7-6565-7286-bae8-ec275b18291e","019cf99d-e445-78ae-88d0-91fe39b758eb","","null","
                <div class=""stimulus-container"">
                    <img src=""images/causal_sequence/the_performance_causal/the_performance_causal_1.png"" class=""exp-image"">
                    <div class=""question-area""></div> 
                </div>","null","","","","","","","","","",""
"","","","","","html-button-response","110","560569","0.0-110.0","ECAEFE5A63CA472C8E6CABBEFAC0539D","019cf9c7-6565-7286-bae8-ec275b18291e","019cf99d-e445-78ae-88d0-91fe39b758eb","","2018","
                <div class=""stimulus-container"">
                    <img src=""images/causal_sequence/the_performance_causal/the_performance_causal_1.png"" class=""exp-image"">
                    <div class=""question-area"">
                        <p style=""font-size: 20px; font-weight: bold; margin: 0;"">Is there a person in this image?</p>
                    </div>
                </div>","0","main_experiment_trial","1","the_performance_causal","causal_sequence","randomized","","","","",""
"","","","","","html-keyboard-response","111","561583","0.0-111.0","ECAEFE5A63CA472C8E6CABBEFAC0539D","019cf9c7-6565-7286-bae8-ec275b18291e","019cf99d-e445-78ae-88d0-91fe39b758eb","","null","
                <div class=""stimulus-container"">
                    <img src=""images/causal_sequence/the_performance_causal/the_performance_causal_9.png"" class=""exp-image"">
                    <div class=""question-area""></div> 
                </div>","null","","","","","","","","","",""
"","","","","","html-button-response","112","562597","0.0-112.0","ECAEFE5A63CA472C8E6CABBEFAC0539D","019cf9c7-6565-7286-bae8-ec275b18291e","019cf99d-e445-78ae-88d0-91fe39b758eb","","1013","
                <div class=""stimulus-container"">
                    <img src=""images/causal_sequence/the_performance_causal/the_performance_causal_9.png"" class=""exp-image"">
                    <div class=""question-area"">
                        <p style=""font-size: 20px; font-weight: bold; margin: 0;"">Is there a person in this image?</p>
                    </div>
                </div>","0","main_experiment_trial","9","the_performance_causal","causal_sequence","randomized","","","","",""
"","","","","","html-keyboard-response","113","563600","0.0-113.0","ECAEFE5A63CA472C8E6CABBEFAC0539D","019cf9c7-6565-7286-bae8-ec275b18291e","019cf99d-e445-78ae-88d0-91fe39b758eb","","null","
                <div class=""stimulus-container"">
                    <img src=""images/causal_sequence/the_performance_causal/the_performance_causal_6.png"" class=""exp-image"">
                    <div class=""question-area""></div> 
                </div>","null","","","","","","","","","",""
"","","","","","html-button-response","114","564333","0.0-114.0","ECAEFE5A63CA472C8E6CABBEFAC0539D","019cf9c7-6565-7286-bae8-ec275b18291e","019cf99d-e445-78ae-88d0-91fe39b758eb","","732","
                <div class=""stimulus-container"">
                    <img src=""images/causal_sequence/the_performance_causal/the_performance_causal_6.png"" class=""exp-image"">
                    <div class=""question-area"">
                        <p style=""font-size: 20px; font-weight: bold; margin: 0;"">Is there a person in this image?</p>
                    </div>
                </div>","0","main_experiment_trial","6","the_performance_causal","causal_sequence","randomized","","","","",""
"","","","","","html-keyboard-response","115","565348","0.0-115.0","ECAEFE5A63CA472C8E6CABBEFAC0539D","019cf9c7-6565-7286-bae8-ec275b18291e","019cf99d-e445-78ae-88d0-91fe39b758eb","","null","
                <div class=""stimulus-container"">
                    <img src=""images/causal_sequence/the_performance_causal/the_performance_causal_2.png"" class=""exp-image"">
                    <div class=""question-area""></div> 
                </div>","null","","","","","","","","","",""
"","","","","","html-button-response","116","566004","0.0-116.0","ECAEFE5A63CA472C8E6CABBEFAC0539D","019cf9c7-6565-7286-bae8-ec275b18291e","019cf99d-e445-78ae-88d0-91fe39b758eb","","654","
                <div class=""stimulus-container"">
                    <img src=""images/causal_sequence/the_performance_causal/the_performance_causal_2.png"" class=""exp-image"">
                    <div class=""question-area"">
                        <p style=""font-size: 20px; font-weight: bold; margin: 0;"">Is there a person in this image?</p>
                    </div>
                </div>","0","main_experiment_trial","2","the_performance_causal","causal_sequence","randomized","","","","",""
"","","","","","html-keyboard-response","117","567007","0.0-117.0","ECAEFE5A63CA472C8E6CABBEFAC0539D","019cf9c7-6565-7286-bae8-ec275b18291e","019cf99d-e445-78ae-88d0-91fe39b758eb","","null","
                <div class=""stimulus-container"">
                    <img src=""images/causal_sequence/the_performance_causal/the_performance_causal_8.png"" class=""exp-image"">
                    <div class=""question-area""></div> 
                </div>","null","","","","","","","","","",""
"","","","","","html-button-response","118","567469","0.0-118.0","ECAEFE5A63CA472C8E6CABBEFAC0539D","019cf9c7-6565-7286-bae8-ec275b18291e","019cf99d-e445-78ae-88d0-91fe39b758eb","","461","
                <div class=""stimulus-container"">
                    <img src=""images/causal_sequence/the_performance_causal/the_performance_causal_8.png"" class=""exp-image"">
                    <div class=""question-area"">
                        <p style=""font-size: 20px; font-weight: bold; margin: 0;"">Is there a person in this image?</p>
                    </div>
                </div>","0","main_experiment_trial","8","the_performance_causal","causal_sequence","randomized","","","","",""
"","","","","","html-keyboard-response","119","568473","0.0-119.0","ECAEFE5A63CA472C8E6CABBEFAC0539D","019cf9c7-6565-7286-bae8-ec275b18291e","019cf99d-e445-78ae-88d0-91fe39b758eb","","null","
                <div class=""stimulus-container"">
                    <img src=""images/causal_sequence/the_performance_causal/the_performance_causal_3.png"" class=""exp-image"">
                    <div class=""question-area""></div> 
                </div>","null","","","","","","","","","",""
"","","","","","html-button-response","120","569180","0.0-120.0","ECAEFE5A63CA472C8E6CABBEFAC0539D","019cf9c7-6565-7286-bae8-ec275b18291e","019cf99d-e445-78ae-88d0-91fe39b758eb","","706","
                <div class=""stimulus-container"">
                    <img src=""images/causal_sequence/the_performance_causal/the_performance_causal_3.png"" class=""exp-image"">
                    <div class=""question-area"">
                        <p style=""font-size: 20px; font-weight: bold; margin: 0;"">Is there a person in this image?</p>
                    </div>
                </div>","0","main_experiment_trial","3","the_performance_causal","causal_sequence","randomized","","","","",""
"","","","","","html-keyboard-response","121","574180","0.0-121.0","ECAEFE5A63CA472C8E6CABBEFAC0539D","019cf9c7-6565-7286-bae8-ec275b18291e","019cf99d-e445-78ae-88d0-91fe39b758eb","","null","<div style=""background-color: white; width: 100vw; height: 100vh;""></div>","null","","","","","","","","","",""
"","","","","","html-keyboard-response","122","575185","0.0-122.0","ECAEFE5A63CA472C8E6CABBEFAC0539D","019cf9c7-6565-7286-bae8-ec275b18291e","019cf99d-e445-78ae-88d0-91fe39b758eb","","null","
                <div class=""stimulus-container"">
                    <img src=""images/semantic_sequence/cat_care_semantic/cat_care_semantic_5.png"" class=""exp-image"">
                    <div class=""question-area""></div> 
                </div>","null","","","","","","","","","",""
"","","","","","html-button-response","123","576928","0.0-123.0","ECAEFE5A63CA472C8E6CABBEFAC0539D","019cf9c7-6565-7286-bae8-ec275b18291e","019cf99d-e445-78ae-88d0-91fe39b758eb","","1741","
                <div class=""stimulus-container"">
                    <img src=""images/semantic_sequence/cat_care_semantic/cat_care_semantic_5.png"" class=""exp-image"">
                    <div class=""question-area"">
                        <p style=""font-size: 20px; font-weight: bold; margin: 0;"">Is there a person in this image?</p>
                    </div>
                </div>","1","main_experiment_trial","5","cat_care_semantic","semantic_sequence","randomized","","","","",""
"","","","","","html-keyboard-response","124","577941","0.0-124.0","ECAEFE5A63CA472C8E6CABBEFAC0539D","019cf9c7-6565-7286-bae8-ec275b18291e","019cf99d-e445-78ae-88d0-91fe39b758eb","","null","
                <div class=""stimulus-container"">
                    <img src=""images/semantic_sequence/cat_care_semantic/cat_care_semantic_3.png"" class=""exp-image"">
                    <div class=""question-area""></div> 
                </div>","null","","","","","","","","","",""
"","","","","","html-button-response","125","579514","0.0-125.0","ECAEFE5A63CA472C8E6CABBEFAC0539D","019cf9c7-6565-7286-bae8-ec275b18291e","019cf99d-e445-78ae-88d0-91fe39b758eb","","1571","
                <div class=""stimulus-container"">
                    <img src=""images/semantic_sequence/cat_care_semantic/cat_care_semantic_3.png"" class=""exp-image"">
                    <div class=""question-area"">
                        <p style=""font-size: 20px; font-weight: bold; margin: 0;"">Is there a person in this image?</p>
                    </div>
                </div>","1","main_experiment_trial","3","cat_care_semantic","semantic_sequence","randomized","","","","",""
"","","","","","html-keyboard-response","126","580522","0.0-126.0","ECAEFE5A63CA472C8E6CABBEFAC0539D","019cf9c7-6565-7286-bae8-ec275b18291e","019cf99d-e445-78ae-88d0-91fe39b758eb","","null","
                <div class=""stimulus-container"">
                    <img src=""images/semantic_sequence/cat_care_semantic/cat_care_semantic_8.png"" class=""exp-image"">
                    <div class=""question-area""></div> 
                </div>","null","","","","","","","","","",""
"","","","","","html-button-response","127","581399","0.0-127.0","ECAEFE5A63CA472C8E6CABBEFAC0539D","019cf9c7-6565-7286-bae8-ec275b18291e","019cf99d-e445-78ae-88d0-91fe39b758eb","","876","
                <div class=""stimulus-container"">
                    <img src=""images/semantic_sequence/cat_care_semantic/cat_care_semantic_8.png"" class=""exp-image"">
                    <div class=""question-area"">
                        <p style=""font-size: 20px; font-weight: bold; margin: 0;"">Is there a person in this image?</p>
                    </div>
                </div>","1","main_experiment_trial","8","cat_care_semantic","semantic_sequence","randomized","","","","",""
"","","","","","html-keyboard-response","128","582410","0.0-128.0","ECAEFE5A63CA472C8E6CABBEFAC0539D","019cf9c7-6565-7286-bae8-ec275b18291e","019cf99d-e445-78ae-88d0-91fe39b758eb","","null","
                <div class=""stimulus-container"">
                    <img src=""images/semantic_sequence/cat_care_semantic/cat_care_semantic_ten.png"" class=""exp-image"">
                    <div class=""question-area""></div> 
                </div>","null","","","","","","","","","",""
"","","","","","html-button-response","129","583078","0.0-129.0","ECAEFE5A63CA472C8E6CABBEFAC0539D","019cf9c7-6565-7286-bae8-ec275b18291e","019cf99d-e445-78ae-88d0-91fe39b758eb","","667","
                <div class=""stimulus-container"">
                    <img src=""images/semantic_sequence/cat_care_semantic/cat_care_semantic_ten.png"" class=""exp-image"">
                    <div class=""question-area"">
                        <p style=""font-size: 20px; font-weight: bold; margin: 0;"">Is there a person in this image?</p>
                    </div>
                </div>","1","main_experiment_trial","ten","cat_care_semantic","semantic_sequence","randomized","","","","",""
"","","","","","html-keyboard-response","130","584079","0.0-130.0","ECAEFE5A63CA472C8E6CABBEFAC0539D","019cf9c7-6565-7286-bae8-ec275b18291e","019cf99d-e445-78ae-88d0-91fe39b758eb","","null","
                <div class=""stimulus-container"">
                    <img src=""images/semantic_sequence/cat_care_semantic/cat_care_semantic_1.png"" class=""exp-image"">
                    <div class=""question-area""></div> 
                </div>","null","","","","","","","","","",""
"","","","","","html-button-response","131","584649","0.0-131.0","ECAEFE5A63CA472C8E6CABBEFAC0539D","019cf9c7-6565-7286-bae8-ec275b18291e","019cf99d-e445-78ae-88d0-91fe39b758eb","","569","
                <div class=""stimulus-container"">
                    <img src=""images/semantic_sequence/cat_care_semantic/cat_care_semantic_1.png"" class=""exp-image"">
                    <div class=""question-area"">
                        <p style=""font-size: 20px; font-weight: bold; margin: 0;"">Is there a person in this image?</p>
                    </div>
                </div>","0","main_experiment_trial","1","cat_care_semantic","semantic_sequence","randomized","","","","",""
"","","","","","html-keyboard-response","132","585650","0.0-132.0","ECAEFE5A63CA472C8E6CABBEFAC0539D","019cf9c7-6565-7286-bae8-ec275b18291e","019cf99d-e445-78ae-88d0-91fe39b758eb","","null","
                <div class=""stimulus-container"">
                    <img src=""images/semantic_sequence/cat_care_semantic/cat_care_semantic_6.png"" class=""exp-image"">
                    <div class=""question-area""></div> 
                </div>","null","","","","","","","","","",""
"","","","","","html-button-response","133","586670","0.0-133.0","ECAEFE5A63CA472C8E6CABBEFAC0539D","019cf9c7-6565-7286-bae8-ec275b18291e","019cf99d-e445-78ae-88d0-91fe39b758eb","","1019","
                <div class=""stimulus-container"">
                    <img src=""images/semantic_sequence/cat_care_semantic/cat_care_semantic_6.png"" class=""exp-image"">
                    <div class=""question-area"">
                        <p style=""font-size: 20px; font-weight: bold; margin: 0;"">Is there a person in this image?</p>
                    </div>
                </div>","1","main_experiment_trial","6","cat_care_semantic","semantic_sequence","randomized","","","","",""
"","","","","","html-keyboard-response","134","587675","0.0-134.0","ECAEFE5A63CA472C8E6CABBEFAC0539D","019cf9c7-6565-7286-bae8-ec275b18291e","019cf99d-e445-78ae-88d0-91fe39b758eb","","null","
                <div class=""stimulus-container"">
                    <img src=""images/semantic_sequence/cat_care_semantic/cat_care_semantic_7.png"" class=""exp-image"">
                    <div class=""question-area""></div> 
                </div>","null","","","","","","","","","",""
"","","","","","html-button-response","135","588206","0.0-135.0","ECAEFE5A63CA472C8E6CABBEFAC0539D","019cf9c7-6565-7286-bae8-ec275b18291e","019cf99d-e445-78ae-88d0-91fe39b758eb","","530","
                <div class=""stimulus-container"">
                    <img src=""images/semantic_sequence/cat_care_semantic/cat_care_semantic_7.png"" class=""exp-image"">
                    <div class=""question-area"">
                        <p style=""font-size: 20px; font-weight: bold; margin: 0;"">Is there a person in this image?</p>
                    </div>
                </div>","1","main_experiment_trial","7","cat_care_semantic","semantic_sequence","randomized","","","","",""
"","","","","","html-keyboard-response","136","589214","0.0-136.0","ECAEFE5A63CA472C8E6CABBEFAC0539D","019cf9c7-6565-7286-bae8-ec275b18291e","019cf99d-e445-78ae-88d0-91fe39b758eb","","null","
                <div class=""stimulus-container"">
                    <img src=""images/semantic_sequence/cat_care_semantic/cat_care_semantic_4.png"" class=""exp-image"">
                    <div class=""question-area""></div> 
                </div>","null","","","","","","","","","",""
"","","","","","html-button-response","137","589820","0.0-137.0","ECAEFE5A63CA472C8E6CABBEFAC0539D","019cf9c7-6565-7286-bae8-ec275b18291e","019cf99d-e445-78ae-88d0-91fe39b758eb","","605","
                <div class=""stimulus-container"">
                    <img src=""images/semantic_sequence/cat_care_semantic/cat_care_semantic_4.png"" class=""exp-image"">
                    <div class=""question-area"">
                        <p style=""font-size: 20px; font-weight: bold; margin: 0;"">Is there a person in this image?</p>
                    </div>
                </div>","1","main_experiment_trial","4","cat_care_semantic","semantic_sequence","randomized","","","","",""
"","","","","","html-keyboard-response","138","590836","0.0-138.0","ECAEFE5A63CA472C8E6CABBEFAC0539D","019cf9c7-6565-7286-bae8-ec275b18291e","019cf99d-e445-78ae-88d0-91fe39b758eb","","null","
                <div class=""stimulus-container"">
                    <img src=""images/semantic_sequence/cat_care_semantic/cat_care_semantic_9.png"" class=""exp-image"">
                    <div class=""question-area""></div> 
                </div>","null","","","","","","","","","",""
"","","","","","html-button-response","139","591567","0.0-139.0","ECAEFE5A63CA472C8E6CABBEFAC0539D","019cf9c7-6565-7286-bae8-ec275b18291e","019cf99d-e445-78ae-88d0-91fe39b758eb","","729","
                <div class=""stimulus-container"">
                    <img src=""images/semantic_sequence/cat_care_semantic/cat_care_semantic_9.png"" class=""exp-image"">
                    <div class=""question-area"">
                        <p style=""font-size: 20px; font-weight: bold; margin: 0;"">Is there a person in this image?</p>
                    </div>
                </div>","1","main_experiment_trial","9","cat_care_semantic","semantic_sequence","randomized","","","","",""
"","","","","","html-keyboard-response","140","592577","0.0-140.0","ECAEFE5A63CA472C8E6CABBEFAC0539D","019cf9c7-6565-7286-bae8-ec275b18291e","019cf99d-e445-78ae-88d0-91fe39b758eb","","null","
                <div class=""stimulus-container"">
                    <img src=""images/semantic_sequence/cat_care_semantic/cat_care_semantic_2.png"" class=""exp-image"">
                    <div class=""question-area""></div> 
                </div>","null","","","","","","","","","",""
"","","","","","html-button-response","141","593289","0.0-141.0","ECAEFE5A63CA472C8E6CABBEFAC0539D","019cf9c7-6565-7286-bae8-ec275b18291e","019cf99d-e445-78ae-88d0-91fe39b758eb","","711","
                <div class=""stimulus-container"">
                    <img src=""images/semantic_sequence/cat_care_semantic/cat_care_semantic_2.png"" class=""exp-image"">
                    <div class=""question-area"">
                        <p style=""font-size: 20px; font-weight: bold; margin: 0;"">Is there a person in this image?</p>
                    </div>
                </div>","1","main_experiment_trial","2","cat_care_semantic","semantic_sequence","randomized","","","","",""
"","","","","","html-keyboard-response","142","598302","0.0-142.0","ECAEFE5A63CA472C8E6CABBEFAC0539D","019cf9c7-6565-7286-bae8-ec275b18291e","019cf99d-e445-78ae-88d0-91fe39b758eb","","null","<div style=""background-color: white; width: 100vw; height: 100vh;""></div>","null","","","","","","","","","",""
"","","","","","html-keyboard-response","143","599305","0.0-143.0","ECAEFE5A63CA472C8E6CABBEFAC0539D","019cf9c7-6565-7286-bae8-ec275b18291e","019cf99d-e445-78ae-88d0-91fe39b758eb","","null","
                <div class=""stimulus-container"">
                    <img src=""images/semantic_sequence/creative_activities_semantic/creative_activities_semantic_7.png"" class=""exp-image"">
                    <div class=""question-area""></div> 
                </div>","null","","","","","","","","","",""
"","","","","","html-button-response","144","600477","0.0-144.0","ECAEFE5A63CA472C8E6CABBEFAC0539D","019cf9c7-6565-7286-bae8-ec275b18291e","019cf99d-e445-78ae-88d0-91fe39b758eb","","1171","
                <div class=""stimulus-container"">
                    <img src=""images/semantic_sequence/creative_activities_semantic/creative_activities_semantic_7.png"" class=""exp-image"">
                    <div class=""question-area"">
                        <p style=""font-size: 20px; font-weight: bold; margin: 0;"">Is there a person in this image?</p>
                    </div>
                </div>","0","main_experiment_trial","7","creative_activities_semantic","semantic_sequence","randomized","","","","",""
"","","","","","html-keyboard-response","145","601489","0.0-145.0","ECAEFE5A63CA472C8E6CABBEFAC0539D","019cf9c7-6565-7286-bae8-ec275b18291e","019cf99d-e445-78ae-88d0-91fe39b758eb","","null","
                <div class=""stimulus-container"">
                    <img src=""images/semantic_sequence/creative_activities_semantic/creative_activities_semantic_5.png"" class=""exp-image"">
                    <div class=""question-area""></div> 
                </div>","null","","","","","","","","","",""
"","","","","","html-button-response","146","602451","0.0-146.0","ECAEFE5A63CA472C8E6CABBEFAC0539D","019cf9c7-6565-7286-bae8-ec275b18291e","019cf99d-e445-78ae-88d0-91fe39b758eb","","961","
                <div class=""stimulus-container"">
                    <img src=""images/semantic_sequence/creative_activities_semantic/creative_activities_semantic_5.png"" class=""exp-image"">
                    <div class=""question-area"">
                        <p style=""font-size: 20px; font-weight: bold; margin: 0;"">Is there a person in this image?</p>
                    </div>
                </div>","0","main_experiment_trial","5","creative_activities_semantic","semantic_sequence","randomized","","","","",""
"","","","","","html-keyboard-response","147","603455","0.0-147.0","ECAEFE5A63CA472C8E6CABBEFAC0539D","019cf9c7-6565-7286-bae8-ec275b18291e","019cf99d-e445-78ae-88d0-91fe39b758eb","","null","
                <div class=""stimulus-container"">
                    <img src=""images/semantic_sequence/creative_activities_semantic/creative_activities_semantic_6.png"" class=""exp-image"">
                    <div class=""question-area""></div> 
                </div>","null","","","","","","","","","",""
"","","","","","html-button-response","148","604221","0.0-148.0","ECAEFE5A63CA472C8E6CABBEFAC0539D","019cf9c7-6565-7286-bae8-ec275b18291e","019cf99d-e445-78ae-88d0-91fe39b758eb","","765","
                <div class=""stimulus-container"">
                    <img src=""images/semantic_sequence/creative_activities_semantic/creative_activities_semantic_6.png"" class=""exp-image"">
                    <div class=""question-area"">
                        <p style=""font-size: 20px; font-weight: bold; margin: 0;"">Is there a person in this image?</p>
                    </div>
                </div>","0","main_experiment_trial","6","creative_activities_semantic","semantic_sequence","randomized","","","","",""
"","","","","","html-keyboard-response","149","605228","0.0-149.0","ECAEFE5A63CA472C8E6CABBEFAC0539D","019cf9c7-6565-7286-bae8-ec275b18291e","019cf99d-e445-78ae-88d0-91fe39b758eb","","null","
                <div class=""stimulus-container"">
                    <img src=""images/semantic_sequence/creative_activities_semantic/creative_activities_semantic_3.png"" class=""exp-image"">
                    <div class=""question-area""></div> 
                </div>","null","","","","","","","","","",""
"","","","","","html-button-response","150","606931","0.0-150.0","ECAEFE5A63CA472C8E6CABBEFAC0539D","019cf9c7-6565-7286-bae8-ec275b18291e","019cf99d-e445-78ae-88d0-91fe39b758eb","","1701","
                <div class=""stimulus-container"">
                    <img src=""images/semantic_sequence/creative_activities_semantic/creative_activities_semantic_3.png"" class=""exp-image"">
                    <div class=""question-area"">
                        <p style=""font-size: 20px; font-weight: bold; margin: 0;"">Is there a person in this image?</p>
                    </div>
                </div>","0","main_experiment_trial","3","creative_activities_semantic","semantic_sequence","randomized","","","","",""
"","","","","","html-keyboard-response","151","607942","0.0-151.0","ECAEFE5A63CA472C8E6CABBEFAC0539D","019cf9c7-6565-7286-bae8-ec275b18291e","019cf99d-e445-78ae-88d0-91fe39b758eb","","null","
                <div class=""stimulus-container"">
                    <img src=""images/semantic_sequence/creative_activities_semantic/creative_activities_semantic_ten.png"" class=""exp-image"">
                    <div class=""question-area""></div> 
                </div>","null","","","","","","","","","",""
"","","","","","html-button-response","152","608388","0.0-152.0","ECAEFE5A63CA472C8E6CABBEFAC0539D","019cf9c7-6565-7286-bae8-ec275b18291e","019cf99d-e445-78ae-88d0-91fe39b758eb","","441","
                <div class=""stimulus-container"">
                    <img src=""images/semantic_sequence/creative_activities_semantic/creative_activities_semantic_ten.png"" class=""exp-image"">
                    <div class=""question-area"">
                        <p style=""font-size: 20px; font-weight: bold; margin: 0;"">Is there a person in this image?</p>
                    </div>
                </div>","0","main_experiment_trial","ten","creative_activities_semantic","semantic_sequence","randomized","","","","",""
"","","","","","html-keyboard-response","153","609398","0.0-153.0","ECAEFE5A63CA472C8E6CABBEFAC0539D","019cf9c7-6565-7286-bae8-ec275b18291e","019cf99d-e445-78ae-88d0-91fe39b758eb","","null","
                <div class=""stimulus-container"">
                    <img src=""images/semantic_sequence/creative_activities_semantic/creative_activities_semantic_2.png"" class=""exp-image"">
                    <div class=""question-area""></div> 
                </div>","null","","","","","","","","","",""
"","","","","","html-button-response","154","609788","0.0-154.0","ECAEFE5A63CA472C8E6CABBEFAC0539D","019cf9c7-6565-7286-bae8-ec275b18291e","019cf99d-e445-78ae-88d0-91fe39b758eb","","388","
                <div class=""stimulus-container"">
                    <img src=""images/semantic_sequence/creative_activities_semantic/creative_activities_semantic_2.png"" class=""exp-image"">
                    <div class=""question-area"">
                        <p style=""font-size: 20px; font-weight: bold; margin: 0;"">Is there a person in this image?</p>
                    </div>
                </div>","0","main_experiment_trial","2","creative_activities_semantic","semantic_sequence","randomized","","","","",""
"","","","","","html-keyboard-response","155","610801","0.0-155.0","ECAEFE5A63CA472C8E6CABBEFAC0539D","019cf9c7-6565-7286-bae8-ec275b18291e","019cf99d-e445-78ae-88d0-91fe39b758eb","","null","
                <div class=""stimulus-container"">
                    <img src=""images/semantic_sequence/creative_activities_semantic/creative_activities_semantic_1.png"" class=""exp-image"">
                    <div class=""question-area""></div> 
                </div>","null","","","","","","","","","",""
"","","","","","html-button-response","156","611194","0.0-156.0","ECAEFE5A63CA472C8E6CABBEFAC0539D","019cf9c7-6565-7286-bae8-ec275b18291e","019cf99d-e445-78ae-88d0-91fe39b758eb","","392","
                <div class=""stimulus-container"">
                    <img src=""images/semantic_sequence/creative_activities_semantic/creative_activities_semantic_1.png"" class=""exp-image"">
                    <div class=""question-area"">
                        <p style=""font-size: 20px; font-weight: bold; margin: 0;"">Is there a person in this image?</p>
                    </div>
                </div>","0","main_experiment_trial","1","creative_activities_semantic","semantic_sequence","randomized","","","","",""
"","","","","","html-keyboard-response","157","612200","0.0-157.0","ECAEFE5A63CA472C8E6CABBEFAC0539D","019cf9c7-6565-7286-bae8-ec275b18291e","019cf99d-e445-78ae-88d0-91fe39b758eb","","null","
                <div class=""stimulus-container"">
                    <img src=""images/semantic_sequence/creative_activities_semantic/creative_activities_semantic_9.png"" class=""exp-image"">
                    <div class=""question-area""></div> 
                </div>","null","","","","","","","","","",""
"","","","","","html-button-response","158","612758","0.0-158.0","ECAEFE5A63CA472C8E6CABBEFAC0539D","019cf9c7-6565-7286-bae8-ec275b18291e","019cf99d-e445-78ae-88d0-91fe39b758eb","","556","
                <div class=""stimulus-container"">
                    <img src=""images/semantic_sequence/creative_activities_semantic/creative_activities_semantic_9.png"" class=""exp-image"">
                    <div class=""question-area"">
                        <p style=""font-size: 20px; font-weight: bold; margin: 0;"">Is there a person in this image?</p>
                    </div>
                </div>","1","main_experiment_trial","9","creative_activities_semantic","semantic_sequence","randomized","","","","",""
"","","","","","html-keyboard-response","159","613762","0.0-159.0","ECAEFE5A63CA472C8E6CABBEFAC0539D","019cf9c7-6565-7286-bae8-ec275b18291e","019cf99d-e445-78ae-88d0-91fe39b758eb","","null","
                <div class=""stimulus-container"">
                    <img src=""images/semantic_sequence/creative_activities_semantic/creative_activities_semantic_4.png"" class=""exp-image"">
                    <div class=""question-area""></div> 
                </div>","null","","","","","","","","","",""
"","","","","","html-button-response","160","614226","0.0-160.0","ECAEFE5A63CA472C8E6CABBEFAC0539D","019cf9c7-6565-7286-bae8-ec275b18291e","019cf99d-e445-78ae-88d0-91fe39b758eb","","463","
                <div class=""stimulus-container"">
                    <img src=""images/semantic_sequence/creative_activities_semantic/creative_activities_semantic_4.png"" class=""exp-image"">
                    <div class=""question-area"">
                        <p style=""font-size: 20px; font-weight: bold; margin: 0;"">Is there a person in this image?</p>
                    </div>
                </div>","0","main_experiment_trial","4","creative_activities_semantic","semantic_sequence","randomized","","","","",""
"","","","","","html-keyboard-response","161","615227","0.0-161.0","ECAEFE5A63CA472C8E6CABBEFAC0539D","019cf9c7-6565-7286-bae8-ec275b18291e","019cf99d-e445-78ae-88d0-91fe39b758eb","","null","
                <div class=""stimulus-container"">
                    <img src=""images/semantic_sequence/creative_activities_semantic/creative_activities_semantic_8.png"" class=""exp-image"">
                    <div class=""question-area""></div> 
                </div>","null","","","","","","","","","",""
"","","","","","html-button-response","162","616270","0.0-162.0","ECAEFE5A63CA472C8E6CABBEFAC0539D","019cf9c7-6565-7286-bae8-ec275b18291e","019cf99d-e445-78ae-88d0-91fe39b758eb","","1042","
                <div class=""stimulus-container"">
                    <img src=""images/semantic_sequence/creative_activities_semantic/creative_activities_semantic_8.png"" class=""exp-image"">
                    <div class=""question-area"">
                        <p style=""font-size: 20px; font-weight: bold; margin: 0;"">Is there a person in this image?</p>
                    </div>
                </div>","0","main_experiment_trial","8","creative_activities_semantic","semantic_sequence","randomized","","","","",""
"","","","","","html-keyboard-response","163","621285","0.0-163.0","ECAEFE5A63CA472C8E6CABBEFAC0539D","019cf9c7-6565-7286-bae8-ec275b18291e","019cf99d-e445-78ae-88d0-91fe39b758eb","","null","<div style=""background-color: white; width: 100vw; height: 100vh;""></div>","null","","","","","","","","","",""
"","","","","","html-keyboard-response","164","622289","0.0-164.0","ECAEFE5A63CA472C8E6CABBEFAC0539D","019cf9c7-6565-7286-bae8-ec275b18291e","019cf99d-e445-78ae-88d0-91fe39b758eb","","null","
                <div class=""stimulus-container"">
                    <img src=""images/causal_sequence/coin_causal/coin_causal_4.png"" class=""exp-image"">
                    <div class=""question-area""></div> 
                </div>","null","","","","","","","","","",""
"","","","","","html-button-response","165","623560","0.0-165.0","ECAEFE5A63CA472C8E6CABBEFAC0539D","019cf9c7-6565-7286-bae8-ec275b18291e","019cf99d-e445-78ae-88d0-91fe39b758eb","","1269","
                <div class=""stimulus-container"">
                    <img src=""images/causal_sequence/coin_causal/coin_causal_4.png"" class=""exp-image"">
                    <div class=""question-area"">
                        <p style=""font-size: 20px; font-weight: bold; margin: 0;"">Is there a person in this image?</p>
                    </div>
                </div>","0","main_experiment_trial","4","coin_causal","causal_sequence","randomized","","","","",""
"","","","","","html-keyboard-response","166","624565","0.0-166.0","ECAEFE5A63CA472C8E6CABBEFAC0539D","019cf9c7-6565-7286-bae8-ec275b18291e","019cf99d-e445-78ae-88d0-91fe39b758eb","","null","
                <div class=""stimulus-container"">
                    <img src=""images/causal_sequence/coin_causal/coin_causal_9.png"" class=""exp-image"">
                    <div class=""question-area""></div> 
                </div>","null","","","","","","","","","",""
"","","","","","html-button-response","167","625148","0.0-167.0","ECAEFE5A63CA472C8E6CABBEFAC0539D","019cf9c7-6565-7286-bae8-ec275b18291e","019cf99d-e445-78ae-88d0-91fe39b758eb","","582","
                <div class=""stimulus-container"">
                    <img src=""images/causal_sequence/coin_causal/coin_causal_9.png"" class=""exp-image"">
                    <div class=""question-area"">
                        <p style=""font-size: 20px; font-weight: bold; margin: 0;"">Is there a person in this image?</p>
                    </div>
                </div>","0","main_experiment_trial","9","coin_causal","causal_sequence","randomized","","","","",""
"","","","","","html-keyboard-response","168","626149","0.0-168.0","ECAEFE5A63CA472C8E6CABBEFAC0539D","019cf9c7-6565-7286-bae8-ec275b18291e","019cf99d-e445-78ae-88d0-91fe39b758eb","","null","
                <div class=""stimulus-container"">
                    <img src=""images/causal_sequence/coin_causal/coin_causal_ten.png"" class=""exp-image"">
                    <div class=""question-area""></div> 
                </div>","null","","","","","","","","","",""
"","","","","","html-button-response","169","626566","0.0-169.0","ECAEFE5A63CA472C8E6CABBEFAC0539D","019cf9c7-6565-7286-bae8-ec275b18291e","019cf99d-e445-78ae-88d0-91fe39b758eb","","415","
                <div class=""stimulus-container"">
                    <img src=""images/causal_sequence/coin_causal/coin_causal_ten.png"" class=""exp-image"">
                    <div class=""question-area"">
                        <p style=""font-size: 20px; font-weight: bold; margin: 0;"">Is there a person in this image?</p>
                    </div>
                </div>","0","main_experiment_trial","ten","coin_causal","causal_sequence","randomized","","","","",""
"","","","","","html-keyboard-response","170","627580","0.0-170.0","ECAEFE5A63CA472C8E6CABBEFAC0539D","019cf9c7-6565-7286-bae8-ec275b18291e","019cf99d-e445-78ae-88d0-91fe39b758eb","","null","
                <div class=""stimulus-container"">
                    <img src=""images/causal_sequence/coin_causal/coin_causal_5.png"" class=""exp-image"">
                    <div class=""question-area""></div> 
                </div>","null","","","","","","","","","",""
"","","","","","html-button-response","171","627980","0.0-171.0","ECAEFE5A63CA472C8E6CABBEFAC0539D","019cf9c7-6565-7286-bae8-ec275b18291e","019cf99d-e445-78ae-88d0-91fe39b758eb","","398","
                <div class=""stimulus-container"">
                    <img src=""images/causal_sequence/coin_causal/coin_causal_5.png"" class=""exp-image"">
                    <div class=""question-area"">
                        <p style=""font-size: 20px; font-weight: bold; margin: 0;"">Is there a person in this image?</p>
                    </div>
                </div>","0","main_experiment_trial","5","coin_causal","causal_sequence","randomized","","","","",""
"","","","","","html-keyboard-response","172","628983","0.0-172.0","ECAEFE5A63CA472C8E6CABBEFAC0539D","019cf9c7-6565-7286-bae8-ec275b18291e","019cf99d-e445-78ae-88d0-91fe39b758eb","","null","
                <div class=""stimulus-container"">
                    <img src=""images/causal_sequence/coin_causal/coin_causal_1.png"" class=""exp-image"">
                    <div class=""question-area""></div> 
                </div>","null","","","","","","","","","",""
"","","","","","html-button-response","173","629457","0.0-173.0","ECAEFE5A63CA472C8E6CABBEFAC0539D","019cf9c7-6565-7286-bae8-ec275b18291e","019cf99d-e445-78ae-88d0-91fe39b758eb","","474","
                <div class=""stimulus-container"">
                    <img src=""images/causal_sequence/coin_causal/coin_causal_1.png"" class=""exp-image"">
                    <div class=""question-area"">
                        <p style=""font-size: 20px; font-weight: bold; margin: 0;"">Is there a person in this image?</p>
                    </div>
                </div>","0","main_experiment_trial","1","coin_causal","causal_sequence","randomized","","","","",""
"","","","","","html-keyboard-response","174","630459","0.0-174.0","ECAEFE5A63CA472C8E6CABBEFAC0539D","019cf9c7-6565-7286-bae8-ec275b18291e","019cf99d-e445-78ae-88d0-91fe39b758eb","","null","
                <div class=""stimulus-container"">
                    <img src=""images/causal_sequence/coin_causal/coin_causal_6.png"" class=""exp-image"">
                    <div class=""question-area""></div> 
                </div>","null","","","","","","","","","",""
"","","","","","html-button-response","175","632640","0.0-175.0","ECAEFE5A63CA472C8E6CABBEFAC0539D","019cf9c7-6565-7286-bae8-ec275b18291e","019cf99d-e445-78ae-88d0-91fe39b758eb","","2179","
                <div class=""stimulus-container"">
                    <img src=""images/causal_sequence/coin_causal/coin_causal_6.png"" class=""exp-image"">
                    <div class=""question-area"">
                        <p style=""font-size: 20px; font-weight: bold; margin: 0;"">Is there a person in this image?</p>
                    </div>
                </div>","0","main_experiment_trial","6","coin_causal","causal_sequence","randomized","","","","",""
"","","","","","html-keyboard-response","176","633653","0.0-176.0","ECAEFE5A63CA472C8E6CABBEFAC0539D","019cf9c7-6565-7286-bae8-ec275b18291e","019cf99d-e445-78ae-88d0-91fe39b758eb","","null","
                <div class=""stimulus-container"">
                    <img src=""images/causal_sequence/coin_causal/coin_causal_7.png"" class=""exp-image"">
                    <div class=""question-area""></div> 
                </div>","null","","","","","","","","","",""
"","","","","","html-button-response","177","634110","0.0-177.0","ECAEFE5A63CA472C8E6CABBEFAC0539D","019cf9c7-6565-7286-bae8-ec275b18291e","019cf99d-e445-78ae-88d0-91fe39b758eb","","456","
                <div class=""stimulus-container"">
                    <img src=""images/causal_sequence/coin_causal/coin_causal_7.png"" class=""exp-image"">
                    <div class=""question-area"">
                        <p style=""font-size: 20px; font-weight: bold; margin: 0;"">Is there a person in this image?</p>
                    </div>
                </div>","0","main_experiment_trial","7","coin_causal","causal_sequence","randomized","","","","",""
"","","","","","html-keyboard-response","178","635118","0.0-178.0","ECAEFE5A63CA472C8E6CABBEFAC0539D","019cf9c7-6565-7286-bae8-ec275b18291e","019cf99d-e445-78ae-88d0-91fe39b758eb","","null","
                <div class=""stimulus-container"">
                    <img src=""images/causal_sequence/coin_causal/coin_causal_2.png"" class=""exp-image"">
                    <div class=""question-area""></div> 
