"success","timeout","failed_images","failed_audio","failed_video","trial_type","trial_index","time_elapsed","internal_node_id","subject_id","study_id","session_id","view_history","rt","stimulus","response","task","image_index","folder","sequence_type","valuable_image_index","reward_type","chosen_image_index","correct_choice"
"true","false","[]","[]","[]","preload","0","19539","0.0-0.0","FCC8D9FC3CAD44BC9AA129B5A96241D4","019cef9c-05cb-7484-9e5a-a70a7c7c4415","019cef87-c56d-7b55-9135-c5814367ec25","","","","","","","","","","","",""
"","","","","","instructions","1","23695","0.0-1.0","FCC8D9FC3CAD44BC9AA129B5A96241D4","019cef9c-05cb-7484-9e5a-a70a7c7c4415","019cef87-c56d-7b55-9135-c5814367ec25","[{""page_index"":0,""viewing_time"":4154}]","4154","","","","","","","","","",""
"","","","","","instructions","2","60171","0.0-2.0","FCC8D9FC3CAD44BC9AA129B5A96241D4","019cef9c-05cb-7484-9e5a-a70a7c7c4415","019cef87-c56d-7b55-9135-c5814367ec25","[{""page_index"":0,""viewing_time"":36473}]","36475","","","","","","","","","",""
"true","","","","","fullscreen","3","182412","0.0-3.0","FCC8D9FC3CAD44BC9AA129B5A96241D4","019cef9c-05cb-7484-9e5a-a70a7c7c4415","019cef87-c56d-7b55-9135-c5814367ec25","","121230","","","","","","","","","",""
"","","","","","instructions","4","184753","0.0-4.0","FCC8D9FC3CAD44BC9AA129B5A96241D4","019cef9c-05cb-7484-9e5a-a70a7c7c4415","019cef87-c56d-7b55-9135-c5814367ec25","[{""page_index"":0,""viewing_time"":2339}]","2339","","","","","","","","","",""
"","","","","","instructions","5","188247","0.0-5.0","FCC8D9FC3CAD44BC9AA129B5A96241D4","019cef9c-05cb-7484-9e5a-a70a7c7c4415","019cef87-c56d-7b55-9135-c5814367ec25","[{""page_index"":0,""viewing_time"":3493}]","3493","","","","","","","","","",""
"","","","","","html-keyboard-response","6","192250","0.0-6.0","FCC8D9FC3CAD44BC9AA129B5A96241D4","019cef9c-05cb-7484-9e5a-a70a7c7c4415","019cef87-c56d-7b55-9135-c5814367ec25","","null","
                <div class=""stimulus-container"">
                    <img src=""images/instructions/movie_1.png"" class=""exp-image"">
                    <div class=""question-area""></div> 
                </div>","null","","","","","","","",""
"","","","","","html-button-response","7","195253","0.0-7.0","FCC8D9FC3CAD44BC9AA129B5A96241D4","019cef9c-05cb-7484-9e5a-a70a7c7c4415","019cef87-c56d-7b55-9135-c5814367ec25","","null","
                <div class=""stimulus-container"">
                    <img src=""images/instructions/movie_1.png"" class=""exp-image"">
                    <div class=""question-area"">
                        <p style=""font-size: 20px; font-weight: bold; margin: 0;"">Was there a person in this image?</p>
                    </div>
                </div>","null","example_question","1","","","","","",""
"","","","","","html-keyboard-response","8","199254","0.0-8.0","FCC8D9FC3CAD44BC9AA129B5A96241D4","019cef9c-05cb-7484-9e5a-a70a7c7c4415","019cef87-c56d-7b55-9135-c5814367ec25","","null","
                <div class=""stimulus-container"">
                    <img src=""images/instructions/movie_2.png"" class=""exp-image"">
                    <div class=""question-area""></div> 
                </div>","null","","","","","","","",""
"","","","","","html-button-response","9","200414","0.0-9.0","FCC8D9FC3CAD44BC9AA129B5A96241D4","019cef9c-05cb-7484-9e5a-a70a7c7c4415","019cef87-c56d-7b55-9135-c5814367ec25","","1158","
                <div class=""stimulus-container"">
                    <img src=""images/instructions/movie_2.png"" class=""exp-image"">
                    <div class=""question-area"">
                        <p style=""font-size: 20px; font-weight: bold; margin: 0;"">Was there a person in this image?</p>
                    </div>
                </div>","1","example_question","2","","","","","",""
"","","","","","html-keyboard-response","10","204416","0.0-10.0","FCC8D9FC3CAD44BC9AA129B5A96241D4","019cef9c-05cb-7484-9e5a-a70a7c7c4415","019cef87-c56d-7b55-9135-c5814367ec25","","null","
                <div class=""stimulus-container"">
                    <img src=""images/instructions/movie_3.png"" class=""exp-image"">
                    <div class=""question-area""></div> 
                </div>","null","","","","","","","",""
"","","","","","html-button-response","11","205242","0.0-11.0","FCC8D9FC3CAD44BC9AA129B5A96241D4","019cef9c-05cb-7484-9e5a-a70a7c7c4415","019cef87-c56d-7b55-9135-c5814367ec25","","824","
                <div class=""stimulus-container"">
                    <img src=""images/instructions/movie_3.png"" class=""exp-image"">
                    <div class=""question-area"">
                        <p style=""font-size: 20px; font-weight: bold; margin: 0;"">Was there a person in this image?</p>
                    </div>
                </div>","0","example_question","3","","","","","",""
"","","","","","html-keyboard-response","12","209244","0.0-12.0","FCC8D9FC3CAD44BC9AA129B5A96241D4","019cef9c-05cb-7484-9e5a-a70a7c7c4415","019cef87-c56d-7b55-9135-c5814367ec25","","null","
                <div class=""stimulus-container"">
                    <img src=""images/instructions/movie_4.png"" class=""exp-image"">
                    <div class=""question-area""></div> 
                </div>","null","","","","","","","",""
"","","","","","html-button-response","13","210268","0.0-13.0","FCC8D9FC3CAD44BC9AA129B5A96241D4","019cef9c-05cb-7484-9e5a-a70a7c7c4415","019cef87-c56d-7b55-9135-c5814367ec25","","1022","
                <div class=""stimulus-container"">
                    <img src=""images/instructions/movie_4.png"" class=""exp-image"">
                    <div class=""question-area"">
                        <p style=""font-size: 20px; font-weight: bold; margin: 0;"">Was there a person in this image?</p>
                    </div>
                </div>","0","example_question","4","","","","","",""
"","","","","","instructions","14","212195","0.0-14.0","FCC8D9FC3CAD44BC9AA129B5A96241D4","019cef9c-05cb-7484-9e5a-a70a7c7c4415","019cef87-c56d-7b55-9135-c5814367ec25","[{""page_index"":0,""viewing_time"":1927}]","1927","","","","","","","","","",""
"","","","","","instructions","15","222724","0.0-15.0","FCC8D9FC3CAD44BC9AA129B5A96241D4","019cef9c-05cb-7484-9e5a-a70a7c7c4415","019cef87-c56d-7b55-9135-c5814367ec25","[{""page_index"":0,""viewing_time"":10527}]","10527","","","","","","","","","",""
"","","","","","html-keyboard-response","16","223727","0.0-16.0","FCC8D9FC3CAD44BC9AA129B5A96241D4","019cef9c-05cb-7484-9e5a-a70a7c7c4415","019cef87-c56d-7b55-9135-c5814367ec25","","null","<div style=""background-color: white; width: 100vw; height: 100vh;""></div>","null","","","","","","","",""
"","","","","","html-keyboard-response","17","228729","0.0-17.0","FCC8D9FC3CAD44BC9AA129B5A96241D4","019cef9c-05cb-7484-9e5a-a70a7c7c4415","019cef87-c56d-7b55-9135-c5814367ec25","","null","
                <div class=""stimulus-container"">
                    <img src=""images/schematic_sequence/dinner_party_scheme/dinner_party_scheme_1.png"" class=""exp-image"">
                    <div class=""question-area""></div> 
                </div>","null","","","","","","","",""
"","","","","","html-button-response","18","229822","0.0-18.0","FCC8D9FC3CAD44BC9AA129B5A96241D4","019cef9c-05cb-7484-9e5a-a70a7c7c4415","019cef87-c56d-7b55-9135-c5814367ec25","","1091","
                <div class=""stimulus-container"">
                    <img src=""images/schematic_sequence/dinner_party_scheme/dinner_party_scheme_1.png"" class=""exp-image"">
                    <div class=""question-area"">
                        <p style=""font-size: 20px; font-weight: bold; margin: 0;"">Is there a person in this image?</p>
                    </div>
                </div>","0","main_experiment_trial","1","dinner_party_scheme","schematic_sequence","","","",""
"","","","","","html-keyboard-response","19","234825","0.0-19.0","FCC8D9FC3CAD44BC9AA129B5A96241D4","019cef9c-05cb-7484-9e5a-a70a7c7c4415","019cef87-c56d-7b55-9135-c5814367ec25","","null","
                <div class=""stimulus-container"">
                    <img src=""images/schematic_sequence/dinner_party_scheme/dinner_party_scheme_2.png"" class=""exp-image"">
                    <div class=""question-area""></div> 
                </div>","null","","","","","","","",""
"","","","","","html-button-response","20","235671","0.0-20.0","FCC8D9FC3CAD44BC9AA129B5A96241D4","019cef9c-05cb-7484-9e5a-a70a7c7c4415","019cef87-c56d-7b55-9135-c5814367ec25","","844","
                <div class=""stimulus-container"">
                    <img src=""images/schematic_sequence/dinner_party_scheme/dinner_party_scheme_2.png"" class=""exp-image"">
                    <div class=""question-area"">
                        <p style=""font-size: 20px; font-weight: bold; margin: 0;"">Is there a person in this image?</p>
                    </div>
                </div>","0","main_experiment_trial","2","dinner_party_scheme","schematic_sequence","","","",""
"","","","","","html-keyboard-response","21","240673","0.0-21.0","FCC8D9FC3CAD44BC9AA129B5A96241D4","019cef9c-05cb-7484-9e5a-a70a7c7c4415","019cef87-c56d-7b55-9135-c5814367ec25","","null","
                <div class=""stimulus-container"">
                    <img src=""images/schematic_sequence/dinner_party_scheme/dinner_party_scheme_3.png"" class=""exp-image"">
                    <div class=""question-area""></div> 
                </div>","null","","","","","","","",""
"","","","","","html-button-response","22","242011","0.0-22.0","FCC8D9FC3CAD44BC9AA129B5A96241D4","019cef9c-05cb-7484-9e5a-a70a7c7c4415","019cef87-c56d-7b55-9135-c5814367ec25","","1336","
                <div class=""stimulus-container"">
                    <img src=""images/schematic_sequence/dinner_party_scheme/dinner_party_scheme_3.png"" class=""exp-image"">
                    <div class=""question-area"">
                        <p style=""font-size: 20px; font-weight: bold; margin: 0;"">Is there a person in this image?</p>
                    </div>
                </div>","0","main_experiment_trial","3","dinner_party_scheme","schematic_sequence","","","",""
"","","","","","html-keyboard-response","23","247013","0.0-23.0","FCC8D9FC3CAD44BC9AA129B5A96241D4","019cef9c-05cb-7484-9e5a-a70a7c7c4415","019cef87-c56d-7b55-9135-c5814367ec25","","null","
                <div class=""stimulus-container"">
                    <img src=""images/schematic_sequence/dinner_party_scheme/dinner_party_scheme_4.png"" class=""exp-image"">
                    <div class=""question-area""></div> 
                </div>","null","","","","","","","",""
"","","","","","html-button-response","24","247929","0.0-24.0","FCC8D9FC3CAD44BC9AA129B5A96241D4","019cef9c-05cb-7484-9e5a-a70a7c7c4415","019cef87-c56d-7b55-9135-c5814367ec25","","915","
                <div class=""stimulus-container"">
                    <img src=""images/schematic_sequence/dinner_party_scheme/dinner_party_scheme_4.png"" class=""exp-image"">
                    <div class=""question-area"">
                        <p style=""font-size: 20px; font-weight: bold; margin: 0;"">Is there a person in this image?</p>
                    </div>
                </div>","0","main_experiment_trial","4","dinner_party_scheme","schematic_sequence","","","",""
"","","","","","html-keyboard-response","25","252931","0.0-25.0","FCC8D9FC3CAD44BC9AA129B5A96241D4","019cef9c-05cb-7484-9e5a-a70a7c7c4415","019cef87-c56d-7b55-9135-c5814367ec25","","null","
                <div class=""stimulus-container"">
                    <img src=""images/schematic_sequence/dinner_party_scheme/dinner_party_scheme_5.png"" class=""exp-image"">
                    <div class=""question-area""></div> 
                </div>","null","","","","","","","",""
"","","","","","html-button-response","26","253709","0.0-26.0","FCC8D9FC3CAD44BC9AA129B5A96241D4","019cef9c-05cb-7484-9e5a-a70a7c7c4415","019cef87-c56d-7b55-9135-c5814367ec25","","777","
                <div class=""stimulus-container"">
                    <img src=""images/schematic_sequence/dinner_party_scheme/dinner_party_scheme_5.png"" class=""exp-image"">
                    <div class=""question-area"">
                        <p style=""font-size: 20px; font-weight: bold; margin: 0;"">Is there a person in this image?</p>
                    </div>
                </div>","0","main_experiment_trial","5","dinner_party_scheme","schematic_sequence","","","",""
"","","","","","html-keyboard-response","27","258712","0.0-27.0","FCC8D9FC3CAD44BC9AA129B5A96241D4","019cef9c-05cb-7484-9e5a-a70a7c7c4415","019cef87-c56d-7b55-9135-c5814367ec25","","null","
                <div class=""stimulus-container"">
                    <img src=""images/schematic_sequence/dinner_party_scheme/dinner_party_scheme_6.png"" class=""exp-image"">
                    <div class=""question-area""></div> 
                </div>","null","","","","","","","",""
"","","","","","html-button-response","28","259821","0.0-28.0","FCC8D9FC3CAD44BC9AA129B5A96241D4","019cef9c-05cb-7484-9e5a-a70a7c7c4415","019cef87-c56d-7b55-9135-c5814367ec25","","1108","
                <div class=""stimulus-container"">
                    <img src=""images/schematic_sequence/dinner_party_scheme/dinner_party_scheme_6.png"" class=""exp-image"">
                    <div class=""question-area"">
                        <p style=""font-size: 20px; font-weight: bold; margin: 0;"">Is there a person in this image?</p>
                    </div>
                </div>","0","main_experiment_trial","6","dinner_party_scheme","schematic_sequence","","","",""
"","","","","","html-keyboard-response","29","264823","0.0-29.0","FCC8D9FC3CAD44BC9AA129B5A96241D4","019cef9c-05cb-7484-9e5a-a70a7c7c4415","019cef87-c56d-7b55-9135-c5814367ec25","","null","
                <div class=""stimulus-container"">
                    <img src=""images/schematic_sequence/dinner_party_scheme/dinner_party_scheme_7.png"" class=""exp-image"">
                    <div class=""question-area""></div> 
                </div>","null","","","","","","","",""
"","","","","","html-button-response","30","265383","0.0-30.0","FCC8D9FC3CAD44BC9AA129B5A96241D4","019cef9c-05cb-7484-9e5a-a70a7c7c4415","019cef87-c56d-7b55-9135-c5814367ec25","","559","
                <div class=""stimulus-container"">
                    <img src=""images/schematic_sequence/dinner_party_scheme/dinner_party_scheme_7.png"" class=""exp-image"">
                    <div class=""question-area"">
                        <p style=""font-size: 20px; font-weight: bold; margin: 0;"">Is there a person in this image?</p>
                    </div>
                </div>","0","main_experiment_trial","7","dinner_party_scheme","schematic_sequence","","","",""
"","","","","","html-keyboard-response","31","270385","0.0-31.0","FCC8D9FC3CAD44BC9AA129B5A96241D4","019cef9c-05cb-7484-9e5a-a70a7c7c4415","019cef87-c56d-7b55-9135-c5814367ec25","","null","
                <div class=""stimulus-container"">
                    <img src=""images/schematic_sequence/dinner_party_scheme/dinner_party_scheme_8.png"" class=""exp-image"">
                    <div class=""question-area""></div> 
                </div>","null","","","","","","","",""
"","","","","","html-button-response","32","271598","0.0-32.0","FCC8D9FC3CAD44BC9AA129B5A96241D4","019cef9c-05cb-7484-9e5a-a70a7c7c4415","019cef87-c56d-7b55-9135-c5814367ec25","","1212","
                <div class=""stimulus-container"">
                    <img src=""images/schematic_sequence/dinner_party_scheme/dinner_party_scheme_8.png"" class=""exp-image"">
                    <div class=""question-area"">
                        <p style=""font-size: 20px; font-weight: bold; margin: 0;"">Is there a person in this image?</p>
                    </div>
                </div>","0","main_experiment_trial","8","dinner_party_scheme","schematic_sequence","","","",""
"","","","","","html-keyboard-response","33","276599","0.0-33.0","FCC8D9FC3CAD44BC9AA129B5A96241D4","019cef9c-05cb-7484-9e5a-a70a7c7c4415","019cef87-c56d-7b55-9135-c5814367ec25","","null","
                <div class=""stimulus-container"">
                    <img src=""images/schematic_sequence/dinner_party_scheme/dinner_party_scheme_9.png"" class=""exp-image"">
                    <div class=""question-area""></div> 
                </div>","null","","","","","","","",""
"","","","","","html-button-response","34","277214","0.0-34.0","FCC8D9FC3CAD44BC9AA129B5A96241D4","019cef9c-05cb-7484-9e5a-a70a7c7c4415","019cef87-c56d-7b55-9135-c5814367ec25","","612","
                <div class=""stimulus-container"">
                    <img src=""images/schematic_sequence/dinner_party_scheme/dinner_party_scheme_9.png"" class=""exp-image"">
                    <div class=""question-area"">
                        <p style=""font-size: 20px; font-weight: bold; margin: 0;"">Is there a person in this image?</p>
                    </div>
                </div>","0","main_experiment_trial","9","dinner_party_scheme","schematic_sequence","","","",""
"","","","","","html-keyboard-response","35","282217","0.0-35.0","FCC8D9FC3CAD44BC9AA129B5A96241D4","019cef9c-05cb-7484-9e5a-a70a7c7c4415","019cef87-c56d-7b55-9135-c5814367ec25","","null","
                <div class=""stimulus-container"">
                    <img src=""images/schematic_sequence/dinner_party_scheme/dinner_party_scheme_ten.png"" class=""exp-image"">
                    <div class=""question-area""></div> 
                </div>","null","","","","","","","",""
"","","","","","html-button-response","36","282825","0.0-36.0","FCC8D9FC3CAD44BC9AA129B5A96241D4","019cef9c-05cb-7484-9e5a-a70a7c7c4415","019cef87-c56d-7b55-9135-c5814367ec25","","607","
                <div class=""stimulus-container"">
                    <img src=""images/schematic_sequence/dinner_party_scheme/dinner_party_scheme_ten.png"" class=""exp-image"">
                    <div class=""question-area"">
                        <p style=""font-size: 20px; font-weight: bold; margin: 0;"">Is there a person in this image?</p>
                    </div>
                </div>","0","main_experiment_trial","ten","dinner_party_scheme","schematic_sequence","","","",""
"","","","","","html-keyboard-response","37","283827","0.0-37.0","FCC8D9FC3CAD44BC9AA129B5A96241D4","019cef9c-05cb-7484-9e5a-a70a7c7c4415","019cef87-c56d-7b55-9135-c5814367ec25","","null","<div style=""background-color: white; width: 100vw; height: 100vh;""></div>","null","","","","","","","",""
"","","","","","html-keyboard-response","38","288829","0.0-38.0","FCC8D9FC3CAD44BC9AA129B5A96241D4","019cef9c-05cb-7484-9e5a-a70a7c7c4415","019cef87-c56d-7b55-9135-c5814367ec25","","null","
                <div class=""stimulus-container"">
                    <img src=""images/causal_sequence/coin_causal/coin_causal_1.png"" class=""exp-image"">
                    <div class=""question-area""></div> 
                </div>","null","","","","","","","",""
"","","","","","html-button-response","39","289737","0.0-39.0","FCC8D9FC3CAD44BC9AA129B5A96241D4","019cef9c-05cb-7484-9e5a-a70a7c7c4415","019cef87-c56d-7b55-9135-c5814367ec25","","907","
                <div class=""stimulus-container"">
                    <img src=""images/causal_sequence/coin_causal/coin_causal_1.png"" class=""exp-image"">
                    <div class=""question-area"">
                        <p style=""font-size: 20px; font-weight: bold; margin: 0;"">Is there a person in this image?</p>
                    </div>
                </div>","0","main_experiment_trial","1","coin_causal","causal_sequence","","","",""
"","","","","","html-keyboard-response","40","294739","0.0-40.0","FCC8D9FC3CAD44BC9AA129B5A96241D4","019cef9c-05cb-7484-9e5a-a70a7c7c4415","019cef87-c56d-7b55-9135-c5814367ec25","","null","
                <div class=""stimulus-container"">
                    <img src=""images/causal_sequence/coin_causal/coin_causal_2.png"" class=""exp-image"">
                    <div class=""question-area""></div> 
                </div>","null","","","","","","","",""
"","","","","","html-button-response","41","295466","0.0-41.0","FCC8D9FC3CAD44BC9AA129B5A96241D4","019cef9c-05cb-7484-9e5a-a70a7c7c4415","019cef87-c56d-7b55-9135-c5814367ec25","","725","
                <div class=""stimulus-container"">
                    <img src=""images/causal_sequence/coin_causal/coin_causal_2.png"" class=""exp-image"">
                    <div class=""question-area"">
                        <p style=""font-size: 20px; font-weight: bold; margin: 0;"">Is there a person in this image?</p>
                    </div>
                </div>","0","main_experiment_trial","2","coin_causal","causal_sequence","","","",""
"","","","","","html-keyboard-response","42","300468","0.0-42.0","FCC8D9FC3CAD44BC9AA129B5A96241D4","019cef9c-05cb-7484-9e5a-a70a7c7c4415","019cef87-c56d-7b55-9135-c5814367ec25","","null","
                <div class=""stimulus-container"">
                    <img src=""images/causal_sequence/coin_causal/coin_causal_3.png"" class=""exp-image"">
                    <div class=""question-area""></div> 
                </div>","null","","","","","","","",""
"","","","","","html-button-response","43","301895","0.0-43.0","FCC8D9FC3CAD44BC9AA129B5A96241D4","019cef9c-05cb-7484-9e5a-a70a7c7c4415","019cef87-c56d-7b55-9135-c5814367ec25","","1426","
                <div class=""stimulus-container"">
                    <img src=""images/causal_sequence/coin_causal/coin_causal_3.png"" class=""exp-image"">
                    <div class=""question-area"">
                        <p style=""font-size: 20px; font-weight: bold; margin: 0;"">Is there a person in this image?</p>
                    </div>
                </div>","0","main_experiment_trial","3","coin_causal","causal_sequence","","","",""
"","","","","","html-keyboard-response","44","306898","0.0-44.0","FCC8D9FC3CAD44BC9AA129B5A96241D4","019cef9c-05cb-7484-9e5a-a70a7c7c4415","019cef87-c56d-7b55-9135-c5814367ec25","","null","
                <div class=""stimulus-container"">
                    <img src=""images/causal_sequence/coin_causal/coin_causal_4.png"" class=""exp-image"">
                    <div class=""question-area""></div> 
                </div>","null","","","","","","","",""
"","","","","","html-button-response","45","308001","0.0-45.0","FCC8D9FC3CAD44BC9AA129B5A96241D4","019cef9c-05cb-7484-9e5a-a70a7c7c4415","019cef87-c56d-7b55-9135-c5814367ec25","","1102","
                <div class=""stimulus-container"">
                    <img src=""images/causal_sequence/coin_causal/coin_causal_4.png"" class=""exp-image"">
                    <div class=""question-area"">
                        <p style=""font-size: 20px; font-weight: bold; margin: 0;"">Is there a person in this image?</p>
                    </div>
                </div>","0","main_experiment_trial","4","coin_causal","causal_sequence","","","",""
"","","","","","html-keyboard-response","46","313004","0.0-46.0","FCC8D9FC3CAD44BC9AA129B5A96241D4","019cef9c-05cb-7484-9e5a-a70a7c7c4415","019cef87-c56d-7b55-9135-c5814367ec25","","null","
                <div class=""stimulus-container"">
                    <img src=""images/causal_sequence/coin_causal/coin_causal_5.png"" class=""exp-image"">
                    <div class=""question-area""></div> 
                </div>","null","","","","","","","",""
"","","","","","html-button-response","47","314178","0.0-47.0","FCC8D9FC3CAD44BC9AA129B5A96241D4","019cef9c-05cb-7484-9e5a-a70a7c7c4415","019cef87-c56d-7b55-9135-c5814367ec25","","1172","
                <div class=""stimulus-container"">
                    <img src=""images/causal_sequence/coin_causal/coin_causal_5.png"" class=""exp-image"">
                    <div class=""question-area"">
                        <p style=""font-size: 20px; font-weight: bold; margin: 0;"">Is there a person in this image?</p>
                    </div>
                </div>","0","main_experiment_trial","5","coin_causal","causal_sequence","","","",""
"","","","","","html-keyboard-response","48","319180","0.0-48.0","FCC8D9FC3CAD44BC9AA129B5A96241D4","019cef9c-05cb-7484-9e5a-a70a7c7c4415","019cef87-c56d-7b55-9135-c5814367ec25","","null","
                <div class=""stimulus-container"">
                    <img src=""images/causal_sequence/coin_causal/coin_causal_6.png"" class=""exp-image"">
                    <div class=""question-area""></div> 
                </div>","null","","","","","","","",""
"","","","","","html-button-response","49","320036","0.0-49.0","FCC8D9FC3CAD44BC9AA129B5A96241D4","019cef9c-05cb-7484-9e5a-a70a7c7c4415","019cef87-c56d-7b55-9135-c5814367ec25","","856","
                <div class=""stimulus-container"">
                    <img src=""images/causal_sequence/coin_causal/coin_causal_6.png"" class=""exp-image"">
                    <div class=""question-area"">
                        <p style=""font-size: 20px; font-weight: bold; margin: 0;"">Is there a person in this image?</p>
                    </div>
                </div>","0","main_experiment_trial","6","coin_causal","causal_sequence","","","",""
"","","","","","html-keyboard-response","50","325038","0.0-50.0","FCC8D9FC3CAD44BC9AA129B5A96241D4","019cef9c-05cb-7484-9e5a-a70a7c7c4415","019cef87-c56d-7b55-9135-c5814367ec25","","null","
                <div class=""stimulus-container"">
                    <img src=""images/causal_sequence/coin_causal/coin_causal_7.png"" class=""exp-image"">
                    <div class=""question-area""></div> 
                </div>","null","","","","","","","",""
"","","","","","html-button-response","51","326229","0.0-51.0","FCC8D9FC3CAD44BC9AA129B5A96241D4","019cef9c-05cb-7484-9e5a-a70a7c7c4415","019cef87-c56d-7b55-9135-c5814367ec25","","1189","
                <div class=""stimulus-container"">
                    <img src=""images/causal_sequence/coin_causal/coin_causal_7.png"" class=""exp-image"">
                    <div class=""question-area"">
                        <p style=""font-size: 20px; font-weight: bold; margin: 0;"">Is there a person in this image?</p>
                    </div>
                </div>","1","main_experiment_trial","7","coin_causal","causal_sequence","","","",""
"","","","","","html-keyboard-response","52","331232","0.0-52.0","FCC8D9FC3CAD44BC9AA129B5A96241D4","019cef9c-05cb-7484-9e5a-a70a7c7c4415","019cef87-c56d-7b55-9135-c5814367ec25","","null","
                <div class=""stimulus-container"">
                    <img src=""images/causal_sequence/coin_causal/coin_causal_8.png"" class=""exp-image"">
                    <div class=""question-area""></div> 
                </div>","null","","","","","","","",""
"","","","","","html-button-response","53","332635","0.0-53.0","FCC8D9FC3CAD44BC9AA129B5A96241D4","019cef9c-05cb-7484-9e5a-a70a7c7c4415","019cef87-c56d-7b55-9135-c5814367ec25","","1402","
                <div class=""stimulus-container"">
                    <img src=""images/causal_sequence/coin_causal/coin_causal_8.png"" class=""exp-image"">
                    <div class=""question-area"">
                        <p style=""font-size: 20px; font-weight: bold; margin: 0;"">Is there a person in this image?</p>
                    </div>
                </div>","0","main_experiment_trial","8","coin_causal","causal_sequence","","","",""
"","","","","","html-keyboard-response","54","337637","0.0-54.0","FCC8D9FC3CAD44BC9AA129B5A96241D4","019cef9c-05cb-7484-9e5a-a70a7c7c4415","019cef87-c56d-7b55-9135-c5814367ec25","","null","
                <div class=""stimulus-container"">
                    <img src=""images/causal_sequence/coin_causal/coin_causal_9.png"" class=""exp-image"">
                    <div class=""question-area""></div> 
                </div>","null","","","","","","","",""
"","","","","","html-button-response","55","338184","0.0-55.0","FCC8D9FC3CAD44BC9AA129B5A96241D4","019cef9c-05cb-7484-9e5a-a70a7c7c4415","019cef87-c56d-7b55-9135-c5814367ec25","","546","
                <div class=""stimulus-container"">
                    <img src=""images/causal_sequence/coin_causal/coin_causal_9.png"" class=""exp-image"">
                    <div class=""question-area"">
                        <p style=""font-size: 20px; font-weight: bold; margin: 0;"">Is there a person in this image?</p>
                    </div>
                </div>","0","main_experiment_trial","9","coin_causal","causal_sequence","","","",""
"","","","","","html-keyboard-response","56","343187","0.0-56.0","FCC8D9FC3CAD44BC9AA129B5A96241D4","019cef9c-05cb-7484-9e5a-a70a7c7c4415","019cef87-c56d-7b55-9135-c5814367ec25","","null","
                <div class=""stimulus-container"">
                    <img src=""images/causal_sequence/coin_causal/coin_causal_ten.png"" class=""exp-image"">
                    <div class=""question-area""></div> 
                </div>","null","","","","","","","",""
"","","","","","html-button-response","57","344098","0.0-57.0","FCC8D9FC3CAD44BC9AA129B5A96241D4","019cef9c-05cb-7484-9e5a-a70a7c7c4415","019cef87-c56d-7b55-9135-c5814367ec25","","910","
                <div class=""stimulus-container"">
                    <img src=""images/causal_sequence/coin_causal/coin_causal_ten.png"" class=""exp-image"">
                    <div class=""question-area"">
                        <p style=""font-size: 20px; font-weight: bold; margin: 0;"">Is there a person in this image?</p>
                    </div>
                </div>","0","main_experiment_trial","ten","coin_causal","causal_sequence","","","",""
"","","","","","html-keyboard-response","58","345100","0.0-58.0","FCC8D9FC3CAD44BC9AA129B5A96241D4","019cef9c-05cb-7484-9e5a-a70a7c7c4415","019cef87-c56d-7b55-9135-c5814367ec25","","null","<div style=""background-color: white; width: 100vw; height: 100vh;""></div>","null","","","","","","","",""
"","","","","","html-keyboard-response","59","350102","0.0-59.0","FCC8D9FC3CAD44BC9AA129B5A96241D4","019cef9c-05cb-7484-9e5a-a70a7c7c4415","019cef87-c56d-7b55-9135-c5814367ec25","","null","
                <div class=""stimulus-container"">
                    <img src=""images/causal_sequence/package_causal/package_causal_1.png"" class=""exp-image"">
                    <div class=""question-area""></div> 
                </div>","null","","","","","","","",""
"","","","","","html-button-response","60","351172","0.0-60.0","FCC8D9FC3CAD44BC9AA129B5A96241D4","019cef9c-05cb-7484-9e5a-a70a7c7c4415","019cef87-c56d-7b55-9135-c5814367ec25","","1069","
                <div class=""stimulus-container"">
                    <img src=""images/causal_sequence/package_causal/package_causal_1.png"" class=""exp-image"">
                    <div class=""question-area"">
                        <p style=""font-size: 20px; font-weight: bold; margin: 0;"">Is there a person in this image?</p>
                    </div>
                </div>","0","main_experiment_trial","1","package_causal","causal_sequence","","","",""
"","","","","","html-keyboard-response","61","356176","0.0-61.0","FCC8D9FC3CAD44BC9AA129B5A96241D4","019cef9c-05cb-7484-9e5a-a70a7c7c4415","019cef87-c56d-7b55-9135-c5814367ec25","","null","
                <div class=""stimulus-container"">
                    <img src=""images/causal_sequence/package_causal/package_causal_2.png"" class=""exp-image"">
                    <div class=""question-area""></div> 
                </div>","null","","","","","","","",""
"","","","","","html-button-response","62","357151","0.0-62.0","FCC8D9FC3CAD44BC9AA129B5A96241D4","019cef9c-05cb-7484-9e5a-a70a7c7c4415","019cef87-c56d-7b55-9135-c5814367ec25","","975","
                <div class=""stimulus-container"">
                    <img src=""images/causal_sequence/package_causal/package_causal_2.png"" class=""exp-image"">
                    <div class=""question-area"">
                        <p style=""font-size: 20px; font-weight: bold; margin: 0;"">Is there a person in this image?</p>
                    </div>
                </div>","0","main_experiment_trial","2","package_causal","causal_sequence","","","",""
"","","","","","html-keyboard-response","63","362153","0.0-63.0","FCC8D9FC3CAD44BC9AA129B5A96241D4","019cef9c-05cb-7484-9e5a-a70a7c7c4415","019cef87-c56d-7b55-9135-c5814367ec25","","null","
                <div class=""stimulus-container"">
                    <img src=""images/causal_sequence/package_causal/package_causal_3.png"" class=""exp-image"">
                    <div class=""question-area""></div> 
                </div>","null","","","","","","","",""
"","","","","","html-button-response","64","362847","0.0-64.0","FCC8D9FC3CAD44BC9AA129B5A96241D4","019cef9c-05cb-7484-9e5a-a70a7c7c4415","019cef87-c56d-7b55-9135-c5814367ec25","","693","
                <div class=""stimulus-container"">
                    <img src=""images/causal_sequence/package_causal/package_causal_3.png"" class=""exp-image"">
                    <div class=""question-area"">
                        <p style=""font-size: 20px; font-weight: bold; margin: 0;"">Is there a person in this image?</p>
                    </div>
                </div>","0","main_experiment_trial","3","package_causal","causal_sequence","","","",""
"","","","","","html-keyboard-response","65","367849","0.0-65.0","FCC8D9FC3CAD44BC9AA129B5A96241D4","019cef9c-05cb-7484-9e5a-a70a7c7c4415","019cef87-c56d-7b55-9135-c5814367ec25","","null","
                <div class=""stimulus-container"">
                    <img src=""images/causal_sequence/package_causal/package_causal_4.png"" class=""exp-image"">
                    <div class=""question-area""></div> 
                </div>","null","","","","","","","",""
"","","","","","html-button-response","66","369402","0.0-66.0","FCC8D9FC3CAD44BC9AA129B5A96241D4","019cef9c-05cb-7484-9e5a-a70a7c7c4415","019cef87-c56d-7b55-9135-c5814367ec25","","1551","
                <div class=""stimulus-container"">
                    <img src=""images/causal_sequence/package_causal/package_causal_4.png"" class=""exp-image"">
                    <div class=""question-area"">
                        <p style=""font-size: 20px; font-weight: bold; margin: 0;"">Is there a person in this image?</p>
                    </div>
                </div>","1","main_experiment_trial","4","package_causal","causal_sequence","","","",""
"","","","","","html-keyboard-response","67","374404","0.0-67.0","FCC8D9FC3CAD44BC9AA129B5A96241D4","019cef9c-05cb-7484-9e5a-a70a7c7c4415","019cef87-c56d-7b55-9135-c5814367ec25","","null","
                <div class=""stimulus-container"">
                    <img src=""images/causal_sequence/package_causal/package_causal_5.png"" class=""exp-image"">
                    <div class=""question-area""></div> 
                </div>","null","","","","","","","",""
"","","","","","html-button-response","68","375131","0.0-68.0","FCC8D9FC3CAD44BC9AA129B5A96241D4","019cef9c-05cb-7484-9e5a-a70a7c7c4415","019cef87-c56d-7b55-9135-c5814367ec25","","725","
                <div class=""stimulus-container"">
                    <img src=""images/causal_sequence/package_causal/package_causal_5.png"" class=""exp-image"">
                    <div class=""question-area"">
                        <p style=""font-size: 20px; font-weight: bold; margin: 0;"">Is there a person in this image?</p>
                    </div>
                </div>","0","main_experiment_trial","5","package_causal","causal_sequence","","","",""
"","","","","","html-keyboard-response","69","380132","0.0-69.0","FCC8D9FC3CAD44BC9AA129B5A96241D4","019cef9c-05cb-7484-9e5a-a70a7c7c4415","019cef87-c56d-7b55-9135-c5814367ec25","","null","
                <div class=""stimulus-container"">
                    <img src=""images/causal_sequence/package_causal/package_causal_6.png"" class=""exp-image"">
                    <div class=""question-area""></div> 
                </div>","null","","","","","","","",""
"","","","","","html-button-response","70","380843","0.0-70.0","FCC8D9FC3CAD44BC9AA129B5A96241D4","019cef9c-05cb-7484-9e5a-a70a7c7c4415","019cef87-c56d-7b55-9135-c5814367ec25","","709","
                <div class=""stimulus-container"">
                    <img src=""images/causal_sequence/package_causal/package_causal_6.png"" class=""exp-image"">
                    <div class=""question-area"">
                        <p style=""font-size: 20px; font-weight: bold; margin: 0;"">Is there a person in this image?</p>
                    </div>
                </div>","0","main_experiment_trial","6","package_causal","causal_sequence","","","",""
"","","","","","html-keyboard-response","71","385846","0.0-71.0","FCC8D9FC3CAD44BC9AA129B5A96241D4","019cef9c-05cb-7484-9e5a-a70a7c7c4415","019cef87-c56d-7b55-9135-c5814367ec25","","null","
                <div class=""stimulus-container"">
                    <img src=""images/causal_sequence/package_causal/package_causal_7.png"" class=""exp-image"">
                    <div class=""question-area""></div> 
                </div>","null","","","","","","","",""
"","","","","","html-button-response","72","386560","0.0-72.0","FCC8D9FC3CAD44BC9AA129B5A96241D4","019cef9c-05cb-7484-9e5a-a70a7c7c4415","019cef87-c56d-7b55-9135-c5814367ec25","","713","
                <div class=""stimulus-container"">
                    <img src=""images/causal_sequence/package_causal/package_causal_7.png"" class=""exp-image"">
                    <div class=""question-area"">
                        <p style=""font-size: 20px; font-weight: bold; margin: 0;"">Is there a person in this image?</p>
                    </div>
                </div>","0","main_experiment_trial","7","package_causal","causal_sequence","","","",""
"","","","","","html-keyboard-response","73","391562","0.0-73.0","FCC8D9FC3CAD44BC9AA129B5A96241D4","019cef9c-05cb-7484-9e5a-a70a7c7c4415","019cef87-c56d-7b55-9135-c5814367ec25","","null","
                <div class=""stimulus-container"">
                    <img src=""images/causal_sequence/package_causal/package_causal_8.png"" class=""exp-image"">
                    <div class=""question-area""></div> 
                </div>","null","","","","","","","",""
"","","","","","html-button-response","74","392503","0.0-74.0","FCC8D9FC3CAD44BC9AA129B5A96241D4","019cef9c-05cb-7484-9e5a-a70a7c7c4415","019cef87-c56d-7b55-9135-c5814367ec25","","940","
                <div class=""stimulus-container"">
                    <img src=""images/causal_sequence/package_causal/package_causal_8.png"" class=""exp-image"">
                    <div class=""question-area"">
                        <p style=""font-size: 20px; font-weight: bold; margin: 0;"">Is there a person in this image?</p>
                    </div>
                </div>","0","main_experiment_trial","8","package_causal","causal_sequence","","","",""
"","","","","","html-keyboard-response","75","397506","0.0-75.0","FCC8D9FC3CAD44BC9AA129B5A96241D4","019cef9c-05cb-7484-9e5a-a70a7c7c4415","019cef87-c56d-7b55-9135-c5814367ec25","","null","
                <div class=""stimulus-container"">
                    <img src=""images/causal_sequence/package_causal/package_causal_9.png"" class=""exp-image"">
                    <div class=""question-area""></div> 
                </div>","null","","","","","","","",""
"","","","","","html-button-response","76","398421","0.0-76.0","FCC8D9FC3CAD44BC9AA129B5A96241D4","019cef9c-05cb-7484-9e5a-a70a7c7c4415","019cef87-c56d-7b55-9135-c5814367ec25","","915","
                <div class=""stimulus-container"">
                    <img src=""images/causal_sequence/package_causal/package_causal_9.png"" class=""exp-image"">
                    <div class=""question-area"">
                        <p style=""font-size: 20px; font-weight: bold; margin: 0;"">Is there a person in this image?</p>
                    </div>
                </div>","0","main_experiment_trial","9","package_causal","causal_sequence","","","",""
"","","","","","html-keyboard-response","77","403423","0.0-77.0","FCC8D9FC3CAD44BC9AA129B5A96241D4","019cef9c-05cb-7484-9e5a-a70a7c7c4415","019cef87-c56d-7b55-9135-c5814367ec25","","null","
                <div class=""stimulus-container"">
                    <img src=""images/causal_sequence/package_causal/package_causal_ten.png"" class=""exp-image"">
                    <div class=""question-area""></div> 
                </div>","null","","","","","","","",""
"","","","","","html-button-response","78","404452","0.0-78.0","FCC8D9FC3CAD44BC9AA129B5A96241D4","019cef9c-05cb-7484-9e5a-a70a7c7c4415","019cef87-c56d-7b55-9135-c5814367ec25","","1028","
                <div class=""stimulus-container"">
                    <img src=""images/causal_sequence/package_causal/package_causal_ten.png"" class=""exp-image"">
                    <div class=""question-area"">
                        <p style=""font-size: 20px; font-weight: bold; margin: 0;"">Is there a person in this image?</p>
                    </div>
                </div>","0","main_experiment_trial","ten","package_causal","causal_sequence","","","",""
"","","","","","html-keyboard-response","79","405454","0.0-79.0","FCC8D9FC3CAD44BC9AA129B5A96241D4","019cef9c-05cb-7484-9e5a-a70a7c7c4415","019cef87-c56d-7b55-9135-c5814367ec25","","null","<div style=""background-color: white; width: 100vw; height: 100vh;""></div>","null","","","","","","","",""
"","","","","","html-keyboard-response","80","410457","0.0-80.0","FCC8D9FC3CAD44BC9AA129B5A96241D4","019cef9c-05cb-7484-9e5a-a70a7c7c4415","019cef87-c56d-7b55-9135-c5814367ec25","","null","
                <div class=""stimulus-container"">
                    <img src=""images/causal_sequence/saving_a_cat_causal/saving_a_cat_causal_1.png"" class=""exp-image"">
                    <div class=""question-area""></div> 
                </div>","null","","","","","","","",""
"","","","","","html-button-response","81","411646","0.0-81.0","FCC8D9FC3CAD44BC9AA129B5A96241D4","019cef9c-05cb-7484-9e5a-a70a7c7c4415","019cef87-c56d-7b55-9135-c5814367ec25","","1189","
                <div class=""stimulus-container"">
                    <img src=""images/causal_sequence/saving_a_cat_causal/saving_a_cat_causal_1.png"" class=""exp-image"">
                    <div class=""question-area"">
                        <p style=""font-size: 20px; font-weight: bold; margin: 0;"">Is there a person in this image?</p>
                    </div>
                </div>","0","main_experiment_trial","1","saving_a_cat_causal","causal_sequence","","","",""
"","","","","","html-keyboard-response","82","416649","0.0-82.0","FCC8D9FC3CAD44BC9AA129B5A96241D4","019cef9c-05cb-7484-9e5a-a70a7c7c4415","019cef87-c56d-7b55-9135-c5814367ec25","","null","
                <div class=""stimulus-container"">
                    <img src=""images/causal_sequence/saving_a_cat_causal/saving_a_cat_causal_2.png"" class=""exp-image"">
                    <div class=""question-area""></div> 
                </div>","null","","","","","","","",""
"","","","","","html-button-response","83","417810","0.0-83.0","FCC8D9FC3CAD44BC9AA129B5A96241D4","019cef9c-05cb-7484-9e5a-a70a7c7c4415","019cef87-c56d-7b55-9135-c5814367ec25","","1160","
                <div class=""stimulus-container"">
                    <img src=""images/causal_sequence/saving_a_cat_causal/saving_a_cat_causal_2.png"" class=""exp-image"">
                    <div class=""question-area"">
                        <p style=""font-size: 20px; font-weight: bold; margin: 0;"">Is there a person in this image?</p>
                    </div>
                </div>","1","main_experiment_trial","2","saving_a_cat_causal","causal_sequence","","","",""
"","","","","","html-keyboard-response","84","422812","0.0-84.0","FCC8D9FC3CAD44BC9AA129B5A96241D4","019cef9c-05cb-7484-9e5a-a70a7c7c4415","019cef87-c56d-7b55-9135-c5814367ec25","","null","
                <div class=""stimulus-container"">
                    <img src=""images/causal_sequence/saving_a_cat_causal/saving_a_cat_causal_3.png"" class=""exp-image"">
                    <div class=""question-area""></div> 
                </div>","null","","","","","","","",""
"","","","","","html-button-response","85","423801","0.0-85.0","FCC8D9FC3CAD44BC9AA129B5A96241D4","019cef9c-05cb-7484-9e5a-a70a7c7c4415","019cef87-c56d-7b55-9135-c5814367ec25","","988","
                <div class=""stimulus-container"">
                    <img src=""images/causal_sequence/saving_a_cat_causal/saving_a_cat_causal_3.png"" class=""exp-image"">
                    <div class=""question-area"">
                        <p style=""font-size: 20px; font-weight: bold; margin: 0;"">Is there a person in this image?</p>
                    </div>
                </div>","1","main_experiment_trial","3","saving_a_cat_causal","causal_sequence","","","",""
"","","","","","html-keyboard-response","86","428803","0.0-86.0","FCC8D9FC3CAD44BC9AA129B5A96241D4","019cef9c-05cb-7484-9e5a-a70a7c7c4415","019cef87-c56d-7b55-9135-c5814367ec25","","null","
                <div class=""stimulus-container"">
                    <img src=""images/causal_sequence/saving_a_cat_causal/saving_a_cat_causal_4.png"" class=""exp-image"">
                    <div class=""question-area""></div> 
                </div>","null","","","","","","","",""
"","","","","","html-button-response","87","429989","0.0-87.0","FCC8D9FC3CAD44BC9AA129B5A96241D4","019cef9c-05cb-7484-9e5a-a70a7c7c4415","019cef87-c56d-7b55-9135-c5814367ec25","","1185","
                <div class=""stimulus-container"">
                    <img src=""images/causal_sequence/saving_a_cat_causal/saving_a_cat_causal_4.png"" class=""exp-image"">
                    <div class=""question-area"">
                        <p style=""font-size: 20px; font-weight: bold; margin: 0;"">Is there a person in this image?</p>
                    </div>
                </div>","0","main_experiment_trial","4","saving_a_cat_causal","causal_sequence","","","",""
"","","","","","html-keyboard-response","88","436093","0.0-88.0","FCC8D9FC3CAD44BC9AA129B5A96241D4","019cef9c-05cb-7484-9e5a-a70a7c7c4415","019cef87-c56d-7b55-9135-c5814367ec25","","null","
                <div class=""stimulus-container"">
                    <img src=""images/causal_sequence/saving_a_cat_causal/saving_a_cat_causal_5.png"" class=""exp-image"">
                    <div class=""question-area""></div> 
                </div>","null","","","","","","","",""
"","","","","","html-button-response","89","437255","0.0-89.0","FCC8D9FC3CAD44BC9AA129B5A96241D4","019cef9c-05cb-7484-9e5a-a70a7c7c4415","019cef87-c56d-7b55-9135-c5814367ec25","","1161","
                <div class=""stimulus-container"">
                    <img src=""images/causal_sequence/saving_a_cat_causal/saving_a_cat_causal_5.png"" class=""exp-image"">
                    <div class=""question-area"">
                        <p style=""font-size: 20px; font-weight: bold; margin: 0;"">Is there a person in this image?</p>
                    </div>
                </div>","0","main_experiment_trial","5","saving_a_cat_causal","causal_sequence","","","",""
"","","","","","html-keyboard-response","90","442257","0.0-90.0","FCC8D9FC3CAD44BC9AA129B5A96241D4","019cef9c-05cb-7484-9e5a-a70a7c7c4415","019cef87-c56d-7b55-9135-c5814367ec25","","null","
                <div class=""stimulus-container"">
                    <img src=""images/causal_sequence/saving_a_cat_causal/saving_a_cat_causal_6.png"" class=""exp-image"">
                    <div class=""question-area""></div> 
                </div>","null","","","","","","","",""
"","","","","","html-button-response","91","443307","0.0-91.0","FCC8D9FC3CAD44BC9AA129B5A96241D4","019cef9c-05cb-7484-9e5a-a70a7c7c4415","019cef87-c56d-7b55-9135-c5814367ec25","","1049","
                <div class=""stimulus-container"">
                    <img src=""images/causal_sequence/saving_a_cat_causal/saving_a_cat_causal_6.png"" class=""exp-image"">
                    <div class=""question-area"">
                        <p style=""font-size: 20px; font-weight: bold; margin: 0;"">Is there a person in this image?</p>
                    </div>
                </div>","0","main_experiment_trial","6","saving_a_cat_causal","causal_sequence","","","",""
"","","","","","html-keyboard-response","92","448310","0.0-92.0","FCC8D9FC3CAD44BC9AA129B5A96241D4","019cef9c-05cb-7484-9e5a-a70a7c7c4415","019cef87-c56d-7b55-9135-c5814367ec25","","null","
                <div class=""stimulus-container"">
                    <img src=""images/causal_sequence/saving_a_cat_causal/saving_a_cat_causal_7.png"" class=""exp-image"">
                    <div class=""question-area""></div> 
                </div>","null","","","","","","","",""
"","","","","","html-button-response","93","450051","0.0-93.0","FCC8D9FC3CAD44BC9AA129B5A96241D4","019cef9c-05cb-7484-9e5a-a70a7c7c4415","019cef87-c56d-7b55-9135-c5814367ec25","","1740","
                <div class=""stimulus-container"">
                    <img src=""images/causal_sequence/saving_a_cat_causal/saving_a_cat_causal_7.png"" class=""exp-image"">
                    <div class=""question-area"">
                        <p style=""font-size: 20px; font-weight: bold; margin: 0;"">Is there a person in this image?</p>
                    </div>
                </div>","0","main_experiment_trial","7","saving_a_cat_causal","causal_sequence","","","",""
"","","","","","html-keyboard-response","94","455053","0.0-94.0","FCC8D9FC3CAD44BC9AA129B5A96241D4","019cef9c-05cb-7484-9e5a-a70a7c7c4415","019cef87-c56d-7b55-9135-c5814367ec25","","null","
                <div class=""stimulus-container"">
                    <img src=""images/causal_sequence/saving_a_cat_causal/saving_a_cat_causal_8.png"" class=""exp-image"">
                    <div class=""question-area""></div> 
                </div>","null","","","","","","","",""
"","","","","","html-button-response","95","455787","0.0-95.0","FCC8D9FC3CAD44BC9AA129B5A96241D4","019cef9c-05cb-7484-9e5a-a70a7c7c4415","019cef87-c56d-7b55-9135-c5814367ec25","","733","
                <div class=""stimulus-container"">
                    <img src=""images/causal_sequence/saving_a_cat_causal/saving_a_cat_causal_8.png"" class=""exp-image"">
                    <div class=""question-area"">
                        <p style=""font-size: 20px; font-weight: bold; margin: 0;"">Is there a person in this image?</p>
                    </div>
                </div>","0","main_experiment_trial","8","saving_a_cat_causal","causal_sequence","","","",""
"","","","","","html-keyboard-response","96","460789","0.0-96.0","FCC8D9FC3CAD44BC9AA129B5A96241D4","019cef9c-05cb-7484-9e5a-a70a7c7c4415","019cef87-c56d-7b55-9135-c5814367ec25","","null","
                <div class=""stimulus-container"">
                    <img src=""images/causal_sequence/saving_a_cat_causal/saving_a_cat_causal_9.png"" class=""exp-image"">
                    <div class=""question-area""></div> 
                </div>","null","","","","","","","",""
"","","","","","html-button-response","97","461416","0.0-97.0","FCC8D9FC3CAD44BC9AA129B5A96241D4","019cef9c-05cb-7484-9e5a-a70a7c7c4415","019cef87-c56d-7b55-9135-c5814367ec25","","626","
                <div class=""stimulus-container"">
                    <img src=""images/causal_sequence/saving_a_cat_causal/saving_a_cat_causal_9.png"" class=""exp-image"">
                    <div class=""question-area"">
                        <p style=""font-size: 20px; font-weight: bold; margin: 0;"">Is there a person in this image?</p>
                    </div>
                </div>","0","main_experiment_trial","9","saving_a_cat_causal","causal_sequence","","","",""
"","","","","","html-keyboard-response","98","466419","0.0-98.0","FCC8D9FC3CAD44BC9AA129B5A96241D4","019cef9c-05cb-7484-9e5a-a70a7c7c4415","019cef87-c56d-7b55-9135-c5814367ec25","","null","
                <div class=""stimulus-container"">
                    <img src=""images/causal_sequence/saving_a_cat_causal/saving_a_cat_causal_ten.png"" class=""exp-image"">
                    <div class=""question-area""></div> 
                </div>","null","","","","","","","",""
"","","","","","html-button-response","99","468277","0.0-99.0","FCC8D9FC3CAD44BC9AA129B5A96241D4","019cef9c-05cb-7484-9e5a-a70a7c7c4415","019cef87-c56d-7b55-9135-c5814367ec25","","1857","
                <div class=""stimulus-container"">
                    <img src=""images/causal_sequence/saving_a_cat_causal/saving_a_cat_causal_ten.png"" class=""exp-image"">
                    <div class=""question-area"">
                        <p style=""font-size: 20px; font-weight: bold; margin: 0;"">Is there a person in this image?</p>
                    </div>
                </div>","0","main_experiment_trial","ten","saving_a_cat_causal","causal_sequence","","","",""
"","","","","","html-keyboard-response","100","469279","0.0-100.0","FCC8D9FC3CAD44BC9AA129B5A96241D4","019cef9c-05cb-7484-9e5a-a70a7c7c4415","019cef87-c56d-7b55-9135-c5814367ec25","","null","<div style=""background-color: white; width: 100vw; height: 100vh;""></div>","null","","","","","","","",""
"","","","","","html-keyboard-response","101","474282","0.0-101.0","FCC8D9FC3CAD44BC9AA129B5A96241D4","019cef9c-05cb-7484-9e5a-a70a7c7c4415","019cef87-c56d-7b55-9135-c5814367ec25","","null","
                <div class=""stimulus-container"">
                    <img src=""images/causal_sequence/the_performance_causal/the_performance_causal_1.png"" class=""exp-image"">
                    <div class=""question-area""></div> 
                </div>","null","","","","","","","",""
"","","","","","html-button-response","102","474979","0.0-102.0","FCC8D9FC3CAD44BC9AA129B5A96241D4","019cef9c-05cb-7484-9e5a-a70a7c7c4415","019cef87-c56d-7b55-9135-c5814367ec25","","696","
                <div class=""stimulus-container"">
                    <img src=""images/causal_sequence/the_performance_causal/the_performance_causal_1.png"" class=""exp-image"">
                    <div class=""question-area"">
                        <p style=""font-size: 20px; font-weight: bold; margin: 0;"">Is there a person in this image?</p>
                    </div>
                </div>","0","main_experiment_trial","1","the_performance_causal","causal_sequence","","","",""
"","","","","","html-keyboard-response","103","479981","0.0-103.0","FCC8D9FC3CAD44BC9AA129B5A96241D4","019cef9c-05cb-7484-9e5a-a70a7c7c4415","019cef87-c56d-7b55-9135-c5814367ec25","","null","
                <div class=""stimulus-container"">
                    <img src=""images/causal_sequence/the_performance_causal/the_performance_causal_2.png"" class=""exp-image"">
                    <div class=""question-area""></div> 
                </div>","null","","","","","","","",""
"","","","","","html-button-response","104","481253","0.0-104.0","FCC8D9FC3CAD44BC9AA129B5A96241D4","019cef9c-05cb-7484-9e5a-a70a7c7c4415","019cef87-c56d-7b55-9135-c5814367ec25","","1271","
                <div class=""stimulus-container"">
                    <img src=""images/causal_sequence/the_performance_causal/the_performance_causal_2.png"" class=""exp-image"">
                    <div class=""question-area"">
                        <p style=""font-size: 20px; font-weight: bold; margin: 0;"">Is there a person in this image?</p>
                    </div>
                </div>","0","main_experiment_trial","2","the_performance_causal","causal_sequence","","","",""
"","","","","","html-keyboard-response","105","486256","0.0-105.0","FCC8D9FC3CAD44BC9AA129B5A96241D4","019cef9c-05cb-7484-9e5a-a70a7c7c4415","019cef87-c56d-7b55-9135-c5814367ec25","","null","
                <div class=""stimulus-container"">
                    <img src=""images/causal_sequence/the_performance_causal/the_performance_causal_3.png"" class=""exp-image"">
                    <div class=""question-area""></div> 
                </div>","null","","","","","","","",""
"","","","","","html-button-response","106","489257","0.0-106.0","FCC8D9FC3CAD44BC9AA129B5A96241D4","019cef9c-05cb-7484-9e5a-a70a7c7c4415","019cef87-c56d-7b55-9135-c5814367ec25","","null","
                <div class=""stimulus-container"">
                    <img src=""images/causal_sequence/the_performance_causal/the_performance_causal_3.png"" class=""exp-image"">
                    <div class=""question-area"">
                        <p style=""font-size: 20px; font-weight: bold; margin: 0;"">Is there a person in this image?</p>
                    </div>
                </div>","null","main_experiment_trial","3","the_performance_causal","causal_sequence","","","",""
"","","","","","html-keyboard-response","107","494259","0.0-107.0","FCC8D9FC3CAD44BC9AA129B5A96241D4","019cef9c-05cb-7484-9e5a-a70a7c7c4415","019cef87-c56d-7b55-9135-c5814367ec25","","null","
                <div class=""stimulus-container"">
                    <img src=""images/causal_sequence/the_performance_causal/the_performance_causal_4.png"" class=""exp-image"">
                    <div class=""question-area""></div> 
                </div>","null","","","","","","","",""
"","","","","","html-button-response","108","495137","0.0-108.0","FCC8D9FC3CAD44BC9AA129B5A96241D4","019cef9c-05cb-7484-9e5a-a70a7c7c4415","019cef87-c56d-7b55-9135-c5814367ec25","","876","
                <div class=""stimulus-container"">
                    <img src=""images/causal_sequence/the_performance_causal/the_performance_causal_4.png"" class=""exp-image"">
                    <div class=""question-area"">
                        <p style=""font-size: 20px; font-weight: bold; margin: 0;"">Is there a person in this image?</p>
                    </div>
                </div>","0","main_experiment_trial","4","the_performance_causal","causal_sequence","","","",""
"","","","","","html-keyboard-response","109","500140","0.0-109.0","FCC8D9FC3CAD44BC9AA129B5A96241D4","019cef9c-05cb-7484-9e5a-a70a7c7c4415","019cef87-c56d-7b55-9135-c5814367ec25","","null","
                <div class=""stimulus-container"">
                    <img src=""images/causal_sequence/the_performance_causal/the_performance_causal_5.png"" class=""exp-image"">
                    <div class=""question-area""></div> 
                </div>","null","","","","","","","",""
"","","","","","html-button-response","110","501434","0.0-110.0","FCC8D9FC3CAD44BC9AA129B5A96241D4","019cef9c-05cb-7484-9e5a-a70a7c7c4415","019cef87-c56d-7b55-9135-c5814367ec25","","1293","
                <div class=""stimulus-container"">
                    <img src=""images/causal_sequence/the_performance_causal/the_performance_causal_5.png"" class=""exp-image"">
                    <div class=""question-area"">
                        <p style=""font-size: 20px; font-weight: bold; margin: 0;"">Is there a person in this image?</p>
                    </div>
                </div>","0","main_experiment_trial","5","the_performance_causal","causal_sequence","","","",""
"","","","","","html-keyboard-response","111","506435","0.0-111.0","FCC8D9FC3CAD44BC9AA129B5A96241D4","019cef9c-05cb-7484-9e5a-a70a7c7c4415","019cef87-c56d-7b55-9135-c5814367ec25","","null","
                <div class=""stimulus-container"">
                    <img src=""images/causal_sequence/the_performance_causal/the_performance_causal_6.png"" class=""exp-image"">
                    <div class=""question-area""></div> 
                </div>","null","","","","","","","",""
"","","","","","html-button-response","112","507118","0.0-112.0","FCC8D9FC3CAD44BC9AA129B5A96241D4","019cef9c-05cb-7484-9e5a-a70a7c7c4415","019cef87-c56d-7b55-9135-c5814367ec25","","682","
                <div class=""stimulus-container"">
                    <img src=""images/causal_sequence/the_performance_causal/the_performance_causal_6.png"" class=""exp-image"">
                    <div class=""question-area"">
                        <p style=""font-size: 20px; font-weight: bold; margin: 0;"">Is there a person in this image?</p>
                    </div>
                </div>","0","main_experiment_trial","6","the_performance_causal","causal_sequence","","","",""
"","","","","","html-keyboard-response","113","512122","0.0-113.0","FCC8D9FC3CAD44BC9AA129B5A96241D4","019cef9c-05cb-7484-9e5a-a70a7c7c4415","019cef87-c56d-7b55-9135-c5814367ec25","","null","
                <div class=""stimulus-container"">
                    <img src=""images/causal_sequence/the_performance_causal/the_performance_causal_7.png"" class=""exp-image"">
                    <div class=""question-area""></div> 
                </div>","null","","","","","","","",""
"","","","","","html-button-response","114","513434","0.0-114.0","FCC8D9FC3CAD44BC9AA129B5A96241D4","019cef9c-05cb-7484-9e5a-a70a7c7c4415","019cef87-c56d-7b55-9135-c5814367ec25","","1311","
                <div class=""stimulus-container"">
                    <img src=""images/causal_sequence/the_performance_causal/the_performance_causal_7.png"" class=""exp-image"">
                    <div class=""question-area"">
                        <p style=""font-size: 20px; font-weight: bold; margin: 0;"">Is there a person in this image?</p>
                    </div>
                </div>","0","main_experiment_trial","7","the_performance_causal","causal_sequence","","","",""
"","","","","","html-keyboard-response","115","518436","0.0-115.0","FCC8D9FC3CAD44BC9AA129B5A96241D4","019cef9c-05cb-7484-9e5a-a70a7c7c4415","019cef87-c56d-7b55-9135-c5814367ec25","","null","
                <div class=""stimulus-container"">
                    <img src=""images/causal_sequence/the_performance_causal/the_performance_causal_8.png"" class=""exp-image"">
                    <div class=""question-area""></div> 
                </div>","null","","","","","","","",""
"","","","","","html-button-response","116","519164","0.0-116.0","FCC8D9FC3CAD44BC9AA129B5A96241D4","019cef9c-05cb-7484-9e5a-a70a7c7c4415","019cef87-c56d-7b55-9135-c5814367ec25","","727","
                <div class=""stimulus-container"">
                    <img src=""images/causal_sequence/the_performance_causal/the_performance_causal_8.png"" class=""exp-image"">
                    <div class=""question-area"">
                        <p style=""font-size: 20px; font-weight: bold; margin: 0;"">Is there a person in this image?</p>
                    </div>
                </div>","0","main_experiment_trial","8","the_performance_causal","causal_sequence","","","",""
"","","","","","html-keyboard-response","117","524166","0.0-117.0","FCC8D9FC3CAD44BC9AA129B5A96241D4","019cef9c-05cb-7484-9e5a-a70a7c7c4415","019cef87-c56d-7b55-9135-c5814367ec25","","null","
                <div class=""stimulus-container"">
                    <img src=""images/causal_sequence/the_performance_causal/the_performance_causal_9.png"" class=""exp-image"">
                    <div class=""question-area""></div> 
                </div>","null","","","","","","","",""
"","","","","","html-button-response","118","525471","0.0-118.0","FCC8D9FC3CAD44BC9AA129B5A96241D4","019cef9c-05cb-7484-9e5a-a70a7c7c4415","019cef87-c56d-7b55-9135-c5814367ec25","","1304","
                <div class=""stimulus-container"">
                    <img src=""images/causal_sequence/the_performance_causal/the_performance_causal_9.png"" class=""exp-image"">
                    <div class=""question-area"">
                        <p style=""font-size: 20px; font-weight: bold; margin: 0;"">Is there a person in this image?</p>
                    </div>
                </div>","0","main_experiment_trial","9","the_performance_causal","causal_sequence","","","",""
"","","","","","html-keyboard-response","119","530475","0.0-119.0","FCC8D9FC3CAD44BC9AA129B5A96241D4","019cef9c-05cb-7484-9e5a-a70a7c7c4415","019cef87-c56d-7b55-9135-c5814367ec25","","null","
                <div class=""stimulus-container"">
                    <img src=""images/causal_sequence/the_performance_causal/the_performance_causal_ten.png"" class=""exp-image"">
                    <div class=""question-area""></div> 
                </div>","null","","","","","","","",""
"","","","","","html-button-response","120","531475","0.0-120.0","FCC8D9FC3CAD44BC9AA129B5A96241D4","019cef9c-05cb-7484-9e5a-a70a7c7c4415","019cef87-c56d-7b55-9135-c5814367ec25","","998","
                <div class=""stimulus-container"">
                    <img src=""images/causal_sequence/the_performance_causal/the_performance_causal_ten.png"" class=""exp-image"">
                    <div class=""question-area"">
                        <p style=""font-size: 20px; font-weight: bold; margin: 0;"">Is there a person in this image?</p>
                    </div>
                </div>","0","main_experiment_trial","ten","the_performance_causal","causal_sequence","","","",""
"","","","","","html-keyboard-response","121","532477","0.0-121.0","FCC8D9FC3CAD44BC9AA129B5A96241D4","019cef9c-05cb-7484-9e5a-a70a7c7c4415","019cef87-c56d-7b55-9135-c5814367ec25","","null","<div style=""background-color: white; width: 100vw; height: 100vh;""></div>","null","","","","","","","",""
"","","","","","html-keyboard-response","122","537478","0.0-122.0","FCC8D9FC3CAD44BC9AA129B5A96241D4","019cef9c-05cb-7484-9e5a-a70a7c7c4415","019cef87-c56d-7b55-9135-c5814367ec25","","null","
                <div class=""stimulus-container"">
                    <img src=""images/schematic_sequence/restaurant_scheme/restaurant_scheme_1.png"" class=""exp-image"">
                    <div class=""question-area""></div> 
                </div>","null","","","","","","","",""
"","","","","","html-button-response","123","538737","0.0-123.0","FCC8D9FC3CAD44BC9AA129B5A96241D4","019cef9c-05cb-7484-9e5a-a70a7c7c4415","019cef87-c56d-7b55-9135-c5814367ec25","","1258","
                <div class=""stimulus-container"">
                    <img src=""images/schematic_sequence/restaurant_scheme/restaurant_scheme_1.png"" class=""exp-image"">
                    <div class=""question-area"">
                        <p style=""font-size: 20px; font-weight: bold; margin: 0;"">Is there a person in this image?</p>
                    </div>
                </div>","0","main_experiment_trial","1","restaurant_scheme","schematic_sequence","","","",""
"","","","","","html-keyboard-response","124","543740","0.0-124.0","FCC8D9FC3CAD44BC9AA129B5A96241D4","019cef9c-05cb-7484-9e5a-a70a7c7c4415","019cef87-c56d-7b55-9135-c5814367ec25","","null","
                <div class=""stimulus-container"">
                    <img src=""images/schematic_sequence/restaurant_scheme/restaurant_scheme_2.png"" class=""exp-image"">
                    <div class=""question-area""></div> 
                </div>","null","","","","","","","",""
"","","","","","html-button-response","125","544720","0.0-125.0","FCC8D9FC3CAD44BC9AA129B5A96241D4","019cef9c-05cb-7484-9e5a-a70a7c7c4415","019cef87-c56d-7b55-9135-c5814367ec25","","980","
                <div class=""stimulus-container"">
                    <img src=""images/schematic_sequence/restaurant_scheme/restaurant_scheme_2.png"" class=""exp-image"">
                    <div class=""question-area"">
                        <p style=""font-size: 20px; font-weight: bold; margin: 0;"">Is there a person in this image?</p>
                    </div>
                </div>","1","main_experiment_trial","2","restaurant_scheme","schematic_sequence","","","",""
"","","","","","html-keyboard-response","126","549722","0.0-126.0","FCC8D9FC3CAD44BC9AA129B5A96241D4","019cef9c-05cb-7484-9e5a-a70a7c7c4415","019cef87-c56d-7b55-9135-c5814367ec25","","null","
                <div class=""stimulus-container"">
                    <img src=""images/schematic_sequence/restaurant_scheme/restaurant_scheme_3.png"" class=""exp-image"">
                    <div class=""question-area""></div> 
                </div>","null","","","","","","","",""
"","","","","","html-button-response","127","550549","0.0-127.0","FCC8D9FC3CAD44BC9AA129B5A96241D4","019cef9c-05cb-7484-9e5a-a70a7c7c4415","019cef87-c56d-7b55-9135-c5814367ec25","","825","
                <div class=""stimulus-container"">
                    <img src=""images/schematic_sequence/restaurant_scheme/restaurant_scheme_3.png"" class=""exp-image"">
                    <div class=""question-area"">
                        <p style=""font-size: 20px; font-weight: bold; margin: 0;"">Is there a person in this image?</p>
                    </div>
                </div>","1","main_experiment_trial","3","restaurant_scheme","schematic_sequence","","","",""
"","","","","","html-keyboard-response","128","555551","0.0-128.0","FCC8D9FC3CAD44BC9AA129B5A96241D4","019cef9c-05cb-7484-9e5a-a70a7c7c4415","019cef87-c56d-7b55-9135-c5814367ec25","","null","
                <div class=""stimulus-container"">
                    <img src=""images/schematic_sequence/restaurant_scheme/restaurant_scheme_4.png"" class=""exp-image"">
                    <div class=""question-area""></div> 
                </div>","null","","","","","","","",""
"","","","","","html-button-response","129","556320","0.0-129.0","FCC8D9FC3CAD44BC9AA129B5A96241D4","019cef9c-05cb-7484-9e5a-a70a7c7c4415","019cef87-c56d-7b55-9135-c5814367ec25","","767","
                <div class=""stimulus-container"">
                    <img src=""images/schematic_sequence/restaurant_scheme/restaurant_scheme_4.png"" class=""exp-image"">
                    <div class=""question-area"">
                        <p style=""font-size: 20px; font-weight: bold; margin: 0;"">Is there a person in this image?</p>
                    </div>
                </div>","0","main_experiment_trial","4","restaurant_scheme","schematic_sequence","","","",""
"","","","","","html-keyboard-response","130","561322","0.0-130.0","FCC8D9FC3CAD44BC9AA129B5A96241D4","019cef9c-05cb-7484-9e5a-a70a7c7c4415","019cef87-c56d-7b55-9135-c5814367ec25","","null","
                <div class=""stimulus-container"">
                    <img src=""images/schematic_sequence/restaurant_scheme/restaurant_scheme_5.png"" class=""exp-image"">
                    <div class=""question-area""></div> 
                </div>","null","","","","","","","",""
"","","","","","html-button-response","131","562251","0.0-131.0","FCC8D9FC3CAD44BC9AA129B5A96241D4","019cef9c-05cb-7484-9e5a-a70a7c7c4415","019cef87-c56d-7b55-9135-c5814367ec25","","927","
                <div class=""stimulus-container"">
                    <img src=""images/schematic_sequence/restaurant_scheme/restaurant_scheme_5.png"" class=""exp-image"">
                    <div class=""question-area"">
                        <p style=""font-size: 20px; font-weight: bold; margin: 0;"">Is there a person in this image?</p>
                    </div>
                </div>","0","main_experiment_trial","5","restaurant_scheme","schematic_sequence","","","",""
"","","","","","html-keyboard-response","132","567253","0.0-132.0","FCC8D9FC3CAD44BC9AA129B5A96241D4","019cef9c-05cb-7484-9e5a-a70a7c7c4415","019cef87-c56d-7b55-9135-c5814367ec25","","null","
                <div class=""stimulus-container"">
                    <img src=""images/schematic_sequence/restaurant_scheme/restaurant_scheme_6.png"" class=""exp-image"">
                    <div class=""question-area""></div> 
                </div>","null","","","","","","","",""
"","","","","","html-button-response","133","567980","0.0-133.0","FCC8D9FC3CAD44BC9AA129B5A96241D4","019cef9c-05cb-7484-9e5a-a70a7c7c4415","019cef87-c56d-7b55-9135-c5814367ec25","","726","
                <div class=""stimulus-container"">
                    <img src=""images/schematic_sequence/restaurant_scheme/restaurant_scheme_6.png"" class=""exp-image"">
                    <div class=""question-area"">
                        <p style=""font-size: 20px; font-weight: bold; margin: 0;"">Is there a person in this image?</p>
                    </div>
                </div>","1","main_experiment_trial","6","restaurant_scheme","schematic_sequence","","","",""
"","","","","","html-keyboard-response","134","572982","0.0-134.0","FCC8D9FC3CAD44BC9AA129B5A96241D4","019cef9c-05cb-7484-9e5a-a70a7c7c4415","019cef87-c56d-7b55-9135-c5814367ec25","","null","
                <div class=""stimulus-container"">
                    <img src=""images/schematic_sequence/restaurant_scheme/restaurant_scheme_7.png"" class=""exp-image"">
                    <div class=""question-area""></div> 
                </div>","null","","","","","","","",""
"","","","","","html-button-response","135","574191","0.0-135.0","FCC8D9FC3CAD44BC9AA129B5A96241D4","019cef9c-05cb-7484-9e5a-a70a7c7c4415","019cef87-c56d-7b55-9135-c5814367ec25","","1207","
                <div class=""stimulus-container"">
                    <img src=""images/schematic_sequence/restaurant_scheme/restaurant_scheme_7.png"" class=""exp-image"">
                    <div class=""question-area"">
                        <p style=""font-size: 20px; font-weight: bold; margin: 0;"">Is there a person in this image?</p>
                    </div>
                </div>","1","main_experiment_trial","7","restaurant_scheme","schematic_sequence","","","",""
"","","","","","html-keyboard-response","136","579192","0.0-136.0","FCC8D9FC3CAD44BC9AA129B5A96241D4","019cef9c-05cb-7484-9e5a-a70a7c7c4415","019cef87-c56d-7b55-9135-c5814367ec25","","null","
                <div class=""stimulus-container"">
                    <img src=""images/schematic_sequence/restaurant_scheme/restaurant_scheme_8.png"" class=""exp-image"">
                    <div class=""question-area""></div> 
                </div>","null","","","","","","","",""
"","","","","","html-button-response","137","580090","0.0-137.0","FCC8D9FC3CAD44BC9AA129B5A96241D4","019cef9c-05cb-7484-9e5a-a70a7c7c4415","019cef87-c56d-7b55-9135-c5814367ec25","","897","
                <div class=""stimulus-container"">
                    <img src=""images/schematic_sequence/restaurant_scheme/restaurant_scheme_8.png"" class=""exp-image"">
                    <div class=""question-area"">
                        <p style=""font-size: 20px; font-weight: bold; margin: 0;"">Is there a person in this image?</p>
                    </div>
                </div>","0","main_experiment_trial","8","restaurant_scheme","schematic_sequence","","","",""
"","","","","","html-keyboard-response","138","585093","0.0-138.0","FCC8D9FC3CAD44BC9AA129B5A96241D4","019cef9c-05cb-7484-9e5a-a70a7c7c4415","019cef87-c56d-7b55-9135-c5814367ec25","","null","
                <div class=""stimulus-container"">
                    <img src=""images/schematic_sequence/restaurant_scheme/restaurant_scheme_9.png"" class=""exp-image"">
                    <div class=""question-area""></div> 
                </div>","null","","","","","","","",""
"","","","","","html-button-response","139","585787","0.0-139.0","FCC8D9FC3CAD44BC9AA129B5A96241D4","019cef9c-05cb-7484-9e5a-a70a7c7c4415","019cef87-c56d-7b55-9135-c5814367ec25","","694","
                <div class=""stimulus-container"">
                    <img src=""images/schematic_sequence/restaurant_scheme/restaurant_scheme_9.png"" class=""exp-image"">
                    <div class=""question-area"">
                        <p style=""font-size: 20px; font-weight: bold; margin: 0;"">Is there a person in this image?</p>
                    </div>
                </div>","0","main_experiment_trial","9","restaurant_scheme","schematic_sequence","","","",""
"","","","","","html-keyboard-response","140","590789","0.0-140.0","FCC8D9FC3CAD44BC9AA129B5A96241D4","019cef9c-05cb-7484-9e5a-a70a7c7c4415","019cef87-c56d-7b55-9135-c5814367ec25","","null","
                <div class=""stimulus-container"">
                    <img src=""images/schematic_sequence/restaurant_scheme/restaurant_scheme_ten.png"" class=""exp-image"">
                    <div class=""question-area""></div> 
                </div>","null","","","","","","","",""
"","","","","","html-button-response","141","591402","0.0-141.0","FCC8D9FC3CAD44BC9AA129B5A96241D4","019cef9c-05cb-7484-9e5a-a70a7c7c4415","019cef87-c56d-7b55-9135-c5814367ec25","","612","
                <div class=""stimulus-container"">
                    <img src=""images/schematic_sequence/restaurant_scheme/restaurant_scheme_ten.png"" class=""exp-image"">
                    <div class=""question-area"">
                        <p style=""font-size: 20px; font-weight: bold; margin: 0;"">Is there a person in this image?</p>
                    </div>
                </div>","0","main_experiment_trial","ten","restaurant_scheme","schematic_sequence","","","",""
"","","","","","html-keyboard-response","142","592404","0.0-142.0","FCC8D9FC3CAD44BC9AA129B5A96241D4","019cef9c-05cb-7484-9e5a-a70a7c7c4415","019cef87-c56d-7b55-9135-c5814367ec25","","null","<div style=""background-color: white; width: 100vw; height: 100vh;""></div>","null","","","","","","","",""
"","","","","","html-keyboard-response","143","597405","0.0-143.0","FCC8D9FC3CAD44BC9AA129B5A96241D4","019cef9c-05cb-7484-9e5a-a70a7c7c4415","019cef87-c56d-7b55-9135-c5814367ec25","","null","
                <div class=""stimulus-container"">
                    <img src=""images/causal_sequence/dog_causal/dog_causal_1.png"" class=""exp-image"">
                    <div class=""question-area""></div> 
                </div>","null","","","","","","","",""
"","","","","","html-button-response","144","598836","0.0-144.0","FCC8D9FC3CAD44BC9AA129B5A96241D4","019cef9c-05cb-7484-9e5a-a70a7c7c4415","019cef87-c56d-7b55-9135-c5814367ec25","","1430","
                <div class=""stimulus-container"">
                    <img src=""images/causal_sequence/dog_causal/dog_causal_1.png"" class=""exp-image"">
                    <div class=""question-area"">
                        <p style=""font-size: 20px; font-weight: bold; margin: 0;"">Is there a person in this image?</p>
                    </div>
                </div>","0","main_experiment_trial","1","dog_causal","causal_sequence","","","",""
"","","","","","html-keyboard-response","145","603838","0.0-145.0","FCC8D9FC3CAD44BC9AA129B5A96241D4","019cef9c-05cb-7484-9e5a-a70a7c7c4415","019cef87-c56d-7b55-9135-c5814367ec25","","null","
                <div class=""stimulus-container"">
                    <img src=""images/causal_sequence/dog_causal/dog_causal_2.png"" class=""exp-image"">
                    <div class=""question-area""></div> 
                </div>","null","","","","","","","",""
"","","","","","html-button-response","146","604934","0.0-146.0","FCC8D9FC3CAD44BC9AA129B5A96241D4","019cef9c-05cb-7484-9e5a-a70a7c7c4415","019cef87-c56d-7b55-9135-c5814367ec25","","1094","
                <div class=""stimulus-container"">
                    <img src=""images/causal_sequence/dog_causal/dog_causal_2.png"" class=""exp-image"">
                    <div class=""question-area"">
                        <p style=""font-size: 20px; font-weight: bold; margin: 0;"">Is there a person in this image?</p>
                    </div>
                </div>","0","main_experiment_trial","2","dog_causal","causal_sequence","","","",""
"","","","","","html-keyboard-response","147","609936","0.0-147.0","FCC8D9FC3CAD44BC9AA129B5A96241D4","019cef9c-05cb-7484-9e5a-a70a7c7c4415","019cef87-c56d-7b55-9135-c5814367ec25","","null","
                <div class=""stimulus-container"">
                    <img src=""images/causal_sequence/dog_causal/dog_causal_3.png"" class=""exp-image"">
                    <div class=""question-area""></div> 
                </div>","null","","","","","","","",""
"","","","","","html-button-response","148","611125","0.0-148.0","FCC8D9FC3CAD44BC9AA129B5A96241D4","019cef9c-05cb-7484-9e5a-a70a7c7c4415","019cef87-c56d-7b55-9135-c5814367ec25","","1188","
                <div class=""stimulus-container"">
                    <img src=""images/causal_sequence/dog_causal/dog_causal_3.png"" class=""exp-image"">
                    <div class=""question-area"">
                        <p style=""font-size: 20px; font-weight: bold; margin: 0;"">Is there a person in this image?</p>
                    </div>
                </div>","0","main_experiment_trial","3","dog_causal","causal_sequence","","","",""
"","","","","","html-keyboard-response","149","616126","0.0-149.0","FCC8D9FC3CAD44BC9AA129B5A96241D4","019cef9c-05cb-7484-9e5a-a70a7c7c4415","019cef87-c56d-7b55-9135-c5814367ec25","","null","
                <div class=""stimulus-container"">
                    <img src=""images/causal_sequence/dog_causal/dog_causal_4.png"" class=""exp-image"">
                    <div class=""question-area""></div> 
                </div>","null","","","","","","","",""
"","","","","","html-button-response","150","616764","0.0-150.0","FCC8D9FC3CAD44BC9AA129B5A96241D4","019cef9c-05cb-7484-9e5a-a70a7c7c4415","019cef87-c56d-7b55-9135-c5814367ec25","","637","
                <div class=""stimulus-container"">
                    <img src=""images/causal_sequence/dog_causal/dog_causal_4.png"" class=""exp-image"">
                    <div class=""question-area"">
                        <p style=""font-size: 20px; font-weight: bold; margin: 0;"">Is there a person in this image?</p>
                    </div>
                </div>","0","main_experiment_trial","4","dog_causal","causal_sequence","","","",""
"","","","","","html-keyboard-response","151","621767","0.0-151.0","FCC8D9FC3CAD44BC9AA129B5A96241D4","019cef9c-05cb-7484-9e5a-a70a7c7c4415","019cef87-c56d-7b55-9135-c5814367ec25","","null","
                <div class=""stimulus-container"">
                    <img src=""images/causal_sequence/dog_causal/dog_causal_5.png"" class=""exp-image"">
                    <div class=""question-area""></div> 
                </div>","null","","","","","","","",""
"","","","","","html-button-response","152","623310","0.0-152.0","FCC8D9FC3CAD44BC9AA129B5A96241D4","019cef9c-05cb-7484-9e5a-a70a7c7c4415","019cef87-c56d-7b55-9135-c5814367ec25","","1542","
                <div class=""stimulus-container"">
                    <img src=""images/causal_sequence/dog_causal/dog_causal_5.png"" class=""exp-image"">
                    <div class=""question-area"">
                        <p style=""font-size: 20px; font-weight: bold; margin: 0;"">Is there a person in this image?</p>
                    </div>
                </div>","0","main_experiment_trial","5","dog_causal","causal_sequence","","","",""
"","","","","","html-keyboard-response","153","628313","0.0-153.0","FCC8D9FC3CAD44BC9AA129B5A96241D4","019cef9c-05cb-7484-9e5a-a70a7c7c4415","019cef87-c56d-7b55-9135-c5814367ec25","","null","
                <div class=""stimulus-container"">
                    <img src=""images/causal_sequence/dog_causal/dog_causal_6.png"" class=""exp-image"">
                    <div class=""question-area""></div> 
                </div>","null","","","","","","","",""
"","","","","","html-button-response","154","628498","0.0-154.0","FCC8D9FC3CAD44BC9AA129B5A96241D4","019cef9c-05cb-7484-9e5a-a70a7c7c4415","019cef87-c56d-7b55-9135-c5814367ec25","","184","
                <div class=""stimulus-container"">
                    <img src=""images/causal_sequence/dog_causal/dog_causal_6.png"" class=""exp-image"">
                    <div class=""question-area"">
                        <p style=""font-size: 20px; font-weight: bold; margin: 0;"">Is there a person in this image?</p>
                    </div>
                </div>","0","main_experiment_trial","6","dog_causal","causal_sequence","","","",""
"","","","","","html-keyboard-response","155","633500","0.0-155.0","FCC8D9FC3CAD44BC9AA129B5A96241D4","019cef9c-05cb-7484-9e5a-a70a7c7c4415","019cef87-c56d-7b55-9135-c5814367ec25","","null","
                <div class=""stimulus-container"">
                    <img src=""images/causal_sequence/dog_causal/dog_causal_7.png"" class=""exp-image"">
                    <div class=""question-area""></div> 
                </div>","null","","","","","","","",""
"","","","","","html-button-response","156","634628","0.0-156.0","FCC8D9FC3CAD44BC9AA129B5A96241D4","019cef9c-05cb-7484-9e5a-a70a7c7c4415","019cef87-c56d-7b55-9135-c5814367ec25","","1127","
                <div class=""stimulus-container"">
                    <img src=""images/causal_sequence/dog_causal/dog_causal_7.png"" class=""exp-image"">
                    <div class=""question-area"">
                        <p style=""font-size: 20px; font-weight: bold; margin: 0;"">Is there a person in this image?</p>
                    </div>
                </div>","0","main_experiment_trial","7","dog_causal","causal_sequence","","","",""
"","","","","","html-keyboard-response","157","639631","0.0-157.0","FCC8D9FC3CAD44BC9AA129B5A96241D4","019cef9c-05cb-7484-9e5a-a70a7c7c4415","019cef87-c56d-7b55-9135-c5814367ec25","","null","
                <div class=""stimulus-container"">
                    <img src=""images/causal_sequence/dog_causal/dog_causal_8.png"" class=""exp-image"">
                    <div class=""question-area""></div> 
                </div>","null","","","","","","","",""
"","","","","","html-button-response","158","640263","0.0-158.0","FCC8D9FC3CAD44BC9AA129B5A96241D4","019cef9c-05cb-7484-9e5a-a70a7c7c4415","019cef87-c56d-7b55-9135-c5814367ec25","","631","
                <div class=""stimulus-container"">
                    <img src=""images/causal_sequence/dog_causal/dog_causal_8.png"" class=""exp-image"">
                    <div class=""question-area"">
                        <p style=""font-size: 20px; font-weight: bold; margin: 0;"">Is there a person in this image?</p>
                    </div>
                </div>","0","main_experiment_trial","8","dog_causal","causal_sequence","","","",""
"","","","","","html-keyboard-response","159","645266","0.0-159.0","FCC8D9FC3CAD44BC9AA129B5A96241D4","019cef9c-05cb-7484-9e5a-a70a7c7c4415","019cef87-c56d-7b55-9135-c5814367ec25","","null","
                <div class=""stimulus-container"">
                    <img src=""images/causal_sequence/dog_causal/dog_causal_9.png"" class=""exp-image"">
                    <div class=""question-area""></div> 
                </div>","null","","","","","","","",""
"","","","","","html-button-response","160","646494","0.0-160.0","FCC8D9FC3CAD44BC9AA129B5A96241D4","019cef9c-05cb-7484-9e5a-a70a7c7c4415","019cef87-c56d-7b55-9135-c5814367ec25","","1228","
                <div class=""stimulus-container"">
                    <img src=""images/causal_sequence/dog_causal/dog_causal_9.png"" class=""exp-image"">
                    <div class=""question-area"">
                        <p style=""font-size: 20px; font-weight: bold; margin: 0;"">Is there a person in this image?</p>
                    </div>
                </div>","0","main_experiment_trial","9","dog_causal","causal_sequence","","","",""
"","","","","","html-keyboard-response","161","651497","0.0-161.0","FCC8D9FC3CAD44BC9AA129B5A96241D4","019cef9c-05cb-7484-9e5a-a70a7c7c4415","019cef87-c56d-7b55-9135-c5814367ec25","","null","
                <div class=""stimulus-container"">
                    <img src=""images/causal_sequence/dog_causal/dog_causal_ten.png"" class=""exp-image"">
                    <div class=""question-area""></div> 
                </div>","null","","","","","","","",""
"","","","","","html-button-response","162","653395","0.0-162.0","FCC8D9FC3CAD44BC9AA129B5A96241D4","019cef9c-05cb-7484-9e5a-a70a7c7c4415","019cef87-c56d-7b55-9135-c5814367ec25","","1897","
                <div class=""stimulus-container"">
                    <img src=""images/causal_sequence/dog_causal/dog_causal_ten.png"" class=""exp-image"">
                    <div class=""question-area"">
                        <p style=""font-size: 20px; font-weight: bold; margin: 0;"">Is there a person in this image?</p>
                    </div>
                </div>","0","main_experiment_trial","ten","dog_causal","causal_sequence","","","",""
"","","","","","html-keyboard-response","163","654398","0.0-163.0","FCC8D9FC3CAD44BC9AA129B5A96241D4","019cef9c-05cb-7484-9e5a-a70a7c7c4415","019cef87-c56d-7b55-9135-c5814367ec25","","null","<div style=""background-color: white; width: 100vw; height: 100vh;""></div>","null","","","","","","","",""
"","","","","","html-keyboard-response","164","659399","0.0-164.0","FCC8D9FC3CAD44BC9AA129B5A96241D4","019cef9c-05cb-7484-9e5a-a70a7c7c4415","019cef87-c56d-7b55-9135-c5814367ec25","","null","
                <div class=""stimulus-container"">
                    <img src=""images/schematic_sequence/interview_scheme/interview_scheme_1.png"" class=""exp-image"">
                    <div class=""question-area""></div> 
                </div>","null","","","","","","","",""
"","","","","","html-button-response","165","660125","0.0-165.0","FCC8D9FC3CAD44BC9AA129B5A96241D4","019cef9c-05cb-7484-9e5a-a70a7c7c4415","019cef87-c56d-7b55-9135-c5814367ec25","","725","
                <div class=""stimulus-container"">
                    <img src=""images/schematic_sequence/interview_scheme/interview_scheme_1.png"" class=""exp-image"">
                    <div class=""question-area"">
                        <p style=""font-size: 20px; font-weight: bold; margin: 0;"">Is there a person in this image?</p>
                    </div>
                </div>","1","main_experiment_trial","1","interview_scheme","schematic_sequence","","","",""
"","","","","","html-keyboard-response","166","665127","0.0-166.0","FCC8D9FC3CAD44BC9AA129B5A96241D4","019cef9c-05cb-7484-9e5a-a70a7c7c4415","019cef87-c56d-7b55-9135-c5814367ec25","","null","
                <div class=""stimulus-container"">
                    <img src=""images/schematic_sequence/interview_scheme/interview_scheme_2.png"" class=""exp-image"">
                    <div class=""question-area""></div> 
                </div>","null","","","","","","","",""
"","","","","","html-button-response","167","666810","0.0-167.0","FCC8D9FC3CAD44BC9AA129B5A96241D4","019cef9c-05cb-7484-9e5a-a70a7c7c4415","019cef87-c56d-7b55-9135-c5814367ec25","","1682","
                <div class=""stimulus-container"">
                    <img src=""images/schematic_sequence/interview_scheme/interview_scheme_2.png"" class=""exp-image"">
                    <div class=""question-area"">
                        <p style=""font-size: 20px; font-weight: bold; margin: 0;"">Is there a person in this image?</p>
                    </div>
                </div>","1","main_experiment_trial","2","interview_scheme","schematic_sequence","","","",""
"","","","","","html-keyboard-response","168","671812","0.0-168.0","FCC8D9FC3CAD44BC9AA129B5A96241D4","019cef9c-05cb-7484-9e5a-a70a7c7c4415","019cef87-c56d-7b55-9135-c5814367ec25","","null","
                <div class=""stimulus-container"">
                    <img src=""images/schematic_sequence/interview_scheme/interview_scheme_3.png"" class=""exp-image"">
                    <div class=""question-area""></div> 
                </div>","null","","","","","","","",""
"","","","","","html-button-response","169","672819","0.0-169.0","FCC8D9FC3CAD44BC9AA129B5A96241D4","019cef9c-05cb-7484-9e5a-a70a7c7c4415","019cef87-c56d-7b55-9135-c5814367ec25","","1006","
                <div class=""stimulus-container"">
                    <img src=""images/schematic_sequence/interview_scheme/interview_scheme_3.png"" class=""exp-image"">
                    <div class=""question-area"">
                        <p style=""font-size: 20px; font-weight: bold; margin: 0;"">Is there a person in this image?</p>
                    </div>
                </div>","1","main_experiment_trial","3","interview_scheme","schematic_sequence","","","",""
"","","","","","html-keyboard-response","170","677821","0.0-170.0","FCC8D9FC3CAD44BC9AA129B5A96241D4","019cef9c-05cb-7484-9e5a-a70a7c7c4415","019cef87-c56d-7b55-9135-c5814367ec25","","null","
                <div class=""stimulus-container"">
                    <img src=""images/schematic_sequence/interview_scheme/interview_scheme_4.png"" class=""exp-image"">
                    <div class=""question-area""></div> 
                </div>","null","","","","","","","",""
"","","","","","html-button-response","171","678755","0.0-171.0","FCC8D9FC3CAD44BC9AA129B5A96241D4","019cef9c-05cb-7484-9e5a-a70a7c7c4415","019cef87-c56d-7b55-9135-c5814367ec25","","933","
                <div class=""stimulus-container"">
                    <img src=""images/schematic_sequence/interview_scheme/interview_scheme_4.png"" class=""exp-image"">
                    <div class=""question-area"">
                        <p style=""font-size: 20px; font-weight: bold; margin: 0;"">Is there a person in this image?</p>
                    </div>
                </div>","1","main_experiment_trial","4","interview_scheme","schematic_sequence","","","",""
"","","","","","html-keyboard-response","172","683756","0.0-172.0","FCC8D9FC3CAD44BC9AA129B5A96241D4","019cef9c-05cb-7484-9e5a-a70a7c7c4415","019cef87-c56d-7b55-9135-c5814367ec25","","null","
                <div class=""stimulus-container"">
                    <img src=""images/schematic_sequence/interview_scheme/interview_scheme_5.png"" class=""exp-image"">
                    <div class=""question-area""></div> 
                </div>","null","","","","","","","",""
"","","","","","html-button-response","173","684867","0.0-173.0","FCC8D9FC3CAD44BC9AA129B5A96241D4","019cef9c-05cb-7484-9e5a-a70a7c7c4415","019cef87-c56d-7b55-9135-c5814367ec25","","1110","
                <div class=""stimulus-container"">
                    <img src=""images/schematic_sequence/interview_scheme/interview_scheme_5.png"" class=""exp-image"">
                    <div class=""question-area"">
                        <p style=""font-size: 20px; font-weight: bold; margin: 0;"">Is there a person in this image?</p>
                    </div>
                </div>","0","main_experiment_trial","5","interview_scheme","schematic_sequence","","","",""
"","","","","","html-keyboard-response","174","689869","0.0-174.0","FCC8D9FC3CAD44BC9AA129B5A96241D4","019cef9c-05cb-7484-9e5a-a70a7c7c4415","019cef87-c56d-7b55-9135-c5814367ec25","","null","
                <div class=""stimulus-container"">
                    <img src=""images/schematic_sequence/interview_scheme/interview_scheme_6.png"" class=""exp-image"">
                    <div class=""question-area""></div> 
                </div>","null","","","","","","","",""
"","","","","","html-button-response","175","690452","0.0-175.0","FCC8D9FC3CAD44BC9AA129B5A96241D4","019cef9c-05cb-7484-9e5a-a70a7c7c4415","019cef87-c56d-7b55-9135-c5814367ec25","","582","
                <div class=""stimulus-container"">
                    <img src=""images/schematic_sequence/interview_scheme/interview_scheme_6.png"" class=""exp-image"">
                    <div class=""question-area"">
                        <p style=""font-size: 20px; font-weight: bold; margin: 0;"">Is there a person in this image?</p>
                    </div>
                </div>","0","main_experiment_trial","6","interview_scheme","schematic_sequence","","","",""
"","","","","","html-keyboard-response","176","695454","0.0-176.0","FCC8D9FC3CAD44BC9AA129B5A96241D4","019cef9c-05cb-7484-9e5a-a70a7c7c4415","019cef87-c56d-7b55-9135-c5814367ec25","","null","
                <div class=""stimulus-container"">
                    <img src=""images/schematic_sequence/interview_scheme/interview_scheme_7.png"" class=""exp-image"">
                    <div class=""question-area""></div> 
                </div>","null","","","","","","","",""
"","","","","","html-button-response","177","697387","0.0-177.0","FCC8D9FC3CAD44BC9AA129B5A96241D4","019cef9c-05cb-7484-9e5a-a70a7c7c4415","019cef87-c56d-7b55-9135-c5814367ec25","","1932","
                <div class=""stimulus-container"">
                    <img src=""images/schematic_sequence/interview_scheme/interview_scheme_7.png"" class=""exp-image"">
                    <div class=""question-area"">
                        <p style=""font-size: 20px; font-weight: bold; margin: 0;"">Is there a person in this image?</p>
                    </div>
                </div>","0","main_experiment_trial","7","interview_scheme","schematic_sequence","","","",""
"","","","","","html-keyboard-response","178","702390","0.0-178.0","FCC8D9FC3CAD44BC9AA129B5A96241D4","019cef9c-05cb-7484-9e5a-a70a7c7c4415","019cef87-c56d-7b55-9135-c5814367ec25","","null","
                <div class=""stimulus-container"">
                    <img src=""images/schematic_sequence/interview_scheme/interview_scheme_8.png"" class=""exp-image"">
                    <div class=""question-area""></div> 
                </div>","null","","","","","","","",""
"","","","","","html-button-response","179","703092","0.0-179.0","FCC8D9FC3CAD44BC9AA129B5A96241D4","019cef9c-05cb-7484-9e5a-a70a7c7c4415","019cef87-c56d-7b55-9135-c5814367ec25","","701","
                <div class=""stimulus-container"">
                    <img src=""images/schematic_sequence/interview_scheme/interview_scheme_8.png"" class=""exp-image"">
                    <div class=""question-area"">
                        <p style=""font-size: 20px; font-weight: bold; margin: 0;"">Is there a person in this image?</p>
                    </div>
                </div>","0","main_experiment_trial","8","interview_scheme","schematic_sequence","","","",""
"","","","","","html-keyboard-response","180","708094","0.0-180.0","FCC8D9FC3CAD44BC9AA129B5A96241D4","019cef9c-05cb-7484-9e5a-a70a7c7c4415","019cef87-c56d-7b55-9135-c5814367ec25","","null","
                <div class=""stimulus-container"">
                    <img src=""images/schematic_sequence/interview_scheme/interview_scheme_9.png"" class=""exp-image"">
                    <div class=""question-area""></div> 
                </div>","null","","","","","","","",""
"","","","","","html-button-response","181","709207","0.0-181.0","FCC8D9FC3CAD44BC9AA129B5A96241D4","019cef9c-05cb-7484-9e5a-a70a7c7c4415","019cef87-c56d-7b55-9135-c5814367ec25","","1111","
                <div class=""stimulus-container"">
                    <img src=""images/schematic_sequence/interview_scheme/interview_scheme_9.png"" class=""exp-image"">
                    <div class=""question-area"">
                        <p style=""font-size: 20px; font-weight: bold; margin: 0;"">Is there a person in this image?</p>
                    </div>
                </div>","0","main_experiment_trial","9","interview_scheme","schematic_sequence","","","",""
"","","","","","html-keyboard-response","182","714210","0.0-182.0","FCC8D9FC3CAD44BC9AA129B5A96241D4","019cef9c-05cb-7484-9e5a-a70a7c7c4415","019cef87-c56d-7b55-9135-c5814367ec25","","null","
                <div class=""stimulus-container"">
                    <img src=""images/schematic_sequence/interview_scheme/interview_scheme_ten.png"" class=""exp-image"">
                    <div class=""question-area""></div> 
                </div>","null","","","","","","","",""
"","","","","","html-button-response","183","714956","0.0-183.0","FCC8D9FC3CAD44BC9AA129B5A96241D4","019cef9c-05cb-7484-9e5a-a70a7c7c4415","019cef87-c56d-7b55-9135-c5814367ec25","","746","
                <div class=""stimulus-container"">
                    <img src=""images/schematic_sequence/interview_scheme/interview_scheme_ten.png"" class=""exp-image"">
                    <div class=""question-area"">
                        <p style=""font-size: 20px; font-weight: bold; margin: 0;"">Is there a person in this image?</p>
                    </div>
                </div>","0","main_experiment_trial","ten","interview_scheme","schematic_sequence","","","",""
"","","","","","html-keyboard-response","184","715958","0.0-184.0","FCC8D9FC3CAD44BC9AA129B5A96241D4","019cef9c-05cb-7484-9e5a-a70a7c7c4415","019cef87-c56d-7b55-9135-c5814367ec25","","null","<div style=""background-color: white; width: 100vw; height: 100vh;""></div>","null","","","","","","","",""
