"success","timeout","failed_images","failed_audio","failed_video","trial_type","trial_index","time_elapsed","internal_node_id","subject_id","study_id","session_id","view_history","rt","stimulus","response","task","image_index","folder","sequence_type","valuable_image_index","reward_type","chosen_image_index","target_X","correct_choice"
"true","false","[]","[]","[]","preload","0","1663","0.0-0.0","045101053B24453A93034E30C29178C2","019cf818-d8cc-7b7f-bc0a-b4aae78476b6","019cf80d-4266-7117-8a51-54e13c84aca4","","","","","","","","","","","","",""
"","","","","","instructions","1","3331","0.0-1.0","045101053B24453A93034E30C29178C2","019cf818-d8cc-7b7f-bc0a-b4aae78476b6","019cf80d-4266-7117-8a51-54e13c84aca4","[{""page_index"":0,""viewing_time"":1667}]","1667","","","","","","","","","","",""
"","","","","","instructions","2","12459","0.0-2.0","045101053B24453A93034E30C29178C2","019cf818-d8cc-7b7f-bc0a-b4aae78476b6","019cf80d-4266-7117-8a51-54e13c84aca4","[{""page_index"":0,""viewing_time"":9128}]","9128","","","","","","","","","","",""
"true","","","","","fullscreen","3","15183","0.0-3.0","045101053B24453A93034E30C29178C2","019cf818-d8cc-7b7f-bc0a-b4aae78476b6","019cf80d-4266-7117-8a51-54e13c84aca4","","1720","","","","","","","","","","",""
"","","","","","instructions","4","22217","0.0-4.0","045101053B24453A93034E30C29178C2","019cf818-d8cc-7b7f-bc0a-b4aae78476b6","019cf80d-4266-7117-8a51-54e13c84aca4","[{""page_index"":0,""viewing_time"":7034}]","7034","","","","","","","","","","",""
"","","","","","instructions","5","26384","0.0-5.0","045101053B24453A93034E30C29178C2","019cf818-d8cc-7b7f-bc0a-b4aae78476b6","019cf80d-4266-7117-8a51-54e13c84aca4","[{""page_index"":0,""viewing_time"":4166}]","4166","","","","","","","","","","",""
"","","","","","html-keyboard-response","6","30388","0.0-6.0","045101053B24453A93034E30C29178C2","019cf818-d8cc-7b7f-bc0a-b4aae78476b6","019cf80d-4266-7117-8a51-54e13c84aca4","","null","
                <div class=""stimulus-container"">
                    <img src=""images/instructions/movie_1.png"" class=""exp-image"">
                    <div class=""question-area""></div> 
                </div>","null","","","","","","","","",""
"","","","","","html-button-response","7","32415","0.0-7.0","045101053B24453A93034E30C29178C2","019cf818-d8cc-7b7f-bc0a-b4aae78476b6","019cf80d-4266-7117-8a51-54e13c84aca4","","2026","
                <div class=""stimulus-container"">
                    <img src=""images/instructions/movie_1.png"" class=""exp-image"">
                    <div class=""question-area"">
                        <p style=""font-size: 20px; font-weight: bold; margin: 0;"">Was there a person in this image?</p>
                    </div>
                </div>","0","example_question","1","","","","","","",""
"","","","","","html-keyboard-response","8","36418","0.0-8.0","045101053B24453A93034E30C29178C2","019cf818-d8cc-7b7f-bc0a-b4aae78476b6","019cf80d-4266-7117-8a51-54e13c84aca4","","null","
                <div class=""stimulus-container"">
                    <img src=""images/instructions/movie_2.png"" class=""exp-image"">
                    <div class=""question-area""></div> 
                </div>","null","","","","","","","","",""
"","","","","","html-button-response","9","38250","0.0-9.0","045101053B24453A93034E30C29178C2","019cf818-d8cc-7b7f-bc0a-b4aae78476b6","019cf80d-4266-7117-8a51-54e13c84aca4","","1831","
                <div class=""stimulus-container"">
                    <img src=""images/instructions/movie_2.png"" class=""exp-image"">
                    <div class=""question-area"">
                        <p style=""font-size: 20px; font-weight: bold; margin: 0;"">Was there a person in this image?</p>
                    </div>
                </div>","0","example_question","2","","","","","","",""
"","","","","","html-keyboard-response","10","42252","0.0-10.0","045101053B24453A93034E30C29178C2","019cf818-d8cc-7b7f-bc0a-b4aae78476b6","019cf80d-4266-7117-8a51-54e13c84aca4","","null","
                <div class=""stimulus-container"">
                    <img src=""images/instructions/movie_3.png"" class=""exp-image"">
                    <div class=""question-area""></div> 
                </div>","null","","","","","","","","",""
"","","","","","html-button-response","11","43050","0.0-11.0","045101053B24453A93034E30C29178C2","019cf818-d8cc-7b7f-bc0a-b4aae78476b6","019cf80d-4266-7117-8a51-54e13c84aca4","","797","
                <div class=""stimulus-container"">
                    <img src=""images/instructions/movie_3.png"" class=""exp-image"">
                    <div class=""question-area"">
                        <p style=""font-size: 20px; font-weight: bold; margin: 0;"">Was there a person in this image?</p>
                    </div>
                </div>","0","example_question","3","","","","","","",""
"","","","","","html-keyboard-response","12","47052","0.0-12.0","045101053B24453A93034E30C29178C2","019cf818-d8cc-7b7f-bc0a-b4aae78476b6","019cf80d-4266-7117-8a51-54e13c84aca4","","null","
                <div class=""stimulus-container"">
                    <img src=""images/instructions/movie_4.png"" class=""exp-image"">
                    <div class=""question-area""></div> 
                </div>","null","","","","","","","","",""
"","","","","","html-button-response","13","47827","0.0-13.0","045101053B24453A93034E30C29178C2","019cf818-d8cc-7b7f-bc0a-b4aae78476b6","019cf80d-4266-7117-8a51-54e13c84aca4","","773","
                <div class=""stimulus-container"">
                    <img src=""images/instructions/movie_4.png"" class=""exp-image"">
                    <div class=""question-area"">
                        <p style=""font-size: 20px; font-weight: bold; margin: 0;"">Was there a person in this image?</p>
                    </div>
                </div>","0","example_question","4","","","","","","",""
"","","","","","instructions","14","49800","0.0-14.0","045101053B24453A93034E30C29178C2","019cf818-d8cc-7b7f-bc0a-b4aae78476b6","019cf80d-4266-7117-8a51-54e13c84aca4","[{""page_index"":0,""viewing_time"":1973}]","1973","","","","","","","","","","",""
"","","","","","instructions","15","56017","0.0-15.0","045101053B24453A93034E30C29178C2","019cf818-d8cc-7b7f-bc0a-b4aae78476b6","019cf80d-4266-7117-8a51-54e13c84aca4","[{""page_index"":0,""viewing_time"":6216}]","6217","","","","","","","","","","",""
"","","","","","html-keyboard-response","16","57020","0.0-16.0","045101053B24453A93034E30C29178C2","019cf818-d8cc-7b7f-bc0a-b4aae78476b6","019cf80d-4266-7117-8a51-54e13c84aca4","","null","<div style=""background-color: white; width: 100vw; height: 100vh;""></div>","null","","","","","","","","",""
"","","","","","html-keyboard-response","17","62022","0.0-17.0","045101053B24453A93034E30C29178C2","019cf818-d8cc-7b7f-bc0a-b4aae78476b6","019cf80d-4266-7117-8a51-54e13c84aca4","","null","
                <div class=""stimulus-container"">
                    <img src=""images/semantic_sequence/cat_care_semantic/cat_care_semantic_1.png"" class=""exp-image"">
                    <div class=""question-area""></div> 
                </div>","null","","","","","","","","",""
"","","","","","html-button-response","18","63340","0.0-18.0","045101053B24453A93034E30C29178C2","019cf818-d8cc-7b7f-bc0a-b4aae78476b6","019cf80d-4266-7117-8a51-54e13c84aca4","","1316","
                <div class=""stimulus-container"">
                    <img src=""images/semantic_sequence/cat_care_semantic/cat_care_semantic_1.png"" class=""exp-image"">
                    <div class=""question-area"">
                        <p style=""font-size: 20px; font-weight: bold; margin: 0;"">Is there a person in this image?</p>
                    </div>
                </div>","0","main_experiment_trial","1","cat_care_semantic","semantic_sequence","","","","",""
"","","","","","html-keyboard-response","19","68342","0.0-19.0","045101053B24453A93034E30C29178C2","019cf818-d8cc-7b7f-bc0a-b4aae78476b6","019cf80d-4266-7117-8a51-54e13c84aca4","","null","
                <div class=""stimulus-container"">
                    <img src=""images/semantic_sequence/cat_care_semantic/cat_care_semantic_2.png"" class=""exp-image"">
                    <div class=""question-area""></div> 
                </div>","null","","","","","","","","",""
"","","","","","html-button-response","20","69172","0.0-20.0","045101053B24453A93034E30C29178C2","019cf818-d8cc-7b7f-bc0a-b4aae78476b6","019cf80d-4266-7117-8a51-54e13c84aca4","","829","
                <div class=""stimulus-container"">
                    <img src=""images/semantic_sequence/cat_care_semantic/cat_care_semantic_2.png"" class=""exp-image"">
                    <div class=""question-area"">
                        <p style=""font-size: 20px; font-weight: bold; margin: 0;"">Is there a person in this image?</p>
                    </div>
                </div>","0","main_experiment_trial","2","cat_care_semantic","semantic_sequence","","","","",""
"","","","","","html-keyboard-response","21","74174","0.0-21.0","045101053B24453A93034E30C29178C2","019cf818-d8cc-7b7f-bc0a-b4aae78476b6","019cf80d-4266-7117-8a51-54e13c84aca4","","null","
                <div class=""stimulus-container"">
                    <img src=""images/semantic_sequence/cat_care_semantic/cat_care_semantic_3.png"" class=""exp-image"">
                    <div class=""question-area""></div> 
                </div>","null","","","","","","","","",""
"","","","","","html-button-response","22","76702","0.0-22.0","045101053B24453A93034E30C29178C2","019cf818-d8cc-7b7f-bc0a-b4aae78476b6","019cf80d-4266-7117-8a51-54e13c84aca4","","2527","
                <div class=""stimulus-container"">
                    <img src=""images/semantic_sequence/cat_care_semantic/cat_care_semantic_3.png"" class=""exp-image"">
                    <div class=""question-area"">
                        <p style=""font-size: 20px; font-weight: bold; margin: 0;"">Is there a person in this image?</p>
                    </div>
                </div>","0","main_experiment_trial","3","cat_care_semantic","semantic_sequence","","","","",""
"","","","","","html-keyboard-response","23","81704","0.0-23.0","045101053B24453A93034E30C29178C2","019cf818-d8cc-7b7f-bc0a-b4aae78476b6","019cf80d-4266-7117-8a51-54e13c84aca4","","null","
                <div class=""stimulus-container"">
                    <img src=""images/semantic_sequence/cat_care_semantic/cat_care_semantic_4.png"" class=""exp-image"">
                    <div class=""question-area""></div> 
                </div>","null","","","","","","","","",""
"","","","","","html-button-response","24","82575","0.0-24.0","045101053B24453A93034E30C29178C2","019cf818-d8cc-7b7f-bc0a-b4aae78476b6","019cf80d-4266-7117-8a51-54e13c84aca4","","870","
                <div class=""stimulus-container"">
                    <img src=""images/semantic_sequence/cat_care_semantic/cat_care_semantic_4.png"" class=""exp-image"">
                    <div class=""question-area"">
                        <p style=""font-size: 20px; font-weight: bold; margin: 0;"">Is there a person in this image?</p>
                    </div>
                </div>","0","main_experiment_trial","4","cat_care_semantic","semantic_sequence","","","","",""
"","","","","","html-keyboard-response","25","87578","0.0-25.0","045101053B24453A93034E30C29178C2","019cf818-d8cc-7b7f-bc0a-b4aae78476b6","019cf80d-4266-7117-8a51-54e13c84aca4","","null","
                <div class=""stimulus-container"">
                    <img src=""images/semantic_sequence/cat_care_semantic/cat_care_semantic_5.png"" class=""exp-image"">
                    <div class=""question-area""></div> 
                </div>","null","","","","","","","","",""
"","","","","","html-button-response","26","88861","0.0-26.0","045101053B24453A93034E30C29178C2","019cf818-d8cc-7b7f-bc0a-b4aae78476b6","019cf80d-4266-7117-8a51-54e13c84aca4","","1282","
                <div class=""stimulus-container"">
                    <img src=""images/semantic_sequence/cat_care_semantic/cat_care_semantic_5.png"" class=""exp-image"">
                    <div class=""question-area"">
                        <p style=""font-size: 20px; font-weight: bold; margin: 0;"">Is there a person in this image?</p>
                    </div>
                </div>","0","main_experiment_trial","5","cat_care_semantic","semantic_sequence","","","","",""
"","","","","","html-keyboard-response","27","93863","0.0-27.0","045101053B24453A93034E30C29178C2","019cf818-d8cc-7b7f-bc0a-b4aae78476b6","019cf80d-4266-7117-8a51-54e13c84aca4","","null","
                <div class=""stimulus-container"">
                    <img src=""images/semantic_sequence/cat_care_semantic/cat_care_semantic_6.png"" class=""exp-image"">
                    <div class=""question-area""></div> 
                </div>","null","","","","","","","","",""
"","","","","","html-button-response","28","94561","0.0-28.0","045101053B24453A93034E30C29178C2","019cf818-d8cc-7b7f-bc0a-b4aae78476b6","019cf80d-4266-7117-8a51-54e13c84aca4","","697","
                <div class=""stimulus-container"">
                    <img src=""images/semantic_sequence/cat_care_semantic/cat_care_semantic_6.png"" class=""exp-image"">
                    <div class=""question-area"">
                        <p style=""font-size: 20px; font-weight: bold; margin: 0;"">Is there a person in this image?</p>
                    </div>
                </div>","0","main_experiment_trial","6","cat_care_semantic","semantic_sequence","","","","",""
"","","","","","html-keyboard-response","29","99563","0.0-29.0","045101053B24453A93034E30C29178C2","019cf818-d8cc-7b7f-bc0a-b4aae78476b6","019cf80d-4266-7117-8a51-54e13c84aca4","","null","
                <div class=""stimulus-container"">
                    <img src=""images/semantic_sequence/cat_care_semantic/cat_care_semantic_7.png"" class=""exp-image"">
                    <div class=""question-area""></div> 
                </div>","null","","","","","","","","",""
"","","","","","html-button-response","30","100237","0.0-30.0","045101053B24453A93034E30C29178C2","019cf818-d8cc-7b7f-bc0a-b4aae78476b6","019cf80d-4266-7117-8a51-54e13c84aca4","","673","
                <div class=""stimulus-container"">
                    <img src=""images/semantic_sequence/cat_care_semantic/cat_care_semantic_7.png"" class=""exp-image"">
                    <div class=""question-area"">
                        <p style=""font-size: 20px; font-weight: bold; margin: 0;"">Is there a person in this image?</p>
                    </div>
                </div>","0","main_experiment_trial","7","cat_care_semantic","semantic_sequence","","","","",""
"","","","","","html-keyboard-response","31","105240","0.0-31.0","045101053B24453A93034E30C29178C2","019cf818-d8cc-7b7f-bc0a-b4aae78476b6","019cf80d-4266-7117-8a51-54e13c84aca4","","null","
                <div class=""stimulus-container"">
                    <img src=""images/semantic_sequence/cat_care_semantic/cat_care_semantic_8.png"" class=""exp-image"">
                    <div class=""question-area""></div> 
                </div>","null","","","","","","","","",""
"","","","","","html-button-response","32","105737","0.0-32.0","045101053B24453A93034E30C29178C2","019cf818-d8cc-7b7f-bc0a-b4aae78476b6","019cf80d-4266-7117-8a51-54e13c84aca4","","497","
                <div class=""stimulus-container"">
                    <img src=""images/semantic_sequence/cat_care_semantic/cat_care_semantic_8.png"" class=""exp-image"">
                    <div class=""question-area"">
                        <p style=""font-size: 20px; font-weight: bold; margin: 0;"">Is there a person in this image?</p>
                    </div>
                </div>","0","main_experiment_trial","8","cat_care_semantic","semantic_sequence","","","","",""
"","","","","","html-keyboard-response","33","110739","0.0-33.0","045101053B24453A93034E30C29178C2","019cf818-d8cc-7b7f-bc0a-b4aae78476b6","019cf80d-4266-7117-8a51-54e13c84aca4","","null","
                <div class=""stimulus-container"">
                    <img src=""images/semantic_sequence/cat_care_semantic/cat_care_semantic_9.png"" class=""exp-image"">
                    <div class=""question-area""></div> 
                </div>","null","","","","","","","","",""
"","","","","","html-button-response","34","111397","0.0-34.0","045101053B24453A93034E30C29178C2","019cf818-d8cc-7b7f-bc0a-b4aae78476b6","019cf80d-4266-7117-8a51-54e13c84aca4","","657","
                <div class=""stimulus-container"">
                    <img src=""images/semantic_sequence/cat_care_semantic/cat_care_semantic_9.png"" class=""exp-image"">
                    <div class=""question-area"">
                        <p style=""font-size: 20px; font-weight: bold; margin: 0;"">Is there a person in this image?</p>
                    </div>
                </div>","0","main_experiment_trial","9","cat_care_semantic","semantic_sequence","","","","",""
"","","","","","html-keyboard-response","35","116399","0.0-35.0","045101053B24453A93034E30C29178C2","019cf818-d8cc-7b7f-bc0a-b4aae78476b6","019cf80d-4266-7117-8a51-54e13c84aca4","","null","
                <div class=""stimulus-container"">
                    <img src=""images/semantic_sequence/cat_care_semantic/cat_care_semantic_ten.png"" class=""exp-image"">
                    <div class=""question-area""></div> 
                </div>","null","","","","","","","","",""
"","","","","","html-button-response","36","117317","0.0-36.0","045101053B24453A93034E30C29178C2","019cf818-d8cc-7b7f-bc0a-b4aae78476b6","019cf80d-4266-7117-8a51-54e13c84aca4","","917","
                <div class=""stimulus-container"">
                    <img src=""images/semantic_sequence/cat_care_semantic/cat_care_semantic_ten.png"" class=""exp-image"">
                    <div class=""question-area"">
                        <p style=""font-size: 20px; font-weight: bold; margin: 0;"">Is there a person in this image?</p>
                    </div>
                </div>","1","main_experiment_trial","ten","cat_care_semantic","semantic_sequence","","","","",""
"","","","","","html-keyboard-response","37","118319","0.0-37.0","045101053B24453A93034E30C29178C2","019cf818-d8cc-7b7f-bc0a-b4aae78476b6","019cf80d-4266-7117-8a51-54e13c84aca4","","null","<div style=""background-color: white; width: 100vw; height: 100vh;""></div>","null","","","","","","","","",""
"","","","","","html-keyboard-response","38","123321","0.0-38.0","045101053B24453A93034E30C29178C2","019cf818-d8cc-7b7f-bc0a-b4aae78476b6","019cf80d-4266-7117-8a51-54e13c84aca4","","null","
                <div class=""stimulus-container"">
                    <img src=""images/schematic_sequence/flight_scheme/flight_scheme_1.png"" class=""exp-image"">
                    <div class=""question-area""></div> 
                </div>","null","","","","","","","","",""
"","","","","","html-button-response","39","124372","0.0-39.0","045101053B24453A93034E30C29178C2","019cf818-d8cc-7b7f-bc0a-b4aae78476b6","019cf80d-4266-7117-8a51-54e13c84aca4","","1051","
                <div class=""stimulus-container"">
                    <img src=""images/schematic_sequence/flight_scheme/flight_scheme_1.png"" class=""exp-image"">
                    <div class=""question-area"">
                        <p style=""font-size: 20px; font-weight: bold; margin: 0;"">Is there a person in this image?</p>
                    </div>
                </div>","0","main_experiment_trial","1","flight_scheme","schematic_sequence","","","","",""
"","","","","","html-keyboard-response","40","129375","0.0-40.0","045101053B24453A93034E30C29178C2","019cf818-d8cc-7b7f-bc0a-b4aae78476b6","019cf80d-4266-7117-8a51-54e13c84aca4","","null","
                <div class=""stimulus-container"">
                    <img src=""images/schematic_sequence/flight_scheme/flight_scheme_2.png"" class=""exp-image"">
                    <div class=""question-area""></div> 
                </div>","null","","","","","","","","",""
"","","","","","html-button-response","41","130096","0.0-41.0","045101053B24453A93034E30C29178C2","019cf818-d8cc-7b7f-bc0a-b4aae78476b6","019cf80d-4266-7117-8a51-54e13c84aca4","","720","
                <div class=""stimulus-container"">
                    <img src=""images/schematic_sequence/flight_scheme/flight_scheme_2.png"" class=""exp-image"">
                    <div class=""question-area"">
                        <p style=""font-size: 20px; font-weight: bold; margin: 0;"">Is there a person in this image?</p>
                    </div>
                </div>","1","main_experiment_trial","2","flight_scheme","schematic_sequence","","","","",""
"","","","","","html-keyboard-response","42","135098","0.0-42.0","045101053B24453A93034E30C29178C2","019cf818-d8cc-7b7f-bc0a-b4aae78476b6","019cf80d-4266-7117-8a51-54e13c84aca4","","null","
                <div class=""stimulus-container"">
                    <img src=""images/schematic_sequence/flight_scheme/flight_scheme_3.png"" class=""exp-image"">
                    <div class=""question-area""></div> 
                </div>","null","","","","","","","","",""
"","","","","","html-button-response","43","135785","0.0-43.0","045101053B24453A93034E30C29178C2","019cf818-d8cc-7b7f-bc0a-b4aae78476b6","019cf80d-4266-7117-8a51-54e13c84aca4","","686","
                <div class=""stimulus-container"">
                    <img src=""images/schematic_sequence/flight_scheme/flight_scheme_3.png"" class=""exp-image"">
                    <div class=""question-area"">
                        <p style=""font-size: 20px; font-weight: bold; margin: 0;"">Is there a person in this image?</p>
                    </div>
                </div>","0","main_experiment_trial","3","flight_scheme","schematic_sequence","","","","",""
"","","","","","html-keyboard-response","44","140787","0.0-44.0","045101053B24453A93034E30C29178C2","019cf818-d8cc-7b7f-bc0a-b4aae78476b6","019cf80d-4266-7117-8a51-54e13c84aca4","","null","
                <div class=""stimulus-container"">
                    <img src=""images/schematic_sequence/flight_scheme/flight_scheme_4.png"" class=""exp-image"">
                    <div class=""question-area""></div> 
                </div>","null","","","","","","","","",""
"","","","","","html-button-response","45","142269","0.0-45.0","045101053B24453A93034E30C29178C2","019cf818-d8cc-7b7f-bc0a-b4aae78476b6","019cf80d-4266-7117-8a51-54e13c84aca4","","1481","
                <div class=""stimulus-container"">
                    <img src=""images/schematic_sequence/flight_scheme/flight_scheme_4.png"" class=""exp-image"">
                    <div class=""question-area"">
                        <p style=""font-size: 20px; font-weight: bold; margin: 0;"">Is there a person in this image?</p>
                    </div>
                </div>","0","main_experiment_trial","4","flight_scheme","schematic_sequence","","","","",""
"","","","","","html-keyboard-response","46","147271","0.0-46.0","045101053B24453A93034E30C29178C2","019cf818-d8cc-7b7f-bc0a-b4aae78476b6","019cf80d-4266-7117-8a51-54e13c84aca4","","null","
                <div class=""stimulus-container"">
                    <img src=""images/schematic_sequence/flight_scheme/flight_scheme_5.png"" class=""exp-image"">
                    <div class=""question-area""></div> 
                </div>","null","","","","","","","","",""
"","","","","","html-button-response","47","147796","0.0-47.0","045101053B24453A93034E30C29178C2","019cf818-d8cc-7b7f-bc0a-b4aae78476b6","019cf80d-4266-7117-8a51-54e13c84aca4","","524","
                <div class=""stimulus-container"">
                    <img src=""images/schematic_sequence/flight_scheme/flight_scheme_5.png"" class=""exp-image"">
                    <div class=""question-area"">
                        <p style=""font-size: 20px; font-weight: bold; margin: 0;"">Is there a person in this image?</p>
                    </div>
                </div>","0","main_experiment_trial","5","flight_scheme","schematic_sequence","","","","",""
"","","","","","html-keyboard-response","48","152799","0.0-48.0","045101053B24453A93034E30C29178C2","019cf818-d8cc-7b7f-bc0a-b4aae78476b6","019cf80d-4266-7117-8a51-54e13c84aca4","","null","
                <div class=""stimulus-container"">
                    <img src=""images/schematic_sequence/flight_scheme/flight_scheme_6.png"" class=""exp-image"">
                    <div class=""question-area""></div> 
                </div>","null","","","","","","","","",""
"","","","","","html-button-response","49","153458","0.0-49.0","045101053B24453A93034E30C29178C2","019cf818-d8cc-7b7f-bc0a-b4aae78476b6","019cf80d-4266-7117-8a51-54e13c84aca4","","659","
                <div class=""stimulus-container"">
                    <img src=""images/schematic_sequence/flight_scheme/flight_scheme_6.png"" class=""exp-image"">
                    <div class=""question-area"">
                        <p style=""font-size: 20px; font-weight: bold; margin: 0;"">Is there a person in this image?</p>
                    </div>
                </div>","1","main_experiment_trial","6","flight_scheme","schematic_sequence","","","","",""
"","","","","","html-keyboard-response","50","158461","0.0-50.0","045101053B24453A93034E30C29178C2","019cf818-d8cc-7b7f-bc0a-b4aae78476b6","019cf80d-4266-7117-8a51-54e13c84aca4","","null","
                <div class=""stimulus-container"">
                    <img src=""images/schematic_sequence/flight_scheme/flight_scheme_7.png"" class=""exp-image"">
                    <div class=""question-area""></div> 
                </div>","null","","","","","","","","",""
"","","","","","html-button-response","51","159535","0.0-51.0","045101053B24453A93034E30C29178C2","019cf818-d8cc-7b7f-bc0a-b4aae78476b6","019cf80d-4266-7117-8a51-54e13c84aca4","","1073","
                <div class=""stimulus-container"">
                    <img src=""images/schematic_sequence/flight_scheme/flight_scheme_7.png"" class=""exp-image"">
                    <div class=""question-area"">
                        <p style=""font-size: 20px; font-weight: bold; margin: 0;"">Is there a person in this image?</p>
                    </div>
                </div>","0","main_experiment_trial","7","flight_scheme","schematic_sequence","","","","",""
"","","","","","html-keyboard-response","52","164536","0.0-52.0","045101053B24453A93034E30C29178C2","019cf818-d8cc-7b7f-bc0a-b4aae78476b6","019cf80d-4266-7117-8a51-54e13c84aca4","","null","
                <div class=""stimulus-container"">
                    <img src=""images/schematic_sequence/flight_scheme/flight_scheme_8.png"" class=""exp-image"">
                    <div class=""question-area""></div> 
                </div>","null","","","","","","","","",""
"","","","","","html-button-response","53","165271","0.0-53.0","045101053B24453A93034E30C29178C2","019cf818-d8cc-7b7f-bc0a-b4aae78476b6","019cf80d-4266-7117-8a51-54e13c84aca4","","734","
                <div class=""stimulus-container"">
                    <img src=""images/schematic_sequence/flight_scheme/flight_scheme_8.png"" class=""exp-image"">
                    <div class=""question-area"">
                        <p style=""font-size: 20px; font-weight: bold; margin: 0;"">Is there a person in this image?</p>
                    </div>
                </div>","1","main_experiment_trial","8","flight_scheme","schematic_sequence","","","","",""
"","","","","","html-keyboard-response","54","170273","0.0-54.0","045101053B24453A93034E30C29178C2","019cf818-d8cc-7b7f-bc0a-b4aae78476b6","019cf80d-4266-7117-8a51-54e13c84aca4","","null","
                <div class=""stimulus-container"">
                    <img src=""images/schematic_sequence/flight_scheme/flight_scheme_9.png"" class=""exp-image"">
                    <div class=""question-area""></div> 
                </div>","null","","","","","","","","",""
"","","","","","html-button-response","55","171060","0.0-55.0","045101053B24453A93034E30C29178C2","019cf818-d8cc-7b7f-bc0a-b4aae78476b6","019cf80d-4266-7117-8a51-54e13c84aca4","","786","
                <div class=""stimulus-container"">
                    <img src=""images/schematic_sequence/flight_scheme/flight_scheme_9.png"" class=""exp-image"">
                    <div class=""question-area"">
                        <p style=""font-size: 20px; font-weight: bold; margin: 0;"">Is there a person in this image?</p>
                    </div>
                </div>","0","main_experiment_trial","9","flight_scheme","schematic_sequence","","","","",""
"","","","","","html-keyboard-response","56","176063","0.0-56.0","045101053B24453A93034E30C29178C2","019cf818-d8cc-7b7f-bc0a-b4aae78476b6","019cf80d-4266-7117-8a51-54e13c84aca4","","null","
                <div class=""stimulus-container"">
                    <img src=""images/schematic_sequence/flight_scheme/flight_scheme_ten.png"" class=""exp-image"">
                    <div class=""question-area""></div> 
                </div>","null","","","","","","","","",""
"","","","","","html-button-response","57","178183","0.0-57.0","045101053B24453A93034E30C29178C2","019cf818-d8cc-7b7f-bc0a-b4aae78476b6","019cf80d-4266-7117-8a51-54e13c84aca4","","2119","
                <div class=""stimulus-container"">
                    <img src=""images/schematic_sequence/flight_scheme/flight_scheme_ten.png"" class=""exp-image"">
                    <div class=""question-area"">
                        <p style=""font-size: 20px; font-weight: bold; margin: 0;"">Is there a person in this image?</p>
                    </div>
                </div>","0","main_experiment_trial","ten","flight_scheme","schematic_sequence","","","","",""
"","","","","","html-keyboard-response","58","179185","0.0-58.0","045101053B24453A93034E30C29178C2","019cf818-d8cc-7b7f-bc0a-b4aae78476b6","019cf80d-4266-7117-8a51-54e13c84aca4","","null","<div style=""background-color: white; width: 100vw; height: 100vh;""></div>","null","","","","","","","","",""
"","","","","","html-keyboard-response","59","184188","0.0-59.0","045101053B24453A93034E30C29178C2","019cf818-d8cc-7b7f-bc0a-b4aae78476b6","019cf80d-4266-7117-8a51-54e13c84aca4","","null","
                <div class=""stimulus-container"">
                    <img src=""images/schematic_sequence/supermarket_scheme/supermarket_scheme_1.png"" class=""exp-image"">
                    <div class=""question-area""></div> 
                </div>","null","","","","","","","","",""
"","","","","","html-button-response","60","185210","0.0-60.0","045101053B24453A93034E30C29178C2","019cf818-d8cc-7b7f-bc0a-b4aae78476b6","019cf80d-4266-7117-8a51-54e13c84aca4","","1021","
                <div class=""stimulus-container"">
                    <img src=""images/schematic_sequence/supermarket_scheme/supermarket_scheme_1.png"" class=""exp-image"">
                    <div class=""question-area"">
                        <p style=""font-size: 20px; font-weight: bold; margin: 0;"">Is there a person in this image?</p>
                    </div>
                </div>","1","main_experiment_trial","1","supermarket_scheme","schematic_sequence","","","","",""
"","","","","","html-keyboard-response","61","190212","0.0-61.0","045101053B24453A93034E30C29178C2","019cf818-d8cc-7b7f-bc0a-b4aae78476b6","019cf80d-4266-7117-8a51-54e13c84aca4","","null","
                <div class=""stimulus-container"">
                    <img src=""images/schematic_sequence/supermarket_scheme/supermarket_scheme_2.png"" class=""exp-image"">
                    <div class=""question-area""></div> 
                </div>","null","","","","","","","","",""
"","","","","","html-button-response","62","190967","0.0-62.0","045101053B24453A93034E30C29178C2","019cf818-d8cc-7b7f-bc0a-b4aae78476b6","019cf80d-4266-7117-8a51-54e13c84aca4","","754","
                <div class=""stimulus-container"">
                    <img src=""images/schematic_sequence/supermarket_scheme/supermarket_scheme_2.png"" class=""exp-image"">
                    <div class=""question-area"">
                        <p style=""font-size: 20px; font-weight: bold; margin: 0;"">Is there a person in this image?</p>
                    </div>
                </div>","1","main_experiment_trial","2","supermarket_scheme","schematic_sequence","","","","",""
"","","","","","html-keyboard-response","63","195970","0.0-63.0","045101053B24453A93034E30C29178C2","019cf818-d8cc-7b7f-bc0a-b4aae78476b6","019cf80d-4266-7117-8a51-54e13c84aca4","","null","
                <div class=""stimulus-container"">
                    <img src=""images/schematic_sequence/supermarket_scheme/supermarket_scheme_3.png"" class=""exp-image"">
                    <div class=""question-area""></div> 
                </div>","null","","","","","","","","",""
"","","","","","html-button-response","64","196779","0.0-64.0","045101053B24453A93034E30C29178C2","019cf818-d8cc-7b7f-bc0a-b4aae78476b6","019cf80d-4266-7117-8a51-54e13c84aca4","","808","
                <div class=""stimulus-container"">
                    <img src=""images/schematic_sequence/supermarket_scheme/supermarket_scheme_3.png"" class=""exp-image"">
                    <div class=""question-area"">
                        <p style=""font-size: 20px; font-weight: bold; margin: 0;"">Is there a person in this image?</p>
                    </div>
                </div>","1","main_experiment_trial","3","supermarket_scheme","schematic_sequence","","","","",""
"","","","","","html-keyboard-response","65","201782","0.0-65.0","045101053B24453A93034E30C29178C2","019cf818-d8cc-7b7f-bc0a-b4aae78476b6","019cf80d-4266-7117-8a51-54e13c84aca4","","null","
                <div class=""stimulus-container"">
                    <img src=""images/schematic_sequence/supermarket_scheme/supermarket_scheme_4.png"" class=""exp-image"">
                    <div class=""question-area""></div> 
                </div>","null","","","","","","","","",""
"","","","","","html-button-response","66","204784","0.0-66.0","045101053B24453A93034E30C29178C2","019cf818-d8cc-7b7f-bc0a-b4aae78476b6","019cf80d-4266-7117-8a51-54e13c84aca4","","null","
                <div class=""stimulus-container"">
                    <img src=""images/schematic_sequence/supermarket_scheme/supermarket_scheme_4.png"" class=""exp-image"">
                    <div class=""question-area"">
                        <p style=""font-size: 20px; font-weight: bold; margin: 0;"">Is there a person in this image?</p>
                    </div>
                </div>","null","main_experiment_trial","4","supermarket_scheme","schematic_sequence","","","","",""
"","","","","","html-keyboard-response","67","209786","0.0-67.0","045101053B24453A93034E30C29178C2","019cf818-d8cc-7b7f-bc0a-b4aae78476b6","019cf80d-4266-7117-8a51-54e13c84aca4","","null","
                <div class=""stimulus-container"">
                    <img src=""images/schematic_sequence/supermarket_scheme/supermarket_scheme_5.png"" class=""exp-image"">
                    <div class=""question-area""></div> 
                </div>","null","","","","","","","","",""
"","","","","","html-button-response","68","212788","0.0-68.0","045101053B24453A93034E30C29178C2","019cf818-d8cc-7b7f-bc0a-b4aae78476b6","019cf80d-4266-7117-8a51-54e13c84aca4","","null","
                <div class=""stimulus-container"">
                    <img src=""images/schematic_sequence/supermarket_scheme/supermarket_scheme_5.png"" class=""exp-image"">
                    <div class=""question-area"">
                        <p style=""font-size: 20px; font-weight: bold; margin: 0;"">Is there a person in this image?</p>
                    </div>
                </div>","null","main_experiment_trial","5","supermarket_scheme","schematic_sequence","","","","",""
"","","","","","html-keyboard-response","69","217790","0.0-69.0","045101053B24453A93034E30C29178C2","019cf818-d8cc-7b7f-bc0a-b4aae78476b6","019cf80d-4266-7117-8a51-54e13c84aca4","","null","
                <div class=""stimulus-container"">
                    <img src=""images/schematic_sequence/supermarket_scheme/supermarket_scheme_6.png"" class=""exp-image"">
                    <div class=""question-area""></div> 
                </div>","null","","","","","","","","",""
"","","","","","html-button-response","70","218454","0.0-70.0","045101053B24453A93034E30C29178C2","019cf818-d8cc-7b7f-bc0a-b4aae78476b6","019cf80d-4266-7117-8a51-54e13c84aca4","","663","
                <div class=""stimulus-container"">
                    <img src=""images/schematic_sequence/supermarket_scheme/supermarket_scheme_6.png"" class=""exp-image"">
                    <div class=""question-area"">
                        <p style=""font-size: 20px; font-weight: bold; margin: 0;"">Is there a person in this image?</p>
                    </div>
                </div>","0","main_experiment_trial","6","supermarket_scheme","schematic_sequence","","","","",""
"","","","","","html-keyboard-response","71","223457","0.0-71.0","045101053B24453A93034E30C29178C2","019cf818-d8cc-7b7f-bc0a-b4aae78476b6","019cf80d-4266-7117-8a51-54e13c84aca4","","null","
                <div class=""stimulus-container"">
                    <img src=""images/schematic_sequence/supermarket_scheme/supermarket_scheme_7.png"" class=""exp-image"">
                    <div class=""question-area""></div> 
                </div>","null","","","","","","","","",""
"","","","","","html-button-response","72","224788","0.0-72.0","045101053B24453A93034E30C29178C2","019cf818-d8cc-7b7f-bc0a-b4aae78476b6","019cf80d-4266-7117-8a51-54e13c84aca4","","1329","
                <div class=""stimulus-container"">
                    <img src=""images/schematic_sequence/supermarket_scheme/supermarket_scheme_7.png"" class=""exp-image"">
                    <div class=""question-area"">
                        <p style=""font-size: 20px; font-weight: bold; margin: 0;"">Is there a person in this image?</p>
                    </div>
                </div>","0","main_experiment_trial","7","supermarket_scheme","schematic_sequence","","","","",""
"","","","","","html-keyboard-response","73","229790","0.0-73.0","045101053B24453A93034E30C29178C2","019cf818-d8cc-7b7f-bc0a-b4aae78476b6","019cf80d-4266-7117-8a51-54e13c84aca4","","null","
                <div class=""stimulus-container"">
                    <img src=""images/schematic_sequence/supermarket_scheme/supermarket_scheme_8.png"" class=""exp-image"">
                    <div class=""question-area""></div> 
                </div>","null","","","","","","","","",""
"","","","","","html-button-response","74","230359","0.0-74.0","045101053B24453A93034E30C29178C2","019cf818-d8cc-7b7f-bc0a-b4aae78476b6","019cf80d-4266-7117-8a51-54e13c84aca4","","568","
                <div class=""stimulus-container"">
                    <img src=""images/schematic_sequence/supermarket_scheme/supermarket_scheme_8.png"" class=""exp-image"">
                    <div class=""question-area"">
                        <p style=""font-size: 20px; font-weight: bold; margin: 0;"">Is there a person in this image?</p>
                    </div>
                </div>","0","main_experiment_trial","8","supermarket_scheme","schematic_sequence","","","","",""
"","","","","","html-keyboard-response","75","235361","0.0-75.0","045101053B24453A93034E30C29178C2","019cf818-d8cc-7b7f-bc0a-b4aae78476b6","019cf80d-4266-7117-8a51-54e13c84aca4","","null","
                <div class=""stimulus-container"">
                    <img src=""images/schematic_sequence/supermarket_scheme/supermarket_scheme_9.png"" class=""exp-image"">
                    <div class=""question-area""></div> 
                </div>","null","","","","","","","","",""
"","","","","","html-button-response","76","236927","0.0-76.0","045101053B24453A93034E30C29178C2","019cf818-d8cc-7b7f-bc0a-b4aae78476b6","019cf80d-4266-7117-8a51-54e13c84aca4","","1565","
                <div class=""stimulus-container"">
                    <img src=""images/schematic_sequence/supermarket_scheme/supermarket_scheme_9.png"" class=""exp-image"">
                    <div class=""question-area"">
                        <p style=""font-size: 20px; font-weight: bold; margin: 0;"">Is there a person in this image?</p>
                    </div>
                </div>","0","main_experiment_trial","9","supermarket_scheme","schematic_sequence","","","","",""
"","","","","","html-keyboard-response","77","241930","0.0-77.0","045101053B24453A93034E30C29178C2","019cf818-d8cc-7b7f-bc0a-b4aae78476b6","019cf80d-4266-7117-8a51-54e13c84aca4","","null","
                <div class=""stimulus-container"">
                    <img src=""images/schematic_sequence/supermarket_scheme/supermarket_scheme_ten.png"" class=""exp-image"">
                    <div class=""question-area""></div> 
                </div>","null","","","","","","","","",""
"","","","","","html-button-response","78","242433","0.0-78.0","045101053B24453A93034E30C29178C2","019cf818-d8cc-7b7f-bc0a-b4aae78476b6","019cf80d-4266-7117-8a51-54e13c84aca4","","502","
                <div class=""stimulus-container"">
                    <img src=""images/schematic_sequence/supermarket_scheme/supermarket_scheme_ten.png"" class=""exp-image"">
                    <div class=""question-area"">
                        <p style=""font-size: 20px; font-weight: bold; margin: 0;"">Is there a person in this image?</p>
                    </div>
                </div>","1","main_experiment_trial","ten","supermarket_scheme","schematic_sequence","","","","",""
"","","","","","html-keyboard-response","79","243435","0.0-79.0","045101053B24453A93034E30C29178C2","019cf818-d8cc-7b7f-bc0a-b4aae78476b6","019cf80d-4266-7117-8a51-54e13c84aca4","","null","<div style=""background-color: white; width: 100vw; height: 100vh;""></div>","null","","","","","","","","",""
"","","","","","html-keyboard-response","80","248437","0.0-80.0","045101053B24453A93034E30C29178C2","019cf818-d8cc-7b7f-bc0a-b4aae78476b6","019cf80d-4266-7117-8a51-54e13c84aca4","","null","
                <div class=""stimulus-container"">
                    <img src=""images/semantic_sequence/creative_activities_semantic/creative_activities_semantic_1.png"" class=""exp-image"">
                    <div class=""question-area""></div> 
                </div>","null","","","","","","","","",""
"","","","","","html-button-response","81","250525","0.0-81.0","045101053B24453A93034E30C29178C2","019cf818-d8cc-7b7f-bc0a-b4aae78476b6","019cf80d-4266-7117-8a51-54e13c84aca4","","2087","
                <div class=""stimulus-container"">
                    <img src=""images/semantic_sequence/creative_activities_semantic/creative_activities_semantic_1.png"" class=""exp-image"">
                    <div class=""question-area"">
                        <p style=""font-size: 20px; font-weight: bold; margin: 0;"">Is there a person in this image?</p>
                    </div>
                </div>","0","main_experiment_trial","1","creative_activities_semantic","semantic_sequence","","","","",""
"","","","","","html-keyboard-response","82","255527","0.0-82.0","045101053B24453A93034E30C29178C2","019cf818-d8cc-7b7f-bc0a-b4aae78476b6","019cf80d-4266-7117-8a51-54e13c84aca4","","null","
                <div class=""stimulus-container"">
                    <img src=""images/semantic_sequence/creative_activities_semantic/creative_activities_semantic_2.png"" class=""exp-image"">
                    <div class=""question-area""></div> 
                </div>","null","","","","","","","","",""
"","","","","","html-button-response","83","256001","0.0-83.0","045101053B24453A93034E30C29178C2","019cf818-d8cc-7b7f-bc0a-b4aae78476b6","019cf80d-4266-7117-8a51-54e13c84aca4","","473","
                <div class=""stimulus-container"">
                    <img src=""images/semantic_sequence/creative_activities_semantic/creative_activities_semantic_2.png"" class=""exp-image"">
                    <div class=""question-area"">
                        <p style=""font-size: 20px; font-weight: bold; margin: 0;"">Is there a person in this image?</p>
                    </div>
                </div>","0","main_experiment_trial","2","creative_activities_semantic","semantic_sequence","","","","",""
"","","","","","html-keyboard-response","84","261004","0.0-84.0","045101053B24453A93034E30C29178C2","019cf818-d8cc-7b7f-bc0a-b4aae78476b6","019cf80d-4266-7117-8a51-54e13c84aca4","","null","
                <div class=""stimulus-container"">
                    <img src=""images/semantic_sequence/creative_activities_semantic/creative_activities_semantic_3.png"" class=""exp-image"">
                    <div class=""question-area""></div> 
                </div>","null","","","","","","","","",""
"","","","","","html-button-response","85","261505","0.0-85.0","045101053B24453A93034E30C29178C2","019cf818-d8cc-7b7f-bc0a-b4aae78476b6","019cf80d-4266-7117-8a51-54e13c84aca4","","500","
                <div class=""stimulus-container"">
                    <img src=""images/semantic_sequence/creative_activities_semantic/creative_activities_semantic_3.png"" class=""exp-image"">
                    <div class=""question-area"">
                        <p style=""font-size: 20px; font-weight: bold; margin: 0;"">Is there a person in this image?</p>
                    </div>
                </div>","0","main_experiment_trial","3","creative_activities_semantic","semantic_sequence","","","","",""
"","","","","","html-keyboard-response","86","266508","0.0-86.0","045101053B24453A93034E30C29178C2","019cf818-d8cc-7b7f-bc0a-b4aae78476b6","019cf80d-4266-7117-8a51-54e13c84aca4","","null","
                <div class=""stimulus-container"">
                    <img src=""images/semantic_sequence/creative_activities_semantic/creative_activities_semantic_4.png"" class=""exp-image"">
                    <div class=""question-area""></div> 
                </div>","null","","","","","","","","",""
"","","","","","html-button-response","87","267889","0.0-87.0","045101053B24453A93034E30C29178C2","019cf818-d8cc-7b7f-bc0a-b4aae78476b6","019cf80d-4266-7117-8a51-54e13c84aca4","","1380","
                <div class=""stimulus-container"">
                    <img src=""images/semantic_sequence/creative_activities_semantic/creative_activities_semantic_4.png"" class=""exp-image"">
                    <div class=""question-area"">
                        <p style=""font-size: 20px; font-weight: bold; margin: 0;"">Is there a person in this image?</p>
                    </div>
                </div>","0","main_experiment_trial","4","creative_activities_semantic","semantic_sequence","","","","",""
"","","","","","html-keyboard-response","88","272891","0.0-88.0","045101053B24453A93034E30C29178C2","019cf818-d8cc-7b7f-bc0a-b4aae78476b6","019cf80d-4266-7117-8a51-54e13c84aca4","","null","
                <div class=""stimulus-container"">
                    <img src=""images/semantic_sequence/creative_activities_semantic/creative_activities_semantic_5.png"" class=""exp-image"">
                    <div class=""question-area""></div> 
                </div>","null","","","","","","","","",""
"","","","","","html-button-response","89","273438","0.0-89.0","045101053B24453A93034E30C29178C2","019cf818-d8cc-7b7f-bc0a-b4aae78476b6","019cf80d-4266-7117-8a51-54e13c84aca4","","546","
                <div class=""stimulus-container"">
                    <img src=""images/semantic_sequence/creative_activities_semantic/creative_activities_semantic_5.png"" class=""exp-image"">
                    <div class=""question-area"">
                        <p style=""font-size: 20px; font-weight: bold; margin: 0;"">Is there a person in this image?</p>
                    </div>
                </div>","0","main_experiment_trial","5","creative_activities_semantic","semantic_sequence","","","","",""
"","","","","","html-keyboard-response","90","278440","0.0-90.0","045101053B24453A93034E30C29178C2","019cf818-d8cc-7b7f-bc0a-b4aae78476b6","019cf80d-4266-7117-8a51-54e13c84aca4","","null","
                <div class=""stimulus-container"">
                    <img src=""images/semantic_sequence/creative_activities_semantic/creative_activities_semantic_6.png"" class=""exp-image"">
                    <div class=""question-area""></div> 
                </div>","null","","","","","","","","",""
"","","","","","html-button-response","91","278921","0.0-91.0","045101053B24453A93034E30C29178C2","019cf818-d8cc-7b7f-bc0a-b4aae78476b6","019cf80d-4266-7117-8a51-54e13c84aca4","","480","
                <div class=""stimulus-container"">
                    <img src=""images/semantic_sequence/creative_activities_semantic/creative_activities_semantic_6.png"" class=""exp-image"">
                    <div class=""question-area"">
                        <p style=""font-size: 20px; font-weight: bold; margin: 0;"">Is there a person in this image?</p>
                    </div>
                </div>","0","main_experiment_trial","6","creative_activities_semantic","semantic_sequence","","","","",""
"","","","","","html-keyboard-response","92","283923","0.0-92.0","045101053B24453A93034E30C29178C2","019cf818-d8cc-7b7f-bc0a-b4aae78476b6","019cf80d-4266-7117-8a51-54e13c84aca4","","null","
                <div class=""stimulus-container"">
                    <img src=""images/semantic_sequence/creative_activities_semantic/creative_activities_semantic_7.png"" class=""exp-image"">
                    <div class=""question-area""></div> 
                </div>","null","","","","","","","","",""
"","","","","","html-button-response","93","284718","0.0-93.0","045101053B24453A93034E30C29178C2","019cf818-d8cc-7b7f-bc0a-b4aae78476b6","019cf80d-4266-7117-8a51-54e13c84aca4","","794","
                <div class=""stimulus-container"">
                    <img src=""images/semantic_sequence/creative_activities_semantic/creative_activities_semantic_7.png"" class=""exp-image"">
                    <div class=""question-area"">
                        <p style=""font-size: 20px; font-weight: bold; margin: 0;"">Is there a person in this image?</p>
                    </div>
                </div>","0","main_experiment_trial","7","creative_activities_semantic","semantic_sequence","","","","",""
"","","","","","html-keyboard-response","94","289721","0.0-94.0","045101053B24453A93034E30C29178C2","019cf818-d8cc-7b7f-bc0a-b4aae78476b6","019cf80d-4266-7117-8a51-54e13c84aca4","","null","
                <div class=""stimulus-container"">
                    <img src=""images/semantic_sequence/creative_activities_semantic/creative_activities_semantic_8.png"" class=""exp-image"">
                    <div class=""question-area""></div> 
                </div>","null","","","","","","","","",""
"","","","","","html-button-response","95","290892","0.0-95.0","045101053B24453A93034E30C29178C2","019cf818-d8cc-7b7f-bc0a-b4aae78476b6","019cf80d-4266-7117-8a51-54e13c84aca4","","1170","
                <div class=""stimulus-container"">
                    <img src=""images/semantic_sequence/creative_activities_semantic/creative_activities_semantic_8.png"" class=""exp-image"">
                    <div class=""question-area"">
                        <p style=""font-size: 20px; font-weight: bold; margin: 0;"">Is there a person in this image?</p>
                    </div>
                </div>","0","main_experiment_trial","8","creative_activities_semantic","semantic_sequence","","","","",""
"","","","","","html-keyboard-response","96","295894","0.0-96.0","045101053B24453A93034E30C29178C2","019cf818-d8cc-7b7f-bc0a-b4aae78476b6","019cf80d-4266-7117-8a51-54e13c84aca4","","null","
                <div class=""stimulus-container"">
                    <img src=""images/semantic_sequence/creative_activities_semantic/creative_activities_semantic_9.png"" class=""exp-image"">
                    <div class=""question-area""></div> 
                </div>","null","","","","","","","","",""
"","","","","","html-button-response","97","296620","0.0-97.0","045101053B24453A93034E30C29178C2","019cf818-d8cc-7b7f-bc0a-b4aae78476b6","019cf80d-4266-7117-8a51-54e13c84aca4","","725","
                <div class=""stimulus-container"">
                    <img src=""images/semantic_sequence/creative_activities_semantic/creative_activities_semantic_9.png"" class=""exp-image"">
                    <div class=""question-area"">
                        <p style=""font-size: 20px; font-weight: bold; margin: 0;"">Is there a person in this image?</p>
                    </div>
                </div>","0","main_experiment_trial","9","creative_activities_semantic","semantic_sequence","","","","",""
"","","","","","html-keyboard-response","98","301621","0.0-98.0","045101053B24453A93034E30C29178C2","019cf818-d8cc-7b7f-bc0a-b4aae78476b6","019cf80d-4266-7117-8a51-54e13c84aca4","","null","
                <div class=""stimulus-container"">
                    <img src=""images/semantic_sequence/creative_activities_semantic/creative_activities_semantic_ten.png"" class=""exp-image"">
                    <div class=""question-area""></div> 
                </div>","null","","","","","","","","",""
"","","","","","html-button-response","99","302276","0.0-99.0","045101053B24453A93034E30C29178C2","019cf818-d8cc-7b7f-bc0a-b4aae78476b6","019cf80d-4266-7117-8a51-54e13c84aca4","","654","
                <div class=""stimulus-container"">
                    <img src=""images/semantic_sequence/creative_activities_semantic/creative_activities_semantic_ten.png"" class=""exp-image"">
                    <div class=""question-area"">
                        <p style=""font-size: 20px; font-weight: bold; margin: 0;"">Is there a person in this image?</p>
                    </div>
                </div>","0","main_experiment_trial","ten","creative_activities_semantic","semantic_sequence","","","","",""
"","","","","","html-keyboard-response","100","303278","0.0-100.0","045101053B24453A93034E30C29178C2","019cf818-d8cc-7b7f-bc0a-b4aae78476b6","019cf80d-4266-7117-8a51-54e13c84aca4","","null","<div style=""background-color: white; width: 100vw; height: 100vh;""></div>","null","","","","","","","","",""
"","","","","","html-keyboard-response","101","308281","0.0-101.0","045101053B24453A93034E30C29178C2","019cf818-d8cc-7b7f-bc0a-b4aae78476b6","019cf80d-4266-7117-8a51-54e13c84aca4","","null","
                <div class=""stimulus-container"">
                    <img src=""images/semantic_sequence/redecorating_a_house_semantic/redecorating_a_house_semantic_1.png"" class=""exp-image"">
                    <div class=""question-area""></div> 
                </div>","null","","","","","","","","",""
"","","","","","html-button-response","102","309875","0.0-102.0","045101053B24453A93034E30C29178C2","019cf818-d8cc-7b7f-bc0a-b4aae78476b6","019cf80d-4266-7117-8a51-54e13c84aca4","","1593","
                <div class=""stimulus-container"">
                    <img src=""images/semantic_sequence/redecorating_a_house_semantic/redecorating_a_house_semantic_1.png"" class=""exp-image"">
                    <div class=""question-area"">
                        <p style=""font-size: 20px; font-weight: bold; margin: 0;"">Is there a person in this image?</p>
                    </div>
                </div>","0","main_experiment_trial","1","redecorating_a_house_semantic","semantic_sequence","","","","",""
"","","","","","html-keyboard-response","103","314878","0.0-103.0","045101053B24453A93034E30C29178C2","019cf818-d8cc-7b7f-bc0a-b4aae78476b6","019cf80d-4266-7117-8a51-54e13c84aca4","","null","
                <div class=""stimulus-container"">
                    <img src=""images/semantic_sequence/redecorating_a_house_semantic/redecorating_a_house_semantic_2.png"" class=""exp-image"">
                    <div class=""question-area""></div> 
                </div>","null","","","","","","","","",""
"","","","","","html-button-response","104","315792","0.0-104.0","045101053B24453A93034E30C29178C2","019cf818-d8cc-7b7f-bc0a-b4aae78476b6","019cf80d-4266-7117-8a51-54e13c84aca4","","914","
                <div class=""stimulus-container"">
                    <img src=""images/semantic_sequence/redecorating_a_house_semantic/redecorating_a_house_semantic_2.png"" class=""exp-image"">
                    <div class=""question-area"">
                        <p style=""font-size: 20px; font-weight: bold; margin: 0;"">Is there a person in this image?</p>
                    </div>
                </div>","0","main_experiment_trial","2","redecorating_a_house_semantic","semantic_sequence","","","","",""
"","","","","","html-keyboard-response","105","320794","0.0-105.0","045101053B24453A93034E30C29178C2","019cf818-d8cc-7b7f-bc0a-b4aae78476b6","019cf80d-4266-7117-8a51-54e13c84aca4","","null","
                <div class=""stimulus-container"">
                    <img src=""images/semantic_sequence/redecorating_a_house_semantic/redecorating_a_house_semantic_3.png"" class=""exp-image"">
                    <div class=""question-area""></div> 
                </div>","null","","","","","","","","",""
"","","","","","html-button-response","106","321408","0.0-106.0","045101053B24453A93034E30C29178C2","019cf818-d8cc-7b7f-bc0a-b4aae78476b6","019cf80d-4266-7117-8a51-54e13c84aca4","","613","
                <div class=""stimulus-container"">
                    <img src=""images/semantic_sequence/redecorating_a_house_semantic/redecorating_a_house_semantic_3.png"" class=""exp-image"">
                    <div class=""question-area"">
                        <p style=""font-size: 20px; font-weight: bold; margin: 0;"">Is there a person in this image?</p>
                    </div>
                </div>","0","main_experiment_trial","3","redecorating_a_house_semantic","semantic_sequence","","","","",""
"","","","","","html-keyboard-response","107","326410","0.0-107.0","045101053B24453A93034E30C29178C2","019cf818-d8cc-7b7f-bc0a-b4aae78476b6","019cf80d-4266-7117-8a51-54e13c84aca4","","null","
                <div class=""stimulus-container"">
                    <img src=""images/semantic_sequence/redecorating_a_house_semantic/redecorating_a_house_semantic_4.png"" class=""exp-image"">
                    <div class=""question-area""></div> 
                </div>","null","","","","","","","","",""
"","","","","","html-button-response","108","327591","0.0-108.0","045101053B24453A93034E30C29178C2","019cf818-d8cc-7b7f-bc0a-b4aae78476b6","019cf80d-4266-7117-8a51-54e13c84aca4","","1180","
                <div class=""stimulus-container"">
                    <img src=""images/semantic_sequence/redecorating_a_house_semantic/redecorating_a_house_semantic_4.png"" class=""exp-image"">
                    <div class=""question-area"">
                        <p style=""font-size: 20px; font-weight: bold; margin: 0;"">Is there a person in this image?</p>
                    </div>
                </div>","0","main_experiment_trial","4","redecorating_a_house_semantic","semantic_sequence","","","","",""
"","","","","","html-keyboard-response","109","332594","0.0-109.0","045101053B24453A93034E30C29178C2","019cf818-d8cc-7b7f-bc0a-b4aae78476b6","019cf80d-4266-7117-8a51-54e13c84aca4","","null","
                <div class=""stimulus-container"">
                    <img src=""images/semantic_sequence/redecorating_a_house_semantic/redecorating_a_house_semantic_5.png"" class=""exp-image"">
                    <div class=""question-area""></div> 
                </div>","null","","","","","","","","",""
"","","","","","html-button-response","110","333291","0.0-110.0","045101053B24453A93034E30C29178C2","019cf818-d8cc-7b7f-bc0a-b4aae78476b6","019cf80d-4266-7117-8a51-54e13c84aca4","","696","
                <div class=""stimulus-container"">
                    <img src=""images/semantic_sequence/redecorating_a_house_semantic/redecorating_a_house_semantic_5.png"" class=""exp-image"">
                    <div class=""question-area"">
                        <p style=""font-size: 20px; font-weight: bold; margin: 0;"">Is there a person in this image?</p>
                    </div>
                </div>","0","main_experiment_trial","5","redecorating_a_house_semantic","semantic_sequence","","","","",""
"","","","","","html-keyboard-response","111","338293","0.0-111.0","045101053B24453A93034E30C29178C2","019cf818-d8cc-7b7f-bc0a-b4aae78476b6","019cf80d-4266-7117-8a51-54e13c84aca4","","null","
                <div class=""stimulus-container"">
                    <img src=""images/semantic_sequence/redecorating_a_house_semantic/redecorating_a_house_semantic_6.png"" class=""exp-image"">
                    <div class=""question-area""></div> 
                </div>","null","","","","","","","","",""
"","","","","","html-button-response","112","339434","0.0-112.0","045101053B24453A93034E30C29178C2","019cf818-d8cc-7b7f-bc0a-b4aae78476b6","019cf80d-4266-7117-8a51-54e13c84aca4","","1139","
                <div class=""stimulus-container"">
                    <img src=""images/semantic_sequence/redecorating_a_house_semantic/redecorating_a_house_semantic_6.png"" class=""exp-image"">
                    <div class=""question-area"">
                        <p style=""font-size: 20px; font-weight: bold; margin: 0;"">Is there a person in this image?</p>
                    </div>
                </div>","0","main_experiment_trial","6","redecorating_a_house_semantic","semantic_sequence","","","","",""
"","","","","","html-keyboard-response","113","344436","0.0-113.0","045101053B24453A93034E30C29178C2","019cf818-d8cc-7b7f-bc0a-b4aae78476b6","019cf80d-4266-7117-8a51-54e13c84aca4","","null","
                <div class=""stimulus-container"">
                    <img src=""images/semantic_sequence/redecorating_a_house_semantic/redecorating_a_house_semantic_7.png"" class=""exp-image"">
                    <div class=""question-area""></div> 
                </div>","null","","","","","","","","",""
"","","","","","html-button-response","114","345591","0.0-114.0","045101053B24453A93034E30C29178C2","019cf818-d8cc-7b7f-bc0a-b4aae78476b6","019cf80d-4266-7117-8a51-54e13c84aca4","","1154","
                <div class=""stimulus-container"">
                    <img src=""images/semantic_sequence/redecorating_a_house_semantic/redecorating_a_house_semantic_7.png"" class=""exp-image"">
                    <div class=""question-area"">
                        <p style=""font-size: 20px; font-weight: bold; margin: 0;"">Is there a person in this image?</p>
                    </div>
                </div>","0","main_experiment_trial","7","redecorating_a_house_semantic","semantic_sequence","","","","",""
"","","","","","html-keyboard-response","115","350594","0.0-115.0","045101053B24453A93034E30C29178C2","019cf818-d8cc-7b7f-bc0a-b4aae78476b6","019cf80d-4266-7117-8a51-54e13c84aca4","","null","
                <div class=""stimulus-container"">
                    <img src=""images/semantic_sequence/redecorating_a_house_semantic/redecorating_a_house_semantic_8.png"" class=""exp-image"">
                    <div class=""question-area""></div> 
                </div>","null","","","","","","","","",""
"","","","","","html-button-response","116","351658","0.0-116.0","045101053B24453A93034E30C29178C2","019cf818-d8cc-7b7f-bc0a-b4aae78476b6","019cf80d-4266-7117-8a51-54e13c84aca4","","1063","
                <div class=""stimulus-container"">
                    <img src=""images/semantic_sequence/redecorating_a_house_semantic/redecorating_a_house_semantic_8.png"" class=""exp-image"">
                    <div class=""question-area"">
                        <p style=""font-size: 20px; font-weight: bold; margin: 0;"">Is there a person in this image?</p>
                    </div>
                </div>","0","main_experiment_trial","8","redecorating_a_house_semantic","semantic_sequence","","","","",""
"","","","","","html-keyboard-response","117","356660","0.0-117.0","045101053B24453A93034E30C29178C2","019cf818-d8cc-7b7f-bc0a-b4aae78476b6","019cf80d-4266-7117-8a51-54e13c84aca4","","null","
                <div class=""stimulus-container"">
                    <img src=""images/semantic_sequence/redecorating_a_house_semantic/redecorating_a_house_semantic_9.png"" class=""exp-image"">
                    <div class=""question-area""></div> 
                </div>","null","","","","","","","","",""
"","","","","","html-button-response","118","357643","0.0-118.0","045101053B24453A93034E30C29178C2","019cf818-d8cc-7b7f-bc0a-b4aae78476b6","019cf80d-4266-7117-8a51-54e13c84aca4","","982","
                <div class=""stimulus-container"">
                    <img src=""images/semantic_sequence/redecorating_a_house_semantic/redecorating_a_house_semantic_9.png"" class=""exp-image"">
                    <div class=""question-area"">
                        <p style=""font-size: 20px; font-weight: bold; margin: 0;"">Is there a person in this image?</p>
                    </div>
                </div>","0","main_experiment_trial","9","redecorating_a_house_semantic","semantic_sequence","","","","",""
"","","","","","html-keyboard-response","119","362645","0.0-119.0","045101053B24453A93034E30C29178C2","019cf818-d8cc-7b7f-bc0a-b4aae78476b6","019cf80d-4266-7117-8a51-54e13c84aca4","","null","
                <div class=""stimulus-container"">
                    <img src=""images/semantic_sequence/redecorating_a_house_semantic/redecorating_a_house_semantic_ten.png"" class=""exp-image"">
                    <div class=""question-area""></div> 
                </div>","null","","","","","","","","",""
"","","","","","html-button-response","120","363825","0.0-120.0","045101053B24453A93034E30C29178C2","019cf818-d8cc-7b7f-bc0a-b4aae78476b6","019cf80d-4266-7117-8a51-54e13c84aca4","","1178","
                <div class=""stimulus-container"">
                    <img src=""images/semantic_sequence/redecorating_a_house_semantic/redecorating_a_house_semantic_ten.png"" class=""exp-image"">
                    <div class=""question-area"">
                        <p style=""font-size: 20px; font-weight: bold; margin: 0;"">Is there a person in this image?</p>
                    </div>
                </div>","0","main_experiment_trial","ten","redecorating_a_house_semantic","semantic_sequence","","","","",""
"","","","","","html-keyboard-response","121","364827","0.0-121.0","045101053B24453A93034E30C29178C2","019cf818-d8cc-7b7f-bc0a-b4aae78476b6","019cf80d-4266-7117-8a51-54e13c84aca4","","null","<div style=""background-color: white; width: 100vw; height: 100vh;""></div>","null","","","","","","","","",""
"","","","","","html-keyboard-response","122","369829","0.0-122.0","045101053B24453A93034E30C29178C2","019cf818-d8cc-7b7f-bc0a-b4aae78476b6","019cf80d-4266-7117-8a51-54e13c84aca4","","null","
                <div class=""stimulus-container"">
                    <img src=""images/schematic_sequence/restaurant_scheme/restaurant_scheme_1.png"" class=""exp-image"">
                    <div class=""question-area""></div> 
                </div>","null","","","","","","","","",""
"","","","","","html-button-response","123","370843","0.0-123.0","045101053B24453A93034E30C29178C2","019cf818-d8cc-7b7f-bc0a-b4aae78476b6","019cf80d-4266-7117-8a51-54e13c84aca4","","1013","
                <div class=""stimulus-container"">
                    <img src=""images/schematic_sequence/restaurant_scheme/restaurant_scheme_1.png"" class=""exp-image"">
                    <div class=""question-area"">
                        <p style=""font-size: 20px; font-weight: bold; margin: 0;"">Is there a person in this image?</p>
                    </div>
                </div>","0","main_experiment_trial","1","restaurant_scheme","schematic_sequence","","","","",""
"","","","","","html-keyboard-response","124","375846","0.0-124.0","045101053B24453A93034E30C29178C2","019cf818-d8cc-7b7f-bc0a-b4aae78476b6","019cf80d-4266-7117-8a51-54e13c84aca4","","null","
                <div class=""stimulus-container"">
                    <img src=""images/schematic_sequence/restaurant_scheme/restaurant_scheme_2.png"" class=""exp-image"">
                    <div class=""question-area""></div> 
                </div>","null","","","","","","","","",""
"","","","","","html-button-response","125","376291","0.0-125.0","045101053B24453A93034E30C29178C2","019cf818-d8cc-7b7f-bc0a-b4aae78476b6","019cf80d-4266-7117-8a51-54e13c84aca4","","444","
                <div class=""stimulus-container"">
                    <img src=""images/schematic_sequence/restaurant_scheme/restaurant_scheme_2.png"" class=""exp-image"">
                    <div class=""question-area"">
                        <p style=""font-size: 20px; font-weight: bold; margin: 0;"">Is there a person in this image?</p>
                    </div>
                </div>","1","main_experiment_trial","2","restaurant_scheme","schematic_sequence","","","","",""
"","","","","","html-keyboard-response","126","381293","0.0-126.0","045101053B24453A93034E30C29178C2","019cf818-d8cc-7b7f-bc0a-b4aae78476b6","019cf80d-4266-7117-8a51-54e13c84aca4","","null","
                <div class=""stimulus-container"">
                    <img src=""images/schematic_sequence/restaurant_scheme/restaurant_scheme_3.png"" class=""exp-image"">
                    <div class=""question-area""></div> 
                </div>","null","","","","","","","","",""
"","","","","","html-button-response","127","382516","0.0-127.0","045101053B24453A93034E30C29178C2","019cf818-d8cc-7b7f-bc0a-b4aae78476b6","019cf80d-4266-7117-8a51-54e13c84aca4","","1222","
                <div class=""stimulus-container"">
                    <img src=""images/schematic_sequence/restaurant_scheme/restaurant_scheme_3.png"" class=""exp-image"">
                    <div class=""question-area"">
                        <p style=""font-size: 20px; font-weight: bold; margin: 0;"">Is there a person in this image?</p>
                    </div>
                </div>","1","main_experiment_trial","3","restaurant_scheme","schematic_sequence","","","","",""
"","","","","","html-keyboard-response","128","387519","0.0-128.0","045101053B24453A93034E30C29178C2","019cf818-d8cc-7b7f-bc0a-b4aae78476b6","019cf80d-4266-7117-8a51-54e13c84aca4","","null","
                <div class=""stimulus-container"">
                    <img src=""images/schematic_sequence/restaurant_scheme/restaurant_scheme_4.png"" class=""exp-image"">
                    <div class=""question-area""></div> 
                </div>","null","","","","","","","","",""
"","","","","","html-button-response","129","388083","0.0-129.0","045101053B24453A93034E30C29178C2","019cf818-d8cc-7b7f-bc0a-b4aae78476b6","019cf80d-4266-7117-8a51-54e13c84aca4","","563","
                <div class=""stimulus-container"">
                    <img src=""images/schematic_sequence/restaurant_scheme/restaurant_scheme_4.png"" class=""exp-image"">
                    <div class=""question-area"">
                        <p style=""font-size: 20px; font-weight: bold; margin: 0;"">Is there a person in this image?</p>
                    </div>
                </div>","0","main_experiment_trial","4","restaurant_scheme","schematic_sequence","","","","",""
"","","","","","html-keyboard-response","130","393085","0.0-130.0","045101053B24453A93034E30C29178C2","019cf818-d8cc-7b7f-bc0a-b4aae78476b6","019cf80d-4266-7117-8a51-54e13c84aca4","","null","
                <div class=""stimulus-container"">
                    <img src=""images/schematic_sequence/restaurant_scheme/restaurant_scheme_5.png"" class=""exp-image"">
                    <div class=""question-area""></div> 
                </div>","null","","","","","","","","",""
"","","","","","html-button-response","131","394244","0.0-131.0","045101053B24453A93034E30C29178C2","019cf818-d8cc-7b7f-bc0a-b4aae78476b6","019cf80d-4266-7117-8a51-54e13c84aca4","","1158","
                <div class=""stimulus-container"">
                    <img src=""images/schematic_sequence/restaurant_scheme/restaurant_scheme_5.png"" class=""exp-image"">
                    <div class=""question-area"">
                        <p style=""font-size: 20px; font-weight: bold; margin: 0;"">Is there a person in this image?</p>
                    </div>
                </div>","0","main_experiment_trial","5","restaurant_scheme","schematic_sequence","","","","",""
"","","","","","html-keyboard-response","132","399246","0.0-132.0","045101053B24453A93034E30C29178C2","019cf818-d8cc-7b7f-bc0a-b4aae78476b6","019cf80d-4266-7117-8a51-54e13c84aca4","","null","
                <div class=""stimulus-container"">
                    <img src=""images/schematic_sequence/restaurant_scheme/restaurant_scheme_6.png"" class=""exp-image"">
                    <div class=""question-area""></div> 
                </div>","null","","","","","","","","",""
"","","","","","html-button-response","133","399704","0.0-133.0","045101053B24453A93034E30C29178C2","019cf818-d8cc-7b7f-bc0a-b4aae78476b6","019cf80d-4266-7117-8a51-54e13c84aca4","","457","
                <div class=""stimulus-container"">
                    <img src=""images/schematic_sequence/restaurant_scheme/restaurant_scheme_6.png"" class=""exp-image"">
                    <div class=""question-area"">
                        <p style=""font-size: 20px; font-weight: bold; margin: 0;"">Is there a person in this image?</p>
                    </div>
                </div>","1","main_experiment_trial","6","restaurant_scheme","schematic_sequence","","","","",""
"","","","","","html-keyboard-response","134","404707","0.0-134.0","045101053B24453A93034E30C29178C2","019cf818-d8cc-7b7f-bc0a-b4aae78476b6","019cf80d-4266-7117-8a51-54e13c84aca4","","null","
                <div class=""stimulus-container"">
                    <img src=""images/schematic_sequence/restaurant_scheme/restaurant_scheme_7.png"" class=""exp-image"">
                    <div class=""question-area""></div> 
                </div>","null","","","","","","","","",""
"","","","","","html-button-response","135","405238","0.0-135.0","045101053B24453A93034E30C29178C2","019cf818-d8cc-7b7f-bc0a-b4aae78476b6","019cf80d-4266-7117-8a51-54e13c84aca4","","530","
                <div class=""stimulus-container"">
                    <img src=""images/schematic_sequence/restaurant_scheme/restaurant_scheme_7.png"" class=""exp-image"">
                    <div class=""question-area"">
                        <p style=""font-size: 20px; font-weight: bold; margin: 0;"">Is there a person in this image?</p>
                    </div>
                </div>","1","main_experiment_trial","7","restaurant_scheme","schematic_sequence","","","","",""
"","","","","","html-keyboard-response","136","410241","0.0-136.0","045101053B24453A93034E30C29178C2","019cf818-d8cc-7b7f-bc0a-b4aae78476b6","019cf80d-4266-7117-8a51-54e13c84aca4","","null","
                <div class=""stimulus-container"">
                    <img src=""images/schematic_sequence/restaurant_scheme/restaurant_scheme_8.png"" class=""exp-image"">
                    <div class=""question-area""></div> 
                </div>","null","","","","","","","","",""
"","","","","","html-button-response","137","410693","0.0-137.0","045101053B24453A93034E30C29178C2","019cf818-d8cc-7b7f-bc0a-b4aae78476b6","019cf80d-4266-7117-8a51-54e13c84aca4","","452","
                <div class=""stimulus-container"">
                    <img src=""images/schematic_sequence/restaurant_scheme/restaurant_scheme_8.png"" class=""exp-image"">
                    <div class=""question-area"">
                        <p style=""font-size: 20px; font-weight: bold; margin: 0;"">Is there a person in this image?</p>
                    </div>
                </div>","0","main_experiment_trial","8","restaurant_scheme","schematic_sequence","","","","",""
"","","","","","html-keyboard-response","138","415696","0.0-138.0","045101053B24453A93034E30C29178C2","019cf818-d8cc-7b7f-bc0a-b4aae78476b6","019cf80d-4266-7117-8a51-54e13c84aca4","","null","
                <div class=""stimulus-container"">
                    <img src=""images/schematic_sequence/restaurant_scheme/restaurant_scheme_9.png"" class=""exp-image"">
                    <div class=""question-area""></div> 
                </div>","null","","","","","","","","",""
"","","","","","html-button-response","139","416141","0.0-139.0","045101053B24453A93034E30C29178C2","019cf818-d8cc-7b7f-bc0a-b4aae78476b6","019cf80d-4266-7117-8a51-54e13c84aca4","","444","
                <div class=""stimulus-container"">
                    <img src=""images/schematic_sequence/restaurant_scheme/restaurant_scheme_9.png"" class=""exp-image"">
                    <div class=""question-area"">
                        <p style=""font-size: 20px; font-weight: bold; margin: 0;"">Is there a person in this image?</p>
                    </div>
                </div>","0","main_experiment_trial","9","restaurant_scheme","schematic_sequence","","","","",""
"","","","","","html-keyboard-response","140","421143","0.0-140.0","045101053B24453A93034E30C29178C2","019cf818-d8cc-7b7f-bc0a-b4aae78476b6","019cf80d-4266-7117-8a51-54e13c84aca4","","null","
                <div class=""stimulus-container"">
                    <img src=""images/schematic_sequence/restaurant_scheme/restaurant_scheme_ten.png"" class=""exp-image"">
                    <div class=""question-area""></div> 
                </div>","null","","","","","","","","",""
"","","","","","html-button-response","141","422311","0.0-141.0","045101053B24453A93034E30C29178C2","019cf818-d8cc-7b7f-bc0a-b4aae78476b6","019cf80d-4266-7117-8a51-54e13c84aca4","","1167","
                <div class=""stimulus-container"">
                    <img src=""images/schematic_sequence/restaurant_scheme/restaurant_scheme_ten.png"" class=""exp-image"">
                    <div class=""question-area"">
                        <p style=""font-size: 20px; font-weight: bold; margin: 0;"">Is there a person in this image?</p>
                    </div>
                </div>","0","main_experiment_trial","ten","restaurant_scheme","schematic_sequence","","","","",""
"","","","","","html-keyboard-response","142","423313","0.0-142.0","045101053B24453A93034E30C29178C2","019cf818-d8cc-7b7f-bc0a-b4aae78476b6","019cf80d-4266-7117-8a51-54e13c84aca4","","null","<div style=""background-color: white; width: 100vw; height: 100vh;""></div>","null","","","","","","","","",""
"","","","","","html-keyboard-response","143","428315","0.0-143.0","045101053B24453A93034E30C29178C2","019cf818-d8cc-7b7f-bc0a-b4aae78476b6","019cf80d-4266-7117-8a51-54e13c84aca4","","null","
                <div class=""stimulus-container"">
                    <img src=""images/semantic_sequence/visiting_cities_semantic/visiting_cities_semantic_1.png"" class=""exp-image"">
                    <div class=""question-area""></div> 
                </div>","null","","","","","","","","",""
"","","","","","html-button-response","144","429112","0.0-144.0","045101053B24453A93034E30C29178C2","019cf818-d8cc-7b7f-bc0a-b4aae78476b6","019cf80d-4266-7117-8a51-54e13c84aca4","","796","
                <div class=""stimulus-container"">
                    <img src=""images/semantic_sequence/visiting_cities_semantic/visiting_cities_semantic_1.png"" class=""exp-image"">
                    <div class=""question-area"">
                        <p style=""font-size: 20px; font-weight: bold; margin: 0;"">Is there a person in this image?</p>
                    </div>
                </div>","0","main_experiment_trial","1","visiting_cities_semantic","semantic_sequence","","","","",""
"","","","","","html-keyboard-response","145","434114","0.0-145.0","045101053B24453A93034E30C29178C2","019cf818-d8cc-7b7f-bc0a-b4aae78476b6","019cf80d-4266-7117-8a51-54e13c84aca4","","null","
                <div class=""stimulus-container"">
                    <img src=""images/semantic_sequence/visiting_cities_semantic/visiting_cities_semantic_2.png"" class=""exp-image"">
                    <div class=""question-area""></div> 
                </div>","null","","","","","","","","",""
"","","","","","html-button-response","146","434724","0.0-146.0","045101053B24453A93034E30C29178C2","019cf818-d8cc-7b7f-bc0a-b4aae78476b6","019cf80d-4266-7117-8a51-54e13c84aca4","","608","
                <div class=""stimulus-container"">
                    <img src=""images/semantic_sequence/visiting_cities_semantic/visiting_cities_semantic_2.png"" class=""exp-image"">
                    <div class=""question-area"">
                        <p style=""font-size: 20px; font-weight: bold; margin: 0;"">Is there a person in this image?</p>
                    </div>
                </div>","1","main_experiment_trial","2","visiting_cities_semantic","semantic_sequence","","","","",""
"","","","","","html-keyboard-response","147","439726","0.0-147.0","045101053B24453A93034E30C29178C2","019cf818-d8cc-7b7f-bc0a-b4aae78476b6","019cf80d-4266-7117-8a51-54e13c84aca4","","null","
                <div class=""stimulus-container"">
                    <img src=""images/semantic_sequence/visiting_cities_semantic/visiting_cities_semantic_3.png"" class=""exp-image"">
                    <div class=""question-area""></div> 
                </div>","null","","","","","","","","",""
"","","","","","html-button-response","148","440491","0.0-148.0","045101053B24453A93034E30C29178C2","019cf818-d8cc-7b7f-bc0a-b4aae78476b6","019cf80d-4266-7117-8a51-54e13c84aca4","","764","
                <div class=""stimulus-container"">
                    <img src=""images/semantic_sequence/visiting_cities_semantic/visiting_cities_semantic_3.png"" class=""exp-image"">
                    <div class=""question-area"">
                        <p style=""font-size: 20px; font-weight: bold; margin: 0;"">Is there a person in this image?</p>
                    </div>
                </div>","1","main_experiment_trial","3","visiting_cities_semantic","semantic_sequence","","","","",""
"","","","","","html-keyboard-response","149","445493","0.0-149.0","045101053B24453A93034E30C29178C2","019cf818-d8cc-7b7f-bc0a-b4aae78476b6","019cf80d-4266-7117-8a51-54e13c84aca4","","null","
                <div class=""stimulus-container"">
                    <img src=""images/semantic_sequence/visiting_cities_semantic/visiting_cities_semantic_4.png"" class=""exp-image"">
                    <div class=""question-area""></div> 
                </div>","null","","","","","","","","",""
"","","","","","html-button-response","150","446124","0.0-150.0","045101053B24453A93034E30C29178C2","019cf818-d8cc-7b7f-bc0a-b4aae78476b6","019cf80d-4266-7117-8a51-54e13c84aca4","","630","
                <div class=""stimulus-container"">
                    <img src=""images/semantic_sequence/visiting_cities_semantic/visiting_cities_semantic_4.png"" class=""exp-image"">
                    <div class=""question-area"">
                        <p style=""font-size: 20px; font-weight: bold; margin: 0;"">Is there a person in this image?</p>
                    </div>
                </div>","1","main_experiment_trial","4","visiting_cities_semantic","semantic_sequence","","","","",""
"","","","","","html-keyboard-response","151","451127","0.0-151.0","045101053B24453A93034E30C29178C2","019cf818-d8cc-7b7f-bc0a-b4aae78476b6","019cf80d-4266-7117-8a51-54e13c84aca4","","null","
                <div class=""stimulus-container"">
                    <img src=""images/semantic_sequence/visiting_cities_semantic/visiting_cities_semantic_5.png"" class=""exp-image"">
                    <div class=""question-area""></div> 
                </div>","null","","","","","","","","",""
"","","","","","html-button-response","152","451884","0.0-152.0","045101053B24453A93034E30C29178C2","019cf818-d8cc-7b7f-bc0a-b4aae78476b6","019cf80d-4266-7117-8a51-54e13c84aca4","","756","
                <div class=""stimulus-container"">
                    <img src=""images/semantic_sequence/visiting_cities_semantic/visiting_cities_semantic_5.png"" class=""exp-image"">
                    <div class=""question-area"">
                        <p style=""font-size: 20px; font-weight: bold; margin: 0;"">Is there a person in this image?</p>
                    </div>
                </div>","1","main_experiment_trial","5","visiting_cities_semantic","semantic_sequence","","","","",""
"","","","","","html-keyboard-response","153","456886","0.0-153.0","045101053B24453A93034E30C29178C2","019cf818-d8cc-7b7f-bc0a-b4aae78476b6","019cf80d-4266-7117-8a51-54e13c84aca4","","null","
                <div class=""stimulus-container"">
                    <img src=""images/semantic_sequence/visiting_cities_semantic/visiting_cities_semantic_6.png"" class=""exp-image"">
                    <div class=""question-area""></div> 
                </div>","null","","","","","","","","",""
"","","","","","html-button-response","154","457793","0.0-154.0","045101053B24453A93034E30C29178C2","019cf818-d8cc-7b7f-bc0a-b4aae78476b6","019cf80d-4266-7117-8a51-54e13c84aca4","","906","
                <div class=""stimulus-container"">
                    <img src=""images/semantic_sequence/visiting_cities_semantic/visiting_cities_semantic_6.png"" class=""exp-image"">
                    <div class=""question-area"">
                        <p style=""font-size: 20px; font-weight: bold; margin: 0;"">Is there a person in this image?</p>
                    </div>
                </div>","1","main_experiment_trial","6","visiting_cities_semantic","semantic_sequence","","","","",""
"","","","","","html-keyboard-response","155","462796","0.0-155.0","045101053B24453A93034E30C29178C2","019cf818-d8cc-7b7f-bc0a-b4aae78476b6","019cf80d-4266-7117-8a51-54e13c84aca4","","null","
                <div class=""stimulus-container"">
                    <img src=""images/semantic_sequence/visiting_cities_semantic/visiting_cities_semantic_7.png"" class=""exp-image"">
                    <div class=""question-area""></div> 
                </div>","null","","","","","","","","",""
"","","","","","html-button-response","156","463224","0.0-156.0","045101053B24453A93034E30C29178C2","019cf818-d8cc-7b7f-bc0a-b4aae78476b6","019cf80d-4266-7117-8a51-54e13c84aca4","","427","
                <div class=""stimulus-container"">
                    <img src=""images/semantic_sequence/visiting_cities_semantic/visiting_cities_semantic_7.png"" class=""exp-image"">
                    <div class=""question-area"">
                        <p style=""font-size: 20px; font-weight: bold; margin: 0;"">Is there a person in this image?</p>
                    </div>
                </div>","0","main_experiment_trial","7","visiting_cities_semantic","semantic_sequence","","","","",""
"","","","","","html-keyboard-response","157","468226","0.0-157.0","045101053B24453A93034E30C29178C2","019cf818-d8cc-7b7f-bc0a-b4aae78476b6","019cf80d-4266-7117-8a51-54e13c84aca4","","null","
                <div class=""stimulus-container"">
                    <img src=""images/semantic_sequence/visiting_cities_semantic/visiting_cities_semantic_8.png"" class=""exp-image"">
                    <div class=""question-area""></div> 
                </div>","null","","","","","","","","",""
"","","","","","html-button-response","158","469576","0.0-158.0","045101053B24453A93034E30C29178C2","019cf818-d8cc-7b7f-bc0a-b4aae78476b6","019cf80d-4266-7117-8a51-54e13c84aca4","","1349","
                <div class=""stimulus-container"">
                    <img src=""images/semantic_sequence/visiting_cities_semantic/visiting_cities_semantic_8.png"" class=""exp-image"">
                    <div class=""question-area"">
                        <p style=""font-size: 20px; font-weight: bold; margin: 0;"">Is there a person in this image?</p>
                    </div>
                </div>","0","main_experiment_trial","8","visiting_cities_semantic","semantic_sequence","","","","",""
"","","","","","html-keyboard-response","159","474579","0.0-159.0","045101053B24453A93034E30C29178C2","019cf818-d8cc-7b7f-bc0a-b4aae78476b6","019cf80d-4266-7117-8a51-54e13c84aca4","","null","
                <div class=""stimulus-container"">
                    <img src=""images/semantic_sequence/visiting_cities_semantic/visiting_cities_semantic_9.png"" class=""exp-image"">
                    <div class=""question-area""></div> 
                </div>","null","","","","","","","","",""
"","","","","","html-button-response","160","475304","0.0-160.0","045101053B24453A93034E30C29178C2","019cf818-d8cc-7b7f-bc0a-b4aae78476b6","019cf80d-4266-7117-8a51-54e13c84aca4","","725","
                <div class=""stimulus-container"">
                    <img src=""images/semantic_sequence/visiting_cities_semantic/visiting_cities_semantic_9.png"" class=""exp-image"">
                    <div class=""question-area"">
                        <p style=""font-size: 20px; font-weight: bold; margin: 0;"">Is there a person in this image?</p>
                    </div>
                </div>","1","main_experiment_trial","9","visiting_cities_semantic","semantic_sequence","","","","",""
"","","","","","html-keyboard-response","161","480306","0.0-161.0","045101053B24453A93034E30C29178C2","019cf818-d8cc-7b7f-bc0a-b4aae78476b6","019cf80d-4266-7117-8a51-54e13c84aca4","","null","
                <div class=""stimulus-container"">
                    <img src=""images/semantic_sequence/visiting_cities_semantic/visiting_cities_semantic_ten.png"" class=""exp-image"">
                    <div class=""question-area""></div> 
                </div>","null","","","","","","","","",""
"","","","","","html-button-response","162","480796","0.0-162.0","045101053B24453A93034E30C29178C2","019cf818-d8cc-7b7f-bc0a-b4aae78476b6","019cf80d-4266-7117-8a51-54e13c84aca4","","489","
                <div class=""stimulus-container"">
                    <img src=""images/semantic_sequence/visiting_cities_semantic/visiting_cities_semantic_ten.png"" class=""exp-image"">
                    <div class=""question-area"">
                        <p style=""font-size: 20px; font-weight: bold; margin: 0;"">Is there a person in this image?</p>
                    </div>
                </div>","0","main_experiment_trial","ten","visiting_cities_semantic","semantic_sequence","","","","",""
"","","","","","html-keyboard-response","163","481798","0.0-163.0","045101053B24453A93034E30C29178C2","019cf818-d8cc-7b7f-bc0a-b4aae78476b6","019cf80d-4266-7117-8a51-54e13c84aca4","","null","<div style=""background-color: white; width: 100vw; height: 100vh;""></div>","null","","","","","","","","",""
"","","","","","html-keyboard-response","164","486801","0.0-164.0","045101053B24453A93034E30C29178C2","019cf818-d8cc-7b7f-bc0a-b4aae78476b6","019cf80d-4266-7117-8a51-54e13c84aca4","","null","
                <div class=""stimulus-container"">
                    <img src=""images/schematic_sequence/hotel_scheme/hotel_scheme_1.png"" class=""exp-image"">
                    <div class=""question-area""></div> 
                </div>","null","","","","","","","","",""
"","","","","","html-button-response","165","487313","0.0-165.0","045101053B24453A93034E30C29178C2","019cf818-d8cc-7b7f-bc0a-b4aae78476b6","019cf80d-4266-7117-8a51-54e13c84aca4","","511","
                <div class=""stimulus-container"">
                    <img src=""images/schematic_sequence/hotel_scheme/hotel_scheme_1.png"" class=""exp-image"">
                    <div class=""question-area"">
                        <p style=""font-size: 20px; font-weight: bold; margin: 0;"">Is there a person in this image?</p>
                    </div>
                </div>","1","main_experiment_trial","1","hotel_scheme","schematic_sequence","","","","",""
"","","","","","html-keyboard-response","166","492315","0.0-166.0","045101053B24453A93034E30C29178C2","019cf818-d8cc-7b7f-bc0a-b4aae78476b6","019cf80d-4266-7117-8a51-54e13c84aca4","","null","
                <div class=""stimulus-container"">
                    <img src=""images/schematic_sequence/hotel_scheme/hotel_scheme_2.png"" class=""exp-image"">
                    <div class=""question-area""></div> 
                </div>","null","","","","","","","","",""
"","","","","","html-button-response","167","492803","0.0-167.0","045101053B24453A93034E30C29178C2","019cf818-d8cc-7b7f-bc0a-b4aae78476b6","019cf80d-4266-7117-8a51-54e13c84aca4","","487","
                <div class=""stimulus-container"">
                    <img src=""images/schematic_sequence/hotel_scheme/hotel_scheme_2.png"" class=""exp-image"">
                    <div class=""question-area"">
                        <p style=""font-size: 20px; font-weight: bold; margin: 0;"">Is there a person in this image?</p>
                    </div>
                </div>","0","main_experiment_trial","2","hotel_scheme","schematic_sequence","","","","",""
"","","","","","html-keyboard-response","168","497806","0.0-168.0","045101053B24453A93034E30C29178C2","019cf818-d8cc-7b7f-bc0a-b4aae78476b6","019cf80d-4266-7117-8a51-54e13c84aca4","","null","
                <div class=""stimulus-container"">
                    <img src=""images/schematic_sequence/hotel_scheme/hotel_scheme_3.png"" class=""exp-image"">
                    <div class=""question-area""></div> 
                </div>","null","","","","","","","","",""
"","","","","","html-button-response","169","499449","0.0-169.0","045101053B24453A93034E30C29178C2","019cf818-d8cc-7b7f-bc0a-b4aae78476b6","019cf80d-4266-7117-8a51-54e13c84aca4","","1642","
                <div class=""stimulus-container"">
                    <img src=""images/schematic_sequence/hotel_scheme/hotel_scheme_3.png"" class=""exp-image"">
                    <div class=""question-area"">
                        <p style=""font-size: 20px; font-weight: bold; margin: 0;"">Is there a person in this image?</p>
                    </div>
                </div>","0","main_experiment_trial","3","hotel_scheme","schematic_sequence","","","","",""
"","","","","","html-keyboard-response","170","504451","0.0-170.0","045101053B24453A93034E30C29178C2","019cf818-d8cc-7b7f-bc0a-b4aae78476b6","019cf80d-4266-7117-8a51-54e13c84aca4","","null","
                <div class=""stimulus-container"">
                    <img src=""images/schematic_sequence/hotel_scheme/hotel_scheme_4.png"" class=""exp-image"">
                    <div class=""question-area""></div> 
                </div>","null","","","","","","","","",""
"","","","","","html-button-response","171","505389","0.0-171.0","045101053B24453A93034E30C29178C2","019cf818-d8cc-7b7f-bc0a-b4aae78476b6","019cf80d-4266-7117-8a51-54e13c84aca4","","936","
                <div class=""stimulus-container"">
                    <img src=""images/schematic_sequence/hotel_scheme/hotel_scheme_4.png"" class=""exp-image"">
                    <div class=""question-area"">
                        <p style=""font-size: 20px; font-weight: bold; margin: 0;"">Is there a person in this image?</p>
                    </div>
                </div>","1","main_experiment_trial","4","hotel_scheme","schematic_sequence","","","","",""
"","","","","","html-keyboard-response","172","510391","0.0-172.0","045101053B24453A93034E30C29178C2","019cf818-d8cc-7b7f-bc0a-b4aae78476b6","019cf80d-4266-7117-8a51-54e13c84aca4","","null","
                <div class=""stimulus-container"">
                    <img src=""images/schematic_sequence/hotel_scheme/hotel_scheme_5.png"" class=""exp-image"">
                    <div class=""question-area""></div> 
                </div>","null","","","","","","","","",""
"","","","","","html-button-response","173","510924","0.0-173.0","045101053B24453A93034E30C29178C2","019cf818-d8cc-7b7f-bc0a-b4aae78476b6","019cf80d-4266-7117-8a51-54e13c84aca4","","532","
                <div class=""stimulus-container"">
                    <img src=""images/schematic_sequence/hotel_scheme/hotel_scheme_5.png"" class=""exp-image"">
                    <div class=""question-area"">
                        <p style=""font-size: 20px; font-weight: bold; margin: 0;"">Is there a person in this image?</p>
                    </div>
                </div>","0","main_experiment_trial","5","hotel_scheme","schematic_sequence","","","","",""
"","","","","","html-keyboard-response","174","515927","0.0-174.0","045101053B24453A93034E30C29178C2","019cf818-d8cc-7b7f-bc0a-b4aae78476b6","019cf80d-4266-7117-8a51-54e13c84aca4","","null","
                <div class=""stimulus-container"">
                    <img src=""images/schematic_sequence/hotel_scheme/hotel_scheme_6.png"" class=""exp-image"">
                    <div class=""question-area""></div> 
                </div>","null","","","","","","","","",""
"","","","","","html-button-response","175","517691","0.0-175.0","045101053B24453A93034E30C29178C2","019cf818-d8cc-7b7f-bc0a-b4aae78476b6","019cf80d-4266-7117-8a51-54e13c84aca4","","1763","
                <div class=""stimulus-container"">
                    <img src=""images/schematic_sequence/hotel_scheme/hotel_scheme_6.png"" class=""exp-image"">
                    <div class=""question-area"">
                        <p style=""font-size: 20px; font-weight: bold; margin: 0;"">Is there a person in this image?</p>
                    </div>
                </div>","0","main_experiment_trial","6","hotel_scheme","schematic_sequence","","","","",""
"","","","","","html-keyboard-response","176","522693","0.0-176.0","045101053B24453A93034E30C29178C2","019cf818-d8cc-7b7f-bc0a-b4aae78476b6","019cf80d-4266-7117-8a51-54e13c84aca4","","null","
                <div class=""stimulus-container"">
                    <img src=""images/schematic_sequence/hotel_scheme/hotel_scheme_7.png"" class=""exp-image"">
                    <div class=""question-area""></div> 
                </div>","null","","","","","","","","",""
"","","","","","html-button-response","177","523399","0.0-177.0","045101053B24453A93034E30C29178C2","019cf818-d8cc-7b7f-bc0a-b4aae78476b6","019cf80d-4266-7117-8a51-54e13c84aca4","","705","
                <div class=""stimulus-container"">
                    <img src=""images/schematic_sequence/hotel_scheme/hotel_scheme_7.png"" class=""exp-image"">
                    <div class=""question-area"">
                        <p style=""font-size: 20px; font-weight: bold; margin: 0;"">Is there a person in this image?</p>
                    </div>
                </div>","0","main_experiment_trial","7","hotel_scheme","schematic_sequence","","","","",""
"","","","","","html-keyboard-response","178","528401","0.0-178.0","045101053B24453A93034E30C29178C2","019cf818-d8cc-7b7f-bc0a-b4aae78476b6","019cf80d-4266-7117-8a51-54e13c84aca4","","null","
                <div class=""stimulus-container"">
                    <img src=""images/schematic_sequence/hotel_scheme/hotel_scheme_8.png"" class=""exp-image"">
                    <div class=""question-area""></div> 
                </div>","null","","","","","","","","",""
"","","","","","html-button-response","179","529225","0.0-179.0","045101053B24453A93034E30C29178C2","019cf818-d8cc-7b7f-bc0a-b4aae78476b6","019cf80d-4266-7117-8a51-54e13c84aca4","","824","
                <div class=""stimulus-container"">
                    <img src=""images/schematic_sequence/hotel_scheme/hotel_scheme_8.png"" class=""exp-image"">
                    <div class=""question-area"">
                        <p style=""font-size: 20px; font-weight: bold; margin: 0;"">Is there a person in this image?</p>
                    </div>
                </div>","0","main_experiment_trial","8","hotel_scheme","schematic_sequence","","","","",""
"","","","","","html-keyboard-response","180","534228","0.0-180.0","045101053B24453A93034E30C29178C2","019cf818-d8cc-7b7f-bc0a-b4aae78476b6","019cf80d-4266-7117-8a51-54e13c84aca4","","null","
