"success","timeout","failed_images","failed_audio","failed_video","trial_type","trial_index","time_elapsed","internal_node_id","subject_id","study_id","session_id","view_history","rt","stimulus","response","task","image_index","folder","sequence_type","presentation_order","valuable_image_index","reward_type","correct_choice","distance_from_x","target_X","chosen_image_index","is_x_plus_dist"
"true","false","[]","[]","[]","preload","0","14491","0.0-0.0","D6F56DB6469A4485BC8B445A21BEA9BE","019dac5c-96f1-7e77-973d-2d3b88a4364a","019dac5b-243f-7307-af64-a10f53f1ef70","","","","","","","","","","","","","","","",""
"","","","","","instructions","1","17220","0.0-1.0","D6F56DB6469A4485BC8B445A21BEA9BE","019dac5c-96f1-7e77-973d-2d3b88a4364a","019dac5b-243f-7307-af64-a10f53f1ef70","[{""page_index"":0,""viewing_time"":2728}]","2728","","","","","","","","","","","","","",""
"","","","","","instructions","2","21891","0.0-2.0","D6F56DB6469A4485BC8B445A21BEA9BE","019dac5c-96f1-7e77-973d-2d3b88a4364a","019dac5b-243f-7307-af64-a10f53f1ef70","[{""page_index"":0,""viewing_time"":4671}]","4672","","","","","","","","","","","","","",""
"true","","","","","fullscreen","3","24909","0.0-3.0","D6F56DB6469A4485BC8B445A21BEA9BE","019dac5c-96f1-7e77-973d-2d3b88a4364a","019dac5b-243f-7307-af64-a10f53f1ef70","","2016","","","","","","","","","","","","","",""
"","","","","","instructions","4","30668","0.0-4.0","D6F56DB6469A4485BC8B445A21BEA9BE","019dac5c-96f1-7e77-973d-2d3b88a4364a","019dac5b-243f-7307-af64-a10f53f1ef70","[{""page_index"":0,""viewing_time"":5758}]","5759","","","","","","","","","","","","","",""
"","","","","","instructions","5","44260","0.0-5.0","D6F56DB6469A4485BC8B445A21BEA9BE","019dac5c-96f1-7e77-973d-2d3b88a4364a","019dac5b-243f-7307-af64-a10f53f1ef70","[{""page_index"":0,""viewing_time"":13592}]","13592","","","","","","","","","","","","","",""
"","","","","","html-keyboard-response","6","48263","0.0-6.0","D6F56DB6469A4485BC8B445A21BEA9BE","019dac5c-96f1-7e77-973d-2d3b88a4364a","019dac5b-243f-7307-af64-a10f53f1ef70","","null","
                <div class=""stimulus-container"">
                    <img src=""images/instructions/movie_1.png"" class=""exp-image"">
                    <div class=""question-area""></div> 
                </div>","null","","","","","","","","","","","",""
"","","","","","html-button-response","7","49636","0.0-7.0","D6F56DB6469A4485BC8B445A21BEA9BE","019dac5c-96f1-7e77-973d-2d3b88a4364a","019dac5b-243f-7307-af64-a10f53f1ef70","","1372","
                <div class=""stimulus-container"">
                    <img src=""images/instructions/movie_1.png"" class=""exp-image"">
                    <div class=""question-area"">
                        <p style=""font-size: 20px; font-weight: bold; margin: 0;"">Was there a person in this image?</p>
                    </div>
                </div>","0","example_question","1","","","","","","","","","",""
"","","","","","html-keyboard-response","8","53639","0.0-8.0","D6F56DB6469A4485BC8B445A21BEA9BE","019dac5c-96f1-7e77-973d-2d3b88a4364a","019dac5b-243f-7307-af64-a10f53f1ef70","","null","
                <div class=""stimulus-container"">
                    <img src=""images/instructions/movie_2.png"" class=""exp-image"">
                    <div class=""question-area""></div> 
                </div>","null","","","","","","","","","","","",""
"","","","","","html-button-response","9","54468","0.0-9.0","D6F56DB6469A4485BC8B445A21BEA9BE","019dac5c-96f1-7e77-973d-2d3b88a4364a","019dac5b-243f-7307-af64-a10f53f1ef70","","828","
                <div class=""stimulus-container"">
                    <img src=""images/instructions/movie_2.png"" class=""exp-image"">
                    <div class=""question-area"">
                        <p style=""font-size: 20px; font-weight: bold; margin: 0;"">Was there a person in this image?</p>
                    </div>
                </div>","0","example_question","2","","","","","","","","","",""
"","","","","","html-keyboard-response","10","58473","0.0-10.0","D6F56DB6469A4485BC8B445A21BEA9BE","019dac5c-96f1-7e77-973d-2d3b88a4364a","019dac5b-243f-7307-af64-a10f53f1ef70","","null","
                <div class=""stimulus-container"">
                    <img src=""images/instructions/movie_3.png"" class=""exp-image"">
                    <div class=""question-area""></div> 
                </div>","null","","","","","","","","","","","",""
"","","","","","html-button-response","11","59140","0.0-11.0","D6F56DB6469A4485BC8B445A21BEA9BE","019dac5c-96f1-7e77-973d-2d3b88a4364a","019dac5b-243f-7307-af64-a10f53f1ef70","","666","
                <div class=""stimulus-container"">
                    <img src=""images/instructions/movie_3.png"" class=""exp-image"">
                    <div class=""question-area"">
                        <p style=""font-size: 20px; font-weight: bold; margin: 0;"">Was there a person in this image?</p>
                    </div>
                </div>","0","example_question","3","","","","","","","","","",""
"","","","","","html-keyboard-response","12","63155","0.0-12.0","D6F56DB6469A4485BC8B445A21BEA9BE","019dac5c-96f1-7e77-973d-2d3b88a4364a","019dac5b-243f-7307-af64-a10f53f1ef70","","null","
                <div class=""stimulus-container"">
                    <img src=""images/instructions/movie_4.png"" class=""exp-image"">
                    <div class=""question-area""></div> 
                </div>","null","","","","","","","","","","","",""
"","","","","","html-button-response","13","63564","0.0-13.0","D6F56DB6469A4485BC8B445A21BEA9BE","019dac5c-96f1-7e77-973d-2d3b88a4364a","019dac5b-243f-7307-af64-a10f53f1ef70","","408","
                <div class=""stimulus-container"">
                    <img src=""images/instructions/movie_4.png"" class=""exp-image"">
                    <div class=""question-area"">
                        <p style=""font-size: 20px; font-weight: bold; margin: 0;"">Was there a person in this image?</p>
                    </div>
                </div>","0","example_question","4","","","","","","","","","",""
"","","","","","instructions","14","64804","0.0-14.0","D6F56DB6469A4485BC8B445A21BEA9BE","019dac5c-96f1-7e77-973d-2d3b88a4364a","019dac5b-243f-7307-af64-a10f53f1ef70","[{""page_index"":0,""viewing_time"":1240}]","1240","","","","","","","","","","","","","",""
"","","","","","instructions","15","70452","0.0-15.0","D6F56DB6469A4485BC8B445A21BEA9BE","019dac5c-96f1-7e77-973d-2d3b88a4364a","019dac5b-243f-7307-af64-a10f53f1ef70","[{""page_index"":0,""viewing_time"":5647}]","5648","","","","","","","","","","","","","",""
"","","","","","html-keyboard-response","16","75457","0.0-16.0","D6F56DB6469A4485BC8B445A21BEA9BE","019dac5c-96f1-7e77-973d-2d3b88a4364a","019dac5b-243f-7307-af64-a10f53f1ef70","","null","<div style=""background-color: white; width: 100vw; height: 100vh;""></div>","null","","","","","","","","","","","",""
"","","","","","html-keyboard-response","17","80469","0.0-17.0","D6F56DB6469A4485BC8B445A21BEA9BE","019dac5c-96f1-7e77-973d-2d3b88a4364a","019dac5b-243f-7307-af64-a10f53f1ef70","","null","
                <div class=""stimulus-container"">
                    <img src=""images/causal_sequence/dog_causal/dog_causal_1.png"" class=""exp-image"">
                    <div class=""question-area""></div> 
                </div>","null","","","","","","","","","","","",""
"","","","","","html-button-response","18","81148","0.0-18.0","D6F56DB6469A4485BC8B445A21BEA9BE","019dac5c-96f1-7e77-973d-2d3b88a4364a","019dac5b-243f-7307-af64-a10f53f1ef70","","678","
                <div class=""stimulus-container"">
                    <img src=""images/causal_sequence/dog_causal/dog_causal_1.png"" class=""exp-image"">
                    <div class=""question-area"">
                        <p style=""font-size: 20px; font-weight: bold; margin: 0;"">Is there a person in this image?</p>
                    </div>
                </div>","0","main_experiment_trial","1","dog_causal","causal_sequence","chronological","","","","","","",""
"","","","","","html-keyboard-response","19","86152","0.0-19.0","D6F56DB6469A4485BC8B445A21BEA9BE","019dac5c-96f1-7e77-973d-2d3b88a4364a","019dac5b-243f-7307-af64-a10f53f1ef70","","null","
                <div class=""stimulus-container"">
                    <img src=""images/causal_sequence/dog_causal/dog_causal_2.png"" class=""exp-image"">
                    <div class=""question-area""></div> 
                </div>","null","","","","","","","","","","","",""
"","","","","","html-button-response","20","86716","0.0-20.0","D6F56DB6469A4485BC8B445A21BEA9BE","019dac5c-96f1-7e77-973d-2d3b88a4364a","019dac5b-243f-7307-af64-a10f53f1ef70","","563","
                <div class=""stimulus-container"">
                    <img src=""images/causal_sequence/dog_causal/dog_causal_2.png"" class=""exp-image"">
                    <div class=""question-area"">
                        <p style=""font-size: 20px; font-weight: bold; margin: 0;"">Is there a person in this image?</p>
                    </div>
                </div>","0","main_experiment_trial","2","dog_causal","causal_sequence","chronological","","","","","","",""
"","","","","","html-keyboard-response","21","91720","0.0-21.0","D6F56DB6469A4485BC8B445A21BEA9BE","019dac5c-96f1-7e77-973d-2d3b88a4364a","019dac5b-243f-7307-af64-a10f53f1ef70","","null","
                <div class=""stimulus-container"">
                    <img src=""images/causal_sequence/dog_causal/dog_causal_3.png"" class=""exp-image"">
                    <div class=""question-area""></div> 
                </div>","null","","","","","","","","","","","",""
"","","","","","html-button-response","22","92220","0.0-22.0","D6F56DB6469A4485BC8B445A21BEA9BE","019dac5c-96f1-7e77-973d-2d3b88a4364a","019dac5b-243f-7307-af64-a10f53f1ef70","","499","
                <div class=""stimulus-container"">
                    <img src=""images/causal_sequence/dog_causal/dog_causal_3.png"" class=""exp-image"">
                    <div class=""question-area"">
                        <p style=""font-size: 20px; font-weight: bold; margin: 0;"">Is there a person in this image?</p>
                    </div>
                </div>","0","main_experiment_trial","3","dog_causal","causal_sequence","chronological","","","","","","",""
"","","","","","html-keyboard-response","23","97235","0.0-23.0","D6F56DB6469A4485BC8B445A21BEA9BE","019dac5c-96f1-7e77-973d-2d3b88a4364a","019dac5b-243f-7307-af64-a10f53f1ef70","","null","
                <div class=""stimulus-container"">
                    <img src=""images/causal_sequence/dog_causal/dog_causal_4.png"" class=""exp-image"">
                    <div class=""question-area""></div> 
                </div>","null","","","","","","","","","","","",""
"","","","","","html-button-response","24","97660","0.0-24.0","D6F56DB6469A4485BC8B445A21BEA9BE","019dac5c-96f1-7e77-973d-2d3b88a4364a","019dac5b-243f-7307-af64-a10f53f1ef70","","424","
                <div class=""stimulus-container"">
                    <img src=""images/causal_sequence/dog_causal/dog_causal_4.png"" class=""exp-image"">
                    <div class=""question-area"">
                        <p style=""font-size: 20px; font-weight: bold; margin: 0;"">Is there a person in this image?</p>
                    </div>
                </div>","0","main_experiment_trial","4","dog_causal","causal_sequence","chronological","","","","","","",""
"","","","","","html-keyboard-response","25","102663","0.0-25.0","D6F56DB6469A4485BC8B445A21BEA9BE","019dac5c-96f1-7e77-973d-2d3b88a4364a","019dac5b-243f-7307-af64-a10f53f1ef70","","null","
                <div class=""stimulus-container"">
                    <img src=""images/causal_sequence/dog_causal/dog_causal_5.png"" class=""exp-image"">
                    <div class=""question-area""></div> 
                </div>","null","","","","","","","","","","","",""
"","","","","","html-button-response","26","103156","0.0-26.0","D6F56DB6469A4485BC8B445A21BEA9BE","019dac5c-96f1-7e77-973d-2d3b88a4364a","019dac5b-243f-7307-af64-a10f53f1ef70","","493","
                <div class=""stimulus-container"">
                    <img src=""images/causal_sequence/dog_causal/dog_causal_5.png"" class=""exp-image"">
                    <div class=""question-area"">
                        <p style=""font-size: 20px; font-weight: bold; margin: 0;"">Is there a person in this image?</p>
                    </div>
                </div>","0","main_experiment_trial","5","dog_causal","causal_sequence","chronological","","","","","","",""
"","","","","","html-keyboard-response","27","108171","0.0-27.0","D6F56DB6469A4485BC8B445A21BEA9BE","019dac5c-96f1-7e77-973d-2d3b88a4364a","019dac5b-243f-7307-af64-a10f53f1ef70","","null","
                <div class=""stimulus-container"">
                    <img src=""images/causal_sequence/dog_causal/dog_causal_6.png"" class=""exp-image"">
                    <div class=""question-area""></div> 
                </div>","null","","","","","","","","","","","",""
"","","","","","html-button-response","28","108596","0.0-28.0","D6F56DB6469A4485BC8B445A21BEA9BE","019dac5c-96f1-7e77-973d-2d3b88a4364a","019dac5b-243f-7307-af64-a10f53f1ef70","","424","
                <div class=""stimulus-container"">
                    <img src=""images/causal_sequence/dog_causal/dog_causal_6.png"" class=""exp-image"">
                    <div class=""question-area"">
                        <p style=""font-size: 20px; font-weight: bold; margin: 0;"">Is there a person in this image?</p>
                    </div>
                </div>","0","main_experiment_trial","6","dog_causal","causal_sequence","chronological","","","","","","",""
"","","","","","html-keyboard-response","29","113609","0.0-29.0","D6F56DB6469A4485BC8B445A21BEA9BE","019dac5c-96f1-7e77-973d-2d3b88a4364a","019dac5b-243f-7307-af64-a10f53f1ef70","","null","
                <div class=""stimulus-container"">
                    <img src=""images/causal_sequence/dog_causal/dog_causal_7.png"" class=""exp-image"">
                    <div class=""question-area""></div> 
                </div>","null","","","","","","","","","","","",""
"","","","","","html-button-response","30","114084","0.0-30.0","D6F56DB6469A4485BC8B445A21BEA9BE","019dac5c-96f1-7e77-973d-2d3b88a4364a","019dac5b-243f-7307-af64-a10f53f1ef70","","474","
                <div class=""stimulus-container"">
                    <img src=""images/causal_sequence/dog_causal/dog_causal_7.png"" class=""exp-image"">
                    <div class=""question-area"">
                        <p style=""font-size: 20px; font-weight: bold; margin: 0;"">Is there a person in this image?</p>
                    </div>
                </div>","0","main_experiment_trial","7","dog_causal","causal_sequence","chronological","","","","","","",""
"","","","","","html-keyboard-response","31","119098","0.0-31.0","D6F56DB6469A4485BC8B445A21BEA9BE","019dac5c-96f1-7e77-973d-2d3b88a4364a","019dac5b-243f-7307-af64-a10f53f1ef70","","null","
                <div class=""stimulus-container"">
                    <img src=""images/causal_sequence/dog_causal/dog_causal_8.png"" class=""exp-image"">
                    <div class=""question-area""></div> 
                </div>","null","","","","","","","","","","","",""
"","","","","","html-button-response","32","120132","0.0-32.0","D6F56DB6469A4485BC8B445A21BEA9BE","019dac5c-96f1-7e77-973d-2d3b88a4364a","019dac5b-243f-7307-af64-a10f53f1ef70","","1033","
                <div class=""stimulus-container"">
                    <img src=""images/causal_sequence/dog_causal/dog_causal_8.png"" class=""exp-image"">
                    <div class=""question-area"">
                        <p style=""font-size: 20px; font-weight: bold; margin: 0;"">Is there a person in this image?</p>
                    </div>
                </div>","0","main_experiment_trial","8","dog_causal","causal_sequence","chronological","","","","","","",""
"","","","","","html-keyboard-response","33","125148","0.0-33.0","D6F56DB6469A4485BC8B445A21BEA9BE","019dac5c-96f1-7e77-973d-2d3b88a4364a","019dac5b-243f-7307-af64-a10f53f1ef70","","null","
                <div class=""stimulus-container"">
                    <img src=""images/causal_sequence/dog_causal/dog_causal_9.png"" class=""exp-image"">
                    <div class=""question-area""></div> 
                </div>","null","","","","","","","","","","","",""
"","","","","","html-button-response","34","125532","0.0-34.0","D6F56DB6469A4485BC8B445A21BEA9BE","019dac5c-96f1-7e77-973d-2d3b88a4364a","019dac5b-243f-7307-af64-a10f53f1ef70","","383","
                <div class=""stimulus-container"">
                    <img src=""images/causal_sequence/dog_causal/dog_causal_9.png"" class=""exp-image"">
                    <div class=""question-area"">
                        <p style=""font-size: 20px; font-weight: bold; margin: 0;"">Is there a person in this image?</p>
                    </div>
                </div>","0","main_experiment_trial","9","dog_causal","causal_sequence","chronological","","","","","","",""
"","","","","","html-keyboard-response","35","130543","0.0-35.0","D6F56DB6469A4485BC8B445A21BEA9BE","019dac5c-96f1-7e77-973d-2d3b88a4364a","019dac5b-243f-7307-af64-a10f53f1ef70","","null","
                <div class=""stimulus-container"">
                    <img src=""images/causal_sequence/dog_causal/dog_causal_ten.png"" class=""exp-image"">
                    <div class=""question-area""></div> 
                </div>","null","","","","","","","","","","","",""
"","","","","","html-button-response","36","131036","0.0-36.0","D6F56DB6469A4485BC8B445A21BEA9BE","019dac5c-96f1-7e77-973d-2d3b88a4364a","019dac5b-243f-7307-af64-a10f53f1ef70","","492","
                <div class=""stimulus-container"">
                    <img src=""images/causal_sequence/dog_causal/dog_causal_ten.png"" class=""exp-image"">
                    <div class=""question-area"">
                        <p style=""font-size: 20px; font-weight: bold; margin: 0;"">Is there a person in this image?</p>
                    </div>
                </div>","0","main_experiment_trial","ten","dog_causal","causal_sequence","chronological","","","","","","",""
"","","","","","html-keyboard-response","37","136047","0.0-37.0","D6F56DB6469A4485BC8B445A21BEA9BE","019dac5c-96f1-7e77-973d-2d3b88a4364a","019dac5b-243f-7307-af64-a10f53f1ef70","","null","<div style=""background-color: white; width: 100vw; height: 100vh;""></div>","null","","","","","","","","","","","",""
"","","","","","html-keyboard-response","38","141056","0.0-38.0","D6F56DB6469A4485BC8B445A21BEA9BE","019dac5c-96f1-7e77-973d-2d3b88a4364a","019dac5b-243f-7307-af64-a10f53f1ef70","","null","
                <div class=""stimulus-container"">
                    <img src=""images/semantic_sequence/visiting_cities_semantic/visiting_cities_semantic_1.png"" class=""exp-image"">
                    <div class=""question-area""></div> 
                </div>","null","","","","","","","","","","","",""
"","","","","","html-button-response","39","142012","0.0-39.0","D6F56DB6469A4485BC8B445A21BEA9BE","019dac5c-96f1-7e77-973d-2d3b88a4364a","019dac5b-243f-7307-af64-a10f53f1ef70","","955","
                <div class=""stimulus-container"">
                    <img src=""images/semantic_sequence/visiting_cities_semantic/visiting_cities_semantic_1.png"" class=""exp-image"">
                    <div class=""question-area"">
                        <p style=""font-size: 20px; font-weight: bold; margin: 0;"">Is there a person in this image?</p>
                    </div>
                </div>","0","main_experiment_trial","1","visiting_cities_semantic","semantic_sequence","chronological","","","","","","",""
"","","","","","html-keyboard-response","40","147013","0.0-40.0","D6F56DB6469A4485BC8B445A21BEA9BE","019dac5c-96f1-7e77-973d-2d3b88a4364a","019dac5b-243f-7307-af64-a10f53f1ef70","","null","
                <div class=""stimulus-container"">
                    <img src=""images/semantic_sequence/visiting_cities_semantic/visiting_cities_semantic_2.png"" class=""exp-image"">
                    <div class=""question-area""></div> 
                </div>","null","","","","","","","","","","","",""
"","","","","","html-button-response","41","147556","0.0-41.0","D6F56DB6469A4485BC8B445A21BEA9BE","019dac5c-96f1-7e77-973d-2d3b88a4364a","019dac5b-243f-7307-af64-a10f53f1ef70","","542","
                <div class=""stimulus-container"">
                    <img src=""images/semantic_sequence/visiting_cities_semantic/visiting_cities_semantic_2.png"" class=""exp-image"">
                    <div class=""question-area"">
                        <p style=""font-size: 20px; font-weight: bold; margin: 0;"">Is there a person in this image?</p>
                    </div>
                </div>","1","main_experiment_trial","2","visiting_cities_semantic","semantic_sequence","chronological","","","","","","",""
"","","","","","html-keyboard-response","42","152561","0.0-42.0","D6F56DB6469A4485BC8B445A21BEA9BE","019dac5c-96f1-7e77-973d-2d3b88a4364a","019dac5b-243f-7307-af64-a10f53f1ef70","","null","
                <div class=""stimulus-container"">
                    <img src=""images/semantic_sequence/visiting_cities_semantic/visiting_cities_semantic_3.png"" class=""exp-image"">
                    <div class=""question-area""></div> 
                </div>","null","","","","","","","","","","","",""
"","","","","","html-button-response","43","153052","0.0-43.0","D6F56DB6469A4485BC8B445A21BEA9BE","019dac5c-96f1-7e77-973d-2d3b88a4364a","019dac5b-243f-7307-af64-a10f53f1ef70","","490","
                <div class=""stimulus-container"">
                    <img src=""images/semantic_sequence/visiting_cities_semantic/visiting_cities_semantic_3.png"" class=""exp-image"">
                    <div class=""question-area"">
                        <p style=""font-size: 20px; font-weight: bold; margin: 0;"">Is there a person in this image?</p>
                    </div>
                </div>","1","main_experiment_trial","3","visiting_cities_semantic","semantic_sequence","chronological","","","","","","",""
"","","","","","html-keyboard-response","44","158064","0.0-44.0","D6F56DB6469A4485BC8B445A21BEA9BE","019dac5c-96f1-7e77-973d-2d3b88a4364a","019dac5b-243f-7307-af64-a10f53f1ef70","","null","
                <div class=""stimulus-container"">
                    <img src=""images/semantic_sequence/visiting_cities_semantic/visiting_cities_semantic_4.png"" class=""exp-image"">
                    <div class=""question-area""></div> 
                </div>","null","","","","","","","","","","","",""
"","","","","","html-button-response","45","158460","0.0-45.0","D6F56DB6469A4485BC8B445A21BEA9BE","019dac5c-96f1-7e77-973d-2d3b88a4364a","019dac5b-243f-7307-af64-a10f53f1ef70","","395","
                <div class=""stimulus-container"">
                    <img src=""images/semantic_sequence/visiting_cities_semantic/visiting_cities_semantic_4.png"" class=""exp-image"">
                    <div class=""question-area"">
                        <p style=""font-size: 20px; font-weight: bold; margin: 0;"">Is there a person in this image?</p>
                    </div>
                </div>","1","main_experiment_trial","4","visiting_cities_semantic","semantic_sequence","chronological","","","","","","",""
"","","","","","html-keyboard-response","46","163474","0.0-46.0","D6F56DB6469A4485BC8B445A21BEA9BE","019dac5c-96f1-7e77-973d-2d3b88a4364a","019dac5b-243f-7307-af64-a10f53f1ef70","","null","
                <div class=""stimulus-container"">
                    <img src=""images/semantic_sequence/visiting_cities_semantic/visiting_cities_semantic_5.png"" class=""exp-image"">
                    <div class=""question-area""></div> 
                </div>","null","","","","","","","","","","","",""
"","","","","","html-button-response","47","163884","0.0-47.0","D6F56DB6469A4485BC8B445A21BEA9BE","019dac5c-96f1-7e77-973d-2d3b88a4364a","019dac5b-243f-7307-af64-a10f53f1ef70","","409","
                <div class=""stimulus-container"">
                    <img src=""images/semantic_sequence/visiting_cities_semantic/visiting_cities_semantic_5.png"" class=""exp-image"">
                    <div class=""question-area"">
                        <p style=""font-size: 20px; font-weight: bold; margin: 0;"">Is there a person in this image?</p>
                    </div>
                </div>","1","main_experiment_trial","5","visiting_cities_semantic","semantic_sequence","chronological","","","","","","",""
"","","","","","html-keyboard-response","48","168896","0.0-48.0","D6F56DB6469A4485BC8B445A21BEA9BE","019dac5c-96f1-7e77-973d-2d3b88a4364a","019dac5b-243f-7307-af64-a10f53f1ef70","","null","
                <div class=""stimulus-container"">
                    <img src=""images/semantic_sequence/visiting_cities_semantic/visiting_cities_semantic_6.png"" class=""exp-image"">
                    <div class=""question-area""></div> 
                </div>","null","","","","","","","","","","","",""
"","","","","","html-button-response","49","169292","0.0-49.0","D6F56DB6469A4485BC8B445A21BEA9BE","019dac5c-96f1-7e77-973d-2d3b88a4364a","019dac5b-243f-7307-af64-a10f53f1ef70","","395","
                <div class=""stimulus-container"">
                    <img src=""images/semantic_sequence/visiting_cities_semantic/visiting_cities_semantic_6.png"" class=""exp-image"">
                    <div class=""question-area"">
                        <p style=""font-size: 20px; font-weight: bold; margin: 0;"">Is there a person in this image?</p>
                    </div>
                </div>","1","main_experiment_trial","6","visiting_cities_semantic","semantic_sequence","chronological","","","","","","",""
"","","","","","html-keyboard-response","50","174301","0.0-50.0","D6F56DB6469A4485BC8B445A21BEA9BE","019dac5c-96f1-7e77-973d-2d3b88a4364a","019dac5b-243f-7307-af64-a10f53f1ef70","","null","
                <div class=""stimulus-container"">
                    <img src=""images/semantic_sequence/visiting_cities_semantic/visiting_cities_semantic_7.png"" class=""exp-image"">
                    <div class=""question-area""></div> 
                </div>","null","","","","","","","","","","","",""
"","","","","","html-button-response","51","174740","0.0-51.0","D6F56DB6469A4485BC8B445A21BEA9BE","019dac5c-96f1-7e77-973d-2d3b88a4364a","019dac5b-243f-7307-af64-a10f53f1ef70","","438","
                <div class=""stimulus-container"">
                    <img src=""images/semantic_sequence/visiting_cities_semantic/visiting_cities_semantic_7.png"" class=""exp-image"">
                    <div class=""question-area"">
                        <p style=""font-size: 20px; font-weight: bold; margin: 0;"">Is there a person in this image?</p>
                    </div>
                </div>","1","main_experiment_trial","7","visiting_cities_semantic","semantic_sequence","chronological","","","","","","",""
"","","","","","html-keyboard-response","52","179747","0.0-52.0","D6F56DB6469A4485BC8B445A21BEA9BE","019dac5c-96f1-7e77-973d-2d3b88a4364a","019dac5b-243f-7307-af64-a10f53f1ef70","","null","
                <div class=""stimulus-container"">
                    <img src=""images/semantic_sequence/visiting_cities_semantic/visiting_cities_semantic_8.png"" class=""exp-image"">
                    <div class=""question-area""></div> 
                </div>","null","","","","","","","","","","","",""
"","","","","","html-button-response","53","180396","0.0-53.0","D6F56DB6469A4485BC8B445A21BEA9BE","019dac5c-96f1-7e77-973d-2d3b88a4364a","019dac5b-243f-7307-af64-a10f53f1ef70","","648","
                <div class=""stimulus-container"">
                    <img src=""images/semantic_sequence/visiting_cities_semantic/visiting_cities_semantic_8.png"" class=""exp-image"">
                    <div class=""question-area"">
                        <p style=""font-size: 20px; font-weight: bold; margin: 0;"">Is there a person in this image?</p>
                    </div>
                </div>","1","main_experiment_trial","8","visiting_cities_semantic","semantic_sequence","chronological","","","","","","",""
"","","","","","html-keyboard-response","54","185399","0.0-54.0","D6F56DB6469A4485BC8B445A21BEA9BE","019dac5c-96f1-7e77-973d-2d3b88a4364a","019dac5b-243f-7307-af64-a10f53f1ef70","","null","
                <div class=""stimulus-container"">
                    <img src=""images/semantic_sequence/visiting_cities_semantic/visiting_cities_semantic_9.png"" class=""exp-image"">
                    <div class=""question-area""></div> 
                </div>","null","","","","","","","","","","","",""
"","","","","","html-button-response","55","186012","0.0-55.0","D6F56DB6469A4485BC8B445A21BEA9BE","019dac5c-96f1-7e77-973d-2d3b88a4364a","019dac5b-243f-7307-af64-a10f53f1ef70","","612","
                <div class=""stimulus-container"">
                    <img src=""images/semantic_sequence/visiting_cities_semantic/visiting_cities_semantic_9.png"" class=""exp-image"">
                    <div class=""question-area"">
                        <p style=""font-size: 20px; font-weight: bold; margin: 0;"">Is there a person in this image?</p>
                    </div>
                </div>","1","main_experiment_trial","9","visiting_cities_semantic","semantic_sequence","chronological","","","","","","",""
"","","","","","html-keyboard-response","56","191024","0.0-56.0","D6F56DB6469A4485BC8B445A21BEA9BE","019dac5c-96f1-7e77-973d-2d3b88a4364a","019dac5b-243f-7307-af64-a10f53f1ef70","","null","
                <div class=""stimulus-container"">
                    <img src=""images/semantic_sequence/visiting_cities_semantic/visiting_cities_semantic_ten.png"" class=""exp-image"">
                    <div class=""question-area""></div> 
                </div>","null","","","","","","","","","","","",""
"","","","","","html-button-response","57","191612","0.0-57.0","D6F56DB6469A4485BC8B445A21BEA9BE","019dac5c-96f1-7e77-973d-2d3b88a4364a","019dac5b-243f-7307-af64-a10f53f1ef70","","587","
                <div class=""stimulus-container"">
                    <img src=""images/semantic_sequence/visiting_cities_semantic/visiting_cities_semantic_ten.png"" class=""exp-image"">
                    <div class=""question-area"">
                        <p style=""font-size: 20px; font-weight: bold; margin: 0;"">Is there a person in this image?</p>
                    </div>
                </div>","1","main_experiment_trial","ten","visiting_cities_semantic","semantic_sequence","chronological","","","","","","",""
"","","","","","html-keyboard-response","58","196616","0.0-58.0","D6F56DB6469A4485BC8B445A21BEA9BE","019dac5c-96f1-7e77-973d-2d3b88a4364a","019dac5b-243f-7307-af64-a10f53f1ef70","","null","<div style=""background-color: white; width: 100vw; height: 100vh;""></div>","null","","","","","","","","","","","",""
"","","","","","html-keyboard-response","59","201628","0.0-59.0","D6F56DB6469A4485BC8B445A21BEA9BE","019dac5c-96f1-7e77-973d-2d3b88a4364a","019dac5b-243f-7307-af64-a10f53f1ef70","","null","
                <div class=""stimulus-container"">
                    <img src=""images/causal_sequence/museum_causal/museum_causal_1.png"" class=""exp-image"">
                    <div class=""question-area""></div> 
                </div>","null","","","","","","","","","","","",""
"","","","","","html-button-response","60","202140","0.0-60.0","D6F56DB6469A4485BC8B445A21BEA9BE","019dac5c-96f1-7e77-973d-2d3b88a4364a","019dac5b-243f-7307-af64-a10f53f1ef70","","511","
                <div class=""stimulus-container"">
                    <img src=""images/causal_sequence/museum_causal/museum_causal_1.png"" class=""exp-image"">
                    <div class=""question-area"">
                        <p style=""font-size: 20px; font-weight: bold; margin: 0;"">Is there a person in this image?</p>
                    </div>
                </div>","0","main_experiment_trial","1","museum_causal","causal_sequence","chronological","","","","","","",""
"","","","","","html-keyboard-response","61","207150","0.0-61.0","D6F56DB6469A4485BC8B445A21BEA9BE","019dac5c-96f1-7e77-973d-2d3b88a4364a","019dac5b-243f-7307-af64-a10f53f1ef70","","null","
                <div class=""stimulus-container"">
                    <img src=""images/causal_sequence/museum_causal/museum_causal_2.png"" class=""exp-image"">
                    <div class=""question-area""></div> 
                </div>","null","","","","","","","","","","","",""
"","","","","","html-button-response","62","207588","0.0-62.0","D6F56DB6469A4485BC8B445A21BEA9BE","019dac5c-96f1-7e77-973d-2d3b88a4364a","019dac5b-243f-7307-af64-a10f53f1ef70","","437","
                <div class=""stimulus-container"">
                    <img src=""images/causal_sequence/museum_causal/museum_causal_2.png"" class=""exp-image"">
                    <div class=""question-area"">
                        <p style=""font-size: 20px; font-weight: bold; margin: 0;"">Is there a person in this image?</p>
                    </div>
                </div>","0","main_experiment_trial","2","museum_causal","causal_sequence","chronological","","","","","","",""
"","","","","","html-keyboard-response","63","212591","0.0-63.0","D6F56DB6469A4485BC8B445A21BEA9BE","019dac5c-96f1-7e77-973d-2d3b88a4364a","019dac5b-243f-7307-af64-a10f53f1ef70","","null","
                <div class=""stimulus-container"">
                    <img src=""images/causal_sequence/museum_causal/museum_causal_3.png"" class=""exp-image"">
                    <div class=""question-area""></div> 
                </div>","null","","","","","","","","","","","",""
"","","","","","html-button-response","64","213284","0.0-64.0","D6F56DB6469A4485BC8B445A21BEA9BE","019dac5c-96f1-7e77-973d-2d3b88a4364a","019dac5b-243f-7307-af64-a10f53f1ef70","","692","
                <div class=""stimulus-container"">
                    <img src=""images/causal_sequence/museum_causal/museum_causal_3.png"" class=""exp-image"">
                    <div class=""question-area"">
                        <p style=""font-size: 20px; font-weight: bold; margin: 0;"">Is there a person in this image?</p>
                    </div>
                </div>","0","main_experiment_trial","3","museum_causal","causal_sequence","chronological","","","","","","",""
"","","","","","html-keyboard-response","65","218292","0.0-65.0","D6F56DB6469A4485BC8B445A21BEA9BE","019dac5c-96f1-7e77-973d-2d3b88a4364a","019dac5b-243f-7307-af64-a10f53f1ef70","","null","
                <div class=""stimulus-container"">
                    <img src=""images/causal_sequence/museum_causal/museum_causal_4.png"" class=""exp-image"">
                    <div class=""question-area""></div> 
                </div>","null","","","","","","","","","","","",""
"","","","","","html-button-response","66","218948","0.0-66.0","D6F56DB6469A4485BC8B445A21BEA9BE","019dac5c-96f1-7e77-973d-2d3b88a4364a","019dac5b-243f-7307-af64-a10f53f1ef70","","655","
                <div class=""stimulus-container"">
                    <img src=""images/causal_sequence/museum_causal/museum_causal_4.png"" class=""exp-image"">
                    <div class=""question-area"">
                        <p style=""font-size: 20px; font-weight: bold; margin: 0;"">Is there a person in this image?</p>
                    </div>
                </div>","1","main_experiment_trial","4","museum_causal","causal_sequence","chronological","","","","","","",""
"","","","","","html-keyboard-response","67","223954","0.0-67.0","D6F56DB6469A4485BC8B445A21BEA9BE","019dac5c-96f1-7e77-973d-2d3b88a4364a","019dac5b-243f-7307-af64-a10f53f1ef70","","null","
                <div class=""stimulus-container"">
                    <img src=""images/causal_sequence/museum_causal/museum_causal_5.png"" class=""exp-image"">
                    <div class=""question-area""></div> 
                </div>","null","","","","","","","","","","","",""
"","","","","","html-button-response","68","224596","0.0-68.0","D6F56DB6469A4485BC8B445A21BEA9BE","019dac5c-96f1-7e77-973d-2d3b88a4364a","019dac5b-243f-7307-af64-a10f53f1ef70","","641","
                <div class=""stimulus-container"">
                    <img src=""images/causal_sequence/museum_causal/museum_causal_5.png"" class=""exp-image"">
                    <div class=""question-area"">
                        <p style=""font-size: 20px; font-weight: bold; margin: 0;"">Is there a person in this image?</p>
                    </div>
                </div>","0","main_experiment_trial","5","museum_causal","causal_sequence","chronological","","","","","","",""
"","","","","","html-keyboard-response","69","229605","0.0-69.0","D6F56DB6469A4485BC8B445A21BEA9BE","019dac5c-96f1-7e77-973d-2d3b88a4364a","019dac5b-243f-7307-af64-a10f53f1ef70","","null","
                <div class=""stimulus-container"">
                    <img src=""images/causal_sequence/museum_causal/museum_causal_6.png"" class=""exp-image"">
                    <div class=""question-area""></div> 
                </div>","null","","","","","","","","","","","",""
"","","","","","html-button-response","70","230100","0.0-70.0","D6F56DB6469A4485BC8B445A21BEA9BE","019dac5c-96f1-7e77-973d-2d3b88a4364a","019dac5b-243f-7307-af64-a10f53f1ef70","","494","
                <div class=""stimulus-container"">
                    <img src=""images/causal_sequence/museum_causal/museum_causal_6.png"" class=""exp-image"">
                    <div class=""question-area"">
                        <p style=""font-size: 20px; font-weight: bold; margin: 0;"">Is there a person in this image?</p>
                    </div>
                </div>","0","main_experiment_trial","6","museum_causal","causal_sequence","chronological","","","","","","",""
"","","","","","html-keyboard-response","71","235111","0.0-71.0","D6F56DB6469A4485BC8B445A21BEA9BE","019dac5c-96f1-7e77-973d-2d3b88a4364a","019dac5b-243f-7307-af64-a10f53f1ef70","","null","
                <div class=""stimulus-container"">
                    <img src=""images/causal_sequence/museum_causal/museum_causal_7.png"" class=""exp-image"">
                    <div class=""question-area""></div> 
                </div>","null","","","","","","","","","","","",""
"","","","","","html-button-response","72","236396","0.0-72.0","D6F56DB6469A4485BC8B445A21BEA9BE","019dac5c-96f1-7e77-973d-2d3b88a4364a","019dac5b-243f-7307-af64-a10f53f1ef70","","1284","
                <div class=""stimulus-container"">
                    <img src=""images/causal_sequence/museum_causal/museum_causal_7.png"" class=""exp-image"">
                    <div class=""question-area"">
                        <p style=""font-size: 20px; font-weight: bold; margin: 0;"">Is there a person in this image?</p>
                    </div>
                </div>","1","main_experiment_trial","7","museum_causal","causal_sequence","chronological","","","","","","",""
"","","","","","html-keyboard-response","73","241403","0.0-73.0","D6F56DB6469A4485BC8B445A21BEA9BE","019dac5c-96f1-7e77-973d-2d3b88a4364a","019dac5b-243f-7307-af64-a10f53f1ef70","","null","
                <div class=""stimulus-container"">
                    <img src=""images/causal_sequence/museum_causal/museum_causal_8.png"" class=""exp-image"">
                    <div class=""question-area""></div> 
                </div>","null","","","","","","","","","","","",""
"","","","","","html-button-response","74","242004","0.0-74.0","D6F56DB6469A4485BC8B445A21BEA9BE","019dac5c-96f1-7e77-973d-2d3b88a4364a","019dac5b-243f-7307-af64-a10f53f1ef70","","600","
                <div class=""stimulus-container"">
                    <img src=""images/causal_sequence/museum_causal/museum_causal_8.png"" class=""exp-image"">
                    <div class=""question-area"">
                        <p style=""font-size: 20px; font-weight: bold; margin: 0;"">Is there a person in this image?</p>
                    </div>
                </div>","0","main_experiment_trial","8","museum_causal","causal_sequence","chronological","","","","","","",""
"","","","","","html-keyboard-response","75","247008","0.0-75.0","D6F56DB6469A4485BC8B445A21BEA9BE","019dac5c-96f1-7e77-973d-2d3b88a4364a","019dac5b-243f-7307-af64-a10f53f1ef70","","null","
                <div class=""stimulus-container"">
                    <img src=""images/causal_sequence/museum_causal/museum_causal_9.png"" class=""exp-image"">
                    <div class=""question-area""></div> 
                </div>","null","","","","","","","","","","","",""
"","","","","","html-button-response","76","247492","0.0-76.0","D6F56DB6469A4485BC8B445A21BEA9BE","019dac5c-96f1-7e77-973d-2d3b88a4364a","019dac5b-243f-7307-af64-a10f53f1ef70","","483","
                <div class=""stimulus-container"">
                    <img src=""images/causal_sequence/museum_causal/museum_causal_9.png"" class=""exp-image"">
                    <div class=""question-area"">
                        <p style=""font-size: 20px; font-weight: bold; margin: 0;"">Is there a person in this image?</p>
                    </div>
                </div>","1","main_experiment_trial","9","museum_causal","causal_sequence","chronological","","","","","","",""
"","","","","","html-keyboard-response","77","252505","0.0-77.0","D6F56DB6469A4485BC8B445A21BEA9BE","019dac5c-96f1-7e77-973d-2d3b88a4364a","019dac5b-243f-7307-af64-a10f53f1ef70","","null","
                <div class=""stimulus-container"">
                    <img src=""images/causal_sequence/museum_causal/museum_causal_ten.png"" class=""exp-image"">
                    <div class=""question-area""></div> 
                </div>","null","","","","","","","","","","","",""
"","","","","","html-button-response","78","253004","0.0-78.0","D6F56DB6469A4485BC8B445A21BEA9BE","019dac5c-96f1-7e77-973d-2d3b88a4364a","019dac5b-243f-7307-af64-a10f53f1ef70","","498","
                <div class=""stimulus-container"">
                    <img src=""images/causal_sequence/museum_causal/museum_causal_ten.png"" class=""exp-image"">
                    <div class=""question-area"">
                        <p style=""font-size: 20px; font-weight: bold; margin: 0;"">Is there a person in this image?</p>
                    </div>
                </div>","0","main_experiment_trial","ten","museum_causal","causal_sequence","chronological","","","","","","",""
"","","","","","html-keyboard-response","79","258005","0.0-79.0","D6F56DB6469A4485BC8B445A21BEA9BE","019dac5c-96f1-7e77-973d-2d3b88a4364a","019dac5b-243f-7307-af64-a10f53f1ef70","","null","<div style=""background-color: white; width: 100vw; height: 100vh;""></div>","null","","","","","","","","","","","",""
"","","","","","html-keyboard-response","80","263020","0.0-80.0","D6F56DB6469A4485BC8B445A21BEA9BE","019dac5c-96f1-7e77-973d-2d3b88a4364a","019dac5b-243f-7307-af64-a10f53f1ef70","","null","
                <div class=""stimulus-container"">
                    <img src=""images/causal_sequence/package_causal/package_causal_1.png"" class=""exp-image"">
                    <div class=""question-area""></div> 
                </div>","null","","","","","","","","","","","",""
"","","","","","html-button-response","81","263772","0.0-81.0","D6F56DB6469A4485BC8B445A21BEA9BE","019dac5c-96f1-7e77-973d-2d3b88a4364a","019dac5b-243f-7307-af64-a10f53f1ef70","","752","
                <div class=""stimulus-container"">
                    <img src=""images/causal_sequence/package_causal/package_causal_1.png"" class=""exp-image"">
                    <div class=""question-area"">
                        <p style=""font-size: 20px; font-weight: bold; margin: 0;"">Is there a person in this image?</p>
                    </div>
                </div>","0","main_experiment_trial","1","package_causal","causal_sequence","chronological","","","","","","",""
"","","","","","html-keyboard-response","82","268781","0.0-82.0","D6F56DB6469A4485BC8B445A21BEA9BE","019dac5c-96f1-7e77-973d-2d3b88a4364a","019dac5b-243f-7307-af64-a10f53f1ef70","","null","
                <div class=""stimulus-container"">
                    <img src=""images/causal_sequence/package_causal/package_causal_2.png"" class=""exp-image"">
                    <div class=""question-area""></div> 
                </div>","null","","","","","","","","","","","",""
"","","","","","html-button-response","83","269492","0.0-83.0","D6F56DB6469A4485BC8B445A21BEA9BE","019dac5c-96f1-7e77-973d-2d3b88a4364a","019dac5b-243f-7307-af64-a10f53f1ef70","","710","
                <div class=""stimulus-container"">
                    <img src=""images/causal_sequence/package_causal/package_causal_2.png"" class=""exp-image"">
                    <div class=""question-area"">
                        <p style=""font-size: 20px; font-weight: bold; margin: 0;"">Is there a person in this image?</p>
                    </div>
                </div>","0","main_experiment_trial","2","package_causal","causal_sequence","chronological","","","","","","",""
"","","","","","html-keyboard-response","84","274494","0.0-84.0","D6F56DB6469A4485BC8B445A21BEA9BE","019dac5c-96f1-7e77-973d-2d3b88a4364a","019dac5b-243f-7307-af64-a10f53f1ef70","","null","
                <div class=""stimulus-container"">
                    <img src=""images/causal_sequence/package_causal/package_causal_3.png"" class=""exp-image"">
                    <div class=""question-area""></div> 
                </div>","null","","","","","","","","","","","",""
"","","","","","html-button-response","85","275236","0.0-85.0","D6F56DB6469A4485BC8B445A21BEA9BE","019dac5c-96f1-7e77-973d-2d3b88a4364a","019dac5b-243f-7307-af64-a10f53f1ef70","","741","
                <div class=""stimulus-container"">
                    <img src=""images/causal_sequence/package_causal/package_causal_3.png"" class=""exp-image"">
                    <div class=""question-area"">
                        <p style=""font-size: 20px; font-weight: bold; margin: 0;"">Is there a person in this image?</p>
                    </div>
                </div>","0","main_experiment_trial","3","package_causal","causal_sequence","chronological","","","","","","",""
"","","","","","html-keyboard-response","86","280252","0.0-86.0","D6F56DB6469A4485BC8B445A21BEA9BE","019dac5c-96f1-7e77-973d-2d3b88a4364a","019dac5b-243f-7307-af64-a10f53f1ef70","","null","
                <div class=""stimulus-container"">
                    <img src=""images/causal_sequence/package_causal/package_causal_4.png"" class=""exp-image"">
                    <div class=""question-area""></div> 
                </div>","null","","","","","","","","","","","",""
"","","","","","html-button-response","87","281052","0.0-87.0","D6F56DB6469A4485BC8B445A21BEA9BE","019dac5c-96f1-7e77-973d-2d3b88a4364a","019dac5b-243f-7307-af64-a10f53f1ef70","","800","
                <div class=""stimulus-container"">
                    <img src=""images/causal_sequence/package_causal/package_causal_4.png"" class=""exp-image"">
                    <div class=""question-area"">
                        <p style=""font-size: 20px; font-weight: bold; margin: 0;"">Is there a person in this image?</p>
                    </div>
                </div>","1","main_experiment_trial","4","package_causal","causal_sequence","chronological","","","","","","",""
"","","","","","html-keyboard-response","88","286056","0.0-88.0","D6F56DB6469A4485BC8B445A21BEA9BE","019dac5c-96f1-7e77-973d-2d3b88a4364a","019dac5b-243f-7307-af64-a10f53f1ef70","","null","
                <div class=""stimulus-container"">
                    <img src=""images/causal_sequence/package_causal/package_causal_5.png"" class=""exp-image"">
                    <div class=""question-area""></div> 
                </div>","null","","","","","","","","","","","",""
"","","","","","html-button-response","89","286772","0.0-89.0","D6F56DB6469A4485BC8B445A21BEA9BE","019dac5c-96f1-7e77-973d-2d3b88a4364a","019dac5b-243f-7307-af64-a10f53f1ef70","","715","
                <div class=""stimulus-container"">
                    <img src=""images/causal_sequence/package_causal/package_causal_5.png"" class=""exp-image"">
                    <div class=""question-area"">
                        <p style=""font-size: 20px; font-weight: bold; margin: 0;"">Is there a person in this image?</p>
                    </div>
                </div>","0","main_experiment_trial","5","package_causal","causal_sequence","chronological","","","","","","",""
"","","","","","html-keyboard-response","90","291778","0.0-90.0","D6F56DB6469A4485BC8B445A21BEA9BE","019dac5c-96f1-7e77-973d-2d3b88a4364a","019dac5b-243f-7307-af64-a10f53f1ef70","","null","
                <div class=""stimulus-container"">
                    <img src=""images/causal_sequence/package_causal/package_causal_6.png"" class=""exp-image"">
                    <div class=""question-area""></div> 
                </div>","null","","","","","","","","","","","",""
"","","","","","html-button-response","91","292300","0.0-91.0","D6F56DB6469A4485BC8B445A21BEA9BE","019dac5c-96f1-7e77-973d-2d3b88a4364a","019dac5b-243f-7307-af64-a10f53f1ef70","","521","
                <div class=""stimulus-container"">
                    <img src=""images/causal_sequence/package_causal/package_causal_6.png"" class=""exp-image"">
                    <div class=""question-area"">
                        <p style=""font-size: 20px; font-weight: bold; margin: 0;"">Is there a person in this image?</p>
                    </div>
                </div>","0","main_experiment_trial","6","package_causal","causal_sequence","chronological","","","","","","",""
"","","","","","html-keyboard-response","92","297303","0.0-92.0","D6F56DB6469A4485BC8B445A21BEA9BE","019dac5c-96f1-7e77-973d-2d3b88a4364a","019dac5b-243f-7307-af64-a10f53f1ef70","","null","
                <div class=""stimulus-container"">
                    <img src=""images/causal_sequence/package_causal/package_causal_7.png"" class=""exp-image"">
                    <div class=""question-area""></div> 
                </div>","null","","","","","","","","","","","",""
"","","","","","html-button-response","93","298444","0.0-93.0","D6F56DB6469A4485BC8B445A21BEA9BE","019dac5c-96f1-7e77-973d-2d3b88a4364a","019dac5b-243f-7307-af64-a10f53f1ef70","","1140","
                <div class=""stimulus-container"">
                    <img src=""images/causal_sequence/package_causal/package_causal_7.png"" class=""exp-image"">
                    <div class=""question-area"">
                        <p style=""font-size: 20px; font-weight: bold; margin: 0;"">Is there a person in this image?</p>
                    </div>
                </div>","0","main_experiment_trial","7","package_causal","causal_sequence","chronological","","","","","","",""
"","","","","","html-keyboard-response","94","303459","0.0-94.0","D6F56DB6469A4485BC8B445A21BEA9BE","019dac5c-96f1-7e77-973d-2d3b88a4364a","019dac5b-243f-7307-af64-a10f53f1ef70","","null","
                <div class=""stimulus-container"">
                    <img src=""images/causal_sequence/package_causal/package_causal_8.png"" class=""exp-image"">
                    <div class=""question-area""></div> 
                </div>","null","","","","","","","","","","","",""
"","","","","","html-button-response","95","304092","0.0-95.0","D6F56DB6469A4485BC8B445A21BEA9BE","019dac5c-96f1-7e77-973d-2d3b88a4364a","019dac5b-243f-7307-af64-a10f53f1ef70","","632","
                <div class=""stimulus-container"">
                    <img src=""images/causal_sequence/package_causal/package_causal_8.png"" class=""exp-image"">
                    <div class=""question-area"">
                        <p style=""font-size: 20px; font-weight: bold; margin: 0;"">Is there a person in this image?</p>
                    </div>
                </div>","0","main_experiment_trial","8","package_causal","causal_sequence","chronological","","","","","","",""
"","","","","","html-keyboard-response","96","309098","0.0-96.0","D6F56DB6469A4485BC8B445A21BEA9BE","019dac5c-96f1-7e77-973d-2d3b88a4364a","019dac5b-243f-7307-af64-a10f53f1ef70","","null","
                <div class=""stimulus-container"">
                    <img src=""images/causal_sequence/package_causal/package_causal_9.png"" class=""exp-image"">
                    <div class=""question-area""></div> 
                </div>","null","","","","","","","","","","","",""
"","","","","","html-button-response","97","309836","0.0-97.0","D6F56DB6469A4485BC8B445A21BEA9BE","019dac5c-96f1-7e77-973d-2d3b88a4364a","019dac5b-243f-7307-af64-a10f53f1ef70","","738","
                <div class=""stimulus-container"">
                    <img src=""images/causal_sequence/package_causal/package_causal_9.png"" class=""exp-image"">
                    <div class=""question-area"">
                        <p style=""font-size: 20px; font-weight: bold; margin: 0;"">Is there a person in this image?</p>
                    </div>
                </div>","0","main_experiment_trial","9","package_causal","causal_sequence","chronological","","","","","","",""
"","","","","","html-keyboard-response","98","314851","0.0-98.0","D6F56DB6469A4485BC8B445A21BEA9BE","019dac5c-96f1-7e77-973d-2d3b88a4364a","019dac5b-243f-7307-af64-a10f53f1ef70","","null","
                <div class=""stimulus-container"">
                    <img src=""images/causal_sequence/package_causal/package_causal_ten.png"" class=""exp-image"">
                    <div class=""question-area""></div> 
                </div>","null","","","","","","","","","","","",""
"","","","","","html-button-response","99","315404","0.0-99.0","D6F56DB6469A4485BC8B445A21BEA9BE","019dac5c-96f1-7e77-973d-2d3b88a4364a","019dac5b-243f-7307-af64-a10f53f1ef70","","552","
                <div class=""stimulus-container"">
                    <img src=""images/causal_sequence/package_causal/package_causal_ten.png"" class=""exp-image"">
                    <div class=""question-area"">
                        <p style=""font-size: 20px; font-weight: bold; margin: 0;"">Is there a person in this image?</p>
                    </div>
                </div>","0","main_experiment_trial","ten","package_causal","causal_sequence","chronological","","","","","","",""
"","","","","","html-keyboard-response","100","320414","0.0-100.0","D6F56DB6469A4485BC8B445A21BEA9BE","019dac5c-96f1-7e77-973d-2d3b88a4364a","019dac5b-243f-7307-af64-a10f53f1ef70","","null","<div style=""background-color: white; width: 100vw; height: 100vh;""></div>","null","","","","","","","","","","","",""
"","","","","","html-keyboard-response","101","325427","0.0-101.0","D6F56DB6469A4485BC8B445A21BEA9BE","019dac5c-96f1-7e77-973d-2d3b88a4364a","019dac5b-243f-7307-af64-a10f53f1ef70","","null","
                <div class=""stimulus-container"">
                    <img src=""images/causal_sequence/coin_causal/coin_causal_1.png"" class=""exp-image"">
                    <div class=""question-area""></div> 
                </div>","null","","","","","","","","","","","",""
"","","","","","html-button-response","102","325980","0.0-102.0","D6F56DB6469A4485BC8B445A21BEA9BE","019dac5c-96f1-7e77-973d-2d3b88a4364a","019dac5b-243f-7307-af64-a10f53f1ef70","","552","
                <div class=""stimulus-container"">
                    <img src=""images/causal_sequence/coin_causal/coin_causal_1.png"" class=""exp-image"">
                    <div class=""question-area"">
                        <p style=""font-size: 20px; font-weight: bold; margin: 0;"">Is there a person in this image?</p>
                    </div>
                </div>","0","main_experiment_trial","1","coin_causal","causal_sequence","chronological","","","","","","",""
"","","","","","html-keyboard-response","103","330991","0.0-103.0","D6F56DB6469A4485BC8B445A21BEA9BE","019dac5c-96f1-7e77-973d-2d3b88a4364a","019dac5b-243f-7307-af64-a10f53f1ef70","","null","
                <div class=""stimulus-container"">
                    <img src=""images/causal_sequence/coin_causal/coin_causal_2.png"" class=""exp-image"">
                    <div class=""question-area""></div> 
                </div>","null","","","","","","","","","","","",""
"","","","","","html-button-response","104","331836","0.0-104.0","D6F56DB6469A4485BC8B445A21BEA9BE","019dac5c-96f1-7e77-973d-2d3b88a4364a","019dac5b-243f-7307-af64-a10f53f1ef70","","844","
                <div class=""stimulus-container"">
                    <img src=""images/causal_sequence/coin_causal/coin_causal_2.png"" class=""exp-image"">
                    <div class=""question-area"">
                        <p style=""font-size: 20px; font-weight: bold; margin: 0;"">Is there a person in this image?</p>
                    </div>
                </div>","0","main_experiment_trial","2","coin_causal","causal_sequence","chronological","","","","","","",""
"","","","","","html-keyboard-response","105","336848","0.0-105.0","D6F56DB6469A4485BC8B445A21BEA9BE","019dac5c-96f1-7e77-973d-2d3b88a4364a","019dac5b-243f-7307-af64-a10f53f1ef70","","null","
                <div class=""stimulus-container"">
                    <img src=""images/causal_sequence/coin_causal/coin_causal_3.png"" class=""exp-image"">
                    <div class=""question-area""></div> 
                </div>","null","","","","","","","","","","","",""
"","","","","","html-button-response","106","337476","0.0-106.0","D6F56DB6469A4485BC8B445A21BEA9BE","019dac5c-96f1-7e77-973d-2d3b88a4364a","019dac5b-243f-7307-af64-a10f53f1ef70","","627","
                <div class=""stimulus-container"">
                    <img src=""images/causal_sequence/coin_causal/coin_causal_3.png"" class=""exp-image"">
                    <div class=""question-area"">
                        <p style=""font-size: 20px; font-weight: bold; margin: 0;"">Is there a person in this image?</p>
                    </div>
                </div>","0","main_experiment_trial","3","coin_causal","causal_sequence","chronological","","","","","","",""
"","","","","","html-keyboard-response","107","342490","0.0-107.0","D6F56DB6469A4485BC8B445A21BEA9BE","019dac5c-96f1-7e77-973d-2d3b88a4364a","019dac5b-243f-7307-af64-a10f53f1ef70","","null","
                <div class=""stimulus-container"">
                    <img src=""images/causal_sequence/coin_causal/coin_causal_4.png"" class=""exp-image"">
                    <div class=""question-area""></div> 
                </div>","null","","","","","","","","","","","",""
"","","","","","html-button-response","108","343092","0.0-108.0","D6F56DB6469A4485BC8B445A21BEA9BE","019dac5c-96f1-7e77-973d-2d3b88a4364a","019dac5b-243f-7307-af64-a10f53f1ef70","","602","
                <div class=""stimulus-container"">
                    <img src=""images/causal_sequence/coin_causal/coin_causal_4.png"" class=""exp-image"">
                    <div class=""question-area"">
                        <p style=""font-size: 20px; font-weight: bold; margin: 0;"">Is there a person in this image?</p>
                    </div>
                </div>","0","main_experiment_trial","4","coin_causal","causal_sequence","chronological","","","","","","",""
"","","","","","html-keyboard-response","109","348097","0.0-109.0","D6F56DB6469A4485BC8B445A21BEA9BE","019dac5c-96f1-7e77-973d-2d3b88a4364a","019dac5b-243f-7307-af64-a10f53f1ef70","","null","
                <div class=""stimulus-container"">
                    <img src=""images/causal_sequence/coin_causal/coin_causal_5.png"" class=""exp-image"">
                    <div class=""question-area""></div> 
                </div>","null","","","","","","","","","","","",""
"","","","","","html-button-response","110","348652","0.0-110.0","D6F56DB6469A4485BC8B445A21BEA9BE","019dac5c-96f1-7e77-973d-2d3b88a4364a","019dac5b-243f-7307-af64-a10f53f1ef70","","554","
                <div class=""stimulus-container"">
                    <img src=""images/causal_sequence/coin_causal/coin_causal_5.png"" class=""exp-image"">
                    <div class=""question-area"">
                        <p style=""font-size: 20px; font-weight: bold; margin: 0;"">Is there a person in this image?</p>
                    </div>
                </div>","0","main_experiment_trial","5","coin_causal","causal_sequence","chronological","","","","","","",""
"","","","","","html-keyboard-response","111","353667","0.0-111.0","D6F56DB6469A4485BC8B445A21BEA9BE","019dac5c-96f1-7e77-973d-2d3b88a4364a","019dac5b-243f-7307-af64-a10f53f1ef70","","null","
                <div class=""stimulus-container"">
                    <img src=""images/causal_sequence/coin_causal/coin_causal_6.png"" class=""exp-image"">
                    <div class=""question-area""></div> 
                </div>","null","","","","","","","","","","","",""
"","","","","","html-button-response","112","354188","0.0-112.0","D6F56DB6469A4485BC8B445A21BEA9BE","019dac5c-96f1-7e77-973d-2d3b88a4364a","019dac5b-243f-7307-af64-a10f53f1ef70","","520","
                <div class=""stimulus-container"">
                    <img src=""images/causal_sequence/coin_causal/coin_causal_6.png"" class=""exp-image"">
                    <div class=""question-area"">
                        <p style=""font-size: 20px; font-weight: bold; margin: 0;"">Is there a person in this image?</p>
                    </div>
                </div>","0","main_experiment_trial","6","coin_causal","causal_sequence","chronological","","","","","","",""
"","","","","","html-keyboard-response","113","359193","0.0-113.0","D6F56DB6469A4485BC8B445A21BEA9BE","019dac5c-96f1-7e77-973d-2d3b88a4364a","019dac5b-243f-7307-af64-a10f53f1ef70","","null","
                <div class=""stimulus-container"">
                    <img src=""images/causal_sequence/coin_causal/coin_causal_7.png"" class=""exp-image"">
                    <div class=""question-area""></div> 
                </div>","null","","","","","","","","","","","",""
"","","","","","html-button-response","114","359748","0.0-114.0","D6F56DB6469A4485BC8B445A21BEA9BE","019dac5c-96f1-7e77-973d-2d3b88a4364a","019dac5b-243f-7307-af64-a10f53f1ef70","","554","
                <div class=""stimulus-container"">
                    <img src=""images/causal_sequence/coin_causal/coin_causal_7.png"" class=""exp-image"">
                    <div class=""question-area"">
                        <p style=""font-size: 20px; font-weight: bold; margin: 0;"">Is there a person in this image?</p>
                    </div>
                </div>","1","main_experiment_trial","7","coin_causal","causal_sequence","chronological","","","","","","",""
"","","","","","html-keyboard-response","115","364750","0.0-115.0","D6F56DB6469A4485BC8B445A21BEA9BE","019dac5c-96f1-7e77-973d-2d3b88a4364a","019dac5b-243f-7307-af64-a10f53f1ef70","","null","
                <div class=""stimulus-container"">
                    <img src=""images/causal_sequence/coin_causal/coin_causal_8.png"" class=""exp-image"">
                    <div class=""question-area""></div> 
                </div>","null","","","","","","","","","","","",""
"","","","","","html-button-response","116","365292","0.0-116.0","D6F56DB6469A4485BC8B445A21BEA9BE","019dac5c-96f1-7e77-973d-2d3b88a4364a","019dac5b-243f-7307-af64-a10f53f1ef70","","541","
                <div class=""stimulus-container"">
                    <img src=""images/causal_sequence/coin_causal/coin_causal_8.png"" class=""exp-image"">
                    <div class=""question-area"">
                        <p style=""font-size: 20px; font-weight: bold; margin: 0;"">Is there a person in this image?</p>
                    </div>
                </div>","0","main_experiment_trial","8","coin_causal","causal_sequence","chronological","","","","","","",""
"","","","","","html-keyboard-response","117","370307","0.0-117.0","D6F56DB6469A4485BC8B445A21BEA9BE","019dac5c-96f1-7e77-973d-2d3b88a4364a","019dac5b-243f-7307-af64-a10f53f1ef70","","null","
                <div class=""stimulus-container"">
                    <img src=""images/causal_sequence/coin_causal/coin_causal_9.png"" class=""exp-image"">
                    <div class=""question-area""></div> 
                </div>","null","","","","","","","","","","","",""
"","","","","","html-button-response","118","370980","0.0-118.0","D6F56DB6469A4485BC8B445A21BEA9BE","019dac5c-96f1-7e77-973d-2d3b88a4364a","019dac5b-243f-7307-af64-a10f53f1ef70","","672","
                <div class=""stimulus-container"">
                    <img src=""images/causal_sequence/coin_causal/coin_causal_9.png"" class=""exp-image"">
                    <div class=""question-area"">
                        <p style=""font-size: 20px; font-weight: bold; margin: 0;"">Is there a person in this image?</p>
                    </div>
                </div>","0","main_experiment_trial","9","coin_causal","causal_sequence","chronological","","","","","","",""
"","","","","","html-keyboard-response","119","375992","0.0-119.0","D6F56DB6469A4485BC8B445A21BEA9BE","019dac5c-96f1-7e77-973d-2d3b88a4364a","019dac5b-243f-7307-af64-a10f53f1ef70","","null","
                <div class=""stimulus-container"">
                    <img src=""images/causal_sequence/coin_causal/coin_causal_ten.png"" class=""exp-image"">
                    <div class=""question-area""></div> 
                </div>","null","","","","","","","","","","","",""
"","","","","","html-button-response","120","376884","0.0-120.0","D6F56DB6469A4485BC8B445A21BEA9BE","019dac5c-96f1-7e77-973d-2d3b88a4364a","019dac5b-243f-7307-af64-a10f53f1ef70","","892","
                <div class=""stimulus-container"">
                    <img src=""images/causal_sequence/coin_causal/coin_causal_ten.png"" class=""exp-image"">
                    <div class=""question-area"">
                        <p style=""font-size: 20px; font-weight: bold; margin: 0;"">Is there a person in this image?</p>
                    </div>
                </div>","0","main_experiment_trial","ten","coin_causal","causal_sequence","chronological","","","","","","",""
"","","","","","html-keyboard-response","121","381889","0.0-121.0","D6F56DB6469A4485BC8B445A21BEA9BE","019dac5c-96f1-7e77-973d-2d3b88a4364a","019dac5b-243f-7307-af64-a10f53f1ef70","","null","<div style=""background-color: white; width: 100vw; height: 100vh;""></div>","null","","","","","","","","","","","",""
"","","","","","html-keyboard-response","122","386896","0.0-122.0","D6F56DB6469A4485BC8B445A21BEA9BE","019dac5c-96f1-7e77-973d-2d3b88a4364a","019dac5b-243f-7307-af64-a10f53f1ef70","","null","
                <div class=""stimulus-container"">
                    <img src=""images/semantic_sequence/self_care_activities_semantic/self_care_activities_semantic_1.png"" class=""exp-image"">
                    <div class=""question-area""></div> 
                </div>","null","","","","","","","","","","","",""
"","","","","","html-button-response","123","387692","0.0-123.0","D6F56DB6469A4485BC8B445A21BEA9BE","019dac5c-96f1-7e77-973d-2d3b88a4364a","019dac5b-243f-7307-af64-a10f53f1ef70","","795","
                <div class=""stimulus-container"">
                    <img src=""images/semantic_sequence/self_care_activities_semantic/self_care_activities_semantic_1.png"" class=""exp-image"">
                    <div class=""question-area"">
                        <p style=""font-size: 20px; font-weight: bold; margin: 0;"">Is there a person in this image?</p>
                    </div>
                </div>","0","main_experiment_trial","1","self_care_activities_semantic","semantic_sequence","chronological","","","","","","",""
"","","","","","html-keyboard-response","124","392697","0.0-124.0","D6F56DB6469A4485BC8B445A21BEA9BE","019dac5c-96f1-7e77-973d-2d3b88a4364a","019dac5b-243f-7307-af64-a10f53f1ef70","","null","
                <div class=""stimulus-container"">
                    <img src=""images/semantic_sequence/self_care_activities_semantic/self_care_activities_semantic_2.png"" class=""exp-image"">
                    <div class=""question-area""></div> 
                </div>","null","","","","","","","","","","","",""
"","","","","","html-button-response","125","393196","0.0-125.0","D6F56DB6469A4485BC8B445A21BEA9BE","019dac5c-96f1-7e77-973d-2d3b88a4364a","019dac5b-243f-7307-af64-a10f53f1ef70","","498","
                <div class=""stimulus-container"">
                    <img src=""images/semantic_sequence/self_care_activities_semantic/self_care_activities_semantic_2.png"" class=""exp-image"">
                    <div class=""question-area"">
                        <p style=""font-size: 20px; font-weight: bold; margin: 0;"">Is there a person in this image?</p>
                    </div>
                </div>","0","main_experiment_trial","2","self_care_activities_semantic","semantic_sequence","chronological","","","","","","",""
"","","","","","html-keyboard-response","126","398199","0.0-126.0","D6F56DB6469A4485BC8B445A21BEA9BE","019dac5c-96f1-7e77-973d-2d3b88a4364a","019dac5b-243f-7307-af64-a10f53f1ef70","","null","
                <div class=""stimulus-container"">
                    <img src=""images/semantic_sequence/self_care_activities_semantic/self_care_activities_semantic_3.png"" class=""exp-image"">
                    <div class=""question-area""></div> 
                </div>","null","","","","","","","","","","","",""
"","","","","","html-button-response","127","398820","0.0-127.0","D6F56DB6469A4485BC8B445A21BEA9BE","019dac5c-96f1-7e77-973d-2d3b88a4364a","019dac5b-243f-7307-af64-a10f53f1ef70","","620","
                <div class=""stimulus-container"">
                    <img src=""images/semantic_sequence/self_care_activities_semantic/self_care_activities_semantic_3.png"" class=""exp-image"">
                    <div class=""question-area"">
                        <p style=""font-size: 20px; font-weight: bold; margin: 0;"">Is there a person in this image?</p>
                    </div>
                </div>","0","main_experiment_trial","3","self_care_activities_semantic","semantic_sequence","chronological","","","","","","",""
"","","","","","html-keyboard-response","128","403822","0.0-128.0","D6F56DB6469A4485BC8B445A21BEA9BE","019dac5c-96f1-7e77-973d-2d3b88a4364a","019dac5b-243f-7307-af64-a10f53f1ef70","","null","
                <div class=""stimulus-container"">
                    <img src=""images/semantic_sequence/self_care_activities_semantic/self_care_activities_semantic_4.png"" class=""exp-image"">
                    <div class=""question-area""></div> 
                </div>","null","","","","","","","","","","","",""
"","","","","","html-button-response","129","405052","0.0-129.0","D6F56DB6469A4485BC8B445A21BEA9BE","019dac5c-96f1-7e77-973d-2d3b88a4364a","019dac5b-243f-7307-af64-a10f53f1ef70","","1229","
                <div class=""stimulus-container"">
                    <img src=""images/semantic_sequence/self_care_activities_semantic/self_care_activities_semantic_4.png"" class=""exp-image"">
                    <div class=""question-area"">
                        <p style=""font-size: 20px; font-weight: bold; margin: 0;"">Is there a person in this image?</p>
                    </div>
                </div>","0","main_experiment_trial","4","self_care_activities_semantic","semantic_sequence","chronological","","","","","","",""
"","","","","","html-keyboard-response","130","410066","0.0-130.0","D6F56DB6469A4485BC8B445A21BEA9BE","019dac5c-96f1-7e77-973d-2d3b88a4364a","019dac5b-243f-7307-af64-a10f53f1ef70","","null","
                <div class=""stimulus-container"">
                    <img src=""images/semantic_sequence/self_care_activities_semantic/self_care_activities_semantic_5.png"" class=""exp-image"">
                    <div class=""question-area""></div> 
                </div>","null","","","","","","","","","","","",""
"","","","","","html-button-response","131","412028","0.0-131.0","D6F56DB6469A4485BC8B445A21BEA9BE","019dac5c-96f1-7e77-973d-2d3b88a4364a","019dac5b-243f-7307-af64-a10f53f1ef70","","1961","
                <div class=""stimulus-container"">
                    <img src=""images/semantic_sequence/self_care_activities_semantic/self_care_activities_semantic_5.png"" class=""exp-image"">
                    <div class=""question-area"">
                        <p style=""font-size: 20px; font-weight: bold; margin: 0;"">Is there a person in this image?</p>
                    </div>
                </div>","0","main_experiment_trial","5","self_care_activities_semantic","semantic_sequence","chronological","","","","","","",""
"","","","","","html-keyboard-response","132","417029","0.0-132.0","D6F56DB6469A4485BC8B445A21BEA9BE","019dac5c-96f1-7e77-973d-2d3b88a4364a","019dac5b-243f-7307-af64-a10f53f1ef70","","null","
                <div class=""stimulus-container"">
                    <img src=""images/semantic_sequence/self_care_activities_semantic/self_care_activities_semantic_6.png"" class=""exp-image"">
                    <div class=""question-area""></div> 
                </div>","null","","","","","","","","","","","",""
"","","","","","html-button-response","133","418764","0.0-133.0","D6F56DB6469A4485BC8B445A21BEA9BE","019dac5c-96f1-7e77-973d-2d3b88a4364a","019dac5b-243f-7307-af64-a10f53f1ef70","","1734","
                <div class=""stimulus-container"">
                    <img src=""images/semantic_sequence/self_care_activities_semantic/self_care_activities_semantic_6.png"" class=""exp-image"">
                    <div class=""question-area"">
                        <p style=""font-size: 20px; font-weight: bold; margin: 0;"">Is there a person in this image?</p>
                    </div>
                </div>","1","main_experiment_trial","6","self_care_activities_semantic","semantic_sequence","chronological","","","","","","",""
"","","","","","html-keyboard-response","134","423778","0.0-134.0","D6F56DB6469A4485BC8B445A21BEA9BE","019dac5c-96f1-7e77-973d-2d3b88a4364a","019dac5b-243f-7307-af64-a10f53f1ef70","","null","
                <div class=""stimulus-container"">
                    <img src=""images/semantic_sequence/self_care_activities_semantic/self_care_activities_semantic_7.png"" class=""exp-image"">
                    <div class=""question-area""></div> 
                </div>","null","","","","","","","","","","","",""
"","","","","","html-button-response","135","425204","0.0-135.0","D6F56DB6469A4485BC8B445A21BEA9BE","019dac5c-96f1-7e77-973d-2d3b88a4364a","019dac5b-243f-7307-af64-a10f53f1ef70","","1425","
                <div class=""stimulus-container"">
                    <img src=""images/semantic_sequence/self_care_activities_semantic/self_care_activities_semantic_7.png"" class=""exp-image"">
                    <div class=""question-area"">
                        <p style=""font-size: 20px; font-weight: bold; margin: 0;"">Is there a person in this image?</p>
                    </div>
                </div>","0","main_experiment_trial","7","self_care_activities_semantic","semantic_sequence","chronological","","","","","","",""
"","","","","","html-keyboard-response","136","430214","0.0-136.0","D6F56DB6469A4485BC8B445A21BEA9BE","019dac5c-96f1-7e77-973d-2d3b88a4364a","019dac5b-243f-7307-af64-a10f53f1ef70","","null","
                <div class=""stimulus-container"">
                    <img src=""images/semantic_sequence/self_care_activities_semantic/self_care_activities_semantic_8.png"" class=""exp-image"">
                    <div class=""question-area""></div> 
                </div>","null","","","","","","","","","","","",""
"","","","","","html-button-response","137","433221","0.0-137.0","D6F56DB6469A4485BC8B445A21BEA9BE","019dac5c-96f1-7e77-973d-2d3b88a4364a","019dac5b-243f-7307-af64-a10f53f1ef70","","null","
                <div class=""stimulus-container"">
                    <img src=""images/semantic_sequence/self_care_activities_semantic/self_care_activities_semantic_8.png"" class=""exp-image"">
                    <div class=""question-area"">
                        <p style=""font-size: 20px; font-weight: bold; margin: 0;"">Is there a person in this image?</p>
                    </div>
                </div>","null","main_experiment_trial","8","self_care_activities_semantic","semantic_sequence","chronological","","","","","","",""
"","","","","","html-keyboard-response","138","438224","0.0-138.0","D6F56DB6469A4485BC8B445A21BEA9BE","019dac5c-96f1-7e77-973d-2d3b88a4364a","019dac5b-243f-7307-af64-a10f53f1ef70","","null","
                <div class=""stimulus-container"">
                    <img src=""images/semantic_sequence/self_care_activities_semantic/self_care_activities_semantic_9.png"" class=""exp-image"">
                    <div class=""question-area""></div> 
                </div>","null","","","","","","","","","","","",""
"","","","","","html-button-response","139","441240","0.0-139.0","D6F56DB6469A4485BC8B445A21BEA9BE","019dac5c-96f1-7e77-973d-2d3b88a4364a","019dac5b-243f-7307-af64-a10f53f1ef70","","null","
                <div class=""stimulus-container"">
                    <img src=""images/semantic_sequence/self_care_activities_semantic/self_care_activities_semantic_9.png"" class=""exp-image"">
                    <div class=""question-area"">
                        <p style=""font-size: 20px; font-weight: bold; margin: 0;"">Is there a person in this image?</p>
                    </div>
                </div>","null","main_experiment_trial","9","self_care_activities_semantic","semantic_sequence","chronological","","","","","","",""
"","","","","","html-keyboard-response","140","446244","0.0-140.0","D6F56DB6469A4485BC8B445A21BEA9BE","019dac5c-96f1-7e77-973d-2d3b88a4364a","019dac5b-243f-7307-af64-a10f53f1ef70","","null","
                <div class=""stimulus-container"">
                    <img src=""images/semantic_sequence/self_care_activities_semantic/self_care_activities_semantic_ten.png"" class=""exp-image"">
                    <div class=""question-area""></div> 
                </div>","null","","","","","","","","","","","",""
"","","","","","html-button-response","141","447100","0.0-141.0","D6F56DB6469A4485BC8B445A21BEA9BE","019dac5c-96f1-7e77-973d-2d3b88a4364a","019dac5b-243f-7307-af64-a10f53f1ef70","","856","
                <div class=""stimulus-container"">
                    <img src=""images/semantic_sequence/self_care_activities_semantic/self_care_activities_semantic_ten.png"" class=""exp-image"">
                    <div class=""question-area"">
                        <p style=""font-size: 20px; font-weight: bold; margin: 0;"">Is there a person in this image?</p>
                    </div>
                </div>","0","main_experiment_trial","ten","self_care_activities_semantic","semantic_sequence","chronological","","","","","","",""
"","","","","","html-keyboard-response","142","452106","0.0-142.0","D6F56DB6469A4485BC8B445A21BEA9BE","019dac5c-96f1-7e77-973d-2d3b88a4364a","019dac5b-243f-7307-af64-a10f53f1ef70","","null","<div style=""background-color: white; width: 100vw; height: 100vh;""></div>","null","","","","","","","","","","","",""
"","","","","","html-keyboard-response","143","457121","0.0-143.0","D6F56DB6469A4485BC8B445A21BEA9BE","019dac5c-96f1-7e77-973d-2d3b88a4364a","019dac5b-243f-7307-af64-a10f53f1ef70","","null","
                <div class=""stimulus-container"">
                    <img src=""images/semantic_sequence/maintaining_a_car_semantic/maintaining_a_car_semantic_1.png"" class=""exp-image"">
                    <div class=""question-area""></div> 
                </div>","null","","","","","","","","","","","",""
"","","","","","html-button-response","144","458388","0.0-144.0","D6F56DB6469A4485BC8B445A21BEA9BE","019dac5c-96f1-7e77-973d-2d3b88a4364a","019dac5b-243f-7307-af64-a10f53f1ef70","","1267","
                <div class=""stimulus-container"">
                    <img src=""images/semantic_sequence/maintaining_a_car_semantic/maintaining_a_car_semantic_1.png"" class=""exp-image"">
                    <div class=""question-area"">
                        <p style=""font-size: 20px; font-weight: bold; margin: 0;"">Is there a person in this image?</p>
                    </div>
                </div>","0","main_experiment_trial","1","maintaining_a_car_semantic","semantic_sequence","chronological","","","","","","",""
"","","","","","html-keyboard-response","145","463398","0.0-145.0","D6F56DB6469A4485BC8B445A21BEA9BE","019dac5c-96f1-7e77-973d-2d3b88a4364a","019dac5b-243f-7307-af64-a10f53f1ef70","","null","
                <div class=""stimulus-container"">
                    <img src=""images/semantic_sequence/maintaining_a_car_semantic/maintaining_a_car_semantic_2.png"" class=""exp-image"">
                    <div class=""question-area""></div> 
                </div>","null","","","","","","","","","","","",""
"","","","","","html-button-response","146","464108","0.0-146.0","D6F56DB6469A4485BC8B445A21BEA9BE","019dac5c-96f1-7e77-973d-2d3b88a4364a","019dac5b-243f-7307-af64-a10f53f1ef70","","709","
                <div class=""stimulus-container"">
                    <img src=""images/semantic_sequence/maintaining_a_car_semantic/maintaining_a_car_semantic_2.png"" class=""exp-image"">
                    <div class=""question-area"">
                        <p style=""font-size: 20px; font-weight: bold; margin: 0;"">Is there a person in this image?</p>
                    </div>
                </div>","0","main_experiment_trial","2","maintaining_a_car_semantic","semantic_sequence","chronological","","","","","","",""
"","","","","","html-keyboard-response","147","469114","0.0-147.0","D6F56DB6469A4485BC8B445A21BEA9BE","019dac5c-96f1-7e77-973d-2d3b88a4364a","019dac5b-243f-7307-af64-a10f53f1ef70","","null","
                <div class=""stimulus-container"">
                    <img src=""images/semantic_sequence/maintaining_a_car_semantic/maintaining_a_car_semantic_3.png"" class=""exp-image"">
                    <div class=""question-area""></div> 
                </div>","null","","","","","","","","","","","",""
"","","","","","html-button-response","148","470252","0.0-148.0","D6F56DB6469A4485BC8B445A21BEA9BE","019dac5c-96f1-7e77-973d-2d3b88a4364a","019dac5b-243f-7307-af64-a10f53f1ef70","","1137","
                <div class=""stimulus-container"">
                    <img src=""images/semantic_sequence/maintaining_a_car_semantic/maintaining_a_car_semantic_3.png"" class=""exp-image"">
                    <div class=""question-area"">
                        <p style=""font-size: 20px; font-weight: bold; margin: 0;"">Is there a person in this image?</p>
                    </div>
                </div>","0","main_experiment_trial","3","maintaining_a_car_semantic","semantic_sequence","chronological","","","","","","",""
"","","","","","html-keyboard-response","149","475260","0.0-149.0","D6F56DB6469A4485BC8B445A21BEA9BE","019dac5c-96f1-7e77-973d-2d3b88a4364a","019dac5b-243f-7307-af64-a10f53f1ef70","","null","
                <div class=""stimulus-container"">
                    <img src=""images/semantic_sequence/maintaining_a_car_semantic/maintaining_a_car_semantic_4.png"" class=""exp-image"">
                    <div class=""question-area""></div> 
                </div>","null","","","","","","","","","","","",""
"","","","","","html-button-response","150","476004","0.0-150.0","D6F56DB6469A4485BC8B445A21BEA9BE","019dac5c-96f1-7e77-973d-2d3b88a4364a","019dac5b-243f-7307-af64-a10f53f1ef70","","743","
                <div class=""stimulus-container"">
                    <img src=""images/semantic_sequence/maintaining_a_car_semantic/maintaining_a_car_semantic_4.png"" class=""exp-image"">
                    <div class=""question-area"">
                        <p style=""font-size: 20px; font-weight: bold; margin: 0;"">Is there a person in this image?</p>
                    </div>
                </div>","0","main_experiment_trial","4","maintaining_a_car_semantic","semantic_sequence","chronological","","","","","","",""
"","","","","","html-keyboard-response","151","481011","0.0-151.0","D6F56DB6469A4485BC8B445A21BEA9BE","019dac5c-96f1-7e77-973d-2d3b88a4364a","019dac5b-243f-7307-af64-a10f53f1ef70","","null","
                <div class=""stimulus-container"">
                    <img src=""images/semantic_sequence/maintaining_a_car_semantic/maintaining_a_car_semantic_5.png"" class=""exp-image"">
                    <div class=""question-area""></div> 
                </div>","null","","","","","","","","","","","",""
"","","","","","html-button-response","152","482204","0.0-152.0","D6F56DB6469A4485BC8B445A21BEA9BE","019dac5c-96f1-7e77-973d-2d3b88a4364a","019dac5b-243f-7307-af64-a10f53f1ef70","","1192","
                <div class=""stimulus-container"">
                    <img src=""images/semantic_sequence/maintaining_a_car_semantic/maintaining_a_car_semantic_5.png"" class=""exp-image"">
                    <div class=""question-area"">
                        <p style=""font-size: 20px; font-weight: bold; margin: 0;"">Is there a person in this image?</p>
                    </div>
                </div>","0","main_experiment_trial","5","maintaining_a_car_semantic","semantic_sequence","chronological","","","","","","",""
"","","","","","html-keyboard-response","153","487210","0.0-153.0","D6F56DB6469A4485BC8B445A21BEA9BE","019dac5c-96f1-7e77-973d-2d3b88a4364a","019dac5b-243f-7307-af64-a10f53f1ef70","","null","
                <div class=""stimulus-container"">
                    <img src=""images/semantic_sequence/maintaining_a_car_semantic/maintaining_a_car_semantic_6.png"" class=""exp-image"">
                    <div class=""question-area""></div> 
                </div>","null","","","","","","","","","","","",""
"","","","","","html-button-response","154","490226","0.0-154.0","D6F56DB6469A4485BC8B445A21BEA9BE","019dac5c-96f1-7e77-973d-2d3b88a4364a","019dac5b-243f-7307-af64-a10f53f1ef70","","null","
                <div class=""stimulus-container"">
                    <img src=""images/semantic_sequence/maintaining_a_car_semantic/maintaining_a_car_semantic_6.png"" class=""exp-image"">
                    <div class=""question-area"">
                        <p style=""font-size: 20px; font-weight: bold; margin: 0;"">Is there a person in this image?</p>
                    </div>
                </div>","null","main_experiment_trial","6","maintaining_a_car_semantic","semantic_sequence","chronological","","","","","","",""
"","","","","","html-keyboard-response","155","495228","0.0-155.0","D6F56DB6469A4485BC8B445A21BEA9BE","019dac5c-96f1-7e77-973d-2d3b88a4364a","019dac5b-243f-7307-af64-a10f53f1ef70","","null","
                <div class=""stimulus-container"">
                    <img src=""images/semantic_sequence/maintaining_a_car_semantic/maintaining_a_car_semantic_7.png"" class=""exp-image"">
                    <div class=""question-area""></div> 
                </div>","null","","","","","","","","","","","",""
"","","","","","html-button-response","156","496972","0.0-156.0","D6F56DB6469A4485BC8B445A21BEA9BE","019dac5c-96f1-7e77-973d-2d3b88a4364a","019dac5b-243f-7307-af64-a10f53f1ef70","","1744","
                <div class=""stimulus-container"">
                    <img src=""images/semantic_sequence/maintaining_a_car_semantic/maintaining_a_car_semantic_7.png"" class=""exp-image"">
                    <div class=""question-area"">
                        <p style=""font-size: 20px; font-weight: bold; margin: 0;"">Is there a person in this image?</p>
                    </div>
                </div>","0","main_experiment_trial","7","maintaining_a_car_semantic","semantic_sequence","chronological","","","","","","",""
"","","","","","html-keyboard-response","157","501985","0.0-157.0","D6F56DB6469A4485BC8B445A21BEA9BE","019dac5c-96f1-7e77-973d-2d3b88a4364a","019dac5b-243f-7307-af64-a10f53f1ef70","","null","
                <div class=""stimulus-container"">
                    <img src=""images/semantic_sequence/maintaining_a_car_semantic/maintaining_a_car_semantic_8.png"" class=""exp-image"">
                    <div class=""question-area""></div> 
                </div>","null","","","","","","","","","","","",""
"","","","","","html-button-response","158","502948","0.0-158.0","D6F56DB6469A4485BC8B445A21BEA9BE","019dac5c-96f1-7e77-973d-2d3b88a4364a","019dac5b-243f-7307-af64-a10f53f1ef70","","963","
                <div class=""stimulus-container"">
                    <img src=""images/semantic_sequence/maintaining_a_car_semantic/maintaining_a_car_semantic_8.png"" class=""exp-image"">
                    <div class=""question-area"">
                        <p style=""font-size: 20px; font-weight: bold; margin: 0;"">Is there a person in this image?</p>
                    </div>
                </div>","0","main_experiment_trial","8","maintaining_a_car_semantic","semantic_sequence","chronological","","","","","","",""
"","","","","","html-keyboard-response","159","507962","0.0-159.0","D6F56DB6469A4485BC8B445A21BEA9BE","019dac5c-96f1-7e77-973d-2d3b88a4364a","019dac5b-243f-7307-af64-a10f53f1ef70","","null","
                <div class=""stimulus-container"">
                    <img src=""images/semantic_sequence/maintaining_a_car_semantic/maintaining_a_car_semantic_9.png"" class=""exp-image"">
                    <div class=""question-area""></div> 
                </div>","null","","","","","","","","","","","",""
"","","","","","html-button-response","160","508772","0.0-160.0","D6F56DB6469A4485BC8B445A21BEA9BE","019dac5c-96f1-7e77-973d-2d3b88a4364a","019dac5b-243f-7307-af64-a10f53f1ef70","","810","
                <div class=""stimulus-container"">
                    <img src=""images/semantic_sequence/maintaining_a_car_semantic/maintaining_a_car_semantic_9.png"" class=""exp-image"">
                    <div class=""question-area"">
                        <p style=""font-size: 20px; font-weight: bold; margin: 0;"">Is there a person in this image?</p>
                    </div>
                </div>","0","main_experiment_trial","9","maintaining_a_car_semantic","semantic_sequence","chronological","","","","","","",""
"","","","","","html-keyboard-response","161","513776","0.0-161.0","D6F56DB6469A4485BC8B445A21BEA9BE","019dac5c-96f1-7e77-973d-2d3b88a4364a","019dac5b-243f-7307-af64-a10f53f1ef70","","null","
                <div class=""stimulus-container"">
                    <img src=""images/semantic_sequence/maintaining_a_car_semantic/maintaining_a_car_semantic_ten.png"" class=""exp-image"">
                    <div class=""question-area""></div> 
                </div>","null","","","","","","","","","","","",""
"","","","","","html-button-response","162","514660","0.0-162.0","D6F56DB6469A4485BC8B445A21BEA9BE","019dac5c-96f1-7e77-973d-2d3b88a4364a","019dac5b-243f-7307-af64-a10f53f1ef70","","883","
                <div class=""stimulus-container"">
                    <img src=""images/semantic_sequence/maintaining_a_car_semantic/maintaining_a_car_semantic_ten.png"" class=""exp-image"">
                    <div class=""question-area"">
                        <p style=""font-size: 20px; font-weight: bold; margin: 0;"">Is there a person in this image?</p>
                    </div>
                </div>","0","main_experiment_trial","ten","maintaining_a_car_semantic","semantic_sequence","chronological","","","","","","",""
"","","","","","html-keyboard-response","163","519664","0.0-163.0","D6F56DB6469A4485BC8B445A21BEA9BE","019dac5c-96f1-7e77-973d-2d3b88a4364a","019dac5b-243f-7307-af64-a10f53f1ef70","","null","<div style=""background-color: white; width: 100vw; height: 100vh;""></div>","null","","","","","","","","","","","",""
"","","","","","html-keyboard-response","164","524675","0.0-164.0","D6F56DB6469A4485BC8B445A21BEA9BE","019dac5c-96f1-7e77-973d-2d3b88a4364a","019dac5b-243f-7307-af64-a10f53f1ef70","","null","
                <div class=""stimulus-container"">
                    <img src=""images/semantic_sequence/physical_activity_semantic/physical_activity_semantic_1.png"" class=""exp-image"">
                    <div class=""question-area""></div> 
                </div>","null","","","","","","","","","","","",""
"","","","","","html-button-response","165","526092","0.0-165.0","D6F56DB6469A4485BC8B445A21BEA9BE","019dac5c-96f1-7e77-973d-2d3b88a4364a","019dac5b-243f-7307-af64-a10f53f1ef70","","1416","
                <div class=""stimulus-container"">
                    <img src=""images/semantic_sequence/physical_activity_semantic/physical_activity_semantic_1.png"" class=""exp-image"">
                    <div class=""question-area"">
                        <p style=""font-size: 20px; font-weight: bold; margin: 0;"">Is there a person in this image?</p>
                    </div>
                </div>","0","main_experiment_trial","1","physical_activity_semantic","semantic_sequence","chronological","","","","","","",""
"","","","","","html-keyboard-response","166","531095","0.0-166.0","D6F56DB6469A4485BC8B445A21BEA9BE","019dac5c-96f1-7e77-973d-2d3b88a4364a","019dac5b-243f-7307-af64-a10f53f1ef70","","null","
                <div class=""stimulus-container"">
                    <img src=""images/semantic_sequence/physical_activity_semantic/physical_activity_semantic_2.png"" class=""exp-image"">
                    <div class=""question-area""></div> 
                </div>","null","","","","","","","","","","","",""
"","","","","","html-button-response","167","532548","0.0-167.0","D6F56DB6469A4485BC8B445A21BEA9BE","019dac5c-96f1-7e77-973d-2d3b88a4364a","019dac5b-243f-7307-af64-a10f53f1ef70","","1452","
                <div class=""stimulus-container"">
                    <img src=""images/semantic_sequence/physical_activity_semantic/physical_activity_semantic_2.png"" class=""exp-image"">
                    <div class=""question-area"">
                        <p style=""font-size: 20px; font-weight: bold; margin: 0;"">Is there a person in this image?</p>
                    </div>
                </div>","0","main_experiment_trial","2","physical_activity_semantic","semantic_sequence","chronological","","","","","","",""
"","","","","","html-keyboard-response","168","537552","0.0-168.0","D6F56DB6469A4485BC8B445A21BEA9BE","019dac5c-96f1-7e77-973d-2d3b88a4364a","019dac5b-243f-7307-af64-a10f53f1ef70","","null","
                <div class=""stimulus-container"">
                    <img src=""images/semantic_sequence/physical_activity_semantic/physical_activity_semantic_3.png"" class=""exp-image"">
                    <div class=""question-area""></div> 
                </div>","null","","","","","","","","","","","",""
"","","","","","html-button-response","169","538588","0.0-169.0","D6F56DB6469A4485BC8B445A21BEA9BE","019dac5c-96f1-7e77-973d-2d3b88a4364a","019dac5b-243f-7307-af64-a10f53f1ef70","","1035","
                <div class=""stimulus-container"">
                    <img src=""images/semantic_sequence/physical_activity_semantic/physical_activity_semantic_3.png"" class=""exp-image"">
                    <div class=""question-area"">
                        <p style=""font-size: 20px; font-weight: bold; margin: 0;"">Is there a person in this image?</p>
                    </div>
                </div>","0","main_experiment_trial","3","physical_activity_semantic","semantic_sequence","chronological","","","","","","",""
"","","","","","html-keyboard-response","170","543595","0.0-170.0","D6F56DB6469A4485BC8B445A21BEA9BE","019dac5c-96f1-7e77-973d-2d3b88a4364a","019dac5b-243f-7307-af64-a10f53f1ef70","","null","
                <div class=""stimulus-container"">
                    <img src=""images/semantic_sequence/physical_activity_semantic/physical_activity_semantic_4.png"" class=""exp-image"">
                    <div class=""question-area""></div> 
                </div>","null","","","","","","","","","","","",""
"","","","","","html-button-response","171","544676","0.0-171.0","D6F56DB6469A4485BC8B445A21BEA9BE","019dac5c-96f1-7e77-973d-2d3b88a4364a","019dac5b-243f-7307-af64-a10f53f1ef70","","1080","
                <div class=""stimulus-container"">
                    <img src=""images/semantic_sequence/physical_activity_semantic/physical_activity_semantic_4.png"" class=""exp-image"">
                    <div class=""question-area"">
                        <p style=""font-size: 20px; font-weight: bold; margin: 0;"">Is there a person in this image?</p>
                    </div>
                </div>","0","main_experiment_trial","4","physical_activity_semantic","semantic_sequence","chronological","","","","","","",""
"","","","","","html-keyboard-response","172","549684","0.0-172.0","D6F56DB6469A4485BC8B445A21BEA9BE","019dac5c-96f1-7e77-973d-2d3b88a4364a","019dac5b-243f-7307-af64-a10f53f1ef70","","null","
                <div class=""stimulus-container"">
                    <img src=""images/semantic_sequence/physical_activity_semantic/physical_activity_semantic_5.png"" class=""exp-image"">
                    <div class=""question-area""></div> 
                </div>","null","","","","","","","","","","","",""
"","","","","","html-button-response","173","551732","0.0-173.0","D6F56DB6469A4485BC8B445A21BEA9BE","019dac5c-96f1-7e77-973d-2d3b88a4364a","019dac5b-243f-7307-af64-a10f53f1ef70","","2047","
                <div class=""stimulus-container"">
                    <img src=""images/semantic_sequence/physical_activity_semantic/physical_activity_semantic_5.png"" class=""exp-image"">
                    <div class=""question-area"">
                        <p style=""font-size: 20px; font-weight: bold; margin: 0;"">Is there a person in this image?</p>
                    </div>
                </div>","0","main_experiment_trial","5","physical_activity_semantic","semantic_sequence","chronological","","","","","","",""
"","","","","","html-keyboard-response","174","556748","0.0-174.0","D6F56DB6469A4485BC8B445A21BEA9BE","019dac5c-96f1-7e77-973d-2d3b88a4364a","019dac5b-243f-7307-af64-a10f53f1ef70","","null","
                <div class=""stimulus-container"">
                    <img src=""images/semantic_sequence/physical_activity_semantic/physical_activity_semantic_6.png"" class=""exp-image"">
                    <div class=""question-area""></div> 
                </div>","null","","","","","","","","","","","",""
"","","","","","html-button-response","175","557452","0.0-175.0","D6F56DB6469A4485BC8B445A21BEA9BE","019dac5c-96f1-7e77-973d-2d3b88a4364a","019dac5b-243f-7307-af64-a10f53f1ef70","","704","
                <div class=""stimulus-container"">
                    <img src=""images/semantic_sequence/physical_activity_semantic/physical_activity_semantic_6.png"" class=""exp-image"">
                    <div class=""question-area"">
                        <p style=""font-size: 20px; font-weight: bold; margin: 0;"">Is there a person in this image?</p>
                    </div>
                </div>","0","main_experiment_trial","6","physical_activity_semantic","semantic_sequence","chronological","","","","","","",""
"","","","","","html-keyboard-response","176","562458","0.0-176.0","D6F56DB6469A4485BC8B445A21BEA9BE","019dac5c-96f1-7e77-973d-2d3b88a4364a","019dac5b-243f-7307-af64-a10f53f1ef70","","null","
                <div class=""stimulus-container"">
                    <img src=""images/semantic_sequence/physical_activity_semantic/physical_activity_semantic_7.png"" class=""exp-image"">
                    <div class=""question-area""></div> 
                </div>","null","","","","","","","","","","","",""
"","","","","","html-button-response","177","563548","0.0-177.0","D6F56DB6469A4485BC8B445A21BEA9BE","019dac5c-96f1-7e77-973d-2d3b88a4364a","019dac5b-243f-7307-af64-a10f53f1ef70","","1089","
