"success","timeout","failed_images","failed_audio","failed_video","trial_type","trial_index","time_elapsed","internal_node_id","subject_id","study_id","session_id","view_history","rt","stimulus","response","task","image_index","folder","valuable_image_index","valuable_X","chosen_image_index","distance_from_X"
"false","false","[]","[]","[]","preload","0","2832","0.0-0.0","A3B83172E928434E9BC83C87525CC2D3","019ce65f-658a-7998-bae7-b1e906d25d85","019ce643-47c6-74a0-b3d2-7bf5651ded46","","","","","","","","","","",""
"","","","","","instructions","1","6218","0.0-1.0","A3B83172E928434E9BC83C87525CC2D3","019ce65f-658a-7998-bae7-b1e906d25d85","019ce643-47c6-74a0-b3d2-7bf5651ded46","[{""page_index"":0,""viewing_time"":3385}]","3385","","","","","","","","",""
"","","","","","instructions","2","9272","0.0-2.0","A3B83172E928434E9BC83C87525CC2D3","019ce65f-658a-7998-bae7-b1e906d25d85","019ce643-47c6-74a0-b3d2-7bf5651ded46","[{""page_index"":0,""viewing_time"":3054}]","3054","","","","","","","","",""
"true","","","","","fullscreen","3","11807","0.0-3.0","A3B83172E928434E9BC83C87525CC2D3","019ce65f-658a-7998-bae7-b1e906d25d85","019ce643-47c6-74a0-b3d2-7bf5651ded46","","1532","","","","","","","","",""
"","","","","","instructions","4","31934","0.0-4.0","A3B83172E928434E9BC83C87525CC2D3","019ce65f-658a-7998-bae7-b1e906d25d85","019ce643-47c6-74a0-b3d2-7bf5651ded46","[{""page_index"":0,""viewing_time"":20125}]","20126","","","","","","","","",""
"","","","","","instructions","5","55241","0.0-5.0","A3B83172E928434E9BC83C87525CC2D3","019ce65f-658a-7998-bae7-b1e906d25d85","019ce643-47c6-74a0-b3d2-7bf5651ded46","[{""page_index"":0,""viewing_time"":23307}]","23307","","","","","","","","",""
"","","","","","html-keyboard-response","6","59257","0.0-6.0","A3B83172E928434E9BC83C87525CC2D3","019ce65f-658a-7998-bae7-b1e906d25d85","019ce643-47c6-74a0-b3d2-7bf5651ded46","","null","
                <div class=""stimulus-container"">
                    <img src=""images/instructions/movie_1.png"" class=""exp-image"">
                    <div class=""question-area""></div> 
                </div>","null","","","","","","",""
"","","","","","html-button-response","7","61250","0.0-7.0","A3B83172E928434E9BC83C87525CC2D3","019ce65f-658a-7998-bae7-b1e906d25d85","019ce643-47c6-74a0-b3d2-7bf5651ded46","","1991","
                <div class=""stimulus-container"">
                    <img src=""images/instructions/movie_1.png"" class=""exp-image"">
                    <div class=""question-area"">
                        <p style=""font-size: 20px; font-weight: bold; margin: 0;"">Was there a person in this image?</p>
                    </div>
                </div>","0","example_question","1","","","","",""
"","","","","","html-keyboard-response","8","65251","0.0-8.0","A3B83172E928434E9BC83C87525CC2D3","019ce65f-658a-7998-bae7-b1e906d25d85","019ce643-47c6-74a0-b3d2-7bf5651ded46","","null","
                <div class=""stimulus-container"">
                    <img src=""images/instructions/movie_2.png"" class=""exp-image"">
                    <div class=""question-area""></div> 
                </div>","null","","","","","","",""
"","","","","","html-button-response","9","67549","0.0-9.0","A3B83172E928434E9BC83C87525CC2D3","019ce65f-658a-7998-bae7-b1e906d25d85","019ce643-47c6-74a0-b3d2-7bf5651ded46","","2296","
                <div class=""stimulus-container"">
                    <img src=""images/instructions/movie_2.png"" class=""exp-image"">
                    <div class=""question-area"">
                        <p style=""font-size: 20px; font-weight: bold; margin: 0;"">Was there a person in this image?</p>
                    </div>
                </div>","1","example_question","2","","","","",""
"","","","","","html-keyboard-response","10","71550","0.0-10.0","A3B83172E928434E9BC83C87525CC2D3","019ce65f-658a-7998-bae7-b1e906d25d85","019ce643-47c6-74a0-b3d2-7bf5651ded46","","null","
                <div class=""stimulus-container"">
                    <img src=""images/instructions/movie_3.png"" class=""exp-image"">
                    <div class=""question-area""></div> 
                </div>","null","","","","","","",""
"","","","","","html-button-response","11","73308","0.0-11.0","A3B83172E928434E9BC83C87525CC2D3","019ce65f-658a-7998-bae7-b1e906d25d85","019ce643-47c6-74a0-b3d2-7bf5651ded46","","1757","
                <div class=""stimulus-container"">
                    <img src=""images/instructions/movie_3.png"" class=""exp-image"">
                    <div class=""question-area"">
                        <p style=""font-size: 20px; font-weight: bold; margin: 0;"">Was there a person in this image?</p>
                    </div>
                </div>","0","example_question","3","","","","",""
"","","","","","html-keyboard-response","12","77315","0.0-12.0","A3B83172E928434E9BC83C87525CC2D3","019ce65f-658a-7998-bae7-b1e906d25d85","019ce643-47c6-74a0-b3d2-7bf5651ded46","","null","
                <div class=""stimulus-container"">
                    <img src=""images/instructions/movie_4.png"" class=""exp-image"">
                    <div class=""question-area""></div> 
                </div>","null","","","","","","",""
"","","","","","html-button-response","13","77746","0.0-13.0","A3B83172E928434E9BC83C87525CC2D3","019ce65f-658a-7998-bae7-b1e906d25d85","019ce643-47c6-74a0-b3d2-7bf5651ded46","","430","
                <div class=""stimulus-container"">
                    <img src=""images/instructions/movie_4.png"" class=""exp-image"">
                    <div class=""question-area"">
                        <p style=""font-size: 20px; font-weight: bold; margin: 0;"">Was there a person in this image?</p>
                    </div>
                </div>","0","example_question","4","","","","",""
"","","","","","instructions","14","79354","0.0-14.0","A3B83172E928434E9BC83C87525CC2D3","019ce65f-658a-7998-bae7-b1e906d25d85","019ce643-47c6-74a0-b3d2-7bf5651ded46","[{""page_index"":0,""viewing_time"":1608}]","1608","","","","","","","","",""
"","","","","","html-keyboard-response","15","80356","0.0-15.0","A3B83172E928434E9BC83C87525CC2D3","019ce65f-658a-7998-bae7-b1e906d25d85","019ce643-47c6-74a0-b3d2-7bf5651ded46","","null","<div style=""background-color: gray; width: 100vw; height: 100vh;""></div>","null","","","","","","",""
"","","","","","html-keyboard-response","16","85372","0.0-16.0","A3B83172E928434E9BC83C87525CC2D3","019ce65f-658a-7998-bae7-b1e906d25d85","019ce643-47c6-74a0-b3d2-7bf5651ded46","","null","
                    <div class=""stimulus-container"">
                        <img src=""images/causal_sequence/coin_causal/coin_causal_1.png"" class=""exp-image"">
                        <div class=""question-area""></div> 
                    </div>","null","","","","","","",""
"","","","","","html-button-response","17","88046","0.0-17.0","A3B83172E928434E9BC83C87525CC2D3","019ce65f-658a-7998-bae7-b1e906d25d85","019ce643-47c6-74a0-b3d2-7bf5651ded46","","2673","
                    <div class=""stimulus-container"">
                        <img src=""images/causal_sequence/coin_causal/coin_causal_1.png"" class=""exp-image"">
                        <div class=""question-area"">
                            <p style=""font-size: 20px; font-weight: bold; margin: 0;"">Is there a person in this image?</p>
                        </div>
                    </div>","0","main_causal_task","1","coin_causal","","","",""
"","","","","","html-keyboard-response","18","93047","0.0-18.0","A3B83172E928434E9BC83C87525CC2D3","019ce65f-658a-7998-bae7-b1e906d25d85","019ce643-47c6-74a0-b3d2-7bf5651ded46","","null","
                    <div class=""stimulus-container"">
                        <img src=""images/causal_sequence/coin_causal/coin_causal_2.png"" class=""exp-image"">
                        <div class=""question-area""></div> 
                    </div>","null","","","","","","",""
"","","","","","html-button-response","19","94369","0.0-19.0","A3B83172E928434E9BC83C87525CC2D3","019ce65f-658a-7998-bae7-b1e906d25d85","019ce643-47c6-74a0-b3d2-7bf5651ded46","","1321","
                    <div class=""stimulus-container"">
                        <img src=""images/causal_sequence/coin_causal/coin_causal_2.png"" class=""exp-image"">
                        <div class=""question-area"">
                            <p style=""font-size: 20px; font-weight: bold; margin: 0;"">Is there a person in this image?</p>
                        </div>
                    </div>","0","main_causal_task","2","coin_causal","","","",""
"","","","","","html-keyboard-response","20","99382","0.0-20.0","A3B83172E928434E9BC83C87525CC2D3","019ce65f-658a-7998-bae7-b1e906d25d85","019ce643-47c6-74a0-b3d2-7bf5651ded46","","null","
                    <div class=""stimulus-container"">
                        <img src=""images/causal_sequence/coin_causal/coin_causal_3.png"" class=""exp-image"">
                        <div class=""question-area""></div> 
                    </div>","null","","","","","","",""
"","","","","","html-button-response","21","99915","0.0-21.0","A3B83172E928434E9BC83C87525CC2D3","019ce65f-658a-7998-bae7-b1e906d25d85","019ce643-47c6-74a0-b3d2-7bf5651ded46","","532","
                    <div class=""stimulus-container"">
                        <img src=""images/causal_sequence/coin_causal/coin_causal_3.png"" class=""exp-image"">
                        <div class=""question-area"">
                            <p style=""font-size: 20px; font-weight: bold; margin: 0;"">Is there a person in this image?</p>
                        </div>
                    </div>","0","main_causal_task","3","coin_causal","","","",""
"","","","","","html-keyboard-response","22","104931","0.0-22.0","A3B83172E928434E9BC83C87525CC2D3","019ce65f-658a-7998-bae7-b1e906d25d85","019ce643-47c6-74a0-b3d2-7bf5651ded46","","null","
                    <div class=""stimulus-container"">
                        <img src=""images/causal_sequence/coin_causal/coin_causal_4.png"" class=""exp-image"">
                        <div class=""question-area""></div> 
                    </div>","null","","","","","","",""
"","","","","","html-button-response","23","105534","0.0-23.0","A3B83172E928434E9BC83C87525CC2D3","019ce65f-658a-7998-bae7-b1e906d25d85","019ce643-47c6-74a0-b3d2-7bf5651ded46","","603","
                    <div class=""stimulus-container"">
                        <img src=""images/causal_sequence/coin_causal/coin_causal_4.png"" class=""exp-image"">
                        <div class=""question-area"">
                            <p style=""font-size: 20px; font-weight: bold; margin: 0;"">Is there a person in this image?</p>
                        </div>
                    </div>","0","main_causal_task","4","coin_causal","","","",""
"","","","","","html-keyboard-response","24","110537","0.0-24.0","A3B83172E928434E9BC83C87525CC2D3","019ce65f-658a-7998-bae7-b1e906d25d85","019ce643-47c6-74a0-b3d2-7bf5651ded46","","null","
                    <div class=""stimulus-container"">
                        <img src=""images/causal_sequence/coin_causal/coin_causal_5.png"" class=""exp-image"">
                        <div class=""question-area""></div> 
                    </div>","null","","","","","","",""
"","","","","","html-button-response","25","111202","0.0-25.0","A3B83172E928434E9BC83C87525CC2D3","019ce65f-658a-7998-bae7-b1e906d25d85","019ce643-47c6-74a0-b3d2-7bf5651ded46","","664","
                    <div class=""stimulus-container"">
                        <img src=""images/causal_sequence/coin_causal/coin_causal_5.png"" class=""exp-image"">
                        <div class=""question-area"">
                            <p style=""font-size: 20px; font-weight: bold; margin: 0;"">Is there a person in this image?</p>
                        </div>
                    </div>","0","main_causal_task","5","coin_causal","","","",""
"","","","","","html-keyboard-response","26","116212","0.0-26.0","A3B83172E928434E9BC83C87525CC2D3","019ce65f-658a-7998-bae7-b1e906d25d85","019ce643-47c6-74a0-b3d2-7bf5651ded46","","null","
                    <div class=""stimulus-container"">
                        <img src=""images/causal_sequence/coin_causal/coin_causal_6.png"" class=""exp-image"">
                        <div class=""question-area""></div> 
                    </div>","null","","","","","","",""
"","","","","","html-button-response","27","116835","0.0-27.0","A3B83172E928434E9BC83C87525CC2D3","019ce65f-658a-7998-bae7-b1e906d25d85","019ce643-47c6-74a0-b3d2-7bf5651ded46","","622","
                    <div class=""stimulus-container"">
                        <img src=""images/causal_sequence/coin_causal/coin_causal_6.png"" class=""exp-image"">
                        <div class=""question-area"">
                            <p style=""font-size: 20px; font-weight: bold; margin: 0;"">Is there a person in this image?</p>
                        </div>
                    </div>","0","main_causal_task","6","coin_causal","","","",""
"","","","","","html-keyboard-response","28","121840","0.0-28.0","A3B83172E928434E9BC83C87525CC2D3","019ce65f-658a-7998-bae7-b1e906d25d85","019ce643-47c6-74a0-b3d2-7bf5651ded46","","null","
                    <div class=""stimulus-container"">
                        <img src=""images/causal_sequence/coin_causal/coin_causal_7.png"" class=""exp-image"">
                        <div class=""question-area""></div> 
                    </div>","null","","","","","","",""
"","","","","","html-button-response","29","122604","0.0-29.0","A3B83172E928434E9BC83C87525CC2D3","019ce65f-658a-7998-bae7-b1e906d25d85","019ce643-47c6-74a0-b3d2-7bf5651ded46","","763","
                    <div class=""stimulus-container"">
                        <img src=""images/causal_sequence/coin_causal/coin_causal_7.png"" class=""exp-image"">
                        <div class=""question-area"">
                            <p style=""font-size: 20px; font-weight: bold; margin: 0;"">Is there a person in this image?</p>
                        </div>
                    </div>","1","main_causal_task","7","coin_causal","","","",""
"","","","","","html-keyboard-response","30","127605","0.0-30.0","A3B83172E928434E9BC83C87525CC2D3","019ce65f-658a-7998-bae7-b1e906d25d85","019ce643-47c6-74a0-b3d2-7bf5651ded46","","null","
                    <div class=""stimulus-container"">
                        <img src=""images/causal_sequence/coin_causal/coin_causal_8.png"" class=""exp-image"">
                        <div class=""question-area""></div> 
                    </div>","null","","","","","","",""
"","","","","","html-button-response","31","128127","0.0-31.0","A3B83172E928434E9BC83C87525CC2D3","019ce65f-658a-7998-bae7-b1e906d25d85","019ce643-47c6-74a0-b3d2-7bf5651ded46","","520","
                    <div class=""stimulus-container"">
                        <img src=""images/causal_sequence/coin_causal/coin_causal_8.png"" class=""exp-image"">
                        <div class=""question-area"">
                            <p style=""font-size: 20px; font-weight: bold; margin: 0;"">Is there a person in this image?</p>
                        </div>
                    </div>","0","main_causal_task","8","coin_causal","","","",""
"","","","","","html-keyboard-response","32","133129","0.0-32.0","A3B83172E928434E9BC83C87525CC2D3","019ce65f-658a-7998-bae7-b1e906d25d85","019ce643-47c6-74a0-b3d2-7bf5651ded46","","null","
                    <div class=""stimulus-container"">
                        <img src=""images/causal_sequence/coin_causal/coin_causal_9.png"" class=""exp-image"">
                        <div class=""question-area""></div> 
                    </div>","null","","","","","","",""
"","","","","","html-button-response","33","133634","0.0-33.0","A3B83172E928434E9BC83C87525CC2D3","019ce65f-658a-7998-bae7-b1e906d25d85","019ce643-47c6-74a0-b3d2-7bf5651ded46","","504","
                    <div class=""stimulus-container"">
                        <img src=""images/causal_sequence/coin_causal/coin_causal_9.png"" class=""exp-image"">
                        <div class=""question-area"">
                            <p style=""font-size: 20px; font-weight: bold; margin: 0;"">Is there a person in this image?</p>
                        </div>
                    </div>","0","main_causal_task","9","coin_causal","","","",""
"","","","","","html-keyboard-response","34","134641","0.0-34.0","A3B83172E928434E9BC83C87525CC2D3","019ce65f-658a-7998-bae7-b1e906d25d85","019ce643-47c6-74a0-b3d2-7bf5651ded46","","null","<div style=""background-color: gray; width: 100vw; height: 100vh;""></div>","null","","","","","","",""
"","","","","","html-keyboard-response","35","139648","0.0-35.0","A3B83172E928434E9BC83C87525CC2D3","019ce65f-658a-7998-bae7-b1e906d25d85","019ce643-47c6-74a0-b3d2-7bf5651ded46","","null","
                    <div class=""stimulus-container"">
                        <img src=""images/causal_sequence/dog_causal/dog_causal_1.png"" class=""exp-image"">
                        <div class=""question-area""></div> 
                    </div>","null","","","","","","",""
"","","","","","html-button-response","36","140228","0.0-36.0","A3B83172E928434E9BC83C87525CC2D3","019ce65f-658a-7998-bae7-b1e906d25d85","019ce643-47c6-74a0-b3d2-7bf5651ded46","","580","
                    <div class=""stimulus-container"">
                        <img src=""images/causal_sequence/dog_causal/dog_causal_1.png"" class=""exp-image"">
                        <div class=""question-area"">
                            <p style=""font-size: 20px; font-weight: bold; margin: 0;"">Is there a person in this image?</p>
                        </div>
                    </div>","0","main_causal_task","1","dog_causal","","","",""
"","","","","","html-keyboard-response","37","145241","0.0-37.0","A3B83172E928434E9BC83C87525CC2D3","019ce65f-658a-7998-bae7-b1e906d25d85","019ce643-47c6-74a0-b3d2-7bf5651ded46","","null","
                    <div class=""stimulus-container"">
                        <img src=""images/causal_sequence/dog_causal/dog_causal_2.png"" class=""exp-image"">
                        <div class=""question-area""></div> 
                    </div>","null","","","","","","",""
"","","","","","html-button-response","38","145691","0.0-38.0","A3B83172E928434E9BC83C87525CC2D3","019ce65f-658a-7998-bae7-b1e906d25d85","019ce643-47c6-74a0-b3d2-7bf5651ded46","","449","
                    <div class=""stimulus-container"">
                        <img src=""images/causal_sequence/dog_causal/dog_causal_2.png"" class=""exp-image"">
                        <div class=""question-area"">
                            <p style=""font-size: 20px; font-weight: bold; margin: 0;"">Is there a person in this image?</p>
                        </div>
                    </div>","0","main_causal_task","2","dog_causal","","","",""
"","","","","","html-keyboard-response","39","150696","0.0-39.0","A3B83172E928434E9BC83C87525CC2D3","019ce65f-658a-7998-bae7-b1e906d25d85","019ce643-47c6-74a0-b3d2-7bf5651ded46","","null","
                    <div class=""stimulus-container"">
                        <img src=""images/causal_sequence/dog_causal/dog_causal_3.png"" class=""exp-image"">
                        <div class=""question-area""></div> 
                    </div>","null","","","","","","",""
"","","","","","html-button-response","40","152677","0.0-40.0","A3B83172E928434E9BC83C87525CC2D3","019ce65f-658a-7998-bae7-b1e906d25d85","019ce643-47c6-74a0-b3d2-7bf5651ded46","","1980","
                    <div class=""stimulus-container"">
                        <img src=""images/causal_sequence/dog_causal/dog_causal_3.png"" class=""exp-image"">
                        <div class=""question-area"">
                            <p style=""font-size: 20px; font-weight: bold; margin: 0;"">Is there a person in this image?</p>
                        </div>
                    </div>","0","main_causal_task","3","dog_causal","","","",""
"","","","","","html-keyboard-response","41","157685","0.0-41.0","A3B83172E928434E9BC83C87525CC2D3","019ce65f-658a-7998-bae7-b1e906d25d85","019ce643-47c6-74a0-b3d2-7bf5651ded46","","null","
                    <div class=""stimulus-container"">
                        <img src=""images/causal_sequence/dog_causal/dog_causal_4.png"" class=""exp-image"">
                        <div class=""question-area""></div> 
                    </div>","null","","","","","","",""
"","","","","","html-button-response","42","158566","0.0-42.0","A3B83172E928434E9BC83C87525CC2D3","019ce65f-658a-7998-bae7-b1e906d25d85","019ce643-47c6-74a0-b3d2-7bf5651ded46","","880","
                    <div class=""stimulus-container"">
                        <img src=""images/causal_sequence/dog_causal/dog_causal_4.png"" class=""exp-image"">
                        <div class=""question-area"">
                            <p style=""font-size: 20px; font-weight: bold; margin: 0;"">Is there a person in this image?</p>
                        </div>
                    </div>","0","main_causal_task","4","dog_causal","","","",""
"","","","","","html-keyboard-response","43","163569","0.0-43.0","A3B83172E928434E9BC83C87525CC2D3","019ce65f-658a-7998-bae7-b1e906d25d85","019ce643-47c6-74a0-b3d2-7bf5651ded46","","null","
                    <div class=""stimulus-container"">
                        <img src=""images/causal_sequence/dog_causal/dog_causal_5.png"" class=""exp-image"">
                        <div class=""question-area""></div> 
                    </div>","null","","","","","","",""
"","","","","","html-button-response","44","164039","0.0-44.0","A3B83172E928434E9BC83C87525CC2D3","019ce65f-658a-7998-bae7-b1e906d25d85","019ce643-47c6-74a0-b3d2-7bf5651ded46","","469","
                    <div class=""stimulus-container"">
                        <img src=""images/causal_sequence/dog_causal/dog_causal_5.png"" class=""exp-image"">
                        <div class=""question-area"">
                            <p style=""font-size: 20px; font-weight: bold; margin: 0;"">Is there a person in this image?</p>
                        </div>
                    </div>","0","main_causal_task","5","dog_causal","","","",""
"","","","","","html-keyboard-response","45","169044","0.0-45.0","A3B83172E928434E9BC83C87525CC2D3","019ce65f-658a-7998-bae7-b1e906d25d85","019ce643-47c6-74a0-b3d2-7bf5651ded46","","null","
                    <div class=""stimulus-container"">
                        <img src=""images/causal_sequence/dog_causal/dog_causal_6.png"" class=""exp-image"">
                        <div class=""question-area""></div> 
                    </div>","null","","","","","","",""
"","","","","","html-button-response","46","169530","0.0-46.0","A3B83172E928434E9BC83C87525CC2D3","019ce65f-658a-7998-bae7-b1e906d25d85","019ce643-47c6-74a0-b3d2-7bf5651ded46","","485","
                    <div class=""stimulus-container"">
                        <img src=""images/causal_sequence/dog_causal/dog_causal_6.png"" class=""exp-image"">
                        <div class=""question-area"">
                            <p style=""font-size: 20px; font-weight: bold; margin: 0;"">Is there a person in this image?</p>
                        </div>
                    </div>","0","main_causal_task","6","dog_causal","","","",""
"","","","","","html-keyboard-response","47","174543","0.0-47.0","A3B83172E928434E9BC83C87525CC2D3","019ce65f-658a-7998-bae7-b1e906d25d85","019ce643-47c6-74a0-b3d2-7bf5651ded46","","null","
                    <div class=""stimulus-container"">
                        <img src=""images/causal_sequence/dog_causal/dog_causal_7.png"" class=""exp-image"">
                        <div class=""question-area""></div> 
                    </div>","null","","","","","","",""
"","","","","","html-button-response","48","174956","0.0-48.0","A3B83172E928434E9BC83C87525CC2D3","019ce65f-658a-7998-bae7-b1e906d25d85","019ce643-47c6-74a0-b3d2-7bf5651ded46","","412","
                    <div class=""stimulus-container"">
                        <img src=""images/causal_sequence/dog_causal/dog_causal_7.png"" class=""exp-image"">
                        <div class=""question-area"">
                            <p style=""font-size: 20px; font-weight: bold; margin: 0;"">Is there a person in this image?</p>
                        </div>
                    </div>","0","main_causal_task","7","dog_causal","","","",""
"","","","","","html-keyboard-response","49","179957","0.0-49.0","A3B83172E928434E9BC83C87525CC2D3","019ce65f-658a-7998-bae7-b1e906d25d85","019ce643-47c6-74a0-b3d2-7bf5651ded46","","null","
                    <div class=""stimulus-container"">
                        <img src=""images/causal_sequence/dog_causal/dog_causal_8.png"" class=""exp-image"">
                        <div class=""question-area""></div> 
                    </div>","null","","","","","","",""
"","","","","","html-button-response","50","180402","0.0-50.0","A3B83172E928434E9BC83C87525CC2D3","019ce65f-658a-7998-bae7-b1e906d25d85","019ce643-47c6-74a0-b3d2-7bf5651ded46","","444","
                    <div class=""stimulus-container"">
                        <img src=""images/causal_sequence/dog_causal/dog_causal_8.png"" class=""exp-image"">
                        <div class=""question-area"">
                            <p style=""font-size: 20px; font-weight: bold; margin: 0;"">Is there a person in this image?</p>
                        </div>
                    </div>","0","main_causal_task","8","dog_causal","","","",""
"","","","","","html-keyboard-response","51","185403","0.0-51.0","A3B83172E928434E9BC83C87525CC2D3","019ce65f-658a-7998-bae7-b1e906d25d85","019ce643-47c6-74a0-b3d2-7bf5651ded46","","null","
                    <div class=""stimulus-container"">
                        <img src=""images/causal_sequence/dog_causal/dog_causal_9.png"" class=""exp-image"">
                        <div class=""question-area""></div> 
                    </div>","null","","","","","","",""
"","","","","","html-button-response","52","185820","0.0-52.0","A3B83172E928434E9BC83C87525CC2D3","019ce65f-658a-7998-bae7-b1e906d25d85","019ce643-47c6-74a0-b3d2-7bf5651ded46","","416","
                    <div class=""stimulus-container"">
                        <img src=""images/causal_sequence/dog_causal/dog_causal_9.png"" class=""exp-image"">
                        <div class=""question-area"">
                            <p style=""font-size: 20px; font-weight: bold; margin: 0;"">Is there a person in this image?</p>
                        </div>
                    </div>","0","main_causal_task","9","dog_causal","","","",""
"","","","","","html-keyboard-response","53","186821","0.0-53.0","A3B83172E928434E9BC83C87525CC2D3","019ce65f-658a-7998-bae7-b1e906d25d85","019ce643-47c6-74a0-b3d2-7bf5651ded46","","null","<div style=""background-color: gray; width: 100vw; height: 100vh;""></div>","null","","","","","","",""
"","","","","","html-keyboard-response","54","191824","0.0-54.0","A3B83172E928434E9BC83C87525CC2D3","019ce65f-658a-7998-bae7-b1e906d25d85","019ce643-47c6-74a0-b3d2-7bf5651ded46","","null","
                    <div class=""stimulus-container"">
                        <img src=""images/causal_sequence/museum_causal/museum_causal_1.png"" class=""exp-image"">
                        <div class=""question-area""></div> 
                    </div>","null","","","","","","",""
"","","","","","html-button-response","55","192273","0.0-55.0","A3B83172E928434E9BC83C87525CC2D3","019ce65f-658a-7998-bae7-b1e906d25d85","019ce643-47c6-74a0-b3d2-7bf5651ded46","","449","
                    <div class=""stimulus-container"">
                        <img src=""images/causal_sequence/museum_causal/museum_causal_1.png"" class=""exp-image"">
                        <div class=""question-area"">
                            <p style=""font-size: 20px; font-weight: bold; margin: 0;"">Is there a person in this image?</p>
                        </div>
                    </div>","0","main_causal_task","1","museum_causal","","","",""
"","","","","","html-keyboard-response","56","197275","0.0-56.0","A3B83172E928434E9BC83C87525CC2D3","019ce65f-658a-7998-bae7-b1e906d25d85","019ce643-47c6-74a0-b3d2-7bf5651ded46","","null","
                    <div class=""stimulus-container"">
                        <img src=""images/causal_sequence/museum_causal/museum_causal_2.png"" class=""exp-image"">
                        <div class=""question-area""></div> 
                    </div>","null","","","","","","",""
"","","","","","html-button-response","57","197901","0.0-57.0","A3B83172E928434E9BC83C87525CC2D3","019ce65f-658a-7998-bae7-b1e906d25d85","019ce643-47c6-74a0-b3d2-7bf5651ded46","","625","
                    <div class=""stimulus-container"">
                        <img src=""images/causal_sequence/museum_causal/museum_causal_2.png"" class=""exp-image"">
                        <div class=""question-area"">
                            <p style=""font-size: 20px; font-weight: bold; margin: 0;"">Is there a person in this image?</p>
                        </div>
                    </div>","1","main_causal_task","2","museum_causal","","","",""
"","","","","","html-keyboard-response","58","202903","0.0-58.0","A3B83172E928434E9BC83C87525CC2D3","019ce65f-658a-7998-bae7-b1e906d25d85","019ce643-47c6-74a0-b3d2-7bf5651ded46","","null","
                    <div class=""stimulus-container"">
                        <img src=""images/causal_sequence/museum_causal/museum_causal_3.png"" class=""exp-image"">
                        <div class=""question-area""></div> 
                    </div>","null","","","","","","",""
"","","","","","html-button-response","59","203682","0.0-59.0","A3B83172E928434E9BC83C87525CC2D3","019ce65f-658a-7998-bae7-b1e906d25d85","019ce643-47c6-74a0-b3d2-7bf5651ded46","","778","
                    <div class=""stimulus-container"">
                        <img src=""images/causal_sequence/museum_causal/museum_causal_3.png"" class=""exp-image"">
                        <div class=""question-area"">
                            <p style=""font-size: 20px; font-weight: bold; margin: 0;"">Is there a person in this image?</p>
                        </div>
                    </div>","0","main_causal_task","3","museum_causal","","","",""
"","","","","","html-keyboard-response","60","208692","0.0-60.0","A3B83172E928434E9BC83C87525CC2D3","019ce65f-658a-7998-bae7-b1e906d25d85","019ce643-47c6-74a0-b3d2-7bf5651ded46","","null","
                    <div class=""stimulus-container"">
                        <img src=""images/causal_sequence/museum_causal/museum_causal_4.png"" class=""exp-image"">
                        <div class=""question-area""></div> 
                    </div>","null","","","","","","",""
"","","","","","html-button-response","61","210101","0.0-61.0","A3B83172E928434E9BC83C87525CC2D3","019ce65f-658a-7998-bae7-b1e906d25d85","019ce643-47c6-74a0-b3d2-7bf5651ded46","","1407","
                    <div class=""stimulus-container"">
                        <img src=""images/causal_sequence/museum_causal/museum_causal_4.png"" class=""exp-image"">
                        <div class=""question-area"">
                            <p style=""font-size: 20px; font-weight: bold; margin: 0;"">Is there a person in this image?</p>
                        </div>
                    </div>","1","main_causal_task","4","museum_causal","","","",""
"","","","","","html-keyboard-response","62","215105","0.0-62.0","A3B83172E928434E9BC83C87525CC2D3","019ce65f-658a-7998-bae7-b1e906d25d85","019ce643-47c6-74a0-b3d2-7bf5651ded46","","null","
                    <div class=""stimulus-container"">
                        <img src=""images/causal_sequence/museum_causal/museum_causal_5.png"" class=""exp-image"">
                        <div class=""question-area""></div> 
                    </div>","null","","","","","","",""
"","","","","","html-button-response","63","215761","0.0-63.0","A3B83172E928434E9BC83C87525CC2D3","019ce65f-658a-7998-bae7-b1e906d25d85","019ce643-47c6-74a0-b3d2-7bf5651ded46","","656","
                    <div class=""stimulus-container"">
                        <img src=""images/causal_sequence/museum_causal/museum_causal_5.png"" class=""exp-image"">
                        <div class=""question-area"">
                            <p style=""font-size: 20px; font-weight: bold; margin: 0;"">Is there a person in this image?</p>
                        </div>
                    </div>","0","main_causal_task","5","museum_causal","","","",""
"","","","","","html-keyboard-response","64","220777","0.0-64.0","A3B83172E928434E9BC83C87525CC2D3","019ce65f-658a-7998-bae7-b1e906d25d85","019ce643-47c6-74a0-b3d2-7bf5651ded46","","null","
                    <div class=""stimulus-container"">
                        <img src=""images/causal_sequence/museum_causal/museum_causal_6.png"" class=""exp-image"">
                        <div class=""question-area""></div> 
                    </div>","null","","","","","","",""
"","","","","","html-button-response","65","221199","0.0-65.0","A3B83172E928434E9BC83C87525CC2D3","019ce65f-658a-7998-bae7-b1e906d25d85","019ce643-47c6-74a0-b3d2-7bf5651ded46","","421","
                    <div class=""stimulus-container"">
                        <img src=""images/causal_sequence/museum_causal/museum_causal_6.png"" class=""exp-image"">
                        <div class=""question-area"">
                            <p style=""font-size: 20px; font-weight: bold; margin: 0;"">Is there a person in this image?</p>
                        </div>
                    </div>","0","main_causal_task","6","museum_causal","","","",""
"","","","","","html-keyboard-response","66","226209","0.0-66.0","A3B83172E928434E9BC83C87525CC2D3","019ce65f-658a-7998-bae7-b1e906d25d85","019ce643-47c6-74a0-b3d2-7bf5651ded46","","null","
                    <div class=""stimulus-container"">
                        <img src=""images/causal_sequence/museum_causal/museum_causal_7.png"" class=""exp-image"">
                        <div class=""question-area""></div> 
                    </div>","null","","","","","","",""
"","","","","","html-button-response","67","226862","0.0-67.0","A3B83172E928434E9BC83C87525CC2D3","019ce65f-658a-7998-bae7-b1e906d25d85","019ce643-47c6-74a0-b3d2-7bf5651ded46","","652","
                    <div class=""stimulus-container"">
                        <img src=""images/causal_sequence/museum_causal/museum_causal_7.png"" class=""exp-image"">
                        <div class=""question-area"">
                            <p style=""font-size: 20px; font-weight: bold; margin: 0;"">Is there a person in this image?</p>
                        </div>
                    </div>","1","main_causal_task","7","museum_causal","","","",""
"","","","","","html-keyboard-response","68","231874","0.0-68.0","A3B83172E928434E9BC83C87525CC2D3","019ce65f-658a-7998-bae7-b1e906d25d85","019ce643-47c6-74a0-b3d2-7bf5651ded46","","null","
                    <div class=""stimulus-container"">
                        <img src=""images/causal_sequence/museum_causal/museum_causal_8.png"" class=""exp-image"">
                        <div class=""question-area""></div> 
                    </div>","null","","","","","","",""
"","","","","","html-button-response","69","232331","0.0-69.0","A3B83172E928434E9BC83C87525CC2D3","019ce65f-658a-7998-bae7-b1e906d25d85","019ce643-47c6-74a0-b3d2-7bf5651ded46","","455","
                    <div class=""stimulus-container"">
                        <img src=""images/causal_sequence/museum_causal/museum_causal_8.png"" class=""exp-image"">
                        <div class=""question-area"">
                            <p style=""font-size: 20px; font-weight: bold; margin: 0;"">Is there a person in this image?</p>
                        </div>
                    </div>","0","main_causal_task","8","museum_causal","","","",""
"","","","","","html-keyboard-response","70","237342","0.0-70.0","A3B83172E928434E9BC83C87525CC2D3","019ce65f-658a-7998-bae7-b1e906d25d85","019ce643-47c6-74a0-b3d2-7bf5651ded46","","null","
                    <div class=""stimulus-container"">
                        <img src=""images/causal_sequence/museum_causal/museum_causal_9.png"" class=""exp-image"">
                        <div class=""question-area""></div> 
                    </div>","null","","","","","","",""
"","","","","","html-button-response","71","237894","0.0-71.0","A3B83172E928434E9BC83C87525CC2D3","019ce65f-658a-7998-bae7-b1e906d25d85","019ce643-47c6-74a0-b3d2-7bf5651ded46","","551","
                    <div class=""stimulus-container"">
                        <img src=""images/causal_sequence/museum_causal/museum_causal_9.png"" class=""exp-image"">
                        <div class=""question-area"">
                            <p style=""font-size: 20px; font-weight: bold; margin: 0;"">Is there a person in this image?</p>
                        </div>
                    </div>","1","main_causal_task","9","museum_causal","","","",""
"","","","","","html-keyboard-response","72","238902","0.0-72.0","A3B83172E928434E9BC83C87525CC2D3","019ce65f-658a-7998-bae7-b1e906d25d85","019ce643-47c6-74a0-b3d2-7bf5651ded46","","null","<div style=""background-color: gray; width: 100vw; height: 100vh;""></div>","null","","","","","","",""
"","","","","","html-keyboard-response","73","243915","0.0-73.0","A3B83172E928434E9BC83C87525CC2D3","019ce65f-658a-7998-bae7-b1e906d25d85","019ce643-47c6-74a0-b3d2-7bf5651ded46","","null","
                    <div class=""stimulus-container"">
                        <img src=""images/causal_sequence/the_performance_causal/the_performance_causal_1.png"" class=""exp-image"">
                        <div class=""question-area""></div> 
                    </div>","null","","","","","","",""
"","","","","","html-button-response","74","245075","0.0-74.0","A3B83172E928434E9BC83C87525CC2D3","019ce65f-658a-7998-bae7-b1e906d25d85","019ce643-47c6-74a0-b3d2-7bf5651ded46","","1160","
                    <div class=""stimulus-container"">
                        <img src=""images/causal_sequence/the_performance_causal/the_performance_causal_1.png"" class=""exp-image"">
                        <div class=""question-area"">
                            <p style=""font-size: 20px; font-weight: bold; margin: 0;"">Is there a person in this image?</p>
                        </div>
                    </div>","0","main_causal_task","1","the_performance_causal","","","",""
"","","","","","html-keyboard-response","75","250083","0.0-75.0","A3B83172E928434E9BC83C87525CC2D3","019ce65f-658a-7998-bae7-b1e906d25d85","019ce643-47c6-74a0-b3d2-7bf5651ded46","","null","
                    <div class=""stimulus-container"">
                        <img src=""images/causal_sequence/the_performance_causal/the_performance_causal_2.png"" class=""exp-image"">
                        <div class=""question-area""></div> 
                    </div>","null","","","","","","",""
"","","","","","html-button-response","76","251484","0.0-76.0","A3B83172E928434E9BC83C87525CC2D3","019ce65f-658a-7998-bae7-b1e906d25d85","019ce643-47c6-74a0-b3d2-7bf5651ded46","","1401","
                    <div class=""stimulus-container"">
                        <img src=""images/causal_sequence/the_performance_causal/the_performance_causal_2.png"" class=""exp-image"">
                        <div class=""question-area"">
                            <p style=""font-size: 20px; font-weight: bold; margin: 0;"">Is there a person in this image?</p>
                        </div>
                    </div>","0","main_causal_task","2","the_performance_causal","","","",""
"","","","","","html-keyboard-response","77","256493","0.0-77.0","A3B83172E928434E9BC83C87525CC2D3","019ce65f-658a-7998-bae7-b1e906d25d85","019ce643-47c6-74a0-b3d2-7bf5651ded46","","null","
                    <div class=""stimulus-container"">
                        <img src=""images/causal_sequence/the_performance_causal/the_performance_causal_3.png"" class=""exp-image"">
                        <div class=""question-area""></div> 
                    </div>","null","","","","","","",""
"","","","","","html-button-response","78","257651","0.0-78.0","A3B83172E928434E9BC83C87525CC2D3","019ce65f-658a-7998-bae7-b1e906d25d85","019ce643-47c6-74a0-b3d2-7bf5651ded46","","1157","
                    <div class=""stimulus-container"">
                        <img src=""images/causal_sequence/the_performance_causal/the_performance_causal_3.png"" class=""exp-image"">
                        <div class=""question-area"">
                            <p style=""font-size: 20px; font-weight: bold; margin: 0;"">Is there a person in this image?</p>
                        </div>
                    </div>","0","main_causal_task","3","the_performance_causal","","","",""
"","","","","","html-keyboard-response","79","262665","0.0-79.0","A3B83172E928434E9BC83C87525CC2D3","019ce65f-658a-7998-bae7-b1e906d25d85","019ce643-47c6-74a0-b3d2-7bf5651ded46","","null","
                    <div class=""stimulus-container"">
                        <img src=""images/causal_sequence/the_performance_causal/the_performance_causal_4.png"" class=""exp-image"">
                        <div class=""question-area""></div> 
                    </div>","null","","","","","","",""
"","","","","","html-button-response","80","263119","0.0-80.0","A3B83172E928434E9BC83C87525CC2D3","019ce65f-658a-7998-bae7-b1e906d25d85","019ce643-47c6-74a0-b3d2-7bf5651ded46","","454","
                    <div class=""stimulus-container"">
                        <img src=""images/causal_sequence/the_performance_causal/the_performance_causal_4.png"" class=""exp-image"">
                        <div class=""question-area"">
                            <p style=""font-size: 20px; font-weight: bold; margin: 0;"">Is there a person in this image?</p>
                        </div>
                    </div>","0","main_causal_task","4","the_performance_causal","","","",""
"","","","","","html-keyboard-response","81","268120","0.0-81.0","A3B83172E928434E9BC83C87525CC2D3","019ce65f-658a-7998-bae7-b1e906d25d85","019ce643-47c6-74a0-b3d2-7bf5651ded46","","null","
                    <div class=""stimulus-container"">
                        <img src=""images/causal_sequence/the_performance_causal/the_performance_causal_5.png"" class=""exp-image"">
                        <div class=""question-area""></div> 
                    </div>","null","","","","","","",""
"","","","","","html-button-response","82","268775","0.0-82.0","A3B83172E928434E9BC83C87525CC2D3","019ce65f-658a-7998-bae7-b1e906d25d85","019ce643-47c6-74a0-b3d2-7bf5651ded46","","654","
                    <div class=""stimulus-container"">
                        <img src=""images/causal_sequence/the_performance_causal/the_performance_causal_5.png"" class=""exp-image"">
                        <div class=""question-area"">
                            <p style=""font-size: 20px; font-weight: bold; margin: 0;"">Is there a person in this image?</p>
                        </div>
                    </div>","0","main_causal_task","5","the_performance_causal","","","",""
"","","","","","html-keyboard-response","83","273787","0.0-83.0","A3B83172E928434E9BC83C87525CC2D3","019ce65f-658a-7998-bae7-b1e906d25d85","019ce643-47c6-74a0-b3d2-7bf5651ded46","","null","
                    <div class=""stimulus-container"">
                        <img src=""images/causal_sequence/the_performance_causal/the_performance_causal_6.png"" class=""exp-image"">
                        <div class=""question-area""></div> 
                    </div>","null","","","","","","",""
"","","","","","html-button-response","84","274385","0.0-84.0","A3B83172E928434E9BC83C87525CC2D3","019ce65f-658a-7998-bae7-b1e906d25d85","019ce643-47c6-74a0-b3d2-7bf5651ded46","","597","
                    <div class=""stimulus-container"">
                        <img src=""images/causal_sequence/the_performance_causal/the_performance_causal_6.png"" class=""exp-image"">
                        <div class=""question-area"">
                            <p style=""font-size: 20px; font-weight: bold; margin: 0;"">Is there a person in this image?</p>
                        </div>
                    </div>","0","main_causal_task","6","the_performance_causal","","","",""
"","","","","","html-keyboard-response","85","279400","0.0-85.0","A3B83172E928434E9BC83C87525CC2D3","019ce65f-658a-7998-bae7-b1e906d25d85","019ce643-47c6-74a0-b3d2-7bf5651ded46","","null","
                    <div class=""stimulus-container"">
                        <img src=""images/causal_sequence/the_performance_causal/the_performance_causal_7.png"" class=""exp-image"">
                        <div class=""question-area""></div> 
                    </div>","null","","","","","","",""
"","","","","","html-button-response","86","280559","0.0-86.0","A3B83172E928434E9BC83C87525CC2D3","019ce65f-658a-7998-bae7-b1e906d25d85","019ce643-47c6-74a0-b3d2-7bf5651ded46","","1158","
                    <div class=""stimulus-container"">
                        <img src=""images/causal_sequence/the_performance_causal/the_performance_causal_7.png"" class=""exp-image"">
                        <div class=""question-area"">
                            <p style=""font-size: 20px; font-weight: bold; margin: 0;"">Is there a person in this image?</p>
                        </div>
                    </div>","0","main_causal_task","7","the_performance_causal","","","",""
"","","","","","html-keyboard-response","87","285566","0.0-87.0","A3B83172E928434E9BC83C87525CC2D3","019ce65f-658a-7998-bae7-b1e906d25d85","019ce643-47c6-74a0-b3d2-7bf5651ded46","","null","
                    <div class=""stimulus-container"">
                        <img src=""images/causal_sequence/the_performance_causal/the_performance_causal_8.png"" class=""exp-image"">
                        <div class=""question-area""></div> 
                    </div>","null","","","","","","",""
"","","","","","html-button-response","88","286095","0.0-88.0","A3B83172E928434E9BC83C87525CC2D3","019ce65f-658a-7998-bae7-b1e906d25d85","019ce643-47c6-74a0-b3d2-7bf5651ded46","","529","
                    <div class=""stimulus-container"">
                        <img src=""images/causal_sequence/the_performance_causal/the_performance_causal_8.png"" class=""exp-image"">
                        <div class=""question-area"">
                            <p style=""font-size: 20px; font-weight: bold; margin: 0;"">Is there a person in this image?</p>
                        </div>
                    </div>","0","main_causal_task","8","the_performance_causal","","","",""
"","","","","","html-keyboard-response","89","291097","0.0-89.0","A3B83172E928434E9BC83C87525CC2D3","019ce65f-658a-7998-bae7-b1e906d25d85","019ce643-47c6-74a0-b3d2-7bf5651ded46","","null","
                    <div class=""stimulus-container"">
                        <img src=""images/causal_sequence/the_performance_causal/the_performance_causal_9.png"" class=""exp-image"">
                        <div class=""question-area""></div> 
                    </div>","null","","","","","","",""
"","","","","","html-button-response","90","291472","0.0-90.0","A3B83172E928434E9BC83C87525CC2D3","019ce65f-658a-7998-bae7-b1e906d25d85","019ce643-47c6-74a0-b3d2-7bf5651ded46","","374","
                    <div class=""stimulus-container"">
                        <img src=""images/causal_sequence/the_performance_causal/the_performance_causal_9.png"" class=""exp-image"">
                        <div class=""question-area"">
                            <p style=""font-size: 20px; font-weight: bold; margin: 0;"">Is there a person in this image?</p>
                        </div>
                    </div>","0","main_causal_task","9","the_performance_causal","","","",""
"","","","","","html-keyboard-response","91","292483","0.0-91.0","A3B83172E928434E9BC83C87525CC2D3","019ce65f-658a-7998-bae7-b1e906d25d85","019ce643-47c6-74a0-b3d2-7bf5651ded46","","null","<div style=""background-color: gray; width: 100vw; height: 100vh;""></div>","null","","","","","","",""
"","","","","","html-keyboard-response","92","297490","0.0-92.0","A3B83172E928434E9BC83C87525CC2D3","019ce65f-658a-7998-bae7-b1e906d25d85","019ce643-47c6-74a0-b3d2-7bf5651ded46","","null","
                    <div class=""stimulus-container"">
                        <img src=""images/causal_sequence/package_causal/package_causal_1.png"" class=""exp-image"">
                        <div class=""question-area""></div> 
                    </div>","null","","","","","","",""
"","","","","","html-button-response","93","297849","0.0-93.0","A3B83172E928434E9BC83C87525CC2D3","019ce65f-658a-7998-bae7-b1e906d25d85","019ce643-47c6-74a0-b3d2-7bf5651ded46","","359","
                    <div class=""stimulus-container"">
                        <img src=""images/causal_sequence/package_causal/package_causal_1.png"" class=""exp-image"">
                        <div class=""question-area"">
                            <p style=""font-size: 20px; font-weight: bold; margin: 0;"">Is there a person in this image?</p>
                        </div>
                    </div>","0","main_causal_task","1","package_causal","","","",""
"","","","","","html-keyboard-response","94","302858","0.0-94.0","A3B83172E928434E9BC83C87525CC2D3","019ce65f-658a-7998-bae7-b1e906d25d85","019ce643-47c6-74a0-b3d2-7bf5651ded46","","null","
                    <div class=""stimulus-container"">
                        <img src=""images/causal_sequence/package_causal/package_causal_2.png"" class=""exp-image"">
                        <div class=""question-area""></div> 
                    </div>","null","","","","","","",""
"","","","","","html-button-response","95","303817","0.0-95.0","A3B83172E928434E9BC83C87525CC2D3","019ce65f-658a-7998-bae7-b1e906d25d85","019ce643-47c6-74a0-b3d2-7bf5651ded46","","959","
                    <div class=""stimulus-container"">
                        <img src=""images/causal_sequence/package_causal/package_causal_2.png"" class=""exp-image"">
                        <div class=""question-area"">
                            <p style=""font-size: 20px; font-weight: bold; margin: 0;"">Is there a person in this image?</p>
                        </div>
                    </div>","0","main_causal_task","2","package_causal","","","",""
"","","","","","html-keyboard-response","96","308826","0.0-96.0","A3B83172E928434E9BC83C87525CC2D3","019ce65f-658a-7998-bae7-b1e906d25d85","019ce643-47c6-74a0-b3d2-7bf5651ded46","","null","
                    <div class=""stimulus-container"">
                        <img src=""images/causal_sequence/package_causal/package_causal_3.png"" class=""exp-image"">
                        <div class=""question-area""></div> 
                    </div>","null","","","","","","",""
"","","","","","html-button-response","97","309436","0.0-97.0","A3B83172E928434E9BC83C87525CC2D3","019ce65f-658a-7998-bae7-b1e906d25d85","019ce643-47c6-74a0-b3d2-7bf5651ded46","","610","
                    <div class=""stimulus-container"">
                        <img src=""images/causal_sequence/package_causal/package_causal_3.png"" class=""exp-image"">
                        <div class=""question-area"">
                            <p style=""font-size: 20px; font-weight: bold; margin: 0;"">Is there a person in this image?</p>
                        </div>
                    </div>","0","main_causal_task","3","package_causal","","","",""
"","","","","","html-keyboard-response","98","314445","0.0-98.0","A3B83172E928434E9BC83C87525CC2D3","019ce65f-658a-7998-bae7-b1e906d25d85","019ce643-47c6-74a0-b3d2-7bf5651ded46","","null","
                    <div class=""stimulus-container"">
                        <img src=""images/causal_sequence/package_causal/package_causal_4.png"" class=""exp-image"">
                        <div class=""question-area""></div> 
                    </div>","null","","","","","","",""
"","","","","","html-button-response","99","314887","0.0-99.0","A3B83172E928434E9BC83C87525CC2D3","019ce65f-658a-7998-bae7-b1e906d25d85","019ce643-47c6-74a0-b3d2-7bf5651ded46","","442","
                    <div class=""stimulus-container"">
                        <img src=""images/causal_sequence/package_causal/package_causal_4.png"" class=""exp-image"">
                        <div class=""question-area"">
                            <p style=""font-size: 20px; font-weight: bold; margin: 0;"">Is there a person in this image?</p>
                        </div>
                    </div>","1","main_causal_task","4","package_causal","","","",""
"","","","","","html-keyboard-response","100","319902","0.0-100.0","A3B83172E928434E9BC83C87525CC2D3","019ce65f-658a-7998-bae7-b1e906d25d85","019ce643-47c6-74a0-b3d2-7bf5651ded46","","null","
                    <div class=""stimulus-container"">
                        <img src=""images/causal_sequence/package_causal/package_causal_5.png"" class=""exp-image"">
                        <div class=""question-area""></div> 
                    </div>","null","","","","","","",""
"","","","","","html-button-response","101","320319","0.0-101.0","A3B83172E928434E9BC83C87525CC2D3","019ce65f-658a-7998-bae7-b1e906d25d85","019ce643-47c6-74a0-b3d2-7bf5651ded46","","416","
                    <div class=""stimulus-container"">
                        <img src=""images/causal_sequence/package_causal/package_causal_5.png"" class=""exp-image"">
                        <div class=""question-area"">
                            <p style=""font-size: 20px; font-weight: bold; margin: 0;"">Is there a person in this image?</p>
                        </div>
                    </div>","0","main_causal_task","5","package_causal","","","",""
"","","","","","html-keyboard-response","102","325331","0.0-102.0","A3B83172E928434E9BC83C87525CC2D3","019ce65f-658a-7998-bae7-b1e906d25d85","019ce643-47c6-74a0-b3d2-7bf5651ded46","","null","
                    <div class=""stimulus-container"">
                        <img src=""images/causal_sequence/package_causal/package_causal_6.png"" class=""exp-image"">
                        <div class=""question-area""></div> 
                    </div>","null","","","","","","",""
"","","","","","html-button-response","103","325746","0.0-103.0","A3B83172E928434E9BC83C87525CC2D3","019ce65f-658a-7998-bae7-b1e906d25d85","019ce643-47c6-74a0-b3d2-7bf5651ded46","","414","
                    <div class=""stimulus-container"">
                        <img src=""images/causal_sequence/package_causal/package_causal_6.png"" class=""exp-image"">
                        <div class=""question-area"">
                            <p style=""font-size: 20px; font-weight: bold; margin: 0;"">Is there a person in this image?</p>
                        </div>
                    </div>","0","main_causal_task","6","package_causal","","","",""
"","","","","","html-keyboard-response","104","330759","0.0-104.0","A3B83172E928434E9BC83C87525CC2D3","019ce65f-658a-7998-bae7-b1e906d25d85","019ce643-47c6-74a0-b3d2-7bf5651ded46","","null","
                    <div class=""stimulus-container"">
                        <img src=""images/causal_sequence/package_causal/package_causal_7.png"" class=""exp-image"">
                        <div class=""question-area""></div> 
                    </div>","null","","","","","","",""
"","","","","","html-button-response","105","331153","0.0-105.0","A3B83172E928434E9BC83C87525CC2D3","019ce65f-658a-7998-bae7-b1e906d25d85","019ce643-47c6-74a0-b3d2-7bf5651ded46","","393","
                    <div class=""stimulus-container"">
                        <img src=""images/causal_sequence/package_causal/package_causal_7.png"" class=""exp-image"">
                        <div class=""question-area"">
                            <p style=""font-size: 20px; font-weight: bold; margin: 0;"">Is there a person in this image?</p>
                        </div>
                    </div>","0","main_causal_task","7","package_causal","","","",""
"","","","","","html-keyboard-response","106","336154","0.0-106.0","A3B83172E928434E9BC83C87525CC2D3","019ce65f-658a-7998-bae7-b1e906d25d85","019ce643-47c6-74a0-b3d2-7bf5651ded46","","null","
                    <div class=""stimulus-container"">
                        <img src=""images/causal_sequence/package_causal/package_causal_8.png"" class=""exp-image"">
                        <div class=""question-area""></div> 
                    </div>","null","","","","","","",""
"","","","","","html-button-response","107","336546","0.0-107.0","A3B83172E928434E9BC83C87525CC2D3","019ce65f-658a-7998-bae7-b1e906d25d85","019ce643-47c6-74a0-b3d2-7bf5651ded46","","391","
                    <div class=""stimulus-container"">
                        <img src=""images/causal_sequence/package_causal/package_causal_8.png"" class=""exp-image"">
                        <div class=""question-area"">
                            <p style=""font-size: 20px; font-weight: bold; margin: 0;"">Is there a person in this image?</p>
                        </div>
                    </div>","0","main_causal_task","8","package_causal","","","",""
"","","","","","html-keyboard-response","108","341559","0.0-108.0","A3B83172E928434E9BC83C87525CC2D3","019ce65f-658a-7998-bae7-b1e906d25d85","019ce643-47c6-74a0-b3d2-7bf5651ded46","","null","
                    <div class=""stimulus-container"">
                        <img src=""images/causal_sequence/package_causal/package_causal_9.png"" class=""exp-image"">
                        <div class=""question-area""></div> 
                    </div>","null","","","","","","",""
"","","","","","html-button-response","109","342118","0.0-109.0","A3B83172E928434E9BC83C87525CC2D3","019ce65f-658a-7998-bae7-b1e906d25d85","019ce643-47c6-74a0-b3d2-7bf5651ded46","","559","
                    <div class=""stimulus-container"">
                        <img src=""images/causal_sequence/package_causal/package_causal_9.png"" class=""exp-image"">
                        <div class=""question-area"">
                            <p style=""font-size: 20px; font-weight: bold; margin: 0;"">Is there a person in this image?</p>
                        </div>
                    </div>","0","main_causal_task","9","package_causal","","","",""
"","","","","","html-keyboard-response","110","343120","0.0-110.0","A3B83172E928434E9BC83C87525CC2D3","019ce65f-658a-7998-bae7-b1e906d25d85","019ce643-47c6-74a0-b3d2-7bf5651ded46","","null","<div style=""background-color: gray; width: 100vw; height: 100vh;""></div>","null","","","","","","",""
"","","","","","html-keyboard-response","111","348136","0.0-111.0","A3B83172E928434E9BC83C87525CC2D3","019ce65f-658a-7998-bae7-b1e906d25d85","019ce643-47c6-74a0-b3d2-7bf5651ded46","","null","
                    <div class=""stimulus-container"">
                        <img src=""images/causal_sequence/saving_a_cat_causal/saving_a_cat_causal_1.png"" class=""exp-image"">
                        <div class=""question-area""></div> 
                    </div>","null","","","","","","",""
"","","","","","html-button-response","112","349087","0.0-112.0","A3B83172E928434E9BC83C87525CC2D3","019ce65f-658a-7998-bae7-b1e906d25d85","019ce643-47c6-74a0-b3d2-7bf5651ded46","","950","
                    <div class=""stimulus-container"">
                        <img src=""images/causal_sequence/saving_a_cat_causal/saving_a_cat_causal_1.png"" class=""exp-image"">
                        <div class=""question-area"">
                            <p style=""font-size: 20px; font-weight: bold; margin: 0;"">Is there a person in this image?</p>
                        </div>
                    </div>","0","main_causal_task","1","saving_a_cat_causal","","","",""
"","","","","","html-keyboard-response","113","354097","0.0-113.0","A3B83172E928434E9BC83C87525CC2D3","019ce65f-658a-7998-bae7-b1e906d25d85","019ce643-47c6-74a0-b3d2-7bf5651ded46","","null","
                    <div class=""stimulus-container"">
                        <img src=""images/causal_sequence/saving_a_cat_causal/saving_a_cat_causal_2.png"" class=""exp-image"">
                        <div class=""question-area""></div> 
                    </div>","null","","","","","","",""
"","","","","","html-button-response","114","354561","0.0-114.0","A3B83172E928434E9BC83C87525CC2D3","019ce65f-658a-7998-bae7-b1e906d25d85","019ce643-47c6-74a0-b3d2-7bf5651ded46","","463","
                    <div class=""stimulus-container"">
                        <img src=""images/causal_sequence/saving_a_cat_causal/saving_a_cat_causal_2.png"" class=""exp-image"">
                        <div class=""question-area"">
                            <p style=""font-size: 20px; font-weight: bold; margin: 0;"">Is there a person in this image?</p>
                        </div>
                    </div>","1","main_causal_task","2","saving_a_cat_causal","","","",""
"","","","","","html-keyboard-response","115","359571","0.0-115.0","A3B83172E928434E9BC83C87525CC2D3","019ce65f-658a-7998-bae7-b1e906d25d85","019ce643-47c6-74a0-b3d2-7bf5651ded46","","null","
                    <div class=""stimulus-container"">
                        <img src=""images/causal_sequence/saving_a_cat_causal/saving_a_cat_causal_3.png"" class=""exp-image"">
                        <div class=""question-area""></div> 
                    </div>","null","","","","","","",""
"","","","","","html-button-response","116","360136","0.0-116.0","A3B83172E928434E9BC83C87525CC2D3","019ce65f-658a-7998-bae7-b1e906d25d85","019ce643-47c6-74a0-b3d2-7bf5651ded46","","564","
                    <div class=""stimulus-container"">
                        <img src=""images/causal_sequence/saving_a_cat_causal/saving_a_cat_causal_3.png"" class=""exp-image"">
                        <div class=""question-area"">
                            <p style=""font-size: 20px; font-weight: bold; margin: 0;"">Is there a person in this image?</p>
                        </div>
                    </div>","1","main_causal_task","3","saving_a_cat_causal","","","",""
"","","","","","html-keyboard-response","117","365141","0.0-117.0","A3B83172E928434E9BC83C87525CC2D3","019ce65f-658a-7998-bae7-b1e906d25d85","019ce643-47c6-74a0-b3d2-7bf5651ded46","","null","
                    <div class=""stimulus-container"">
                        <img src=""images/causal_sequence/saving_a_cat_causal/saving_a_cat_causal_4.png"" class=""exp-image"">
                        <div class=""question-area""></div> 
                    </div>","null","","","","","","",""
"","","","","","html-button-response","118","365599","0.0-118.0","A3B83172E928434E9BC83C87525CC2D3","019ce65f-658a-7998-bae7-b1e906d25d85","019ce643-47c6-74a0-b3d2-7bf5651ded46","","458","
                    <div class=""stimulus-container"">
                        <img src=""images/causal_sequence/saving_a_cat_causal/saving_a_cat_causal_4.png"" class=""exp-image"">
                        <div class=""question-area"">
                            <p style=""font-size: 20px; font-weight: bold; margin: 0;"">Is there a person in this image?</p>
                        </div>
                    </div>","0","main_causal_task","4","saving_a_cat_causal","","","",""
"","","","","","html-keyboard-response","119","370610","0.0-119.0","A3B83172E928434E9BC83C87525CC2D3","019ce65f-658a-7998-bae7-b1e906d25d85","019ce643-47c6-74a0-b3d2-7bf5651ded46","","null","
                    <div class=""stimulus-container"">
                        <img src=""images/causal_sequence/saving_a_cat_causal/saving_a_cat_causal_5.png"" class=""exp-image"">
                        <div class=""question-area""></div> 
                    </div>","null","","","","","","",""
"","","","","","html-button-response","120","371676","0.0-120.0","A3B83172E928434E9BC83C87525CC2D3","019ce65f-658a-7998-bae7-b1e906d25d85","019ce643-47c6-74a0-b3d2-7bf5651ded46","","1066","
                    <div class=""stimulus-container"">
                        <img src=""images/causal_sequence/saving_a_cat_causal/saving_a_cat_causal_5.png"" class=""exp-image"">
                        <div class=""question-area"">
                            <p style=""font-size: 20px; font-weight: bold; margin: 0;"">Is there a person in this image?</p>
                        </div>
                    </div>","0","main_causal_task","5","saving_a_cat_causal","","","",""
"","","","","","html-keyboard-response","121","376677","0.0-121.0","A3B83172E928434E9BC83C87525CC2D3","019ce65f-658a-7998-bae7-b1e906d25d85","019ce643-47c6-74a0-b3d2-7bf5651ded46","","null","
                    <div class=""stimulus-container"">
                        <img src=""images/causal_sequence/saving_a_cat_causal/saving_a_cat_causal_6.png"" class=""exp-image"">
                        <div class=""question-area""></div> 
                    </div>","null","","","","","","",""
"","","","","","html-button-response","122","377908","0.0-122.0","A3B83172E928434E9BC83C87525CC2D3","019ce65f-658a-7998-bae7-b1e906d25d85","019ce643-47c6-74a0-b3d2-7bf5651ded46","","1229","
                    <div class=""stimulus-container"">
                        <img src=""images/causal_sequence/saving_a_cat_causal/saving_a_cat_causal_6.png"" class=""exp-image"">
                        <div class=""question-area"">
                            <p style=""font-size: 20px; font-weight: bold; margin: 0;"">Is there a person in this image?</p>
                        </div>
                    </div>","0","main_causal_task","6","saving_a_cat_causal","","","",""
"","","","","","html-keyboard-response","123","382911","0.0-123.0","A3B83172E928434E9BC83C87525CC2D3","019ce65f-658a-7998-bae7-b1e906d25d85","019ce643-47c6-74a0-b3d2-7bf5651ded46","","null","
                    <div class=""stimulus-container"">
                        <img src=""images/causal_sequence/saving_a_cat_causal/saving_a_cat_causal_7.png"" class=""exp-image"">
                        <div class=""question-area""></div> 
                    </div>","null","","","","","","",""
"","","","","","html-button-response","124","385098","0.0-124.0","A3B83172E928434E9BC83C87525CC2D3","019ce65f-658a-7998-bae7-b1e906d25d85","019ce643-47c6-74a0-b3d2-7bf5651ded46","","2185","
                    <div class=""stimulus-container"">
                        <img src=""images/causal_sequence/saving_a_cat_causal/saving_a_cat_causal_7.png"" class=""exp-image"">
                        <div class=""question-area"">
                            <p style=""font-size: 20px; font-weight: bold; margin: 0;"">Is there a person in this image?</p>
                        </div>
                    </div>","0","main_causal_task","7","saving_a_cat_causal","","","",""
"","","","","","html-keyboard-response","125","390099","0.0-125.0","A3B83172E928434E9BC83C87525CC2D3","019ce65f-658a-7998-bae7-b1e906d25d85","019ce643-47c6-74a0-b3d2-7bf5651ded46","","null","
                    <div class=""stimulus-container"">
                        <img src=""images/causal_sequence/saving_a_cat_causal/saving_a_cat_causal_8.png"" class=""exp-image"">
                        <div class=""question-area""></div> 
                    </div>","null","","","","","","",""
"","","","","","html-button-response","126","392311","0.0-126.0","A3B83172E928434E9BC83C87525CC2D3","019ce65f-658a-7998-bae7-b1e906d25d85","019ce643-47c6-74a0-b3d2-7bf5651ded46","","2211","
                    <div class=""stimulus-container"">
                        <img src=""images/causal_sequence/saving_a_cat_causal/saving_a_cat_causal_8.png"" class=""exp-image"">
                        <div class=""question-area"">
                            <p style=""font-size: 20px; font-weight: bold; margin: 0;"">Is there a person in this image?</p>
                        </div>
                    </div>","0","main_causal_task","8","saving_a_cat_causal","","","",""
"","","","","","html-keyboard-response","127","397325","0.0-127.0","A3B83172E928434E9BC83C87525CC2D3","019ce65f-658a-7998-bae7-b1e906d25d85","019ce643-47c6-74a0-b3d2-7bf5651ded46","","null","
                    <div class=""stimulus-container"">
                        <img src=""images/causal_sequence/saving_a_cat_causal/saving_a_cat_causal_9.png"" class=""exp-image"">
                        <div class=""question-area""></div> 
                    </div>","null","","","","","","",""
"","","","","","html-button-response","128","398260","0.0-128.0","A3B83172E928434E9BC83C87525CC2D3","019ce65f-658a-7998-bae7-b1e906d25d85","019ce643-47c6-74a0-b3d2-7bf5651ded46","","933","
                    <div class=""stimulus-container"">
                        <img src=""images/causal_sequence/saving_a_cat_causal/saving_a_cat_causal_9.png"" class=""exp-image"">
                        <div class=""question-area"">
                            <p style=""font-size: 20px; font-weight: bold; margin: 0;"">Is there a person in this image?</p>
                        </div>
                    </div>","0","main_causal_task","9","saving_a_cat_causal","","","",""
"","","","","","instructions","129","423707","0.0-129.0","A3B83172E928434E9BC83C87525CC2D3","019ce65f-658a-7998-bae7-b1e906d25d85","019ce643-47c6-74a0-b3d2-7bf5651ded46","[{""page_index"":0,""viewing_time"":25447}]","25448","","","","","","","","",""
"","","","","","instructions","130","434165","0.0-130.0","A3B83172E928434E9BC83C87525CC2D3","019ce65f-658a-7998-bae7-b1e906d25d85","019ce643-47c6-74a0-b3d2-7bf5651ded46","[{""page_index"":0,""viewing_time"":10457}]","10457","","","","","","","","",""
"","","","","","html-keyboard-response","131","435173","0.0-131.0","A3B83172E928434E9BC83C87525CC2D3","019ce65f-658a-7998-bae7-b1e906d25d85","019ce643-47c6-74a0-b3d2-7bf5651ded46","","null","
        <div class=""stimulus-container"" style=""display: flex; align-items: center; justify-content: center; gap: 30px;"">
            <img src=""images/instructions/movie_1.png"" class=""exp-image"">
            <div style=""font-size: 40px; font-weight: bold; color: green; border: 5px solid green; padding: 25px; border-radius: 15px; background-color: #f0fff0;"">
                WORTH<br>$1
            </div>
        </div>
        <div class=""question-area""></div>","null","","","","","","",""
"","","","","","html-button-response","132","438186","0.0-132.0","A3B83172E928434E9BC83C87525CC2D3","019ce65f-658a-7998-bae7-b1e906d25d85","019ce643-47c6-74a0-b3d2-7bf5651ded46","","null","
        <div class=""stimulus-container"" style=""display: flex; align-items: center; justify-content: center; gap: 30px;"">
            <img src=""images/instructions/movie_1.png"" class=""exp-image"">
            <div style=""font-size: 40px; font-weight: bold; color: green; border: 5px solid green; padding: 25px; border-radius: 15px; background-color: #f0fff0;"">
                WORTH<br>$1
            </div>
        </div>
        <div class=""question-area"">
            <p style=""font-size: 20px; font-weight: bold; margin: 0;"">Was there a person in this image?</p>
        </div>","null","","","","","","",""
"","","","","","instructions","133","440748","0.0-133.0","A3B83172E928434E9BC83C87525CC2D3","019ce65f-658a-7998-bae7-b1e906d25d85","019ce643-47c6-74a0-b3d2-7bf5651ded46","[{""page_index"":0,""viewing_time"":2562}]","2562","","","","","","","","",""
"","","","","","html-keyboard-response","134","450761","0.0-134.0","A3B83172E928434E9BC83C87525CC2D3","019ce65f-658a-7998-bae7-b1e906d25d85","019ce643-47c6-74a0-b3d2-7bf5651ded46","","null","
            <div class=""stimulus-container"" style=""display: flex; align-items: center; justify-content: center; gap: 30px;"">
                <img src=""images/causal_sequence/package_causal/package_causal_7.png"" class=""exp-image"">
                <div style=""font-size: 40px; font-weight: bold; color: green; border: 5px solid green; padding: 25px; border-radius: 15px; background-color: #f0fff0;"">
                    WORTH<br>$1
                </div>
            </div>
            <div class=""question-area""></div>","null","","","","","","",""
"","","","","","html-button-response","135","452557","0.0-135.0","A3B83172E928434E9BC83C87525CC2D3","019ce65f-658a-7998-bae7-b1e906d25d85","019ce643-47c6-74a0-b3d2-7bf5651ded46","","1795","
            <div class=""stimulus-container"" style=""display: flex; align-items: center; justify-content: center; gap: 30px;"">
                <img src=""images/causal_sequence/package_causal/package_causal_7.png"" class=""exp-image"">
                <div style=""font-size: 40px; font-weight: bold; color: green; border: 5px solid green; padding: 25px; border-radius: 15px; background-color: #f0fff0;"">
                    WORTH<br>$1
                </div>
            </div>
            <div class=""question-area"">
                <p style=""font-size: 20px; font-weight: bold; margin: 0;"">Was there a person in this image?</p>
            </div>","0","part2_value_learning","","package_causal","7","","",""
"","","","","","html-keyboard-response","136","462559","0.0-136.0","A3B83172E928434E9BC83C87525CC2D3","019ce65f-658a-7998-bae7-b1e906d25d85","019ce643-47c6-74a0-b3d2-7bf5651ded46","","null","
            <div class=""stimulus-container"" style=""display: flex; align-items: center; justify-content: center; gap: 30px;"">
                <img src=""images/causal_sequence/dog_causal/dog_causal_7.png"" class=""exp-image"">
                <div style=""font-size: 40px; font-weight: bold; color: green; border: 5px solid green; padding: 25px; border-radius: 15px; background-color: #f0fff0;"">
                    WORTH<br>$1
                </div>
            </div>
            <div class=""question-area""></div>","null","","","","","","",""
"","","","","","html-button-response","137","463148","0.0-137.0","A3B83172E928434E9BC83C87525CC2D3","019ce65f-658a-7998-bae7-b1e906d25d85","019ce643-47c6-74a0-b3d2-7bf5651ded46","","588","
            <div class=""stimulus-container"" style=""display: flex; align-items: center; justify-content: center; gap: 30px;"">
                <img src=""images/causal_sequence/dog_causal/dog_causal_7.png"" class=""exp-image"">
                <div style=""font-size: 40px; font-weight: bold; color: green; border: 5px solid green; padding: 25px; border-radius: 15px; background-color: #f0fff0;"">
                    WORTH<br>$1
                </div>
            </div>
            <div class=""question-area"">
                <p style=""font-size: 20px; font-weight: bold; margin: 0;"">Was there a person in this image?</p>
            </div>","0","part2_value_learning","","dog_causal","7","","",""
"","","","","","html-keyboard-response","138","473161","0.0-138.0","A3B83172E928434E9BC83C87525CC2D3","019ce65f-658a-7998-bae7-b1e906d25d85","019ce643-47c6-74a0-b3d2-7bf5651ded46","","null","
            <div class=""stimulus-container"" style=""display: flex; align-items: center; justify-content: center; gap: 30px;"">
                <img src=""images/causal_sequence/coin_causal/coin_causal_5.png"" class=""exp-image"">
                <div style=""font-size: 40px; font-weight: bold; color: green; border: 5px solid green; padding: 25px; border-radius: 15px; background-color: #f0fff0;"">
                    WORTH<br>$1
                </div>
            </div>
            <div class=""question-area""></div>","null","","","","","","",""
"","","","","","html-button-response","139","473681","0.0-139.0","A3B83172E928434E9BC83C87525CC2D3","019ce65f-658a-7998-bae7-b1e906d25d85","019ce643-47c6-74a0-b3d2-7bf5651ded46","","520","
            <div class=""stimulus-container"" style=""display: flex; align-items: center; justify-content: center; gap: 30px;"">
                <img src=""images/causal_sequence/coin_causal/coin_causal_5.png"" class=""exp-image"">
                <div style=""font-size: 40px; font-weight: bold; color: green; border: 5px solid green; padding: 25px; border-radius: 15px; background-color: #f0fff0;"">
                    WORTH<br>$1
                </div>
            </div>
            <div class=""question-area"">
                <p style=""font-size: 20px; font-weight: bold; margin: 0;"">Was there a person in this image?</p>
            </div>","0","part2_value_learning","","coin_causal","5","","",""
"","","","","","html-keyboard-response","140","483696","0.0-140.0","A3B83172E928434E9BC83C87525CC2D3","019ce65f-658a-7998-bae7-b1e906d25d85","019ce643-47c6-74a0-b3d2-7bf5651ded46","","null","
            <div class=""stimulus-container"" style=""display: flex; align-items: center; justify-content: center; gap: 30px;"">
                <img src=""images/causal_sequence/saving_a_cat_causal/saving_a_cat_causal_5.png"" class=""exp-image"">
                <div style=""font-size: 40px; font-weight: bold; color: green; border: 5px solid green; padding: 25px; border-radius: 15px; background-color: #f0fff0;"">
                    WORTH<br>$1
                </div>
            </div>
            <div class=""question-area""></div>","null","","","","","","",""
"","","","","","html-button-response","141","484141","0.0-141.0","A3B83172E928434E9BC83C87525CC2D3","019ce65f-658a-7998-bae7-b1e906d25d85","019ce643-47c6-74a0-b3d2-7bf5651ded46","","445","
            <div class=""stimulus-container"" style=""display: flex; align-items: center; justify-content: center; gap: 30px;"">
                <img src=""images/causal_sequence/saving_a_cat_causal/saving_a_cat_causal_5.png"" class=""exp-image"">
                <div style=""font-size: 40px; font-weight: bold; color: green; border: 5px solid green; padding: 25px; border-radius: 15px; background-color: #f0fff0;"">
                    WORTH<br>$1
                </div>
            </div>
            <div class=""question-area"">
                <p style=""font-size: 20px; font-weight: bold; margin: 0;"">Was there a person in this image?</p>
            </div>","0","part2_value_learning","","saving_a_cat_causal","5","","",""
"","","","","","html-keyboard-response","142","494144","0.0-142.0","A3B83172E928434E9BC83C87525CC2D3","019ce65f-658a-7998-bae7-b1e906d25d85","019ce643-47c6-74a0-b3d2-7bf5651ded46","","null","
            <div class=""stimulus-container"" style=""display: flex; align-items: center; justify-content: center; gap: 30px;"">
                <img src=""images/causal_sequence/the_performance_causal/the_performance_causal_5.png"" class=""exp-image"">
                <div style=""font-size: 40px; font-weight: bold; color: green; border: 5px solid green; padding: 25px; border-radius: 15px; background-color: #f0fff0;"">
                    WORTH<br>$1
                </div>
            </div>
            <div class=""question-area""></div>","null","","","","","","",""
"","","","","","html-button-response","143","494805","0.0-143.0","A3B83172E928434E9BC83C87525CC2D3","019ce65f-658a-7998-bae7-b1e906d25d85","019ce643-47c6-74a0-b3d2-7bf5651ded46","","660","
            <div class=""stimulus-container"" style=""display: flex; align-items: center; justify-content: center; gap: 30px;"">
                <img src=""images/causal_sequence/the_performance_causal/the_performance_causal_5.png"" class=""exp-image"">
                <div style=""font-size: 40px; font-weight: bold; color: green; border: 5px solid green; padding: 25px; border-radius: 15px; background-color: #f0fff0;"">
                    WORTH<br>$1
                </div>
            </div>
            <div class=""question-area"">
                <p style=""font-size: 20px; font-weight: bold; margin: 0;"">Was there a person in this image?</p>
            </div>","0","part2_value_learning","","the_performance_causal","5","","",""
"","","","","","html-keyboard-response","144","504815","0.0-144.0","A3B83172E928434E9BC83C87525CC2D3","019ce65f-658a-7998-bae7-b1e906d25d85","019ce643-47c6-74a0-b3d2-7bf5651ded46","","null","
            <div class=""stimulus-container"" style=""display: flex; align-items: center; justify-content: center; gap: 30px;"">
                <img src=""images/causal_sequence/museum_causal/museum_causal_5.png"" class=""exp-image"">
                <div style=""font-size: 40px; font-weight: bold; color: green; border: 5px solid green; padding: 25px; border-radius: 15px; background-color: #f0fff0;"">
                    WORTH<br>$1
                </div>
            </div>
            <div class=""question-area""></div>","null","","","","","","",""
"","","","","","html-button-response","145","505284","0.0-145.0","A3B83172E928434E9BC83C87525CC2D3","019ce65f-658a-7998-bae7-b1e906d25d85","019ce643-47c6-74a0-b3d2-7bf5651ded46","","468","
            <div class=""stimulus-container"" style=""display: flex; align-items: center; justify-content: center; gap: 30px;"">
                <img src=""images/causal_sequence/museum_causal/museum_causal_5.png"" class=""exp-image"">
                <div style=""font-size: 40px; font-weight: bold; color: green; border: 5px solid green; padding: 25px; border-radius: 15px; background-color: #f0fff0;"">
                    WORTH<br>$1
                </div>
            </div>
            <div class=""question-area"">
                <p style=""font-size: 20px; font-weight: bold; margin: 0;"">Was there a person in this image?</p>
            </div>","0","part2_value_learning","","museum_causal","5","","",""
"","","","","","instructions","146","507606","0.0-146.0","A3B83172E928434E9BC83C87525CC2D3","019ce65f-658a-7998-bae7-b1e906d25d85","019ce643-47c6-74a0-b3d2-7bf5651ded46","[{""page_index"":0,""viewing_time"":2322}]","2322","","","","","","","","",""
"","","","","","instructions","147","510059","0.0-147.0","A3B83172E928434E9BC83C87525CC2D3","019ce65f-658a-7998-bae7-b1e906d25d85","019ce643-47c6-74a0-b3d2-7bf5651ded46","[{""page_index"":0,""viewing_time"":2452}]","2452","","","","","","","","",""
"","","","","","html-keyboard-response","148","520072","0.0-148.0-0.0","A3B83172E928434E9BC83C87525CC2D3","019ce65f-658a-7998-bae7-b1e906d25d85","019ce643-47c6-74a0-b3d2-7bf5651ded46","","null","
                        <div style=""font-family: Arial; margin-bottom: 20px;""><h3>Which image is more valuable?</h3></div>
                        <div class=""stimulus-container"" style=""display: flex; width: 1100px; justify-content: center; gap: 50px;"">
                            <img src=""images/causal_sequence/dog_causal/dog_causal_6.png"" class=""exp-image"">
                            <img src=""images/causal_sequence/dog_causal/dog_causal_8.png"" class=""exp-image"">
                        </div>","null","","","","","","",""
"","","","","","html-button-response","149","521264","0.0-148.0-1.0","A3B83172E928434E9BC83C87525CC2D3","019ce65f-658a-7998-bae7-b1e906d25d85","019ce643-47c6-74a0-b3d2-7bf5651ded46","","1189","
                        <div style=""font-family: Arial; margin-bottom: 20px;""><h3>Which image is more valuable?</h3></div>
                        <div class=""stimulus-container"" style=""display: flex; width: 1100px; justify-content: center; gap: 50px;"">
                            <img src=""images/causal_sequence/dog_causal/dog_causal_6.png"" class=""exp-image"">
                            <img src=""images/causal_sequence/dog_causal/dog_causal_8.png"" class=""exp-image"">
                        </div>","0","part3_final_choice","","dog_causal","","7","6","-1"
"","","","","","html-keyboard-response","150","531278","0.0-149.0-0.0","A3B83172E928434E9BC83C87525CC2D3","019ce65f-658a-7998-bae7-b1e906d25d85","019ce643-47c6-74a0-b3d2-7bf5651ded46","","null","
                        <div style=""font-family: Arial; margin-bottom: 20px;""><h3>Which image is more valuable?</h3></div>
                        <div class=""stimulus-container"" style=""display: flex; width: 1100px; justify-content: center; gap: 50px;"">
                            <img src=""images/causal_sequence/the_performance_causal/the_performance_causal_4.png"" class=""exp-image"">
                            <img src=""images/causal_sequence/the_performance_causal/the_performance_causal_6.png"" class=""exp-image"">
                        </div>","null","","","","","","",""
"","","","","","html-button-response","151","532097","0.0-149.0-1.0","A3B83172E928434E9BC83C87525CC2D3","019ce65f-658a-7998-bae7-b1e906d25d85","019ce643-47c6-74a0-b3d2-7bf5651ded46","","817","
                        <div style=""font-family: Arial; margin-bottom: 20px;""><h3>Which image is more valuable?</h3></div>
                        <div class=""stimulus-container"" style=""display: flex; width: 1100px; justify-content: center; gap: 50px;"">
                            <img src=""images/causal_sequence/the_performance_causal/the_performance_causal_4.png"" class=""exp-image"">
                            <img src=""images/causal_sequence/the_performance_causal/the_performance_causal_6.png"" class=""exp-image"">
                        </div>","1","part3_final_choice","","the_performance_causal","","5","6","1"
"","","","","","html-keyboard-response","152","542100","0.0-150.0-0.0","A3B83172E928434E9BC83C87525CC2D3","019ce65f-658a-7998-bae7-b1e906d25d85","019ce643-47c6-74a0-b3d2-7bf5651ded46","","null","
                        <div style=""font-family: Arial; margin-bottom: 20px;""><h3>Which image is more valuable?</h3></div>
                        <div class=""stimulus-container"" style=""display: flex; width: 1100px; justify-content: center; gap: 50px;"">
                            <img src=""images/causal_sequence/museum_causal/museum_causal_6.png"" class=""exp-image"">
                            <img src=""images/causal_sequence/museum_causal/museum_causal_4.png"" class=""exp-image"">
                        </div>","null","","","","","","",""
"","","","","","html-button-response","153","542869","0.0-150.0-1.0","A3B83172E928434E9BC83C87525CC2D3","019ce65f-658a-7998-bae7-b1e906d25d85","019ce643-47c6-74a0-b3d2-7bf5651ded46","","768","
                        <div style=""font-family: Arial; margin-bottom: 20px;""><h3>Which image is more valuable?</h3></div>
                        <div class=""stimulus-container"" style=""display: flex; width: 1100px; justify-content: center; gap: 50px;"">
                            <img src=""images/causal_sequence/museum_causal/museum_causal_6.png"" class=""exp-image"">
                            <img src=""images/causal_sequence/museum_causal/museum_causal_4.png"" class=""exp-image"">
                        </div>","0","part3_final_choice","","museum_causal","","5","6","1"
"","","","","","html-keyboard-response","154","552875","0.0-151.0-0.0","A3B83172E928434E9BC83C87525CC2D3","019ce65f-658a-7998-bae7-b1e906d25d85","019ce643-47c6-74a0-b3d2-7bf5651ded46","","null","
                        <div style=""font-family: Arial; margin-bottom: 20px;""><h3>Which image is more valuable?</h3></div>
                        <div class=""stimulus-container"" style=""display: flex; width: 1100px; justify-content: center; gap: 50px;"">
                            <img src=""images/causal_sequence/package_causal/package_causal_6.png"" class=""exp-image"">
                            <img src=""images/causal_sequence/package_causal/package_causal_8.png"" class=""exp-image"">
                        </div>","null","","","","","","",""
"","","","","","html-button-response","155","553755","0.0-151.0-1.0","A3B83172E928434E9BC83C87525CC2D3","019ce65f-658a-7998-bae7-b1e906d25d85","019ce643-47c6-74a0-b3d2-7bf5651ded46","","879","
                        <div style=""font-family: Arial; margin-bottom: 20px;""><h3>Which image is more valuable?</h3></div>
                        <div class=""stimulus-container"" style=""display: flex; width: 1100px; justify-content: center; gap: 50px;"">
                            <img src=""images/causal_sequence/package_causal/package_causal_6.png"" class=""exp-image"">
                            <img src=""images/causal_sequence/package_causal/package_causal_8.png"" class=""exp-image"">
                        </div>","0","part3_final_choice","","package_causal","","7","6","-1"
"","","","","","html-keyboard-response","156","563759","0.0-152.0-0.0","A3B83172E928434E9BC83C87525CC2D3","019ce65f-658a-7998-bae7-b1e906d25d85","019ce643-47c6-74a0-b3d2-7bf5651ded46","","null","
                        <div style=""font-family: Arial; margin-bottom: 20px;""><h3>Which image is more valuable?</h3></div>
                        <div class=""stimulus-container"" style=""display: flex; width: 1100px; justify-content: center; gap: 50px;"">
                            <img src=""images/causal_sequence/coin_causal/coin_causal_6.png"" class=""exp-image"">
                            <img src=""images/causal_sequence/coin_causal/coin_causal_4.png"" class=""exp-image"">
                        </div>","null","","","","","","",""
"","","","","","html-button-response","157","564798","0.0-152.0-1.0","A3B83172E928434E9BC83C87525CC2D3","019ce65f-658a-7998-bae7-b1e906d25d85","019ce643-47c6-74a0-b3d2-7bf5651ded46","","1038","
                        <div style=""font-family: Arial; margin-bottom: 20px;""><h3>Which image is more valuable?</h3></div>
                        <div class=""stimulus-container"" style=""display: flex; width: 1100px; justify-content: center; gap: 50px;"">
                            <img src=""images/causal_sequence/coin_causal/coin_causal_6.png"" class=""exp-image"">
                            <img src=""images/causal_sequence/coin_causal/coin_causal_4.png"" class=""exp-image"">
                        </div>","0","part3_final_choice","","coin_causal","","5","6","1"
"","","","","","html-keyboard-response","158","574811","0.0-153.0-0.0","A3B83172E928434E9BC83C87525CC2D3","019ce65f-658a-7998-bae7-b1e906d25d85","019ce643-47c6-74a0-b3d2-7bf5651ded46","","null","
                        <div style=""font-family: Arial; margin-bottom: 20px;""><h3>Which image is more valuable?</h3></div>
                        <div class=""stimulus-container"" style=""display: flex; width: 1100px; justify-content: center; gap: 50px;"">
                            <img src=""images/causal_sequence/saving_a_cat_causal/saving_a_cat_causal_6.png"" class=""exp-image"">
                            <img src=""images/causal_sequence/saving_a_cat_causal/saving_a_cat_causal_4.png"" class=""exp-image"">
                        </div>","null","","","","","","",""
"","","","","","html-button-response","159","575701","0.0-153.0-1.0","A3B83172E928434E9BC83C87525CC2D3","019ce65f-658a-7998-bae7-b1e906d25d85","019ce643-47c6-74a0-b3d2-7bf5651ded46","","889","
                        <div style=""font-family: Arial; margin-bottom: 20px;""><h3>Which image is more valuable?</h3></div>
                        <div class=""stimulus-container"" style=""display: flex; width: 1100px; justify-content: center; gap: 50px;"">
                            <img src=""images/causal_sequence/saving_a_cat_causal/saving_a_cat_causal_6.png"" class=""exp-image"">
                            <img src=""images/causal_sequence/saving_a_cat_causal/saving_a_cat_causal_4.png"" class=""exp-image"">
                        </div>","1","part3_final_choice","","saving_a_cat_causal","","5","4","-1"
"","","","","","survey-text","160","631668","0.0-154.0","A3B83172E928434E9BC83C87525CC2D3","019ce65f-658a-7998-bae7-b1e906d25d85","019ce643-47c6-74a0-b3d2-7bf5651ded46","","55962","","{""gender"":""male"",""age"":""35"",""decision_strategy"":""if it showed person doing act"",""consistency_check"":""iused same logic after i saw the worth 1 dollar images""}","demographics_and_strategy","","","","","",""
"","","","","","instructions","161","638375","0.0-155.0","A3B83172E928434E9BC83C87525CC2D3","019ce65f-658a-7998-bae7-b1e906d25d85","019ce643-47c6-74a0-b3d2-7bf5651ded46","[{""page_index"":0,""viewing_time"":6706}]","6706","","","","","","","","",""
