"success","timeout","failed_images","failed_audio","failed_video","trial_type","trial_index","time_elapsed","internal_node_id","subject_id","study_id","session_id","view_history","rt","stimulus","response","task","image_index","folder","sequence_type","presentation_order","valuable_image_index","reward_type","target_X","l_dist","r_dist","chosen_image_index","selected_after_X","correct_choice"
"false","false","[]","[]","[]","preload","0","627597","0.0-0.0","282951978EB347F9B53ED2679F50E4E1","019d6637-18b7-7828-961c-7bcf1f9a4677","019d6630-2071-75cb-8026-6699844a2719","","","","","","","","","","","","","","","","",""
"","","","","","instructions","1","636523","0.0-1.0","282951978EB347F9B53ED2679F50E4E1","019d6637-18b7-7828-961c-7bcf1f9a4677","019d6630-2071-75cb-8026-6699844a2719","[{""page_index"":0,""viewing_time"":8924}]","8924","","","","","","","","","","","","","","",""
"","","","","","instructions","2","644253","0.0-2.0","282951978EB347F9B53ED2679F50E4E1","019d6637-18b7-7828-961c-7bcf1f9a4677","019d6630-2071-75cb-8026-6699844a2719","[{""page_index"":0,""viewing_time"":7729}]","7730","","","","","","","","","","","","","","",""
"true","","","","","fullscreen","3","647994","0.0-3.0","282951978EB347F9B53ED2679F50E4E1","019d6637-18b7-7828-961c-7bcf1f9a4677","019d6630-2071-75cb-8026-6699844a2719","","2719","","","","","","","","","","","","","","",""
"","","","","","instructions","4","689170","0.0-4.0","282951978EB347F9B53ED2679F50E4E1","019d6637-18b7-7828-961c-7bcf1f9a4677","019d6630-2071-75cb-8026-6699844a2719","[{""page_index"":0,""viewing_time"":41173}]","41174","","","","","","","","","","","","","","",""
"","","","","","instructions","5","740235","0.0-5.0","282951978EB347F9B53ED2679F50E4E1","019d6637-18b7-7828-961c-7bcf1f9a4677","019d6630-2071-75cb-8026-6699844a2719","[{""page_index"":0,""viewing_time"":51063}]","51064","","","","","","","","","","","","","","",""
"","","","","","html-keyboard-response","6","744248","0.0-6.0","282951978EB347F9B53ED2679F50E4E1","019d6637-18b7-7828-961c-7bcf1f9a4677","019d6630-2071-75cb-8026-6699844a2719","","null","
                <div class=""stimulus-container"">
                    <img src=""images/instructions/movie_1.png"" class=""exp-image"">
                    <div class=""question-area""></div> 
                </div>","null","","","","","","","","","","","","",""
"","","","","","html-button-response","7","747263","0.0-7.0","282951978EB347F9B53ED2679F50E4E1","019d6637-18b7-7828-961c-7bcf1f9a4677","019d6630-2071-75cb-8026-6699844a2719","","null","
                <div class=""stimulus-container"">
                    <img src=""images/instructions/movie_1.png"" class=""exp-image"">
                    <div class=""question-area"">
                        <p style=""font-size: 20px; font-weight: bold; margin: 0;"">Was there a person in this image?</p>
                    </div>
                </div>","null","example_question","1","","","","","","","","","","",""
"","","","","","html-keyboard-response","8","751273","0.0-8.0","282951978EB347F9B53ED2679F50E4E1","019d6637-18b7-7828-961c-7bcf1f9a4677","019d6630-2071-75cb-8026-6699844a2719","","null","
                <div class=""stimulus-container"">
                    <img src=""images/instructions/movie_2.png"" class=""exp-image"">
                    <div class=""question-area""></div> 
                </div>","null","","","","","","","","","","","","",""
"","","","","","html-button-response","9","753718","0.0-9.0","282951978EB347F9B53ED2679F50E4E1","019d6637-18b7-7828-961c-7bcf1f9a4677","019d6630-2071-75cb-8026-6699844a2719","","2444","
                <div class=""stimulus-container"">
                    <img src=""images/instructions/movie_2.png"" class=""exp-image"">
                    <div class=""question-area"">
                        <p style=""font-size: 20px; font-weight: bold; margin: 0;"">Was there a person in this image?</p>
                    </div>
                </div>","0","example_question","2","","","","","","","","","","",""
"","","","","","html-keyboard-response","10","757729","0.0-10.0","282951978EB347F9B53ED2679F50E4E1","019d6637-18b7-7828-961c-7bcf1f9a4677","019d6630-2071-75cb-8026-6699844a2719","","null","
                <div class=""stimulus-container"">
                    <img src=""images/instructions/movie_3.png"" class=""exp-image"">
                    <div class=""question-area""></div> 
                </div>","null","","","","","","","","","","","","",""
"","","","","","html-button-response","11","759037","0.0-11.0","282951978EB347F9B53ED2679F50E4E1","019d6637-18b7-7828-961c-7bcf1f9a4677","019d6630-2071-75cb-8026-6699844a2719","","1306","
                <div class=""stimulus-container"">
                    <img src=""images/instructions/movie_3.png"" class=""exp-image"">
                    <div class=""question-area"">
                        <p style=""font-size: 20px; font-weight: bold; margin: 0;"">Was there a person in this image?</p>
                    </div>
                </div>","0","example_question","3","","","","","","","","","","",""
"","","","","","html-keyboard-response","12","763044","0.0-12.0","282951978EB347F9B53ED2679F50E4E1","019d6637-18b7-7828-961c-7bcf1f9a4677","019d6630-2071-75cb-8026-6699844a2719","","null","
                <div class=""stimulus-container"">
                    <img src=""images/instructions/movie_4.png"" class=""exp-image"">
                    <div class=""question-area""></div> 
                </div>","null","","","","","","","","","","","","",""
"","","","","","html-button-response","13","764364","0.0-13.0","282951978EB347F9B53ED2679F50E4E1","019d6637-18b7-7828-961c-7bcf1f9a4677","019d6630-2071-75cb-8026-6699844a2719","","1317","
                <div class=""stimulus-container"">
                    <img src=""images/instructions/movie_4.png"" class=""exp-image"">
                    <div class=""question-area"">
                        <p style=""font-size: 20px; font-weight: bold; margin: 0;"">Was there a person in this image?</p>
                    </div>
                </div>","0","example_question","4","","","","","","","","","","",""
"","","","","","instructions","14","776330","0.0-14.0","282951978EB347F9B53ED2679F50E4E1","019d6637-18b7-7828-961c-7bcf1f9a4677","019d6630-2071-75cb-8026-6699844a2719","[{""page_index"":0,""viewing_time"":11963}]","11964","","","","","","","","","","","","","","",""
"","","","","","instructions","15","811842","0.0-15.0","282951978EB347F9B53ED2679F50E4E1","019d6637-18b7-7828-961c-7bcf1f9a4677","019d6630-2071-75cb-8026-6699844a2719","[{""page_index"":0,""viewing_time"":35509}]","35510","","","","","","","","","","","","","","",""
"","","","","","html-keyboard-response","16","816851","0.0-16.0","282951978EB347F9B53ED2679F50E4E1","019d6637-18b7-7828-961c-7bcf1f9a4677","019d6630-2071-75cb-8026-6699844a2719","","null","<div style=""background-color: white; width: 100vw; height: 100vh;""></div>","null","","","","","","","","","","","","",""
"","","","","","html-keyboard-response","17","821868","0.0-17.0","282951978EB347F9B53ED2679F50E4E1","019d6637-18b7-7828-961c-7bcf1f9a4677","019d6630-2071-75cb-8026-6699844a2719","","null","
                <div class=""stimulus-container"">
                    <img src=""images/causal_sequence/coin_causal/coin_causal_1.png"" class=""exp-image"">
                    <div class=""question-area""></div> 
                </div>","null","","","","","","","","","","","","",""
"","","","","","html-button-response","18","823329","0.0-18.0","282951978EB347F9B53ED2679F50E4E1","019d6637-18b7-7828-961c-7bcf1f9a4677","019d6630-2071-75cb-8026-6699844a2719","","1456","
                <div class=""stimulus-container"">
                    <img src=""images/causal_sequence/coin_causal/coin_causal_1.png"" class=""exp-image"">
                    <div class=""question-area"">
                        <p style=""font-size: 20px; font-weight: bold; margin: 0;"">Is there a person in this image?</p>
                    </div>
                </div>","0","main_experiment_trial","1","coin_causal","causal_sequence","chronological","","","","","","","",""
"","","","","","html-keyboard-response","19","828349","0.0-19.0","282951978EB347F9B53ED2679F50E4E1","019d6637-18b7-7828-961c-7bcf1f9a4677","019d6630-2071-75cb-8026-6699844a2719","","null","
                <div class=""stimulus-container"">
                    <img src=""images/causal_sequence/coin_causal/coin_causal_2.png"" class=""exp-image"">
                    <div class=""question-area""></div> 
                </div>","null","","","","","","","","","","","","",""
"","","","","","html-button-response","20","829850","0.0-20.0","282951978EB347F9B53ED2679F50E4E1","019d6637-18b7-7828-961c-7bcf1f9a4677","019d6630-2071-75cb-8026-6699844a2719","","1497","
                <div class=""stimulus-container"">
                    <img src=""images/causal_sequence/coin_causal/coin_causal_2.png"" class=""exp-image"">
                    <div class=""question-area"">
                        <p style=""font-size: 20px; font-weight: bold; margin: 0;"">Is there a person in this image?</p>
                    </div>
                </div>","0","main_experiment_trial","2","coin_causal","causal_sequence","chronological","","","","","","","",""
"","","","","","html-keyboard-response","21","834851","0.0-21.0","282951978EB347F9B53ED2679F50E4E1","019d6637-18b7-7828-961c-7bcf1f9a4677","019d6630-2071-75cb-8026-6699844a2719","","null","
                <div class=""stimulus-container"">
                    <img src=""images/causal_sequence/coin_causal/coin_causal_3.png"" class=""exp-image"">
                    <div class=""question-area""></div> 
                </div>","null","","","","","","","","","","","","",""
"","","","","","html-button-response","22","835924","0.0-22.0","282951978EB347F9B53ED2679F50E4E1","019d6637-18b7-7828-961c-7bcf1f9a4677","019d6630-2071-75cb-8026-6699844a2719","","1070","
                <div class=""stimulus-container"">
                    <img src=""images/causal_sequence/coin_causal/coin_causal_3.png"" class=""exp-image"">
                    <div class=""question-area"">
                        <p style=""font-size: 20px; font-weight: bold; margin: 0;"">Is there a person in this image?</p>
                    </div>
                </div>","0","main_experiment_trial","3","coin_causal","causal_sequence","chronological","","","","","","","",""
"","","","","","html-keyboard-response","23","840930","0.0-23.0","282951978EB347F9B53ED2679F50E4E1","019d6637-18b7-7828-961c-7bcf1f9a4677","019d6630-2071-75cb-8026-6699844a2719","","null","
                <div class=""stimulus-container"">
                    <img src=""images/causal_sequence/coin_causal/coin_causal_4.png"" class=""exp-image"">
                    <div class=""question-area""></div> 
                </div>","null","","","","","","","","","","","","",""
"","","","","","html-button-response","24","842378","0.0-24.0","282951978EB347F9B53ED2679F50E4E1","019d6637-18b7-7828-961c-7bcf1f9a4677","019d6630-2071-75cb-8026-6699844a2719","","1444","
                <div class=""stimulus-container"">
                    <img src=""images/causal_sequence/coin_causal/coin_causal_4.png"" class=""exp-image"">
                    <div class=""question-area"">
                        <p style=""font-size: 20px; font-weight: bold; margin: 0;"">Is there a person in this image?</p>
                    </div>
                </div>","0","main_experiment_trial","4","coin_causal","causal_sequence","chronological","","","","","","","",""
"","","","","","html-keyboard-response","25","847382","0.0-25.0","282951978EB347F9B53ED2679F50E4E1","019d6637-18b7-7828-961c-7bcf1f9a4677","019d6630-2071-75cb-8026-6699844a2719","","null","
                <div class=""stimulus-container"">
                    <img src=""images/causal_sequence/coin_causal/coin_causal_5.png"" class=""exp-image"">
                    <div class=""question-area""></div> 
                </div>","null","","","","","","","","","","","","",""
"","","","","","html-button-response","26","848487","0.0-26.0","282951978EB347F9B53ED2679F50E4E1","019d6637-18b7-7828-961c-7bcf1f9a4677","019d6630-2071-75cb-8026-6699844a2719","","1103","
                <div class=""stimulus-container"">
                    <img src=""images/causal_sequence/coin_causal/coin_causal_5.png"" class=""exp-image"">
                    <div class=""question-area"">
                        <p style=""font-size: 20px; font-weight: bold; margin: 0;"">Is there a person in this image?</p>
                    </div>
                </div>","0","main_experiment_trial","5","coin_causal","causal_sequence","chronological","","","","","","","",""
"","","","","","html-keyboard-response","27","853490","0.0-27.0","282951978EB347F9B53ED2679F50E4E1","019d6637-18b7-7828-961c-7bcf1f9a4677","019d6630-2071-75cb-8026-6699844a2719","","null","
                <div class=""stimulus-container"">
                    <img src=""images/causal_sequence/coin_causal/coin_causal_6.png"" class=""exp-image"">
                    <div class=""question-area""></div> 
                </div>","null","","","","","","","","","","","","",""
"","","","","","html-button-response","28","854700","0.0-28.0","282951978EB347F9B53ED2679F50E4E1","019d6637-18b7-7828-961c-7bcf1f9a4677","019d6630-2071-75cb-8026-6699844a2719","","1208","
                <div class=""stimulus-container"">
                    <img src=""images/causal_sequence/coin_causal/coin_causal_6.png"" class=""exp-image"">
                    <div class=""question-area"">
                        <p style=""font-size: 20px; font-weight: bold; margin: 0;"">Is there a person in this image?</p>
                    </div>
                </div>","0","main_experiment_trial","6","coin_causal","causal_sequence","chronological","","","","","","","",""
"","","","","","html-keyboard-response","29","859710","0.0-29.0","282951978EB347F9B53ED2679F50E4E1","019d6637-18b7-7828-961c-7bcf1f9a4677","019d6630-2071-75cb-8026-6699844a2719","","null","
                <div class=""stimulus-container"">
                    <img src=""images/causal_sequence/coin_causal/coin_causal_7.png"" class=""exp-image"">
                    <div class=""question-area""></div> 
                </div>","null","","","","","","","","","","","","",""
"","","","","","html-button-response","30","861585","0.0-30.0","282951978EB347F9B53ED2679F50E4E1","019d6637-18b7-7828-961c-7bcf1f9a4677","019d6630-2071-75cb-8026-6699844a2719","","1871","
                <div class=""stimulus-container"">
                    <img src=""images/causal_sequence/coin_causal/coin_causal_7.png"" class=""exp-image"">
                    <div class=""question-area"">
                        <p style=""font-size: 20px; font-weight: bold; margin: 0;"">Is there a person in this image?</p>
                    </div>
                </div>","1","main_experiment_trial","7","coin_causal","causal_sequence","chronological","","","","","","","",""
"","","","","","html-keyboard-response","31","866601","0.0-31.0","282951978EB347F9B53ED2679F50E4E1","019d6637-18b7-7828-961c-7bcf1f9a4677","019d6630-2071-75cb-8026-6699844a2719","","null","
                <div class=""stimulus-container"">
                    <img src=""images/causal_sequence/coin_causal/coin_causal_8.png"" class=""exp-image"">
                    <div class=""question-area""></div> 
                </div>","null","","","","","","","","","","","","",""
"","","","","","html-button-response","32","867707","0.0-32.0","282951978EB347F9B53ED2679F50E4E1","019d6637-18b7-7828-961c-7bcf1f9a4677","019d6630-2071-75cb-8026-6699844a2719","","1103","
                <div class=""stimulus-container"">
                    <img src=""images/causal_sequence/coin_causal/coin_causal_8.png"" class=""exp-image"">
                    <div class=""question-area"">
                        <p style=""font-size: 20px; font-weight: bold; margin: 0;"">Is there a person in this image?</p>
                    </div>
                </div>","0","main_experiment_trial","8","coin_causal","causal_sequence","chronological","","","","","","","",""
"","","","","","html-keyboard-response","33","872715","0.0-33.0","282951978EB347F9B53ED2679F50E4E1","019d6637-18b7-7828-961c-7bcf1f9a4677","019d6630-2071-75cb-8026-6699844a2719","","null","
                <div class=""stimulus-container"">
                    <img src=""images/causal_sequence/coin_causal/coin_causal_9.png"" class=""exp-image"">
                    <div class=""question-area""></div> 
                </div>","null","","","","","","","","","","","","",""
"","","","","","html-button-response","34","874175","0.0-34.0","282951978EB347F9B53ED2679F50E4E1","019d6637-18b7-7828-961c-7bcf1f9a4677","019d6630-2071-75cb-8026-6699844a2719","","1456","
                <div class=""stimulus-container"">
                    <img src=""images/causal_sequence/coin_causal/coin_causal_9.png"" class=""exp-image"">
                    <div class=""question-area"">
                        <p style=""font-size: 20px; font-weight: bold; margin: 0;"">Is there a person in this image?</p>
                    </div>
                </div>","0","main_experiment_trial","9","coin_causal","causal_sequence","chronological","","","","","","","",""
"","","","","","html-keyboard-response","35","879178","0.0-35.0","282951978EB347F9B53ED2679F50E4E1","019d6637-18b7-7828-961c-7bcf1f9a4677","019d6630-2071-75cb-8026-6699844a2719","","null","
                <div class=""stimulus-container"">
                    <img src=""images/causal_sequence/coin_causal/coin_causal_ten.png"" class=""exp-image"">
                    <div class=""question-area""></div> 
                </div>","null","","","","","","","","","","","","",""
"","","","","","html-button-response","36","880532","0.0-36.0","282951978EB347F9B53ED2679F50E4E1","019d6637-18b7-7828-961c-7bcf1f9a4677","019d6630-2071-75cb-8026-6699844a2719","","1351","
                <div class=""stimulus-container"">
                    <img src=""images/causal_sequence/coin_causal/coin_causal_ten.png"" class=""exp-image"">
                    <div class=""question-area"">
                        <p style=""font-size: 20px; font-weight: bold; margin: 0;"">Is there a person in this image?</p>
                    </div>
                </div>","0","main_experiment_trial","ten","coin_causal","causal_sequence","chronological","","","","","","","",""
"","","","","","html-keyboard-response","37","885544","0.0-37.0","282951978EB347F9B53ED2679F50E4E1","019d6637-18b7-7828-961c-7bcf1f9a4677","019d6630-2071-75cb-8026-6699844a2719","","null","<div style=""background-color: white; width: 100vw; height: 100vh;""></div>","null","","","","","","","","","","","","",""
"","","","","","html-keyboard-response","38","890560","0.0-38.0","282951978EB347F9B53ED2679F50E4E1","019d6637-18b7-7828-961c-7bcf1f9a4677","019d6630-2071-75cb-8026-6699844a2719","","null","
                <div class=""stimulus-container"">
                    <img src=""images/causal_sequence/dog_causal/dog_causal_1.png"" class=""exp-image"">
                    <div class=""question-area""></div> 
                </div>","null","","","","","","","","","","","","",""
"","","","","","html-button-response","39","891894","0.0-39.0","282951978EB347F9B53ED2679F50E4E1","019d6637-18b7-7828-961c-7bcf1f9a4677","019d6630-2071-75cb-8026-6699844a2719","","1331","
                <div class=""stimulus-container"">
                    <img src=""images/causal_sequence/dog_causal/dog_causal_1.png"" class=""exp-image"">
                    <div class=""question-area"">
                        <p style=""font-size: 20px; font-weight: bold; margin: 0;"">Is there a person in this image?</p>
                    </div>
                </div>","0","main_experiment_trial","1","dog_causal","causal_sequence","chronological","","","","","","","",""
"","","","","","html-keyboard-response","40","896920","0.0-40.0","282951978EB347F9B53ED2679F50E4E1","019d6637-18b7-7828-961c-7bcf1f9a4677","019d6630-2071-75cb-8026-6699844a2719","","null","
                <div class=""stimulus-container"">
                    <img src=""images/causal_sequence/dog_causal/dog_causal_2.png"" class=""exp-image"">
                    <div class=""question-area""></div> 
                </div>","null","","","","","","","","","","","","",""
"","","","","","html-button-response","41","898108","0.0-41.0","282951978EB347F9B53ED2679F50E4E1","019d6637-18b7-7828-961c-7bcf1f9a4677","019d6630-2071-75cb-8026-6699844a2719","","1185","
                <div class=""stimulus-container"">
                    <img src=""images/causal_sequence/dog_causal/dog_causal_2.png"" class=""exp-image"">
                    <div class=""question-area"">
                        <p style=""font-size: 20px; font-weight: bold; margin: 0;"">Is there a person in this image?</p>
                    </div>
                </div>","0","main_experiment_trial","2","dog_causal","causal_sequence","chronological","","","","","","","",""
"","","","","","html-keyboard-response","42","903114","0.0-42.0","282951978EB347F9B53ED2679F50E4E1","019d6637-18b7-7828-961c-7bcf1f9a4677","019d6630-2071-75cb-8026-6699844a2719","","null","
                <div class=""stimulus-container"">
                    <img src=""images/causal_sequence/dog_causal/dog_causal_3.png"" class=""exp-image"">
                    <div class=""question-area""></div> 
                </div>","null","","","","","","","","","","","","",""
"","","","","","html-button-response","43","904265","0.0-43.0","282951978EB347F9B53ED2679F50E4E1","019d6637-18b7-7828-961c-7bcf1f9a4677","019d6630-2071-75cb-8026-6699844a2719","","1147","
                <div class=""stimulus-container"">
                    <img src=""images/causal_sequence/dog_causal/dog_causal_3.png"" class=""exp-image"">
                    <div class=""question-area"">
                        <p style=""font-size: 20px; font-weight: bold; margin: 0;"">Is there a person in this image?</p>
                    </div>
                </div>","0","main_experiment_trial","3","dog_causal","causal_sequence","chronological","","","","","","","",""
"","","","","","html-keyboard-response","44","909289","0.0-44.0","282951978EB347F9B53ED2679F50E4E1","019d6637-18b7-7828-961c-7bcf1f9a4677","019d6630-2071-75cb-8026-6699844a2719","","null","
                <div class=""stimulus-container"">
                    <img src=""images/causal_sequence/dog_causal/dog_causal_4.png"" class=""exp-image"">
                    <div class=""question-area""></div> 
                </div>","null","","","","","","","","","","","","",""
"","","","","","html-button-response","45","910180","0.0-45.0","282951978EB347F9B53ED2679F50E4E1","019d6637-18b7-7828-961c-7bcf1f9a4677","019d6630-2071-75cb-8026-6699844a2719","","887","
                <div class=""stimulus-container"">
                    <img src=""images/causal_sequence/dog_causal/dog_causal_4.png"" class=""exp-image"">
                    <div class=""question-area"">
                        <p style=""font-size: 20px; font-weight: bold; margin: 0;"">Is there a person in this image?</p>
                    </div>
                </div>","0","main_experiment_trial","4","dog_causal","causal_sequence","chronological","","","","","","","",""
"","","","","","html-keyboard-response","46","915197","0.0-46.0","282951978EB347F9B53ED2679F50E4E1","019d6637-18b7-7828-961c-7bcf1f9a4677","019d6630-2071-75cb-8026-6699844a2719","","null","
                <div class=""stimulus-container"">
                    <img src=""images/causal_sequence/dog_causal/dog_causal_5.png"" class=""exp-image"">
                    <div class=""question-area""></div> 
                </div>","null","","","","","","","","","","","","",""
"","","","","","html-button-response","47","915916","0.0-47.0","282951978EB347F9B53ED2679F50E4E1","019d6637-18b7-7828-961c-7bcf1f9a4677","019d6630-2071-75cb-8026-6699844a2719","","715","
                <div class=""stimulus-container"">
                    <img src=""images/causal_sequence/dog_causal/dog_causal_5.png"" class=""exp-image"">
                    <div class=""question-area"">
                        <p style=""font-size: 20px; font-weight: bold; margin: 0;"">Is there a person in this image?</p>
                    </div>
                </div>","0","main_experiment_trial","5","dog_causal","causal_sequence","chronological","","","","","","","",""
"","","","","","html-keyboard-response","48","920933","0.0-48.0","282951978EB347F9B53ED2679F50E4E1","019d6637-18b7-7828-961c-7bcf1f9a4677","019d6630-2071-75cb-8026-6699844a2719","","null","
                <div class=""stimulus-container"">
                    <img src=""images/causal_sequence/dog_causal/dog_causal_6.png"" class=""exp-image"">
                    <div class=""question-area""></div> 
                </div>","null","","","","","","","","","","","","",""
"","","","","","html-button-response","49","922015","0.0-49.0","282951978EB347F9B53ED2679F50E4E1","019d6637-18b7-7828-961c-7bcf1f9a4677","019d6630-2071-75cb-8026-6699844a2719","","1078","
                <div class=""stimulus-container"">
                    <img src=""images/causal_sequence/dog_causal/dog_causal_6.png"" class=""exp-image"">
                    <div class=""question-area"">
                        <p style=""font-size: 20px; font-weight: bold; margin: 0;"">Is there a person in this image?</p>
                    </div>
                </div>","0","main_experiment_trial","6","dog_causal","causal_sequence","chronological","","","","","","","",""
"","","","","","html-keyboard-response","50","927027","0.0-50.0","282951978EB347F9B53ED2679F50E4E1","019d6637-18b7-7828-961c-7bcf1f9a4677","019d6630-2071-75cb-8026-6699844a2719","","null","
                <div class=""stimulus-container"">
                    <img src=""images/causal_sequence/dog_causal/dog_causal_7.png"" class=""exp-image"">
                    <div class=""question-area""></div> 
                </div>","null","","","","","","","","","","","","",""
"","","","","","html-button-response","51","928840","0.0-51.0","282951978EB347F9B53ED2679F50E4E1","019d6637-18b7-7828-961c-7bcf1f9a4677","019d6630-2071-75cb-8026-6699844a2719","","1812","
                <div class=""stimulus-container"">
                    <img src=""images/causal_sequence/dog_causal/dog_causal_7.png"" class=""exp-image"">
                    <div class=""question-area"">
                        <p style=""font-size: 20px; font-weight: bold; margin: 0;"">Is there a person in this image?</p>
                    </div>
                </div>","0","main_experiment_trial","7","dog_causal","causal_sequence","chronological","","","","","","","",""
"","","","","","html-keyboard-response","52","933852","0.0-52.0","282951978EB347F9B53ED2679F50E4E1","019d6637-18b7-7828-961c-7bcf1f9a4677","019d6630-2071-75cb-8026-6699844a2719","","null","
                <div class=""stimulus-container"">
                    <img src=""images/causal_sequence/dog_causal/dog_causal_8.png"" class=""exp-image"">
                    <div class=""question-area""></div> 
                </div>","null","","","","","","","","","","","","",""
"","","","","","html-button-response","53","935194","0.0-53.0","282951978EB347F9B53ED2679F50E4E1","019d6637-18b7-7828-961c-7bcf1f9a4677","019d6630-2071-75cb-8026-6699844a2719","","1340","
                <div class=""stimulus-container"">
                    <img src=""images/causal_sequence/dog_causal/dog_causal_8.png"" class=""exp-image"">
                    <div class=""question-area"">
                        <p style=""font-size: 20px; font-weight: bold; margin: 0;"">Is there a person in this image?</p>
                    </div>
                </div>","0","main_experiment_trial","8","dog_causal","causal_sequence","chronological","","","","","","","",""
"","","","","","html-keyboard-response","54","940197","0.0-54.0","282951978EB347F9B53ED2679F50E4E1","019d6637-18b7-7828-961c-7bcf1f9a4677","019d6630-2071-75cb-8026-6699844a2719","","null","
                <div class=""stimulus-container"">
                    <img src=""images/causal_sequence/dog_causal/dog_causal_9.png"" class=""exp-image"">
                    <div class=""question-area""></div> 
                </div>","null","","","","","","","","","","","","",""
"","","","","","html-button-response","55","941359","0.0-55.0","282951978EB347F9B53ED2679F50E4E1","019d6637-18b7-7828-961c-7bcf1f9a4677","019d6630-2071-75cb-8026-6699844a2719","","1159","
                <div class=""stimulus-container"">
                    <img src=""images/causal_sequence/dog_causal/dog_causal_9.png"" class=""exp-image"">
                    <div class=""question-area"">
                        <p style=""font-size: 20px; font-weight: bold; margin: 0;"">Is there a person in this image?</p>
                    </div>
                </div>","0","main_experiment_trial","9","dog_causal","causal_sequence","chronological","","","","","","","",""
"","","","","","html-keyboard-response","56","946367","0.0-56.0","282951978EB347F9B53ED2679F50E4E1","019d6637-18b7-7828-961c-7bcf1f9a4677","019d6630-2071-75cb-8026-6699844a2719","","null","
                <div class=""stimulus-container"">
                    <img src=""images/causal_sequence/dog_causal/dog_causal_ten.png"" class=""exp-image"">
                    <div class=""question-area""></div> 
                </div>","null","","","","","","","","","","","","",""
"","","","","","html-button-response","57","947377","0.0-57.0","282951978EB347F9B53ED2679F50E4E1","019d6637-18b7-7828-961c-7bcf1f9a4677","019d6630-2071-75cb-8026-6699844a2719","","1006","
                <div class=""stimulus-container"">
                    <img src=""images/causal_sequence/dog_causal/dog_causal_ten.png"" class=""exp-image"">
                    <div class=""question-area"">
                        <p style=""font-size: 20px; font-weight: bold; margin: 0;"">Is there a person in this image?</p>
                    </div>
                </div>","0","main_experiment_trial","ten","dog_causal","causal_sequence","chronological","","","","","","","",""
"","","","","","html-keyboard-response","58","952392","0.0-58.0","282951978EB347F9B53ED2679F50E4E1","019d6637-18b7-7828-961c-7bcf1f9a4677","019d6630-2071-75cb-8026-6699844a2719","","null","<div style=""background-color: white; width: 100vw; height: 100vh;""></div>","null","","","","","","","","","","","","",""
"","","","","","html-keyboard-response","59","957417","0.0-59.0","282951978EB347F9B53ED2679F50E4E1","019d6637-18b7-7828-961c-7bcf1f9a4677","019d6630-2071-75cb-8026-6699844a2719","","null","
                <div class=""stimulus-container"">
                    <img src=""images/semantic_sequence/housework_semantic/housework_semantic_1.png"" class=""exp-image"">
                    <div class=""question-area""></div> 
                </div>","null","","","","","","","","","","","","",""
"","","","","","html-button-response","60","958457","0.0-60.0","282951978EB347F9B53ED2679F50E4E1","019d6637-18b7-7828-961c-7bcf1f9a4677","019d6630-2071-75cb-8026-6699844a2719","","1036","
                <div class=""stimulus-container"">
                    <img src=""images/semantic_sequence/housework_semantic/housework_semantic_1.png"" class=""exp-image"">
                    <div class=""question-area"">
                        <p style=""font-size: 20px; font-weight: bold; margin: 0;"">Is there a person in this image?</p>
                    </div>
                </div>","1","main_experiment_trial","1","housework_semantic","semantic_sequence","chronological","","","","","","","",""
"","","","","","html-keyboard-response","61","963469","0.0-61.0","282951978EB347F9B53ED2679F50E4E1","019d6637-18b7-7828-961c-7bcf1f9a4677","019d6630-2071-75cb-8026-6699844a2719","","null","
                <div class=""stimulus-container"">
                    <img src=""images/semantic_sequence/housework_semantic/housework_semantic_2.png"" class=""exp-image"">
                    <div class=""question-area""></div> 
                </div>","null","","","","","","","","","","","","",""
"","","","","","html-button-response","62","964558","0.0-62.0","282951978EB347F9B53ED2679F50E4E1","019d6637-18b7-7828-961c-7bcf1f9a4677","019d6630-2071-75cb-8026-6699844a2719","","1088","
                <div class=""stimulus-container"">
                    <img src=""images/semantic_sequence/housework_semantic/housework_semantic_2.png"" class=""exp-image"">
                    <div class=""question-area"">
                        <p style=""font-size: 20px; font-weight: bold; margin: 0;"">Is there a person in this image?</p>
                    </div>
                </div>","0","main_experiment_trial","2","housework_semantic","semantic_sequence","chronological","","","","","","","",""
"","","","","","html-keyboard-response","63","969562","0.0-63.0","282951978EB347F9B53ED2679F50E4E1","019d6637-18b7-7828-961c-7bcf1f9a4677","019d6630-2071-75cb-8026-6699844a2719","","null","
                <div class=""stimulus-container"">
                    <img src=""images/semantic_sequence/housework_semantic/housework_semantic_3.png"" class=""exp-image"">
                    <div class=""question-area""></div> 
                </div>","null","","","","","","","","","","","","",""
"","","","","","html-button-response","64","970821","0.0-64.0","282951978EB347F9B53ED2679F50E4E1","019d6637-18b7-7828-961c-7bcf1f9a4677","019d6630-2071-75cb-8026-6699844a2719","","1259","
                <div class=""stimulus-container"">
                    <img src=""images/semantic_sequence/housework_semantic/housework_semantic_3.png"" class=""exp-image"">
                    <div class=""question-area"">
                        <p style=""font-size: 20px; font-weight: bold; margin: 0;"">Is there a person in this image?</p>
                    </div>
                </div>","0","main_experiment_trial","3","housework_semantic","semantic_sequence","chronological","","","","","","","",""
"","","","","","html-keyboard-response","65","975827","0.0-65.0","282951978EB347F9B53ED2679F50E4E1","019d6637-18b7-7828-961c-7bcf1f9a4677","019d6630-2071-75cb-8026-6699844a2719","","null","
                <div class=""stimulus-container"">
                    <img src=""images/semantic_sequence/housework_semantic/housework_semantic_4.png"" class=""exp-image"">
                    <div class=""question-area""></div> 
                </div>","null","","","","","","","","","","","","",""
"","","","","","html-button-response","66","977247","0.0-66.0","282951978EB347F9B53ED2679F50E4E1","019d6637-18b7-7828-961c-7bcf1f9a4677","019d6630-2071-75cb-8026-6699844a2719","","1415","
                <div class=""stimulus-container"">
                    <img src=""images/semantic_sequence/housework_semantic/housework_semantic_4.png"" class=""exp-image"">
                    <div class=""question-area"">
                        <p style=""font-size: 20px; font-weight: bold; margin: 0;"">Is there a person in this image?</p>
                    </div>
                </div>","0","main_experiment_trial","4","housework_semantic","semantic_sequence","chronological","","","","","","","",""
"","","","","","html-keyboard-response","67","982261","0.0-67.0","282951978EB347F9B53ED2679F50E4E1","019d6637-18b7-7828-961c-7bcf1f9a4677","019d6630-2071-75cb-8026-6699844a2719","","null","
                <div class=""stimulus-container"">
                    <img src=""images/semantic_sequence/housework_semantic/housework_semantic_5.png"" class=""exp-image"">
                    <div class=""question-area""></div> 
                </div>","null","","","","","","","","","","","","",""
"","","","","","html-button-response","68","983731","0.0-68.0","282951978EB347F9B53ED2679F50E4E1","019d6637-18b7-7828-961c-7bcf1f9a4677","019d6630-2071-75cb-8026-6699844a2719","","1465","
                <div class=""stimulus-container"">
                    <img src=""images/semantic_sequence/housework_semantic/housework_semantic_5.png"" class=""exp-image"">
                    <div class=""question-area"">
                        <p style=""font-size: 20px; font-weight: bold; margin: 0;"">Is there a person in this image?</p>
                    </div>
                </div>","0","main_experiment_trial","5","housework_semantic","semantic_sequence","chronological","","","","","","","",""
"","","","","","html-keyboard-response","69","988735","0.0-69.0","282951978EB347F9B53ED2679F50E4E1","019d6637-18b7-7828-961c-7bcf1f9a4677","019d6630-2071-75cb-8026-6699844a2719","","null","
                <div class=""stimulus-container"">
                    <img src=""images/semantic_sequence/housework_semantic/housework_semantic_6.png"" class=""exp-image"">
                    <div class=""question-area""></div> 
                </div>","null","","","","","","","","","","","","",""
"","","","","","html-button-response","70","990111","0.0-70.0","282951978EB347F9B53ED2679F50E4E1","019d6637-18b7-7828-961c-7bcf1f9a4677","019d6630-2071-75cb-8026-6699844a2719","","1372","
                <div class=""stimulus-container"">
                    <img src=""images/semantic_sequence/housework_semantic/housework_semantic_6.png"" class=""exp-image"">
                    <div class=""question-area"">
                        <p style=""font-size: 20px; font-weight: bold; margin: 0;"">Is there a person in this image?</p>
                    </div>
                </div>","0","main_experiment_trial","6","housework_semantic","semantic_sequence","chronological","","","","","","","",""
"","","","","","html-keyboard-response","71","995124","0.0-71.0","282951978EB347F9B53ED2679F50E4E1","019d6637-18b7-7828-961c-7bcf1f9a4677","019d6630-2071-75cb-8026-6699844a2719","","null","
                <div class=""stimulus-container"">
                    <img src=""images/semantic_sequence/housework_semantic/housework_semantic_7.png"" class=""exp-image"">
                    <div class=""question-area""></div> 
                </div>","null","","","","","","","","","","","","",""
"","","","","","html-button-response","72","996099","0.0-72.0","282951978EB347F9B53ED2679F50E4E1","019d6637-18b7-7828-961c-7bcf1f9a4677","019d6630-2071-75cb-8026-6699844a2719","","971","
                <div class=""stimulus-container"">
                    <img src=""images/semantic_sequence/housework_semantic/housework_semantic_7.png"" class=""exp-image"">
                    <div class=""question-area"">
                        <p style=""font-size: 20px; font-weight: bold; margin: 0;"">Is there a person in this image?</p>
                    </div>
                </div>","1","main_experiment_trial","7","housework_semantic","semantic_sequence","chronological","","","","","","","",""
"","","","","","html-keyboard-response","73","1001107","0.0-73.0","282951978EB347F9B53ED2679F50E4E1","019d6637-18b7-7828-961c-7bcf1f9a4677","019d6630-2071-75cb-8026-6699844a2719","","null","
                <div class=""stimulus-container"">
                    <img src=""images/semantic_sequence/housework_semantic/housework_semantic_8.png"" class=""exp-image"">
                    <div class=""question-area""></div> 
                </div>","null","","","","","","","","","","","","",""
"","","","","","html-button-response","74","1002115","0.0-74.0","282951978EB347F9B53ED2679F50E4E1","019d6637-18b7-7828-961c-7bcf1f9a4677","019d6630-2071-75cb-8026-6699844a2719","","1006","
                <div class=""stimulus-container"">
                    <img src=""images/semantic_sequence/housework_semantic/housework_semantic_8.png"" class=""exp-image"">
                    <div class=""question-area"">
                        <p style=""font-size: 20px; font-weight: bold; margin: 0;"">Is there a person in this image?</p>
                    </div>
                </div>","0","main_experiment_trial","8","housework_semantic","semantic_sequence","chronological","","","","","","","",""
"","","","","","html-keyboard-response","75","1007119","0.0-75.0","282951978EB347F9B53ED2679F50E4E1","019d6637-18b7-7828-961c-7bcf1f9a4677","019d6630-2071-75cb-8026-6699844a2719","","null","
                <div class=""stimulus-container"">
                    <img src=""images/semantic_sequence/housework_semantic/housework_semantic_9.png"" class=""exp-image"">
                    <div class=""question-area""></div> 
                </div>","null","","","","","","","","","","","","",""
"","","","","","html-button-response","76","1008810","0.0-76.0","282951978EB347F9B53ED2679F50E4E1","019d6637-18b7-7828-961c-7bcf1f9a4677","019d6630-2071-75cb-8026-6699844a2719","","1689","
                <div class=""stimulus-container"">
                    <img src=""images/semantic_sequence/housework_semantic/housework_semantic_9.png"" class=""exp-image"">
                    <div class=""question-area"">
                        <p style=""font-size: 20px; font-weight: bold; margin: 0;"">Is there a person in this image?</p>
                    </div>
                </div>","0","main_experiment_trial","9","housework_semantic","semantic_sequence","chronological","","","","","","","",""
"","","","","","html-keyboard-response","77","1013822","0.0-77.0","282951978EB347F9B53ED2679F50E4E1","019d6637-18b7-7828-961c-7bcf1f9a4677","019d6630-2071-75cb-8026-6699844a2719","","null","
                <div class=""stimulus-container"">
                    <img src=""images/semantic_sequence/housework_semantic/housework_semantic_ten.png"" class=""exp-image"">
                    <div class=""question-area""></div> 
                </div>","null","","","","","","","","","","","","",""
"","","","","","html-button-response","78","1014424","0.0-78.0","282951978EB347F9B53ED2679F50E4E1","019d6637-18b7-7828-961c-7bcf1f9a4677","019d6630-2071-75cb-8026-6699844a2719","","600","
                <div class=""stimulus-container"">
                    <img src=""images/semantic_sequence/housework_semantic/housework_semantic_ten.png"" class=""exp-image"">
                    <div class=""question-area"">
                        <p style=""font-size: 20px; font-weight: bold; margin: 0;"">Is there a person in this image?</p>
                    </div>
                </div>","0","main_experiment_trial","ten","housework_semantic","semantic_sequence","chronological","","","","","","","",""
"","","","","","html-keyboard-response","79","1019436","0.0-79.0","282951978EB347F9B53ED2679F50E4E1","019d6637-18b7-7828-961c-7bcf1f9a4677","019d6630-2071-75cb-8026-6699844a2719","","null","<div style=""background-color: white; width: 100vw; height: 100vh;""></div>","null","","","","","","","","","","","","",""
"","","","","","html-keyboard-response","80","1024437","0.0-80.0","282951978EB347F9B53ED2679F50E4E1","019d6637-18b7-7828-961c-7bcf1f9a4677","019d6630-2071-75cb-8026-6699844a2719","","null","
                <div class=""stimulus-container"">
                    <img src=""images/schematic_sequence/restaurant_scheme/restaurant_scheme_1.png"" class=""exp-image"">
                    <div class=""question-area""></div> 
                </div>","null","","","","","","","","","","","","",""
"","","","","","html-button-response","81","1026002","0.0-81.0","282951978EB347F9B53ED2679F50E4E1","019d6637-18b7-7828-961c-7bcf1f9a4677","019d6630-2071-75cb-8026-6699844a2719","","1562","
                <div class=""stimulus-container"">
                    <img src=""images/schematic_sequence/restaurant_scheme/restaurant_scheme_1.png"" class=""exp-image"">
                    <div class=""question-area"">
                        <p style=""font-size: 20px; font-weight: bold; margin: 0;"">Is there a person in this image?</p>
                    </div>
                </div>","0","main_experiment_trial","1","restaurant_scheme","schematic_sequence","chronological","","","","","","","",""
"","","","","","html-keyboard-response","82","1031010","0.0-82.0","282951978EB347F9B53ED2679F50E4E1","019d6637-18b7-7828-961c-7bcf1f9a4677","019d6630-2071-75cb-8026-6699844a2719","","null","
                <div class=""stimulus-container"">
                    <img src=""images/schematic_sequence/restaurant_scheme/restaurant_scheme_2.png"" class=""exp-image"">
                    <div class=""question-area""></div> 
                </div>","null","","","","","","","","","","","","",""
"","","","","","html-button-response","83","1032166","0.0-83.0","282951978EB347F9B53ED2679F50E4E1","019d6637-18b7-7828-961c-7bcf1f9a4677","019d6630-2071-75cb-8026-6699844a2719","","1153","
                <div class=""stimulus-container"">
                    <img src=""images/schematic_sequence/restaurant_scheme/restaurant_scheme_2.png"" class=""exp-image"">
                    <div class=""question-area"">
                        <p style=""font-size: 20px; font-weight: bold; margin: 0;"">Is there a person in this image?</p>
                    </div>
                </div>","1","main_experiment_trial","2","restaurant_scheme","schematic_sequence","chronological","","","","","","","",""
"","","","","","html-keyboard-response","84","1037170","0.0-84.0","282951978EB347F9B53ED2679F50E4E1","019d6637-18b7-7828-961c-7bcf1f9a4677","019d6630-2071-75cb-8026-6699844a2719","","null","
                <div class=""stimulus-container"">
                    <img src=""images/schematic_sequence/restaurant_scheme/restaurant_scheme_3.png"" class=""exp-image"">
                    <div class=""question-area""></div> 
                </div>","null","","","","","","","","","","","","",""
"","","","","","html-button-response","85","1038127","0.0-85.0","282951978EB347F9B53ED2679F50E4E1","019d6637-18b7-7828-961c-7bcf1f9a4677","019d6630-2071-75cb-8026-6699844a2719","","953","
                <div class=""stimulus-container"">
                    <img src=""images/schematic_sequence/restaurant_scheme/restaurant_scheme_3.png"" class=""exp-image"">
                    <div class=""question-area"">
                        <p style=""font-size: 20px; font-weight: bold; margin: 0;"">Is there a person in this image?</p>
                    </div>
                </div>","1","main_experiment_trial","3","restaurant_scheme","schematic_sequence","chronological","","","","","","","",""
"","","","","","html-keyboard-response","86","1043136","0.0-86.0","282951978EB347F9B53ED2679F50E4E1","019d6637-18b7-7828-961c-7bcf1f9a4677","019d6630-2071-75cb-8026-6699844a2719","","null","
                <div class=""stimulus-container"">
                    <img src=""images/schematic_sequence/restaurant_scheme/restaurant_scheme_4.png"" class=""exp-image"">
                    <div class=""question-area""></div> 
                </div>","null","","","","","","","","","","","","",""
"","","","","","html-button-response","87","1043853","0.0-87.0","282951978EB347F9B53ED2679F50E4E1","019d6637-18b7-7828-961c-7bcf1f9a4677","019d6630-2071-75cb-8026-6699844a2719","","714","
                <div class=""stimulus-container"">
                    <img src=""images/schematic_sequence/restaurant_scheme/restaurant_scheme_4.png"" class=""exp-image"">
                    <div class=""question-area"">
                        <p style=""font-size: 20px; font-weight: bold; margin: 0;"">Is there a person in this image?</p>
                    </div>
                </div>","0","main_experiment_trial","4","restaurant_scheme","schematic_sequence","chronological","","","","","","","",""
"","","","","","html-keyboard-response","88","1048866","0.0-88.0","282951978EB347F9B53ED2679F50E4E1","019d6637-18b7-7828-961c-7bcf1f9a4677","019d6630-2071-75cb-8026-6699844a2719","","null","
                <div class=""stimulus-container"">
                    <img src=""images/schematic_sequence/restaurant_scheme/restaurant_scheme_5.png"" class=""exp-image"">
                    <div class=""question-area""></div> 
                </div>","null","","","","","","","","","","","","",""
"","","","","","html-button-response","89","1050130","0.0-89.0","282951978EB347F9B53ED2679F50E4E1","019d6637-18b7-7828-961c-7bcf1f9a4677","019d6630-2071-75cb-8026-6699844a2719","","1261","
                <div class=""stimulus-container"">
                    <img src=""images/schematic_sequence/restaurant_scheme/restaurant_scheme_5.png"" class=""exp-image"">
                    <div class=""question-area"">
                        <p style=""font-size: 20px; font-weight: bold; margin: 0;"">Is there a person in this image?</p>
                    </div>
                </div>","0","main_experiment_trial","5","restaurant_scheme","schematic_sequence","chronological","","","","","","","",""
"","","","","","html-keyboard-response","90","1055138","0.0-90.0","282951978EB347F9B53ED2679F50E4E1","019d6637-18b7-7828-961c-7bcf1f9a4677","019d6630-2071-75cb-8026-6699844a2719","","null","
                <div class=""stimulus-container"">
                    <img src=""images/schematic_sequence/restaurant_scheme/restaurant_scheme_6.png"" class=""exp-image"">
                    <div class=""question-area""></div> 
                </div>","null","","","","","","","","","","","","",""
"","","","","","html-button-response","91","1056246","0.0-91.0","282951978EB347F9B53ED2679F50E4E1","019d6637-18b7-7828-961c-7bcf1f9a4677","019d6630-2071-75cb-8026-6699844a2719","","1105","
                <div class=""stimulus-container"">
                    <img src=""images/schematic_sequence/restaurant_scheme/restaurant_scheme_6.png"" class=""exp-image"">
                    <div class=""question-area"">
                        <p style=""font-size: 20px; font-weight: bold; margin: 0;"">Is there a person in this image?</p>
                    </div>
                </div>","1","main_experiment_trial","6","restaurant_scheme","schematic_sequence","chronological","","","","","","","",""
"","","","","","html-keyboard-response","92","1061249","0.0-92.0","282951978EB347F9B53ED2679F50E4E1","019d6637-18b7-7828-961c-7bcf1f9a4677","019d6630-2071-75cb-8026-6699844a2719","","null","
                <div class=""stimulus-container"">
                    <img src=""images/schematic_sequence/restaurant_scheme/restaurant_scheme_7.png"" class=""exp-image"">
                    <div class=""question-area""></div> 
                </div>","null","","","","","","","","","","","","",""
"","","","","","html-button-response","93","1062180","0.0-93.0","282951978EB347F9B53ED2679F50E4E1","019d6637-18b7-7828-961c-7bcf1f9a4677","019d6630-2071-75cb-8026-6699844a2719","","926","
                <div class=""stimulus-container"">
                    <img src=""images/schematic_sequence/restaurant_scheme/restaurant_scheme_7.png"" class=""exp-image"">
                    <div class=""question-area"">
                        <p style=""font-size: 20px; font-weight: bold; margin: 0;"">Is there a person in this image?</p>
                    </div>
                </div>","1","main_experiment_trial","7","restaurant_scheme","schematic_sequence","chronological","","","","","","","",""
"","","","","","html-keyboard-response","94","1067187","0.0-94.0","282951978EB347F9B53ED2679F50E4E1","019d6637-18b7-7828-961c-7bcf1f9a4677","019d6630-2071-75cb-8026-6699844a2719","","null","
                <div class=""stimulus-container"">
                    <img src=""images/schematic_sequence/restaurant_scheme/restaurant_scheme_8.png"" class=""exp-image"">
                    <div class=""question-area""></div> 
                </div>","null","","","","","","","","","","","","",""
"","","","","","html-button-response","95","1068003","0.0-95.0","282951978EB347F9B53ED2679F50E4E1","019d6637-18b7-7828-961c-7bcf1f9a4677","019d6630-2071-75cb-8026-6699844a2719","","812","
                <div class=""stimulus-container"">
                    <img src=""images/schematic_sequence/restaurant_scheme/restaurant_scheme_8.png"" class=""exp-image"">
                    <div class=""question-area"">
                        <p style=""font-size: 20px; font-weight: bold; margin: 0;"">Is there a person in this image?</p>
                    </div>
                </div>","1","main_experiment_trial","8","restaurant_scheme","schematic_sequence","chronological","","","","","","","",""
"","","","","","html-keyboard-response","96","1073012","0.0-96.0","282951978EB347F9B53ED2679F50E4E1","019d6637-18b7-7828-961c-7bcf1f9a4677","019d6630-2071-75cb-8026-6699844a2719","","null","
                <div class=""stimulus-container"">
                    <img src=""images/schematic_sequence/restaurant_scheme/restaurant_scheme_9.png"" class=""exp-image"">
                    <div class=""question-area""></div> 
                </div>","null","","","","","","","","","","","","",""
"","","","","","html-button-response","97","1075163","0.0-97.0","282951978EB347F9B53ED2679F50E4E1","019d6637-18b7-7828-961c-7bcf1f9a4677","019d6630-2071-75cb-8026-6699844a2719","","2147","
                <div class=""stimulus-container"">
                    <img src=""images/schematic_sequence/restaurant_scheme/restaurant_scheme_9.png"" class=""exp-image"">
                    <div class=""question-area"">
                        <p style=""font-size: 20px; font-weight: bold; margin: 0;"">Is there a person in this image?</p>
                    </div>
                </div>","1","main_experiment_trial","9","restaurant_scheme","schematic_sequence","chronological","","","","","","","",""
"","","","","","html-keyboard-response","98","1080170","0.0-98.0","282951978EB347F9B53ED2679F50E4E1","019d6637-18b7-7828-961c-7bcf1f9a4677","019d6630-2071-75cb-8026-6699844a2719","","null","
                <div class=""stimulus-container"">
                    <img src=""images/schematic_sequence/restaurant_scheme/restaurant_scheme_ten.png"" class=""exp-image"">
                    <div class=""question-area""></div> 
                </div>","null","","","","","","","","","","","","",""
"","","","","","html-button-response","99","1081396","0.0-99.0","282951978EB347F9B53ED2679F50E4E1","019d6637-18b7-7828-961c-7bcf1f9a4677","019d6630-2071-75cb-8026-6699844a2719","","1221","
                <div class=""stimulus-container"">
                    <img src=""images/schematic_sequence/restaurant_scheme/restaurant_scheme_ten.png"" class=""exp-image"">
                    <div class=""question-area"">
                        <p style=""font-size: 20px; font-weight: bold; margin: 0;"">Is there a person in this image?</p>
                    </div>
                </div>","0","main_experiment_trial","ten","restaurant_scheme","schematic_sequence","chronological","","","","","","","",""
"","","","","","html-keyboard-response","100","1086421","0.0-100.0","282951978EB347F9B53ED2679F50E4E1","019d6637-18b7-7828-961c-7bcf1f9a4677","019d6630-2071-75cb-8026-6699844a2719","","null","<div style=""background-color: white; width: 100vw; height: 100vh;""></div>","null","","","","","","","","","","","","",""
"","","","","","html-keyboard-response","101","1091435","0.0-101.0","282951978EB347F9B53ED2679F50E4E1","019d6637-18b7-7828-961c-7bcf1f9a4677","019d6630-2071-75cb-8026-6699844a2719","","null","
                <div class=""stimulus-container"">
                    <img src=""images/schematic_sequence/flight_scheme/flight_scheme_1.png"" class=""exp-image"">
                    <div class=""question-area""></div> 
                </div>","null","","","","","","","","","","","","",""
"","","","","","html-button-response","102","1093401","0.0-102.0","282951978EB347F9B53ED2679F50E4E1","019d6637-18b7-7828-961c-7bcf1f9a4677","019d6630-2071-75cb-8026-6699844a2719","","1963","
                <div class=""stimulus-container"">
                    <img src=""images/schematic_sequence/flight_scheme/flight_scheme_1.png"" class=""exp-image"">
                    <div class=""question-area"">
                        <p style=""font-size: 20px; font-weight: bold; margin: 0;"">Is there a person in this image?</p>
                    </div>
                </div>","1","main_experiment_trial","1","flight_scheme","schematic_sequence","chronological","","","","","","","",""
"","","","","","html-keyboard-response","103","1098417","0.0-103.0","282951978EB347F9B53ED2679F50E4E1","019d6637-18b7-7828-961c-7bcf1f9a4677","019d6630-2071-75cb-8026-6699844a2719","","null","
                <div class=""stimulus-container"">
                    <img src=""images/schematic_sequence/flight_scheme/flight_scheme_2.png"" class=""exp-image"">
                    <div class=""question-area""></div> 
                </div>","null","","","","","","","","","","","","",""
"","","","","","html-button-response","104","1099470","0.0-104.0","282951978EB347F9B53ED2679F50E4E1","019d6637-18b7-7828-961c-7bcf1f9a4677","019d6630-2071-75cb-8026-6699844a2719","","1048","
                <div class=""stimulus-container"">
                    <img src=""images/schematic_sequence/flight_scheme/flight_scheme_2.png"" class=""exp-image"">
                    <div class=""question-area"">
                        <p style=""font-size: 20px; font-weight: bold; margin: 0;"">Is there a person in this image?</p>
                    </div>
                </div>","1","main_experiment_trial","2","flight_scheme","schematic_sequence","chronological","","","","","","","",""
"","","","","","html-keyboard-response","105","1104481","0.0-105.0","282951978EB347F9B53ED2679F50E4E1","019d6637-18b7-7828-961c-7bcf1f9a4677","019d6630-2071-75cb-8026-6699844a2719","","null","
                <div class=""stimulus-container"">
                    <img src=""images/schematic_sequence/flight_scheme/flight_scheme_3.png"" class=""exp-image"">
                    <div class=""question-area""></div> 
                </div>","null","","","","","","","","","","","","",""
"","","","","","html-button-response","106","1105341","0.0-106.0","282951978EB347F9B53ED2679F50E4E1","019d6637-18b7-7828-961c-7bcf1f9a4677","019d6630-2071-75cb-8026-6699844a2719","","854","
                <div class=""stimulus-container"">
                    <img src=""images/schematic_sequence/flight_scheme/flight_scheme_3.png"" class=""exp-image"">
                    <div class=""question-area"">
                        <p style=""font-size: 20px; font-weight: bold; margin: 0;"">Is there a person in this image?</p>
                    </div>
                </div>","0","main_experiment_trial","3","flight_scheme","schematic_sequence","chronological","","","","","","","",""
"","","","","","html-keyboard-response","107","1110345","0.0-107.0","282951978EB347F9B53ED2679F50E4E1","019d6637-18b7-7828-961c-7bcf1f9a4677","019d6630-2071-75cb-8026-6699844a2719","","null","
                <div class=""stimulus-container"">
                    <img src=""images/schematic_sequence/flight_scheme/flight_scheme_4.png"" class=""exp-image"">
                    <div class=""question-area""></div> 
                </div>","null","","","","","","","","","","","","",""
"","","","","","html-button-response","108","1112014","0.0-108.0","282951978EB347F9B53ED2679F50E4E1","019d6637-18b7-7828-961c-7bcf1f9a4677","019d6630-2071-75cb-8026-6699844a2719","","1666","
                <div class=""stimulus-container"">
                    <img src=""images/schematic_sequence/flight_scheme/flight_scheme_4.png"" class=""exp-image"">
                    <div class=""question-area"">
                        <p style=""font-size: 20px; font-weight: bold; margin: 0;"">Is there a person in this image?</p>
                    </div>
                </div>","0","main_experiment_trial","4","flight_scheme","schematic_sequence","chronological","","","","","","","",""
"","","","","","html-keyboard-response","109","1117029","0.0-109.0","282951978EB347F9B53ED2679F50E4E1","019d6637-18b7-7828-961c-7bcf1f9a4677","019d6630-2071-75cb-8026-6699844a2719","","null","
                <div class=""stimulus-container"">
                    <img src=""images/schematic_sequence/flight_scheme/flight_scheme_5.png"" class=""exp-image"">
                    <div class=""question-area""></div> 
                </div>","null","","","","","","","","","","","","",""
"","","","","","html-button-response","110","1117954","0.0-110.0","282951978EB347F9B53ED2679F50E4E1","019d6637-18b7-7828-961c-7bcf1f9a4677","019d6630-2071-75cb-8026-6699844a2719","","922","
                <div class=""stimulus-container"">
                    <img src=""images/schematic_sequence/flight_scheme/flight_scheme_5.png"" class=""exp-image"">
                    <div class=""question-area"">
                        <p style=""font-size: 20px; font-weight: bold; margin: 0;"">Is there a person in this image?</p>
                    </div>
                </div>","0","main_experiment_trial","5","flight_scheme","schematic_sequence","chronological","","","","","","","",""
"","","","","","html-keyboard-response","111","1122964","0.0-111.0","282951978EB347F9B53ED2679F50E4E1","019d6637-18b7-7828-961c-7bcf1f9a4677","019d6630-2071-75cb-8026-6699844a2719","","null","
                <div class=""stimulus-container"">
                    <img src=""images/schematic_sequence/flight_scheme/flight_scheme_6.png"" class=""exp-image"">
                    <div class=""question-area""></div> 
                </div>","null","","","","","","","","","","","","",""
"","","","","","html-button-response","112","1123858","0.0-112.0","282951978EB347F9B53ED2679F50E4E1","019d6637-18b7-7828-961c-7bcf1f9a4677","019d6630-2071-75cb-8026-6699844a2719","","889","
                <div class=""stimulus-container"">
                    <img src=""images/schematic_sequence/flight_scheme/flight_scheme_6.png"" class=""exp-image"">
                    <div class=""question-area"">
                        <p style=""font-size: 20px; font-weight: bold; margin: 0;"">Is there a person in this image?</p>
                    </div>
                </div>","1","main_experiment_trial","6","flight_scheme","schematic_sequence","chronological","","","","","","","",""
"","","","","","html-keyboard-response","113","1128865","0.0-113.0","282951978EB347F9B53ED2679F50E4E1","019d6637-18b7-7828-961c-7bcf1f9a4677","019d6630-2071-75cb-8026-6699844a2719","","null","
                <div class=""stimulus-container"">
                    <img src=""images/schematic_sequence/flight_scheme/flight_scheme_7.png"" class=""exp-image"">
                    <div class=""question-area""></div> 
                </div>","null","","","","","","","","","","","","",""
"","","","","","html-button-response","114","1129970","0.0-114.0","282951978EB347F9B53ED2679F50E4E1","019d6637-18b7-7828-961c-7bcf1f9a4677","019d6630-2071-75cb-8026-6699844a2719","","1102","
                <div class=""stimulus-container"">
                    <img src=""images/schematic_sequence/flight_scheme/flight_scheme_7.png"" class=""exp-image"">
                    <div class=""question-area"">
                        <p style=""font-size: 20px; font-weight: bold; margin: 0;"">Is there a person in this image?</p>
                    </div>
                </div>","1","main_experiment_trial","7","flight_scheme","schematic_sequence","chronological","","","","","","","",""
"","","","","","html-keyboard-response","115","1134978","0.0-115.0","282951978EB347F9B53ED2679F50E4E1","019d6637-18b7-7828-961c-7bcf1f9a4677","019d6630-2071-75cb-8026-6699844a2719","","null","
                <div class=""stimulus-container"">
                    <img src=""images/schematic_sequence/flight_scheme/flight_scheme_8.png"" class=""exp-image"">
                    <div class=""question-area""></div> 
                </div>","null","","","","","","","","","","","","",""
"","","","","","html-button-response","116","1136592","0.0-116.0","282951978EB347F9B53ED2679F50E4E1","019d6637-18b7-7828-961c-7bcf1f9a4677","019d6630-2071-75cb-8026-6699844a2719","","1612","
                <div class=""stimulus-container"">
                    <img src=""images/schematic_sequence/flight_scheme/flight_scheme_8.png"" class=""exp-image"">
                    <div class=""question-area"">
                        <p style=""font-size: 20px; font-weight: bold; margin: 0;"">Is there a person in this image?</p>
                    </div>
                </div>","1","main_experiment_trial","8","flight_scheme","schematic_sequence","chronological","","","","","","","",""
"","","","","","html-keyboard-response","117","1141604","0.0-117.0","282951978EB347F9B53ED2679F50E4E1","019d6637-18b7-7828-961c-7bcf1f9a4677","019d6630-2071-75cb-8026-6699844a2719","","null","
                <div class=""stimulus-container"">
                    <img src=""images/schematic_sequence/flight_scheme/flight_scheme_9.png"" class=""exp-image"">
                    <div class=""question-area""></div> 
                </div>","null","","","","","","","","","","","","",""
"","","","","","html-button-response","118","1142302","0.0-118.0","282951978EB347F9B53ED2679F50E4E1","019d6637-18b7-7828-961c-7bcf1f9a4677","019d6630-2071-75cb-8026-6699844a2719","","697","
                <div class=""stimulus-container"">
                    <img src=""images/schematic_sequence/flight_scheme/flight_scheme_9.png"" class=""exp-image"">
                    <div class=""question-area"">
                        <p style=""font-size: 20px; font-weight: bold; margin: 0;"">Is there a person in this image?</p>
                    </div>
                </div>","0","main_experiment_trial","9","flight_scheme","schematic_sequence","chronological","","","","","","","",""
"","","","","","html-keyboard-response","119","1147304","0.0-119.0","282951978EB347F9B53ED2679F50E4E1","019d6637-18b7-7828-961c-7bcf1f9a4677","019d6630-2071-75cb-8026-6699844a2719","","null","
                <div class=""stimulus-container"">
                    <img src=""images/schematic_sequence/flight_scheme/flight_scheme_ten.png"" class=""exp-image"">
                    <div class=""question-area""></div> 
                </div>","null","","","","","","","","","","","","",""
"","","","","","html-button-response","120","1148244","0.0-120.0","282951978EB347F9B53ED2679F50E4E1","019d6637-18b7-7828-961c-7bcf1f9a4677","019d6630-2071-75cb-8026-6699844a2719","","937","
                <div class=""stimulus-container"">
                    <img src=""images/schematic_sequence/flight_scheme/flight_scheme_ten.png"" class=""exp-image"">
                    <div class=""question-area"">
                        <p style=""font-size: 20px; font-weight: bold; margin: 0;"">Is there a person in this image?</p>
                    </div>
                </div>","0","main_experiment_trial","ten","flight_scheme","schematic_sequence","chronological","","","","","","","",""
"","","","","","html-keyboard-response","121","1153249","0.0-121.0","282951978EB347F9B53ED2679F50E4E1","019d6637-18b7-7828-961c-7bcf1f9a4677","019d6630-2071-75cb-8026-6699844a2719","","null","<div style=""background-color: white; width: 100vw; height: 100vh;""></div>","null","","","","","","","","","","","","",""
"","","","","","html-keyboard-response","122","1158260","0.0-122.0","282951978EB347F9B53ED2679F50E4E1","019d6637-18b7-7828-961c-7bcf1f9a4677","019d6630-2071-75cb-8026-6699844a2719","","null","
                <div class=""stimulus-container"">
                    <img src=""images/semantic_sequence/physical_activity_semantic/physical_activity_semantic_1.png"" class=""exp-image"">
                    <div class=""question-area""></div> 
                </div>","null","","","","","","","","","","","","",""
"","","","","","html-button-response","123","1159499","0.0-123.0","282951978EB347F9B53ED2679F50E4E1","019d6637-18b7-7828-961c-7bcf1f9a4677","019d6630-2071-75cb-8026-6699844a2719","","1236","
                <div class=""stimulus-container"">
                    <img src=""images/semantic_sequence/physical_activity_semantic/physical_activity_semantic_1.png"" class=""exp-image"">
                    <div class=""question-area"">
                        <p style=""font-size: 20px; font-weight: bold; margin: 0;"">Is there a person in this image?</p>
                    </div>
                </div>","0","main_experiment_trial","1","physical_activity_semantic","semantic_sequence","chronological","","","","","","","",""
"","","","","","html-keyboard-response","124","1164511","0.0-124.0","282951978EB347F9B53ED2679F50E4E1","019d6637-18b7-7828-961c-7bcf1f9a4677","019d6630-2071-75cb-8026-6699844a2719","","null","
                <div class=""stimulus-container"">
                    <img src=""images/semantic_sequence/physical_activity_semantic/physical_activity_semantic_2.png"" class=""exp-image"">
                    <div class=""question-area""></div> 
                </div>","null","","","","","","","","","","","","",""
"","","","","","html-button-response","125","1166228","0.0-125.0","282951978EB347F9B53ED2679F50E4E1","019d6637-18b7-7828-961c-7bcf1f9a4677","019d6630-2071-75cb-8026-6699844a2719","","1714","
                <div class=""stimulus-container"">
                    <img src=""images/semantic_sequence/physical_activity_semantic/physical_activity_semantic_2.png"" class=""exp-image"">
                    <div class=""question-area"">
                        <p style=""font-size: 20px; font-weight: bold; margin: 0;"">Is there a person in this image?</p>
                    </div>
                </div>","0","main_experiment_trial","2","physical_activity_semantic","semantic_sequence","chronological","","","","","","","",""
"","","","","","html-keyboard-response","126","1171233","0.0-126.0","282951978EB347F9B53ED2679F50E4E1","019d6637-18b7-7828-961c-7bcf1f9a4677","019d6630-2071-75cb-8026-6699844a2719","","null","
                <div class=""stimulus-container"">
                    <img src=""images/semantic_sequence/physical_activity_semantic/physical_activity_semantic_3.png"" class=""exp-image"">
                    <div class=""question-area""></div> 
                </div>","null","","","","","","","","","","","","",""
"","","","","","html-button-response","127","1172229","0.0-127.0","282951978EB347F9B53ED2679F50E4E1","019d6637-18b7-7828-961c-7bcf1f9a4677","019d6630-2071-75cb-8026-6699844a2719","","994","
                <div class=""stimulus-container"">
                    <img src=""images/semantic_sequence/physical_activity_semantic/physical_activity_semantic_3.png"" class=""exp-image"">
                    <div class=""question-area"">
                        <p style=""font-size: 20px; font-weight: bold; margin: 0;"">Is there a person in this image?</p>
                    </div>
                </div>","0","main_experiment_trial","3","physical_activity_semantic","semantic_sequence","chronological","","","","","","","",""
"","","","","","html-keyboard-response","128","1177246","0.0-128.0","282951978EB347F9B53ED2679F50E4E1","019d6637-18b7-7828-961c-7bcf1f9a4677","019d6630-2071-75cb-8026-6699844a2719","","null","
                <div class=""stimulus-container"">
                    <img src=""images/semantic_sequence/physical_activity_semantic/physical_activity_semantic_4.png"" class=""exp-image"">
                    <div class=""question-area""></div> 
                </div>","null","","","","","","","","","","","","",""
"","","","","","html-button-response","129","1178398","0.0-129.0","282951978EB347F9B53ED2679F50E4E1","019d6637-18b7-7828-961c-7bcf1f9a4677","019d6630-2071-75cb-8026-6699844a2719","","1149","
                <div class=""stimulus-container"">
                    <img src=""images/semantic_sequence/physical_activity_semantic/physical_activity_semantic_4.png"" class=""exp-image"">
                    <div class=""question-area"">
                        <p style=""font-size: 20px; font-weight: bold; margin: 0;"">Is there a person in this image?</p>
                    </div>
                </div>","0","main_experiment_trial","4","physical_activity_semantic","semantic_sequence","chronological","","","","","","","",""
"","","","","","html-keyboard-response","130","1183420","0.0-130.0","282951978EB347F9B53ED2679F50E4E1","019d6637-18b7-7828-961c-7bcf1f9a4677","019d6630-2071-75cb-8026-6699844a2719","","null","
                <div class=""stimulus-container"">
                    <img src=""images/semantic_sequence/physical_activity_semantic/physical_activity_semantic_5.png"" class=""exp-image"">
                    <div class=""question-area""></div> 
                </div>","null","","","","","","","","","","","","",""
"","","","","","html-button-response","131","1184839","0.0-131.0","282951978EB347F9B53ED2679F50E4E1","019d6637-18b7-7828-961c-7bcf1f9a4677","019d6630-2071-75cb-8026-6699844a2719","","1418","
                <div class=""stimulus-container"">
                    <img src=""images/semantic_sequence/physical_activity_semantic/physical_activity_semantic_5.png"" class=""exp-image"">
                    <div class=""question-area"">
                        <p style=""font-size: 20px; font-weight: bold; margin: 0;"">Is there a person in this image?</p>
                    </div>
                </div>","0","main_experiment_trial","5","physical_activity_semantic","semantic_sequence","chronological","","","","","","","",""
"","","","","","html-keyboard-response","132","1189852","0.0-132.0","282951978EB347F9B53ED2679F50E4E1","019d6637-18b7-7828-961c-7bcf1f9a4677","019d6630-2071-75cb-8026-6699844a2719","","null","
                <div class=""stimulus-container"">
                    <img src=""images/semantic_sequence/physical_activity_semantic/physical_activity_semantic_6.png"" class=""exp-image"">
                    <div class=""question-area""></div> 
                </div>","null","","","","","","","","","","","","",""
"","","","","","html-button-response","133","1190804","0.0-133.0","282951978EB347F9B53ED2679F50E4E1","019d6637-18b7-7828-961c-7bcf1f9a4677","019d6630-2071-75cb-8026-6699844a2719","","948","
                <div class=""stimulus-container"">
                    <img src=""images/semantic_sequence/physical_activity_semantic/physical_activity_semantic_6.png"" class=""exp-image"">
                    <div class=""question-area"">
                        <p style=""font-size: 20px; font-weight: bold; margin: 0;"">Is there a person in this image?</p>
                    </div>
                </div>","0","main_experiment_trial","6","physical_activity_semantic","semantic_sequence","chronological","","","","","","","",""
"","","","","","html-keyboard-response","134","1195817","0.0-134.0","282951978EB347F9B53ED2679F50E4E1","019d6637-18b7-7828-961c-7bcf1f9a4677","019d6630-2071-75cb-8026-6699844a2719","","null","
                <div class=""stimulus-container"">
                    <img src=""images/semantic_sequence/physical_activity_semantic/physical_activity_semantic_7.png"" class=""exp-image"">
                    <div class=""question-area""></div> 
                </div>","null","","","","","","","","","","","","",""
"","","","","","html-button-response","135","1197871","0.0-135.0","282951978EB347F9B53ED2679F50E4E1","019d6637-18b7-7828-961c-7bcf1f9a4677","019d6630-2071-75cb-8026-6699844a2719","","2052","
                <div class=""stimulus-container"">
                    <img src=""images/semantic_sequence/physical_activity_semantic/physical_activity_semantic_7.png"" class=""exp-image"">
                    <div class=""question-area"">
                        <p style=""font-size: 20px; font-weight: bold; margin: 0;"">Is there a person in this image?</p>
                    </div>
                </div>","0","main_experiment_trial","7","physical_activity_semantic","semantic_sequence","chronological","","","","","","","",""
"","","","","","html-keyboard-response","136","1202894","0.0-136.0","282951978EB347F9B53ED2679F50E4E1","019d6637-18b7-7828-961c-7bcf1f9a4677","019d6630-2071-75cb-8026-6699844a2719","","null","
                <div class=""stimulus-container"">
                    <img src=""images/semantic_sequence/physical_activity_semantic/physical_activity_semantic_8.png"" class=""exp-image"">
                    <div class=""question-area""></div> 
                </div>","null","","","","","","","","","","","","",""
"","","","","","html-button-response","137","1204338","0.0-137.0","282951978EB347F9B53ED2679F50E4E1","019d6637-18b7-7828-961c-7bcf1f9a4677","019d6630-2071-75cb-8026-6699844a2719","","1440","
                <div class=""stimulus-container"">
                    <img src=""images/semantic_sequence/physical_activity_semantic/physical_activity_semantic_8.png"" class=""exp-image"">
                    <div class=""question-area"">
                        <p style=""font-size: 20px; font-weight: bold; margin: 0;"">Is there a person in this image?</p>
                    </div>
                </div>","0","main_experiment_trial","8","physical_activity_semantic","semantic_sequence","chronological","","","","","","","",""
"","","","","","html-keyboard-response","138","1209354","0.0-138.0","282951978EB347F9B53ED2679F50E4E1","019d6637-18b7-7828-961c-7bcf1f9a4677","019d6630-2071-75cb-8026-6699844a2719","","null","
                <div class=""stimulus-container"">
                    <img src=""images/semantic_sequence/physical_activity_semantic/physical_activity_semantic_9.png"" class=""exp-image"">
                    <div class=""question-area""></div> 
                </div>","null","","","","","","","","","","","","",""
"","","","","","html-button-response","139","1211440","0.0-139.0","282951978EB347F9B53ED2679F50E4E1","019d6637-18b7-7828-961c-7bcf1f9a4677","019d6630-2071-75cb-8026-6699844a2719","","2082","
                <div class=""stimulus-container"">
                    <img src=""images/semantic_sequence/physical_activity_semantic/physical_activity_semantic_9.png"" class=""exp-image"">
                    <div class=""question-area"">
                        <p style=""font-size: 20px; font-weight: bold; margin: 0;"">Is there a person in this image?</p>
                    </div>
                </div>","0","main_experiment_trial","9","physical_activity_semantic","semantic_sequence","chronological","","","","","","","",""
"","","","","","html-keyboard-response","140","1216448","0.0-140.0","282951978EB347F9B53ED2679F50E4E1","019d6637-18b7-7828-961c-7bcf1f9a4677","019d6630-2071-75cb-8026-6699844a2719","","null","
                <div class=""stimulus-container"">
                    <img src=""images/semantic_sequence/physical_activity_semantic/physical_activity_semantic_ten.png"" class=""exp-image"">
                    <div class=""question-area""></div> 
                </div>","null","","","","","","","","","","","","",""
"","","","","","html-button-response","141","1218124","0.0-141.0","282951978EB347F9B53ED2679F50E4E1","019d6637-18b7-7828-961c-7bcf1f9a4677","019d6630-2071-75cb-8026-6699844a2719","","1672","
                <div class=""stimulus-container"">
                    <img src=""images/semantic_sequence/physical_activity_semantic/physical_activity_semantic_ten.png"" class=""exp-image"">
                    <div class=""question-area"">
                        <p style=""font-size: 20px; font-weight: bold; margin: 0;"">Is there a person in this image?</p>
                    </div>
                </div>","0","main_experiment_trial","ten","physical_activity_semantic","semantic_sequence","chronological","","","","","","","",""
"","","","","","html-keyboard-response","142","1223137","0.0-142.0","282951978EB347F9B53ED2679F50E4E1","019d6637-18b7-7828-961c-7bcf1f9a4677","019d6630-2071-75cb-8026-6699844a2719","","null","<div style=""background-color: white; width: 100vw; height: 100vh;""></div>","null","","","","","","","","","","","","",""
"","","","","","html-keyboard-response","143","1228150","0.0-143.0","282951978EB347F9B53ED2679F50E4E1","019d6637-18b7-7828-961c-7bcf1f9a4677","019d6630-2071-75cb-8026-6699844a2719","","null","
                <div class=""stimulus-container"">
                    <img src=""images/schematic_sequence/interview_scheme/interview_scheme_1.png"" class=""exp-image"">
                    <div class=""question-area""></div> 
                </div>","null","","","","","","","","","","","","",""
"","","","","","html-button-response","144","1230709","0.0-144.0","282951978EB347F9B53ED2679F50E4E1","019d6637-18b7-7828-961c-7bcf1f9a4677","019d6630-2071-75cb-8026-6699844a2719","","2555","
                <div class=""stimulus-container"">
                    <img src=""images/schematic_sequence/interview_scheme/interview_scheme_1.png"" class=""exp-image"">
                    <div class=""question-area"">
                        <p style=""font-size: 20px; font-weight: bold; margin: 0;"">Is there a person in this image?</p>
                    </div>
                </div>","0","main_experiment_trial","1","interview_scheme","schematic_sequence","chronological","","","","","","","",""
"","","","","","html-keyboard-response","145","1235715","0.0-145.0","282951978EB347F9B53ED2679F50E4E1","019d6637-18b7-7828-961c-7bcf1f9a4677","019d6630-2071-75cb-8026-6699844a2719","","null","
                <div class=""stimulus-container"">
                    <img src=""images/schematic_sequence/interview_scheme/interview_scheme_2.png"" class=""exp-image"">
                    <div class=""question-area""></div> 
                </div>","null","","","","","","","","","","","","",""
"","","","","","html-button-response","146","1238222","0.0-146.0","282951978EB347F9B53ED2679F50E4E1","019d6637-18b7-7828-961c-7bcf1f9a4677","019d6630-2071-75cb-8026-6699844a2719","","2504","
                <div class=""stimulus-container"">
                    <img src=""images/schematic_sequence/interview_scheme/interview_scheme_2.png"" class=""exp-image"">
                    <div class=""question-area"">
                        <p style=""font-size: 20px; font-weight: bold; margin: 0;"">Is there a person in this image?</p>
                    </div>
                </div>","0","main_experiment_trial","2","interview_scheme","schematic_sequence","chronological","","","","","","","",""
"","","","","","html-keyboard-response","147","1243226","0.0-147.0","282951978EB347F9B53ED2679F50E4E1","019d6637-18b7-7828-961c-7bcf1f9a4677","019d6630-2071-75cb-8026-6699844a2719","","null","
                <div class=""stimulus-container"">
                    <img src=""images/schematic_sequence/interview_scheme/interview_scheme_3.png"" class=""exp-image"">
                    <div class=""question-area""></div> 
                </div>","null","","","","","","","","","","","","",""
"","","","","","html-button-response","148","1244271","0.0-148.0","282951978EB347F9B53ED2679F50E4E1","019d6637-18b7-7828-961c-7bcf1f9a4677","019d6630-2071-75cb-8026-6699844a2719","","1042","
                <div class=""stimulus-container"">
                    <img src=""images/schematic_sequence/interview_scheme/interview_scheme_3.png"" class=""exp-image"">
                    <div class=""question-area"">
                        <p style=""font-size: 20px; font-weight: bold; margin: 0;"">Is there a person in this image?</p>
                    </div>
                </div>","1","main_experiment_trial","3","interview_scheme","schematic_sequence","chronological","","","","","","","",""
"","","","","","html-keyboard-response","149","1249286","0.0-149.0","282951978EB347F9B53ED2679F50E4E1","019d6637-18b7-7828-961c-7bcf1f9a4677","019d6630-2071-75cb-8026-6699844a2719","","null","
                <div class=""stimulus-container"">
                    <img src=""images/schematic_sequence/interview_scheme/interview_scheme_4.png"" class=""exp-image"">
                    <div class=""question-area""></div> 
                </div>","null","","","","","","","","","","","","",""
"","","","","","html-button-response","150","1252291","0.0-150.0","282951978EB347F9B53ED2679F50E4E1","019d6637-18b7-7828-961c-7bcf1f9a4677","019d6630-2071-75cb-8026-6699844a2719","","null","
                <div class=""stimulus-container"">
                    <img src=""images/schematic_sequence/interview_scheme/interview_scheme_4.png"" class=""exp-image"">
                    <div class=""question-area"">
                        <p style=""font-size: 20px; font-weight: bold; margin: 0;"">Is there a person in this image?</p>
                    </div>
                </div>","null","main_experiment_trial","4","interview_scheme","schematic_sequence","chronological","","","","","","","",""
"","","","","","html-keyboard-response","151","1257304","0.0-151.0","282951978EB347F9B53ED2679F50E4E1","019d6637-18b7-7828-961c-7bcf1f9a4677","019d6630-2071-75cb-8026-6699844a2719","","null","
                <div class=""stimulus-container"">
                    <img src=""images/schematic_sequence/interview_scheme/interview_scheme_5.png"" class=""exp-image"">
                    <div class=""question-area""></div> 
                </div>","null","","","","","","","","","","","","",""
"","","","","","html-button-response","152","1258369","0.0-152.0","282951978EB347F9B53ED2679F50E4E1","019d6637-18b7-7828-961c-7bcf1f9a4677","019d6630-2071-75cb-8026-6699844a2719","","1062","
                <div class=""stimulus-container"">
                    <img src=""images/schematic_sequence/interview_scheme/interview_scheme_5.png"" class=""exp-image"">
                    <div class=""question-area"">
                        <p style=""font-size: 20px; font-weight: bold; margin: 0;"">Is there a person in this image?</p>
                    </div>
                </div>","0","main_experiment_trial","5","interview_scheme","schematic_sequence","chronological","","","","","","","",""
"","","","","","html-keyboard-response","153","1263395","0.0-153.0","282951978EB347F9B53ED2679F50E4E1","019d6637-18b7-7828-961c-7bcf1f9a4677","019d6630-2071-75cb-8026-6699844a2719","","null","
                <div class=""stimulus-container"">
                    <img src=""images/schematic_sequence/interview_scheme/interview_scheme_6.png"" class=""exp-image"">
                    <div class=""question-area""></div> 
                </div>","null","","","","","","","","","","","","",""
"","","","","","html-button-response","154","1264210","0.0-154.0","282951978EB347F9B53ED2679F50E4E1","019d6637-18b7-7828-961c-7bcf1f9a4677","019d6630-2071-75cb-8026-6699844a2719","","810","
                <div class=""stimulus-container"">
                    <img src=""images/schematic_sequence/interview_scheme/interview_scheme_6.png"" class=""exp-image"">
                    <div class=""question-area"">
                        <p style=""font-size: 20px; font-weight: bold; margin: 0;"">Is there a person in this image?</p>
                    </div>
                </div>","0","main_experiment_trial","6","interview_scheme","schematic_sequence","chronological","","","","","","","",""
"","","","","","html-keyboard-response","155","1269218","0.0-155.0","282951978EB347F9B53ED2679F50E4E1","019d6637-18b7-7828-961c-7bcf1f9a4677","019d6630-2071-75cb-8026-6699844a2719","","null","
                <div class=""stimulus-container"">
                    <img src=""images/schematic_sequence/interview_scheme/interview_scheme_7.png"" class=""exp-image"">
                    <div class=""question-area""></div> 
                </div>","null","","","","","","","","","","","","",""
"","","","","","html-button-response","156","1269969","0.0-156.0","282951978EB347F9B53ED2679F50E4E1","019d6637-18b7-7828-961c-7bcf1f9a4677","019d6630-2071-75cb-8026-6699844a2719","","747","
                <div class=""stimulus-container"">
                    <img src=""images/schematic_sequence/interview_scheme/interview_scheme_7.png"" class=""exp-image"">
                    <div class=""question-area"">
                        <p style=""font-size: 20px; font-weight: bold; margin: 0;"">Is there a person in this image?</p>
                    </div>
                </div>","0","main_experiment_trial","7","interview_scheme","schematic_sequence","chronological","","","","","","","",""
"","","","","","html-keyboard-response","157","1274980","0.0-157.0","282951978EB347F9B53ED2679F50E4E1","019d6637-18b7-7828-961c-7bcf1f9a4677","019d6630-2071-75cb-8026-6699844a2719","","null","
                <div class=""stimulus-container"">
                    <img src=""images/schematic_sequence/interview_scheme/interview_scheme_8.png"" class=""exp-image"">
                    <div class=""question-area""></div> 
                </div>","null","","","","","","","","","","","","",""
"","","","","","html-button-response","158","1275836","0.0-158.0","282951978EB347F9B53ED2679F50E4E1","019d6637-18b7-7828-961c-7bcf1f9a4677","019d6630-2071-75cb-8026-6699844a2719","","852","
                <div class=""stimulus-container"">
                    <img src=""images/schematic_sequence/interview_scheme/interview_scheme_8.png"" class=""exp-image"">
                    <div class=""question-area"">
                        <p style=""font-size: 20px; font-weight: bold; margin: 0;"">Is there a person in this image?</p>
                    </div>
                </div>","0","main_experiment_trial","8","interview_scheme","schematic_sequence","chronological","","","","","","","",""
"","","","","","html-keyboard-response","159","1280854","0.0-159.0","282951978EB347F9B53ED2679F50E4E1","019d6637-18b7-7828-961c-7bcf1f9a4677","019d6630-2071-75cb-8026-6699844a2719","","null","
                <div class=""stimulus-container"">
                    <img src=""images/schematic_sequence/interview_scheme/interview_scheme_9.png"" class=""exp-image"">
                    <div class=""question-area""></div> 
                </div>","null","","","","","","","","","","","","",""
"","","","","","html-button-response","160","1281496","0.0-160.0","282951978EB347F9B53ED2679F50E4E1","019d6637-18b7-7828-961c-7bcf1f9a4677","019d6630-2071-75cb-8026-6699844a2719","","639","
                <div class=""stimulus-container"">
                    <img src=""images/schematic_sequence/interview_scheme/interview_scheme_9.png"" class=""exp-image"">
                    <div class=""question-area"">
                        <p style=""font-size: 20px; font-weight: bold; margin: 0;"">Is there a person in this image?</p>
                    </div>
                </div>","0","main_experiment_trial","9","interview_scheme","schematic_sequence","chronological","","","","","","","",""
"","","","","","html-keyboard-response","161","1286499","0.0-161.0","282951978EB347F9B53ED2679F50E4E1","019d6637-18b7-7828-961c-7bcf1f9a4677","019d6630-2071-75cb-8026-6699844a2719","","null","
                <div class=""stimulus-container"">
                    <img src=""images/schematic_sequence/interview_scheme/interview_scheme_ten.png"" class=""exp-image"">
                    <div class=""question-area""></div> 
                </div>","null","","","","","","","","","","","","",""
"","","","","","html-button-response","162","1287396","0.0-162.0","282951978EB347F9B53ED2679F50E4E1","019d6637-18b7-7828-961c-7bcf1f9a4677","019d6630-2071-75cb-8026-6699844a2719","","895","
                <div class=""stimulus-container"">
                    <img src=""images/schematic_sequence/interview_scheme/interview_scheme_ten.png"" class=""exp-image"">
                    <div class=""question-area"">
                        <p style=""font-size: 20px; font-weight: bold; margin: 0;"">Is there a person in this image?</p>
                    </div>
                </div>","0","main_experiment_trial","ten","interview_scheme","schematic_sequence","chronological","","","","","","","",""
"","","","","","html-keyboard-response","163","1292418","0.0-163.0","282951978EB347F9B53ED2679F50E4E1","019d6637-18b7-7828-961c-7bcf1f9a4677","019d6630-2071-75cb-8026-6699844a2719","","null","<div style=""background-color: white; width: 100vw; height: 100vh;""></div>","null","","","","","","","","","","","","",""
"","","","","","html-keyboard-response","164","1297420","0.0-164.0","282951978EB347F9B53ED2679F50E4E1","019d6637-18b7-7828-961c-7bcf1f9a4677","019d6630-2071-75cb-8026-6699844a2719","","null","
                <div class=""stimulus-container"">
                    <img src=""images/semantic_sequence/self_care_activities_semantic/self_care_activities_semantic_1.png"" class=""exp-image"">
                    <div class=""question-area""></div> 
                </div>","null","","","","","","","","","","","","",""
"","","","","","html-button-response","165","1298303","0.0-165.0","282951978EB347F9B53ED2679F50E4E1","019d6637-18b7-7828-961c-7bcf1f9a4677","019d6630-2071-75cb-8026-6699844a2719","","880","
                <div class=""stimulus-container"">
                    <img src=""images/semantic_sequence/self_care_activities_semantic/self_care_activities_semantic_1.png"" class=""exp-image"">
                    <div class=""question-area"">
                        <p style=""font-size: 20px; font-weight: bold; margin: 0;"">Is there a person in this image?</p>
                    </div>
                </div>","0","main_experiment_trial","1","self_care_activities_semantic","semantic_sequence","chronological","","","","","","","",""
"","","","","","html-keyboard-response","166","1303306","0.0-166.0","282951978EB347F9B53ED2679F50E4E1","019d6637-18b7-7828-961c-7bcf1f9a4677","019d6630-2071-75cb-8026-6699844a2719","","null","
                <div class=""stimulus-container"">
                    <img src=""images/semantic_sequence/self_care_activities_semantic/self_care_activities_semantic_2.png"" class=""exp-image"">
                    <div class=""question-area""></div> 
                </div>","null","","","","","","","","","","","","",""
"","","","","","html-button-response","167","1304510","0.0-167.0","282951978EB347F9B53ED2679F50E4E1","019d6637-18b7-7828-961c-7bcf1f9a4677","019d6630-2071-75cb-8026-6699844a2719","","1202","
                <div class=""stimulus-container"">
                    <img src=""images/semantic_sequence/self_care_activities_semantic/self_care_activities_semantic_2.png"" class=""exp-image"">
                    <div class=""question-area"">
                        <p style=""font-size: 20px; font-weight: bold; margin: 0;"">Is there a person in this image?</p>
                    </div>
                </div>","0","main_experiment_trial","2","self_care_activities_semantic","semantic_sequence","chronological","","","","","","","",""
"","","","","","html-keyboard-response","168","1309515","0.0-168.0","282951978EB347F9B53ED2679F50E4E1","019d6637-18b7-7828-961c-7bcf1f9a4677","019d6630-2071-75cb-8026-6699844a2719","","null","
                <div class=""stimulus-container"">
                    <img src=""images/semantic_sequence/self_care_activities_semantic/self_care_activities_semantic_3.png"" class=""exp-image"">
                    <div class=""question-area""></div> 
                </div>","null","","","","","","","","","","","","",""
"","","","","","html-button-response","169","1310921","0.0-169.0","282951978EB347F9B53ED2679F50E4E1","019d6637-18b7-7828-961c-7bcf1f9a4677","019d6630-2071-75cb-8026-6699844a2719","","1405","
                <div class=""stimulus-container"">
                    <img src=""images/semantic_sequence/self_care_activities_semantic/self_care_activities_semantic_3.png"" class=""exp-image"">
                    <div class=""question-area"">
                        <p style=""font-size: 20px; font-weight: bold; margin: 0;"">Is there a person in this image?</p>
                    </div>
                </div>","0","main_experiment_trial","3","self_care_activities_semantic","semantic_sequence","chronological","","","","","","","",""
"","","","","","html-keyboard-response","170","1315936","0.0-170.0","282951978EB347F9B53ED2679F50E4E1","019d6637-18b7-7828-961c-7bcf1f9a4677","019d6630-2071-75cb-8026-6699844a2719","","null","
                <div class=""stimulus-container"">
                    <img src=""images/semantic_sequence/self_care_activities_semantic/self_care_activities_semantic_4.png"" class=""exp-image"">
                    <div class=""question-area""></div> 
                </div>","null","","","","","","","","","","","","",""
"","","","","","html-button-response","171","1317091","0.0-171.0","282951978EB347F9B53ED2679F50E4E1","019d6637-18b7-7828-961c-7bcf1f9a4677","019d6630-2071-75cb-8026-6699844a2719","","1151","
                <div class=""stimulus-container"">
                    <img src=""images/semantic_sequence/self_care_activities_semantic/self_care_activities_semantic_4.png"" class=""exp-image"">
                    <div class=""question-area"">
                        <p style=""font-size: 20px; font-weight: bold; margin: 0;"">Is there a person in this image?</p>
                    </div>
                </div>","0","main_experiment_trial","4","self_care_activities_semantic","semantic_sequence","chronological","","","","","","","",""
"","","","","","html-keyboard-response","172","1322106","0.0-172.0","282951978EB347F9B53ED2679F50E4E1","019d6637-18b7-7828-961c-7bcf1f9a4677","019d6630-2071-75cb-8026-6699844a2719","","null","
                <div class=""stimulus-container"">
                    <img src=""images/semantic_sequence/self_care_activities_semantic/self_care_activities_semantic_5.png"" class=""exp-image"">
                    <div class=""question-area""></div> 
                </div>","null","","","","","","","","","","","","",""
"","","","","","html-button-response","173","1323275","0.0-173.0","282951978EB347F9B53ED2679F50E4E1","019d6637-18b7-7828-961c-7bcf1f9a4677","019d6630-2071-75cb-8026-6699844a2719","","1165","
                <div class=""stimulus-container"">
                    <img src=""images/semantic_sequence/self_care_activities_semantic/self_care_activities_semantic_5.png"" class=""exp-image"">
                    <div class=""question-area"">
                        <p style=""font-size: 20px; font-weight: bold; margin: 0;"">Is there a person in this image?</p>
                    </div>
                </div>","0","main_experiment_trial","5","self_care_activities_semantic","semantic_sequence","chronological","","","","","","","",""
"","","","","","html-keyboard-response","174","1328278","0.0-174.0","282951978EB347F9B53ED2679F50E4E1","019d6637-18b7-7828-961c-7bcf1f9a4677","019d6630-2071-75cb-8026-6699844a2719","","null","
                <div class=""stimulus-container"">
                    <img src=""images/semantic_sequence/self_care_activities_semantic/self_care_activities_semantic_6.png"" class=""exp-image"">
                    <div class=""question-area""></div> 
                </div>","null","","","","","","","","","","","","",""
"","","","","","html-button-response","175","1329298","0.0-175.0","282951978EB347F9B53ED2679F50E4E1","019d6637-18b7-7828-961c-7bcf1f9a4677","019d6630-2071-75cb-8026-6699844a2719","","1019","
                <div class=""stimulus-container"">
                    <img src=""images/semantic_sequence/self_care_activities_semantic/self_care_activities_semantic_6.png"" class=""exp-image"">
                    <div class=""question-area"">
                        <p style=""font-size: 20px; font-weight: bold; margin: 0;"">Is there a person in this image?</p>
                    </div>
                </div>","1","main_experiment_trial","6","self_care_activities_semantic","semantic_sequence","chronological","","","","","","","",""
"","","","","","html-keyboard-response","176","1334310","0.0-176.0","282951978EB347F9B53ED2679F50E4E1","019d6637-18b7-7828-961c-7bcf1f9a4677","019d6630-2071-75cb-8026-6699844a2719","","null","
                <div class=""stimulus-container"">
                    <img src=""images/semantic_sequence/self_care_activities_semantic/self_care_activities_semantic_7.png"" class=""exp-image"">
                    <div class=""question-area""></div> 
                </div>","null","","","","","","","","","","","","",""
