"success","timeout","failed_images","failed_audio","failed_video","trial_type","trial_index","time_elapsed","internal_node_id","subject_id","study_id","session_id","view_history","rt","stimulus","response","task","image_index","folder","sequence_type","presentation_order","valuable_image_index","reward_type","distance_from_x","target_X","chosen_image_index","is_x_plus_dist","correct_choice"
"true","false","[]","[]","[]","preload","0","3445","0.0-0.0","D167BA4F050545C6A8099735FFF272BB","019cfa7b-502b-7183-acbe-e22c016761a6","019cfa3a-388e-72ab-ad58-bdeb258f96cd","","","","","","","","","","","","","","","",""
"","","","","","instructions","1","7072","0.0-1.0","D167BA4F050545C6A8099735FFF272BB","019cfa7b-502b-7183-acbe-e22c016761a6","019cfa3a-388e-72ab-ad58-bdeb258f96cd","[{""page_index"":0,""viewing_time"":3625}]","3626","","","","","","","","","","","","","",""
"","","","","","instructions","2","11071","0.0-2.0","D167BA4F050545C6A8099735FFF272BB","019cfa7b-502b-7183-acbe-e22c016761a6","019cfa3a-388e-72ab-ad58-bdeb258f96cd","[{""page_index"":0,""viewing_time"":3999}]","3999","","","","","","","","","","","","","",""
"true","","","","","fullscreen","3","13689","0.0-3.0","D167BA4F050545C6A8099735FFF272BB","019cfa7b-502b-7183-acbe-e22c016761a6","019cfa3a-388e-72ab-ad58-bdeb258f96cd","","1607","","","","","","","","","","","","","",""
"","","","","","instructions","4","49263","0.0-4.0","D167BA4F050545C6A8099735FFF272BB","019cfa7b-502b-7183-acbe-e22c016761a6","019cfa3a-388e-72ab-ad58-bdeb258f96cd","[{""page_index"":0,""viewing_time"":35574}]","35574","","","","","","","","","","","","","",""
"","","","","","instructions","5","59015","0.0-5.0","D167BA4F050545C6A8099735FFF272BB","019cfa7b-502b-7183-acbe-e22c016761a6","019cfa3a-388e-72ab-ad58-bdeb258f96cd","[{""page_index"":0,""viewing_time"":9751}]","9752","","","","","","","","","","","","","",""
"","","","","","html-keyboard-response","6","63018","0.0-6.0","D167BA4F050545C6A8099735FFF272BB","019cfa7b-502b-7183-acbe-e22c016761a6","019cfa3a-388e-72ab-ad58-bdeb258f96cd","","null","
                <div class=""stimulus-container"">
                    <img src=""images/instructions/movie_1.png"" class=""exp-image"">
                    <div class=""question-area""></div> 
                </div>","null","","","","","","","","","","","",""
"","","","","","html-button-response","7","65143","0.0-7.0","D167BA4F050545C6A8099735FFF272BB","019cfa7b-502b-7183-acbe-e22c016761a6","019cfa3a-388e-72ab-ad58-bdeb258f96cd","","2124","
                <div class=""stimulus-container"">
                    <img src=""images/instructions/movie_1.png"" class=""exp-image"">
                    <div class=""question-area"">
                        <p style=""font-size: 20px; font-weight: bold; margin: 0;"">Was there a person in this image?</p>
                    </div>
                </div>","0","example_question","1","","","","","","","","","",""
"","","","","","html-keyboard-response","8","69159","0.0-8.0","D167BA4F050545C6A8099735FFF272BB","019cfa7b-502b-7183-acbe-e22c016761a6","019cfa3a-388e-72ab-ad58-bdeb258f96cd","","null","
                <div class=""stimulus-container"">
                    <img src=""images/instructions/movie_2.png"" class=""exp-image"">
                    <div class=""question-area""></div> 
                </div>","null","","","","","","","","","","","",""
"","","","","","html-button-response","9","70679","0.0-9.0","D167BA4F050545C6A8099735FFF272BB","019cfa7b-502b-7183-acbe-e22c016761a6","019cfa3a-388e-72ab-ad58-bdeb258f96cd","","1520","
                <div class=""stimulus-container"">
                    <img src=""images/instructions/movie_2.png"" class=""exp-image"">
                    <div class=""question-area"">
                        <p style=""font-size: 20px; font-weight: bold; margin: 0;"">Was there a person in this image?</p>
                    </div>
                </div>","0","example_question","2","","","","","","","","","",""
"","","","","","html-keyboard-response","10","74693","0.0-10.0","D167BA4F050545C6A8099735FFF272BB","019cfa7b-502b-7183-acbe-e22c016761a6","019cfa3a-388e-72ab-ad58-bdeb258f96cd","","null","
                <div class=""stimulus-container"">
                    <img src=""images/instructions/movie_3.png"" class=""exp-image"">
                    <div class=""question-area""></div> 
                </div>","null","","","","","","","","","","","",""
"","","","","","html-button-response","11","75223","0.0-11.0","D167BA4F050545C6A8099735FFF272BB","019cfa7b-502b-7183-acbe-e22c016761a6","019cfa3a-388e-72ab-ad58-bdeb258f96cd","","530","
                <div class=""stimulus-container"">
                    <img src=""images/instructions/movie_3.png"" class=""exp-image"">
                    <div class=""question-area"">
                        <p style=""font-size: 20px; font-weight: bold; margin: 0;"">Was there a person in this image?</p>
                    </div>
                </div>","0","example_question","3","","","","","","","","","",""
"","","","","","html-keyboard-response","12","79227","0.0-12.0","D167BA4F050545C6A8099735FFF272BB","019cfa7b-502b-7183-acbe-e22c016761a6","019cfa3a-388e-72ab-ad58-bdeb258f96cd","","null","
                <div class=""stimulus-container"">
                    <img src=""images/instructions/movie_4.png"" class=""exp-image"">
                    <div class=""question-area""></div> 
                </div>","null","","","","","","","","","","","",""
"","","","","","html-button-response","13","79799","0.0-13.0","D167BA4F050545C6A8099735FFF272BB","019cfa7b-502b-7183-acbe-e22c016761a6","019cfa3a-388e-72ab-ad58-bdeb258f96cd","","572","
                <div class=""stimulus-container"">
                    <img src=""images/instructions/movie_4.png"" class=""exp-image"">
                    <div class=""question-area"">
                        <p style=""font-size: 20px; font-weight: bold; margin: 0;"">Was there a person in this image?</p>
                    </div>
                </div>","0","example_question","4","","","","","","","","","",""
"","","","","","instructions","14","82375","0.0-14.0","D167BA4F050545C6A8099735FFF272BB","019cfa7b-502b-7183-acbe-e22c016761a6","019cfa3a-388e-72ab-ad58-bdeb258f96cd","[{""page_index"":0,""viewing_time"":2576}]","2576","","","","","","","","","","","","","",""
"","","","","","instructions","15","88095","0.0-15.0","D167BA4F050545C6A8099735FFF272BB","019cfa7b-502b-7183-acbe-e22c016761a6","019cfa3a-388e-72ab-ad58-bdeb258f96cd","[{""page_index"":0,""viewing_time"":5720}]","5720","","","","","","","","","","","","","",""
"","","","","","html-keyboard-response","16","93101","0.0-16.0","D167BA4F050545C6A8099735FFF272BB","019cfa7b-502b-7183-acbe-e22c016761a6","019cfa3a-388e-72ab-ad58-bdeb258f96cd","","null","<div style=""background-color: white; width: 100vw; height: 100vh;""></div>","null","","","","","","","","","","","",""
"","","","","","html-keyboard-response","17","94103","0.0-17.0","D167BA4F050545C6A8099735FFF272BB","019cfa7b-502b-7183-acbe-e22c016761a6","019cfa3a-388e-72ab-ad58-bdeb258f96cd","","null","
                <div class=""stimulus-container"">
                    <img src=""images/causal_sequence/museum_causal/museum_causal_1.png"" class=""exp-image"">
                    <div class=""question-area""></div> 
                </div>","null","","","","","","","","","","","",""
"","","","","","html-button-response","18","95759","0.0-18.0","D167BA4F050545C6A8099735FFF272BB","019cfa7b-502b-7183-acbe-e22c016761a6","019cfa3a-388e-72ab-ad58-bdeb258f96cd","","1656","
                <div class=""stimulus-container"">
                    <img src=""images/causal_sequence/museum_causal/museum_causal_1.png"" class=""exp-image"">
                    <div class=""question-area"">
                        <p style=""font-size: 20px; font-weight: bold; margin: 0;"">Is there a person in this image?</p>
                    </div>
                </div>","0","main_experiment_trial","1","museum_causal","causal_sequence","chronological","","","","","","",""
"","","","","","html-keyboard-response","19","96764","0.0-19.0","D167BA4F050545C6A8099735FFF272BB","019cfa7b-502b-7183-acbe-e22c016761a6","019cfa3a-388e-72ab-ad58-bdeb258f96cd","","null","
                <div class=""stimulus-container"">
                    <img src=""images/causal_sequence/museum_causal/museum_causal_2.png"" class=""exp-image"">
                    <div class=""question-area""></div> 
                </div>","null","","","","","","","","","","","",""
"","","","","","html-button-response","20","98279","0.0-20.0","D167BA4F050545C6A8099735FFF272BB","019cfa7b-502b-7183-acbe-e22c016761a6","019cfa3a-388e-72ab-ad58-bdeb258f96cd","","1515","
                <div class=""stimulus-container"">
                    <img src=""images/causal_sequence/museum_causal/museum_causal_2.png"" class=""exp-image"">
                    <div class=""question-area"">
                        <p style=""font-size: 20px; font-weight: bold; margin: 0;"">Is there a person in this image?</p>
                    </div>
                </div>","0","main_experiment_trial","2","museum_causal","causal_sequence","chronological","","","","","","",""
"","","","","","html-keyboard-response","21","99284","0.0-21.0","D167BA4F050545C6A8099735FFF272BB","019cfa7b-502b-7183-acbe-e22c016761a6","019cfa3a-388e-72ab-ad58-bdeb258f96cd","","null","
                <div class=""stimulus-container"">
                    <img src=""images/causal_sequence/museum_causal/museum_causal_3.png"" class=""exp-image"">
                    <div class=""question-area""></div> 
                </div>","null","","","","","","","","","","","",""
"","","","","","html-button-response","22","101568","0.0-22.0","D167BA4F050545C6A8099735FFF272BB","019cfa7b-502b-7183-acbe-e22c016761a6","019cfa3a-388e-72ab-ad58-bdeb258f96cd","","2283","
                <div class=""stimulus-container"">
                    <img src=""images/causal_sequence/museum_causal/museum_causal_3.png"" class=""exp-image"">
                    <div class=""question-area"">
                        <p style=""font-size: 20px; font-weight: bold; margin: 0;"">Is there a person in this image?</p>
                    </div>
                </div>","0","main_experiment_trial","3","museum_causal","causal_sequence","chronological","","","","","","",""
"","","","","","html-keyboard-response","23","102573","0.0-23.0","D167BA4F050545C6A8099735FFF272BB","019cfa7b-502b-7183-acbe-e22c016761a6","019cfa3a-388e-72ab-ad58-bdeb258f96cd","","null","
                <div class=""stimulus-container"">
                    <img src=""images/causal_sequence/museum_causal/museum_causal_4.png"" class=""exp-image"">
                    <div class=""question-area""></div> 
                </div>","null","","","","","","","","","","","",""
"","","","","","html-button-response","24","103631","0.0-24.0","D167BA4F050545C6A8099735FFF272BB","019cfa7b-502b-7183-acbe-e22c016761a6","019cfa3a-388e-72ab-ad58-bdeb258f96cd","","1058","
                <div class=""stimulus-container"">
                    <img src=""images/causal_sequence/museum_causal/museum_causal_4.png"" class=""exp-image"">
                    <div class=""question-area"">
                        <p style=""font-size: 20px; font-weight: bold; margin: 0;"">Is there a person in this image?</p>
                    </div>
                </div>","1","main_experiment_trial","4","museum_causal","causal_sequence","chronological","","","","","","",""
"","","","","","html-keyboard-response","25","104633","0.0-25.0","D167BA4F050545C6A8099735FFF272BB","019cfa7b-502b-7183-acbe-e22c016761a6","019cfa3a-388e-72ab-ad58-bdeb258f96cd","","null","
                <div class=""stimulus-container"">
                    <img src=""images/causal_sequence/museum_causal/museum_causal_5.png"" class=""exp-image"">
                    <div class=""question-area""></div> 
                </div>","null","","","","","","","","","","","",""
"","","","","","html-button-response","26","105439","0.0-26.0","D167BA4F050545C6A8099735FFF272BB","019cfa7b-502b-7183-acbe-e22c016761a6","019cfa3a-388e-72ab-ad58-bdeb258f96cd","","805","
                <div class=""stimulus-container"">
                    <img src=""images/causal_sequence/museum_causal/museum_causal_5.png"" class=""exp-image"">
                    <div class=""question-area"">
                        <p style=""font-size: 20px; font-weight: bold; margin: 0;"">Is there a person in this image?</p>
                    </div>
                </div>","0","main_experiment_trial","5","museum_causal","causal_sequence","chronological","","","","","","",""
"","","","","","html-keyboard-response","27","106446","0.0-27.0","D167BA4F050545C6A8099735FFF272BB","019cfa7b-502b-7183-acbe-e22c016761a6","019cfa3a-388e-72ab-ad58-bdeb258f96cd","","null","
                <div class=""stimulus-container"">
                    <img src=""images/causal_sequence/museum_causal/museum_causal_6.png"" class=""exp-image"">
                    <div class=""question-area""></div> 
                </div>","null","","","","","","","","","","","",""
"","","","","","html-button-response","28","107263","0.0-28.0","D167BA4F050545C6A8099735FFF272BB","019cfa7b-502b-7183-acbe-e22c016761a6","019cfa3a-388e-72ab-ad58-bdeb258f96cd","","817","
                <div class=""stimulus-container"">
                    <img src=""images/causal_sequence/museum_causal/museum_causal_6.png"" class=""exp-image"">
                    <div class=""question-area"">
                        <p style=""font-size: 20px; font-weight: bold; margin: 0;"">Is there a person in this image?</p>
                    </div>
                </div>","0","main_experiment_trial","6","museum_causal","causal_sequence","chronological","","","","","","",""
"","","","","","html-keyboard-response","29","108265","0.0-29.0","D167BA4F050545C6A8099735FFF272BB","019cfa7b-502b-7183-acbe-e22c016761a6","019cfa3a-388e-72ab-ad58-bdeb258f96cd","","null","
                <div class=""stimulus-container"">
                    <img src=""images/causal_sequence/museum_causal/museum_causal_7.png"" class=""exp-image"">
                    <div class=""question-area""></div> 
                </div>","null","","","","","","","","","","","",""
"","","","","","html-button-response","30","109415","0.0-30.0","D167BA4F050545C6A8099735FFF272BB","019cfa7b-502b-7183-acbe-e22c016761a6","019cfa3a-388e-72ab-ad58-bdeb258f96cd","","1150","
                <div class=""stimulus-container"">
                    <img src=""images/causal_sequence/museum_causal/museum_causal_7.png"" class=""exp-image"">
                    <div class=""question-area"">
                        <p style=""font-size: 20px; font-weight: bold; margin: 0;"">Is there a person in this image?</p>
                    </div>
                </div>","1","main_experiment_trial","7","museum_causal","causal_sequence","chronological","","","","","","",""
"","","","","","html-keyboard-response","31","110419","0.0-31.0","D167BA4F050545C6A8099735FFF272BB","019cfa7b-502b-7183-acbe-e22c016761a6","019cfa3a-388e-72ab-ad58-bdeb258f96cd","","null","
                <div class=""stimulus-container"">
                    <img src=""images/causal_sequence/museum_causal/museum_causal_8.png"" class=""exp-image"">
                    <div class=""question-area""></div> 
                </div>","null","","","","","","","","","","","",""
"","","","","","html-button-response","32","112271","0.0-32.0","D167BA4F050545C6A8099735FFF272BB","019cfa7b-502b-7183-acbe-e22c016761a6","019cfa3a-388e-72ab-ad58-bdeb258f96cd","","1852","
                <div class=""stimulus-container"">
                    <img src=""images/causal_sequence/museum_causal/museum_causal_8.png"" class=""exp-image"">
                    <div class=""question-area"">
                        <p style=""font-size: 20px; font-weight: bold; margin: 0;"">Is there a person in this image?</p>
                    </div>
                </div>","0","main_experiment_trial","8","museum_causal","causal_sequence","chronological","","","","","","",""
"","","","","","html-keyboard-response","33","113276","0.0-33.0","D167BA4F050545C6A8099735FFF272BB","019cfa7b-502b-7183-acbe-e22c016761a6","019cfa3a-388e-72ab-ad58-bdeb258f96cd","","null","
                <div class=""stimulus-container"">
                    <img src=""images/causal_sequence/museum_causal/museum_causal_9.png"" class=""exp-image"">
                    <div class=""question-area""></div> 
                </div>","null","","","","","","","","","","","",""
"","","","","","html-button-response","34","114719","0.0-34.0","D167BA4F050545C6A8099735FFF272BB","019cfa7b-502b-7183-acbe-e22c016761a6","019cfa3a-388e-72ab-ad58-bdeb258f96cd","","1443","
                <div class=""stimulus-container"">
                    <img src=""images/causal_sequence/museum_causal/museum_causal_9.png"" class=""exp-image"">
                    <div class=""question-area"">
                        <p style=""font-size: 20px; font-weight: bold; margin: 0;"">Is there a person in this image?</p>
                    </div>
                </div>","1","main_experiment_trial","9","museum_causal","causal_sequence","chronological","","","","","","",""
"","","","","","html-keyboard-response","35","115730","0.0-35.0","D167BA4F050545C6A8099735FFF272BB","019cfa7b-502b-7183-acbe-e22c016761a6","019cfa3a-388e-72ab-ad58-bdeb258f96cd","","null","
                <div class=""stimulus-container"">
                    <img src=""images/causal_sequence/museum_causal/museum_causal_ten.png"" class=""exp-image"">
                    <div class=""question-area""></div> 
                </div>","null","","","","","","","","","","","",""
"","","","","","html-button-response","36","116487","0.0-36.0","D167BA4F050545C6A8099735FFF272BB","019cfa7b-502b-7183-acbe-e22c016761a6","019cfa3a-388e-72ab-ad58-bdeb258f96cd","","757","
                <div class=""stimulus-container"">
                    <img src=""images/causal_sequence/museum_causal/museum_causal_ten.png"" class=""exp-image"">
                    <div class=""question-area"">
                        <p style=""font-size: 20px; font-weight: bold; margin: 0;"">Is there a person in this image?</p>
                    </div>
                </div>","0","main_experiment_trial","ten","museum_causal","causal_sequence","chronological","","","","","","",""
"","","","","","html-keyboard-response","37","121495","0.0-37.0","D167BA4F050545C6A8099735FFF272BB","019cfa7b-502b-7183-acbe-e22c016761a6","019cfa3a-388e-72ab-ad58-bdeb258f96cd","","null","<div style=""background-color: white; width: 100vw; height: 100vh;""></div>","null","","","","","","","","","","","",""
"","","","","","html-keyboard-response","38","122497","0.0-38.0","D167BA4F050545C6A8099735FFF272BB","019cfa7b-502b-7183-acbe-e22c016761a6","019cfa3a-388e-72ab-ad58-bdeb258f96cd","","null","
                <div class=""stimulus-container"">
                    <img src=""images/causal_sequence/package_causal/package_causal_1.png"" class=""exp-image"">
                    <div class=""question-area""></div> 
                </div>","null","","","","","","","","","","","",""
"","","","","","html-button-response","39","123415","0.0-39.0","D167BA4F050545C6A8099735FFF272BB","019cfa7b-502b-7183-acbe-e22c016761a6","019cfa3a-388e-72ab-ad58-bdeb258f96cd","","918","
                <div class=""stimulus-container"">
                    <img src=""images/causal_sequence/package_causal/package_causal_1.png"" class=""exp-image"">
                    <div class=""question-area"">
                        <p style=""font-size: 20px; font-weight: bold; margin: 0;"">Is there a person in this image?</p>
                    </div>
                </div>","0","main_experiment_trial","1","package_causal","causal_sequence","chronological","","","","","","",""
"","","","","","html-keyboard-response","40","124431","0.0-40.0","D167BA4F050545C6A8099735FFF272BB","019cfa7b-502b-7183-acbe-e22c016761a6","019cfa3a-388e-72ab-ad58-bdeb258f96cd","","null","
                <div class=""stimulus-container"">
                    <img src=""images/causal_sequence/package_causal/package_causal_2.png"" class=""exp-image"">
                    <div class=""question-area""></div> 
                </div>","null","","","","","","","","","","","",""
"","","","","","html-button-response","41","125047","0.0-41.0","D167BA4F050545C6A8099735FFF272BB","019cfa7b-502b-7183-acbe-e22c016761a6","019cfa3a-388e-72ab-ad58-bdeb258f96cd","","616","
                <div class=""stimulus-container"">
                    <img src=""images/causal_sequence/package_causal/package_causal_2.png"" class=""exp-image"">
                    <div class=""question-area"">
                        <p style=""font-size: 20px; font-weight: bold; margin: 0;"">Is there a person in this image?</p>
                    </div>
                </div>","0","main_experiment_trial","2","package_causal","causal_sequence","chronological","","","","","","",""
"","","","","","html-keyboard-response","42","126054","0.0-42.0","D167BA4F050545C6A8099735FFF272BB","019cfa7b-502b-7183-acbe-e22c016761a6","019cfa3a-388e-72ab-ad58-bdeb258f96cd","","null","
                <div class=""stimulus-container"">
                    <img src=""images/causal_sequence/package_causal/package_causal_3.png"" class=""exp-image"">
                    <div class=""question-area""></div> 
                </div>","null","","","","","","","","","","","",""
"","","","","","html-button-response","43","126639","0.0-43.0","D167BA4F050545C6A8099735FFF272BB","019cfa7b-502b-7183-acbe-e22c016761a6","019cfa3a-388e-72ab-ad58-bdeb258f96cd","","585","
                <div class=""stimulus-container"">
                    <img src=""images/causal_sequence/package_causal/package_causal_3.png"" class=""exp-image"">
                    <div class=""question-area"">
                        <p style=""font-size: 20px; font-weight: bold; margin: 0;"">Is there a person in this image?</p>
                    </div>
                </div>","0","main_experiment_trial","3","package_causal","causal_sequence","chronological","","","","","","",""
"","","","","","html-keyboard-response","44","127647","0.0-44.0","D167BA4F050545C6A8099735FFF272BB","019cfa7b-502b-7183-acbe-e22c016761a6","019cfa3a-388e-72ab-ad58-bdeb258f96cd","","null","
                <div class=""stimulus-container"">
                    <img src=""images/causal_sequence/package_causal/package_causal_4.png"" class=""exp-image"">
                    <div class=""question-area""></div> 
                </div>","null","","","","","","","","","","","",""
"","","","","","html-button-response","45","128383","0.0-45.0","D167BA4F050545C6A8099735FFF272BB","019cfa7b-502b-7183-acbe-e22c016761a6","019cfa3a-388e-72ab-ad58-bdeb258f96cd","","736","
                <div class=""stimulus-container"">
                    <img src=""images/causal_sequence/package_causal/package_causal_4.png"" class=""exp-image"">
                    <div class=""question-area"">
                        <p style=""font-size: 20px; font-weight: bold; margin: 0;"">Is there a person in this image?</p>
                    </div>
                </div>","1","main_experiment_trial","4","package_causal","causal_sequence","chronological","","","","","","",""
"","","","","","html-keyboard-response","46","129392","0.0-46.0","D167BA4F050545C6A8099735FFF272BB","019cfa7b-502b-7183-acbe-e22c016761a6","019cfa3a-388e-72ab-ad58-bdeb258f96cd","","null","
                <div class=""stimulus-container"">
                    <img src=""images/causal_sequence/package_causal/package_causal_5.png"" class=""exp-image"">
                    <div class=""question-area""></div> 
                </div>","null","","","","","","","","","","","",""
"","","","","","html-button-response","47","130119","0.0-47.0","D167BA4F050545C6A8099735FFF272BB","019cfa7b-502b-7183-acbe-e22c016761a6","019cfa3a-388e-72ab-ad58-bdeb258f96cd","","727","
                <div class=""stimulus-container"">
                    <img src=""images/causal_sequence/package_causal/package_causal_5.png"" class=""exp-image"">
                    <div class=""question-area"">
                        <p style=""font-size: 20px; font-weight: bold; margin: 0;"">Is there a person in this image?</p>
                    </div>
                </div>","0","main_experiment_trial","5","package_causal","causal_sequence","chronological","","","","","","",""
"","","","","","html-keyboard-response","48","131135","0.0-48.0","D167BA4F050545C6A8099735FFF272BB","019cfa7b-502b-7183-acbe-e22c016761a6","019cfa3a-388e-72ab-ad58-bdeb258f96cd","","null","
                <div class=""stimulus-container"">
                    <img src=""images/causal_sequence/package_causal/package_causal_6.png"" class=""exp-image"">
                    <div class=""question-area""></div> 
                </div>","null","","","","","","","","","","","",""
"","","","","","html-button-response","49","131711","0.0-49.0","D167BA4F050545C6A8099735FFF272BB","019cfa7b-502b-7183-acbe-e22c016761a6","019cfa3a-388e-72ab-ad58-bdeb258f96cd","","576","
                <div class=""stimulus-container"">
                    <img src=""images/causal_sequence/package_causal/package_causal_6.png"" class=""exp-image"">
                    <div class=""question-area"">
                        <p style=""font-size: 20px; font-weight: bold; margin: 0;"">Is there a person in this image?</p>
                    </div>
                </div>","0","main_experiment_trial","6","package_causal","causal_sequence","chronological","","","","","","",""
"","","","","","html-keyboard-response","50","132713","0.0-50.0","D167BA4F050545C6A8099735FFF272BB","019cfa7b-502b-7183-acbe-e22c016761a6","019cfa3a-388e-72ab-ad58-bdeb258f96cd","","null","
                <div class=""stimulus-container"">
                    <img src=""images/causal_sequence/package_causal/package_causal_7.png"" class=""exp-image"">
                    <div class=""question-area""></div> 
                </div>","null","","","","","","","","","","","",""
"","","","","","html-button-response","51","133233","0.0-51.0","D167BA4F050545C6A8099735FFF272BB","019cfa7b-502b-7183-acbe-e22c016761a6","019cfa3a-388e-72ab-ad58-bdeb258f96cd","","520","
                <div class=""stimulus-container"">
                    <img src=""images/causal_sequence/package_causal/package_causal_7.png"" class=""exp-image"">
                    <div class=""question-area"">
                        <p style=""font-size: 20px; font-weight: bold; margin: 0;"">Is there a person in this image?</p>
                    </div>
                </div>","0","main_experiment_trial","7","package_causal","causal_sequence","chronological","","","","","","",""
"","","","","","html-keyboard-response","52","134243","0.0-52.0","D167BA4F050545C6A8099735FFF272BB","019cfa7b-502b-7183-acbe-e22c016761a6","019cfa3a-388e-72ab-ad58-bdeb258f96cd","","null","
                <div class=""stimulus-container"">
                    <img src=""images/causal_sequence/package_causal/package_causal_8.png"" class=""exp-image"">
                    <div class=""question-area""></div> 
                </div>","null","","","","","","","","","","","",""
"","","","","","html-button-response","53","134815","0.0-53.0","D167BA4F050545C6A8099735FFF272BB","019cfa7b-502b-7183-acbe-e22c016761a6","019cfa3a-388e-72ab-ad58-bdeb258f96cd","","572","
                <div class=""stimulus-container"">
                    <img src=""images/causal_sequence/package_causal/package_causal_8.png"" class=""exp-image"">
                    <div class=""question-area"">
                        <p style=""font-size: 20px; font-weight: bold; margin: 0;"">Is there a person in this image?</p>
                    </div>
                </div>","0","main_experiment_trial","8","package_causal","causal_sequence","chronological","","","","","","",""
"","","","","","html-keyboard-response","54","135819","0.0-54.0","D167BA4F050545C6A8099735FFF272BB","019cfa7b-502b-7183-acbe-e22c016761a6","019cfa3a-388e-72ab-ad58-bdeb258f96cd","","null","
                <div class=""stimulus-container"">
                    <img src=""images/causal_sequence/package_causal/package_causal_9.png"" class=""exp-image"">
                    <div class=""question-area""></div> 
                </div>","null","","","","","","","","","","","",""
"","","","","","html-button-response","55","136287","0.0-55.0","D167BA4F050545C6A8099735FFF272BB","019cfa7b-502b-7183-acbe-e22c016761a6","019cfa3a-388e-72ab-ad58-bdeb258f96cd","","468","
                <div class=""stimulus-container"">
                    <img src=""images/causal_sequence/package_causal/package_causal_9.png"" class=""exp-image"">
                    <div class=""question-area"">
                        <p style=""font-size: 20px; font-weight: bold; margin: 0;"">Is there a person in this image?</p>
                    </div>
                </div>","0","main_experiment_trial","9","package_causal","causal_sequence","chronological","","","","","","",""
"","","","","","html-keyboard-response","56","137289","0.0-56.0","D167BA4F050545C6A8099735FFF272BB","019cfa7b-502b-7183-acbe-e22c016761a6","019cfa3a-388e-72ab-ad58-bdeb258f96cd","","null","
                <div class=""stimulus-container"">
                    <img src=""images/causal_sequence/package_causal/package_causal_ten.png"" class=""exp-image"">
                    <div class=""question-area""></div> 
                </div>","null","","","","","","","","","","","",""
"","","","","","html-button-response","57","137791","0.0-57.0","D167BA4F050545C6A8099735FFF272BB","019cfa7b-502b-7183-acbe-e22c016761a6","019cfa3a-388e-72ab-ad58-bdeb258f96cd","","502","
                <div class=""stimulus-container"">
                    <img src=""images/causal_sequence/package_causal/package_causal_ten.png"" class=""exp-image"">
                    <div class=""question-area"">
                        <p style=""font-size: 20px; font-weight: bold; margin: 0;"">Is there a person in this image?</p>
                    </div>
                </div>","0","main_experiment_trial","ten","package_causal","causal_sequence","chronological","","","","","","",""
"","","","","","html-keyboard-response","58","142802","0.0-58.0","D167BA4F050545C6A8099735FFF272BB","019cfa7b-502b-7183-acbe-e22c016761a6","019cfa3a-388e-72ab-ad58-bdeb258f96cd","","null","<div style=""background-color: white; width: 100vw; height: 100vh;""></div>","null","","","","","","","","","","","",""
"","","","","","html-keyboard-response","59","143806","0.0-59.0","D167BA4F050545C6A8099735FFF272BB","019cfa7b-502b-7183-acbe-e22c016761a6","019cfa3a-388e-72ab-ad58-bdeb258f96cd","","null","
                <div class=""stimulus-container"">
                    <img src=""images/semantic_sequence/creative_activities_semantic/creative_activities_semantic_1.png"" class=""exp-image"">
                    <div class=""question-area""></div> 
                </div>","null","","","","","","","","","","","",""
"","","","","","html-button-response","60","144471","0.0-60.0","D167BA4F050545C6A8099735FFF272BB","019cfa7b-502b-7183-acbe-e22c016761a6","019cfa3a-388e-72ab-ad58-bdeb258f96cd","","665","
                <div class=""stimulus-container"">
                    <img src=""images/semantic_sequence/creative_activities_semantic/creative_activities_semantic_1.png"" class=""exp-image"">
                    <div class=""question-area"">
                        <p style=""font-size: 20px; font-weight: bold; margin: 0;"">Is there a person in this image?</p>
                    </div>
                </div>","0","main_experiment_trial","1","creative_activities_semantic","semantic_sequence","chronological","","","","","","",""
"","","","","","html-keyboard-response","61","145474","0.0-61.0","D167BA4F050545C6A8099735FFF272BB","019cfa7b-502b-7183-acbe-e22c016761a6","019cfa3a-388e-72ab-ad58-bdeb258f96cd","","null","
                <div class=""stimulus-container"">
                    <img src=""images/semantic_sequence/creative_activities_semantic/creative_activities_semantic_2.png"" class=""exp-image"">
                    <div class=""question-area""></div> 
                </div>","null","","","","","","","","","","","",""
"","","","","","html-button-response","62","146631","0.0-62.0","D167BA4F050545C6A8099735FFF272BB","019cfa7b-502b-7183-acbe-e22c016761a6","019cfa3a-388e-72ab-ad58-bdeb258f96cd","","1157","
                <div class=""stimulus-container"">
                    <img src=""images/semantic_sequence/creative_activities_semantic/creative_activities_semantic_2.png"" class=""exp-image"">
                    <div class=""question-area"">
                        <p style=""font-size: 20px; font-weight: bold; margin: 0;"">Is there a person in this image?</p>
                    </div>
                </div>","0","main_experiment_trial","2","creative_activities_semantic","semantic_sequence","chronological","","","","","","",""
"","","","","","html-keyboard-response","63","147638","0.0-63.0","D167BA4F050545C6A8099735FFF272BB","019cfa7b-502b-7183-acbe-e22c016761a6","019cfa3a-388e-72ab-ad58-bdeb258f96cd","","null","
                <div class=""stimulus-container"">
                    <img src=""images/semantic_sequence/creative_activities_semantic/creative_activities_semantic_3.png"" class=""exp-image"">
                    <div class=""question-area""></div> 
                </div>","null","","","","","","","","","","","",""
"","","","","","html-button-response","64","148855","0.0-64.0","D167BA4F050545C6A8099735FFF272BB","019cfa7b-502b-7183-acbe-e22c016761a6","019cfa3a-388e-72ab-ad58-bdeb258f96cd","","1217","
                <div class=""stimulus-container"">
                    <img src=""images/semantic_sequence/creative_activities_semantic/creative_activities_semantic_3.png"" class=""exp-image"">
                    <div class=""question-area"">
                        <p style=""font-size: 20px; font-weight: bold; margin: 0;"">Is there a person in this image?</p>
                    </div>
                </div>","0","main_experiment_trial","3","creative_activities_semantic","semantic_sequence","chronological","","","","","","",""
"","","","","","html-keyboard-response","65","149862","0.0-65.0","D167BA4F050545C6A8099735FFF272BB","019cfa7b-502b-7183-acbe-e22c016761a6","019cfa3a-388e-72ab-ad58-bdeb258f96cd","","null","
                <div class=""stimulus-container"">
                    <img src=""images/semantic_sequence/creative_activities_semantic/creative_activities_semantic_4.png"" class=""exp-image"">
                    <div class=""question-area""></div> 
                </div>","null","","","","","","","","","","","",""
"","","","","","html-button-response","66","150840","0.0-66.0","D167BA4F050545C6A8099735FFF272BB","019cfa7b-502b-7183-acbe-e22c016761a6","019cfa3a-388e-72ab-ad58-bdeb258f96cd","","978","
                <div class=""stimulus-container"">
                    <img src=""images/semantic_sequence/creative_activities_semantic/creative_activities_semantic_4.png"" class=""exp-image"">
                    <div class=""question-area"">
                        <p style=""font-size: 20px; font-weight: bold; margin: 0;"">Is there a person in this image?</p>
                    </div>
                </div>","0","main_experiment_trial","4","creative_activities_semantic","semantic_sequence","chronological","","","","","","",""
"","","","","","html-keyboard-response","67","151853","0.0-67.0","D167BA4F050545C6A8099735FFF272BB","019cfa7b-502b-7183-acbe-e22c016761a6","019cfa3a-388e-72ab-ad58-bdeb258f96cd","","null","
                <div class=""stimulus-container"">
                    <img src=""images/semantic_sequence/creative_activities_semantic/creative_activities_semantic_5.png"" class=""exp-image"">
                    <div class=""question-area""></div> 
                </div>","null","","","","","","","","","","","",""
"","","","","","html-button-response","68","152439","0.0-68.0","D167BA4F050545C6A8099735FFF272BB","019cfa7b-502b-7183-acbe-e22c016761a6","019cfa3a-388e-72ab-ad58-bdeb258f96cd","","586","
                <div class=""stimulus-container"">
                    <img src=""images/semantic_sequence/creative_activities_semantic/creative_activities_semantic_5.png"" class=""exp-image"">
                    <div class=""question-area"">
                        <p style=""font-size: 20px; font-weight: bold; margin: 0;"">Is there a person in this image?</p>
                    </div>
                </div>","0","main_experiment_trial","5","creative_activities_semantic","semantic_sequence","chronological","","","","","","",""
"","","","","","html-keyboard-response","69","153444","0.0-69.0","D167BA4F050545C6A8099735FFF272BB","019cfa7b-502b-7183-acbe-e22c016761a6","019cfa3a-388e-72ab-ad58-bdeb258f96cd","","null","
                <div class=""stimulus-container"">
                    <img src=""images/semantic_sequence/creative_activities_semantic/creative_activities_semantic_6.png"" class=""exp-image"">
                    <div class=""question-area""></div> 
                </div>","null","","","","","","","","","","","",""
"","","","","","html-button-response","70","154263","0.0-70.0","D167BA4F050545C6A8099735FFF272BB","019cfa7b-502b-7183-acbe-e22c016761a6","019cfa3a-388e-72ab-ad58-bdeb258f96cd","","819","
                <div class=""stimulus-container"">
                    <img src=""images/semantic_sequence/creative_activities_semantic/creative_activities_semantic_6.png"" class=""exp-image"">
                    <div class=""question-area"">
                        <p style=""font-size: 20px; font-weight: bold; margin: 0;"">Is there a person in this image?</p>
                    </div>
                </div>","0","main_experiment_trial","6","creative_activities_semantic","semantic_sequence","chronological","","","","","","",""
"","","","","","html-keyboard-response","71","155266","0.0-71.0","D167BA4F050545C6A8099735FFF272BB","019cfa7b-502b-7183-acbe-e22c016761a6","019cfa3a-388e-72ab-ad58-bdeb258f96cd","","null","
                <div class=""stimulus-container"">
                    <img src=""images/semantic_sequence/creative_activities_semantic/creative_activities_semantic_7.png"" class=""exp-image"">
                    <div class=""question-area""></div> 
                </div>","null","","","","","","","","","","","",""
"","","","","","html-button-response","72","155991","0.0-72.0","D167BA4F050545C6A8099735FFF272BB","019cfa7b-502b-7183-acbe-e22c016761a6","019cfa3a-388e-72ab-ad58-bdeb258f96cd","","725","
                <div class=""stimulus-container"">
                    <img src=""images/semantic_sequence/creative_activities_semantic/creative_activities_semantic_7.png"" class=""exp-image"">
                    <div class=""question-area"">
                        <p style=""font-size: 20px; font-weight: bold; margin: 0;"">Is there a person in this image?</p>
                    </div>
                </div>","0","main_experiment_trial","7","creative_activities_semantic","semantic_sequence","chronological","","","","","","",""
"","","","","","html-keyboard-response","73","156993","0.0-73.0","D167BA4F050545C6A8099735FFF272BB","019cfa7b-502b-7183-acbe-e22c016761a6","019cfa3a-388e-72ab-ad58-bdeb258f96cd","","null","
                <div class=""stimulus-container"">
                    <img src=""images/semantic_sequence/creative_activities_semantic/creative_activities_semantic_8.png"" class=""exp-image"">
                    <div class=""question-area""></div> 
                </div>","null","","","","","","","","","","","",""
"","","","","","html-button-response","74","157623","0.0-74.0","D167BA4F050545C6A8099735FFF272BB","019cfa7b-502b-7183-acbe-e22c016761a6","019cfa3a-388e-72ab-ad58-bdeb258f96cd","","630","
                <div class=""stimulus-container"">
                    <img src=""images/semantic_sequence/creative_activities_semantic/creative_activities_semantic_8.png"" class=""exp-image"">
                    <div class=""question-area"">
                        <p style=""font-size: 20px; font-weight: bold; margin: 0;"">Is there a person in this image?</p>
                    </div>
                </div>","0","main_experiment_trial","8","creative_activities_semantic","semantic_sequence","chronological","","","","","","",""
"","","","","","html-keyboard-response","75","158629","0.0-75.0","D167BA4F050545C6A8099735FFF272BB","019cfa7b-502b-7183-acbe-e22c016761a6","019cfa3a-388e-72ab-ad58-bdeb258f96cd","","null","
                <div class=""stimulus-container"">
                    <img src=""images/semantic_sequence/creative_activities_semantic/creative_activities_semantic_9.png"" class=""exp-image"">
                    <div class=""question-area""></div> 
                </div>","null","","","","","","","","","","","",""
"","","","","","html-button-response","76","159319","0.0-76.0","D167BA4F050545C6A8099735FFF272BB","019cfa7b-502b-7183-acbe-e22c016761a6","019cfa3a-388e-72ab-ad58-bdeb258f96cd","","690","
                <div class=""stimulus-container"">
                    <img src=""images/semantic_sequence/creative_activities_semantic/creative_activities_semantic_9.png"" class=""exp-image"">
                    <div class=""question-area"">
                        <p style=""font-size: 20px; font-weight: bold; margin: 0;"">Is there a person in this image?</p>
                    </div>
                </div>","0","main_experiment_trial","9","creative_activities_semantic","semantic_sequence","chronological","","","","","","",""
"","","","","","html-keyboard-response","77","160327","0.0-77.0","D167BA4F050545C6A8099735FFF272BB","019cfa7b-502b-7183-acbe-e22c016761a6","019cfa3a-388e-72ab-ad58-bdeb258f96cd","","null","
                <div class=""stimulus-container"">
                    <img src=""images/semantic_sequence/creative_activities_semantic/creative_activities_semantic_ten.png"" class=""exp-image"">
                    <div class=""question-area""></div> 
                </div>","null","","","","","","","","","","","",""
"","","","","","html-button-response","78","160895","0.0-78.0","D167BA4F050545C6A8099735FFF272BB","019cfa7b-502b-7183-acbe-e22c016761a6","019cfa3a-388e-72ab-ad58-bdeb258f96cd","","568","
                <div class=""stimulus-container"">
                    <img src=""images/semantic_sequence/creative_activities_semantic/creative_activities_semantic_ten.png"" class=""exp-image"">
                    <div class=""question-area"">
                        <p style=""font-size: 20px; font-weight: bold; margin: 0;"">Is there a person in this image?</p>
                    </div>
                </div>","0","main_experiment_trial","ten","creative_activities_semantic","semantic_sequence","chronological","","","","","","",""
"","","","","","html-keyboard-response","79","165901","0.0-79.0","D167BA4F050545C6A8099735FFF272BB","019cfa7b-502b-7183-acbe-e22c016761a6","019cfa3a-388e-72ab-ad58-bdeb258f96cd","","null","<div style=""background-color: white; width: 100vw; height: 100vh;""></div>","null","","","","","","","","","","","",""
"","","","","","html-keyboard-response","80","166905","0.0-80.0","D167BA4F050545C6A8099735FFF272BB","019cfa7b-502b-7183-acbe-e22c016761a6","019cfa3a-388e-72ab-ad58-bdeb258f96cd","","null","
                <div class=""stimulus-container"">
                    <img src=""images/semantic_sequence/housework_semantic/housework_semantic_1.png"" class=""exp-image"">
                    <div class=""question-area""></div> 
                </div>","null","","","","","","","","","","","",""
"","","","","","html-button-response","81","168023","0.0-81.0","D167BA4F050545C6A8099735FFF272BB","019cfa7b-502b-7183-acbe-e22c016761a6","019cfa3a-388e-72ab-ad58-bdeb258f96cd","","1117","
                <div class=""stimulus-container"">
                    <img src=""images/semantic_sequence/housework_semantic/housework_semantic_1.png"" class=""exp-image"">
                    <div class=""question-area"">
                        <p style=""font-size: 20px; font-weight: bold; margin: 0;"">Is there a person in this image?</p>
                    </div>
                </div>","0","main_experiment_trial","1","housework_semantic","semantic_sequence","chronological","","","","","","",""
"","","","","","html-keyboard-response","82","169032","0.0-82.0","D167BA4F050545C6A8099735FFF272BB","019cfa7b-502b-7183-acbe-e22c016761a6","019cfa3a-388e-72ab-ad58-bdeb258f96cd","","null","
                <div class=""stimulus-container"">
                    <img src=""images/semantic_sequence/housework_semantic/housework_semantic_2.png"" class=""exp-image"">
                    <div class=""question-area""></div> 
                </div>","null","","","","","","","","","","","",""
"","","","","","html-button-response","83","169903","0.0-83.0","D167BA4F050545C6A8099735FFF272BB","019cfa7b-502b-7183-acbe-e22c016761a6","019cfa3a-388e-72ab-ad58-bdeb258f96cd","","871","
                <div class=""stimulus-container"">
                    <img src=""images/semantic_sequence/housework_semantic/housework_semantic_2.png"" class=""exp-image"">
                    <div class=""question-area"">
                        <p style=""font-size: 20px; font-weight: bold; margin: 0;"">Is there a person in this image?</p>
                    </div>
                </div>","0","main_experiment_trial","2","housework_semantic","semantic_sequence","chronological","","","","","","",""
"","","","","","html-keyboard-response","84","170913","0.0-84.0","D167BA4F050545C6A8099735FFF272BB","019cfa7b-502b-7183-acbe-e22c016761a6","019cfa3a-388e-72ab-ad58-bdeb258f96cd","","null","
                <div class=""stimulus-container"">
                    <img src=""images/semantic_sequence/housework_semantic/housework_semantic_3.png"" class=""exp-image"">
                    <div class=""question-area""></div> 
                </div>","null","","","","","","","","","","","",""
"","","","","","html-button-response","85","172391","0.0-85.0","D167BA4F050545C6A8099735FFF272BB","019cfa7b-502b-7183-acbe-e22c016761a6","019cfa3a-388e-72ab-ad58-bdeb258f96cd","","1478","
                <div class=""stimulus-container"">
                    <img src=""images/semantic_sequence/housework_semantic/housework_semantic_3.png"" class=""exp-image"">
                    <div class=""question-area"">
                        <p style=""font-size: 20px; font-weight: bold; margin: 0;"">Is there a person in this image?</p>
                    </div>
                </div>","0","main_experiment_trial","3","housework_semantic","semantic_sequence","chronological","","","","","","",""
"","","","","","html-keyboard-response","86","173401","0.0-86.0","D167BA4F050545C6A8099735FFF272BB","019cfa7b-502b-7183-acbe-e22c016761a6","019cfa3a-388e-72ab-ad58-bdeb258f96cd","","null","
                <div class=""stimulus-container"">
                    <img src=""images/semantic_sequence/housework_semantic/housework_semantic_4.png"" class=""exp-image"">
                    <div class=""question-area""></div> 
                </div>","null","","","","","","","","","","","",""
"","","","","","html-button-response","87","174759","0.0-87.0","D167BA4F050545C6A8099735FFF272BB","019cfa7b-502b-7183-acbe-e22c016761a6","019cfa3a-388e-72ab-ad58-bdeb258f96cd","","1358","
                <div class=""stimulus-container"">
                    <img src=""images/semantic_sequence/housework_semantic/housework_semantic_4.png"" class=""exp-image"">
                    <div class=""question-area"">
                        <p style=""font-size: 20px; font-weight: bold; margin: 0;"">Is there a person in this image?</p>
                    </div>
                </div>","0","main_experiment_trial","4","housework_semantic","semantic_sequence","chronological","","","","","","",""
"","","","","","html-keyboard-response","88","175775","0.0-88.0","D167BA4F050545C6A8099735FFF272BB","019cfa7b-502b-7183-acbe-e22c016761a6","019cfa3a-388e-72ab-ad58-bdeb258f96cd","","null","
                <div class=""stimulus-container"">
                    <img src=""images/semantic_sequence/housework_semantic/housework_semantic_5.png"" class=""exp-image"">
                    <div class=""question-area""></div> 
                </div>","null","","","","","","","","","","","",""
"","","","","","html-button-response","89","176647","0.0-89.0","D167BA4F050545C6A8099735FFF272BB","019cfa7b-502b-7183-acbe-e22c016761a6","019cfa3a-388e-72ab-ad58-bdeb258f96cd","","872","
                <div class=""stimulus-container"">
                    <img src=""images/semantic_sequence/housework_semantic/housework_semantic_5.png"" class=""exp-image"">
                    <div class=""question-area"">
                        <p style=""font-size: 20px; font-weight: bold; margin: 0;"">Is there a person in this image?</p>
                    </div>
                </div>","0","main_experiment_trial","5","housework_semantic","semantic_sequence","chronological","","","","","","",""
"","","","","","html-keyboard-response","90","177649","0.0-90.0","D167BA4F050545C6A8099735FFF272BB","019cfa7b-502b-7183-acbe-e22c016761a6","019cfa3a-388e-72ab-ad58-bdeb258f96cd","","null","
                <div class=""stimulus-container"">
                    <img src=""images/semantic_sequence/housework_semantic/housework_semantic_6.png"" class=""exp-image"">
                    <div class=""question-area""></div> 
                </div>","null","","","","","","","","","","","",""
"","","","","","html-button-response","91","178191","0.0-91.0","D167BA4F050545C6A8099735FFF272BB","019cfa7b-502b-7183-acbe-e22c016761a6","019cfa3a-388e-72ab-ad58-bdeb258f96cd","","542","
                <div class=""stimulus-container"">
                    <img src=""images/semantic_sequence/housework_semantic/housework_semantic_6.png"" class=""exp-image"">
                    <div class=""question-area"">
                        <p style=""font-size: 20px; font-weight: bold; margin: 0;"">Is there a person in this image?</p>
                    </div>
                </div>","0","main_experiment_trial","6","housework_semantic","semantic_sequence","chronological","","","","","","",""
"","","","","","html-keyboard-response","92","179194","0.0-92.0","D167BA4F050545C6A8099735FFF272BB","019cfa7b-502b-7183-acbe-e22c016761a6","019cfa3a-388e-72ab-ad58-bdeb258f96cd","","null","
                <div class=""stimulus-container"">
                    <img src=""images/semantic_sequence/housework_semantic/housework_semantic_7.png"" class=""exp-image"">
                    <div class=""question-area""></div> 
                </div>","null","","","","","","","","","","","",""
"","","","","","html-button-response","93","179767","0.0-93.0","D167BA4F050545C6A8099735FFF272BB","019cfa7b-502b-7183-acbe-e22c016761a6","019cfa3a-388e-72ab-ad58-bdeb258f96cd","","573","
                <div class=""stimulus-container"">
                    <img src=""images/semantic_sequence/housework_semantic/housework_semantic_7.png"" class=""exp-image"">
                    <div class=""question-area"">
                        <p style=""font-size: 20px; font-weight: bold; margin: 0;"">Is there a person in this image?</p>
                    </div>
                </div>","0","main_experiment_trial","7","housework_semantic","semantic_sequence","chronological","","","","","","",""
"","","","","","html-keyboard-response","94","180783","0.0-94.0","D167BA4F050545C6A8099735FFF272BB","019cfa7b-502b-7183-acbe-e22c016761a6","019cfa3a-388e-72ab-ad58-bdeb258f96cd","","null","
                <div class=""stimulus-container"">
                    <img src=""images/semantic_sequence/housework_semantic/housework_semantic_8.png"" class=""exp-image"">
                    <div class=""question-area""></div> 
                </div>","null","","","","","","","","","","","",""
"","","","","","html-button-response","95","181729","0.0-95.0","D167BA4F050545C6A8099735FFF272BB","019cfa7b-502b-7183-acbe-e22c016761a6","019cfa3a-388e-72ab-ad58-bdeb258f96cd","","945","
                <div class=""stimulus-container"">
                    <img src=""images/semantic_sequence/housework_semantic/housework_semantic_8.png"" class=""exp-image"">
                    <div class=""question-area"">
                        <p style=""font-size: 20px; font-weight: bold; margin: 0;"">Is there a person in this image?</p>
                    </div>
                </div>","0","main_experiment_trial","8","housework_semantic","semantic_sequence","chronological","","","","","","",""
"","","","","","html-keyboard-response","96","182731","0.0-96.0","D167BA4F050545C6A8099735FFF272BB","019cfa7b-502b-7183-acbe-e22c016761a6","019cfa3a-388e-72ab-ad58-bdeb258f96cd","","null","
                <div class=""stimulus-container"">
                    <img src=""images/semantic_sequence/housework_semantic/housework_semantic_9.png"" class=""exp-image"">
                    <div class=""question-area""></div> 
                </div>","null","","","","","","","","","","","",""
"","","","","","html-button-response","97","183183","0.0-97.0","D167BA4F050545C6A8099735FFF272BB","019cfa7b-502b-7183-acbe-e22c016761a6","019cfa3a-388e-72ab-ad58-bdeb258f96cd","","452","
                <div class=""stimulus-container"">
                    <img src=""images/semantic_sequence/housework_semantic/housework_semantic_9.png"" class=""exp-image"">
                    <div class=""question-area"">
                        <p style=""font-size: 20px; font-weight: bold; margin: 0;"">Is there a person in this image?</p>
                    </div>
                </div>","0","main_experiment_trial","9","housework_semantic","semantic_sequence","chronological","","","","","","",""
"","","","","","html-keyboard-response","98","184184","0.0-98.0","D167BA4F050545C6A8099735FFF272BB","019cfa7b-502b-7183-acbe-e22c016761a6","019cfa3a-388e-72ab-ad58-bdeb258f96cd","","null","
                <div class=""stimulus-container"">
                    <img src=""images/semantic_sequence/housework_semantic/housework_semantic_ten.png"" class=""exp-image"">
                    <div class=""question-area""></div> 
                </div>","null","","","","","","","","","","","",""
"","","","","","html-button-response","99","184711","0.0-99.0","D167BA4F050545C6A8099735FFF272BB","019cfa7b-502b-7183-acbe-e22c016761a6","019cfa3a-388e-72ab-ad58-bdeb258f96cd","","527","
                <div class=""stimulus-container"">
                    <img src=""images/semantic_sequence/housework_semantic/housework_semantic_ten.png"" class=""exp-image"">
                    <div class=""question-area"">
                        <p style=""font-size: 20px; font-weight: bold; margin: 0;"">Is there a person in this image?</p>
                    </div>
                </div>","0","main_experiment_trial","ten","housework_semantic","semantic_sequence","chronological","","","","","","",""
"","","","","","html-keyboard-response","100","189712","0.0-100.0","D167BA4F050545C6A8099735FFF272BB","019cfa7b-502b-7183-acbe-e22c016761a6","019cfa3a-388e-72ab-ad58-bdeb258f96cd","","null","<div style=""background-color: white; width: 100vw; height: 100vh;""></div>","null","","","","","","","","","","","",""
"","","","","","html-keyboard-response","101","190716","0.0-101.0","D167BA4F050545C6A8099735FFF272BB","019cfa7b-502b-7183-acbe-e22c016761a6","019cfa3a-388e-72ab-ad58-bdeb258f96cd","","null","
                <div class=""stimulus-container"">
                    <img src=""images/causal_sequence/dog_causal/dog_causal_1.png"" class=""exp-image"">
                    <div class=""question-area""></div> 
                </div>","null","","","","","","","","","","","",""
"","","","","","html-button-response","102","191751","0.0-102.0","D167BA4F050545C6A8099735FFF272BB","019cfa7b-502b-7183-acbe-e22c016761a6","019cfa3a-388e-72ab-ad58-bdeb258f96cd","","1035","
                <div class=""stimulus-container"">
                    <img src=""images/causal_sequence/dog_causal/dog_causal_1.png"" class=""exp-image"">
                    <div class=""question-area"">
                        <p style=""font-size: 20px; font-weight: bold; margin: 0;"">Is there a person in this image?</p>
                    </div>
                </div>","0","main_experiment_trial","1","dog_causal","causal_sequence","chronological","","","","","","",""
"","","","","","html-keyboard-response","103","192755","0.0-103.0","D167BA4F050545C6A8099735FFF272BB","019cfa7b-502b-7183-acbe-e22c016761a6","019cfa3a-388e-72ab-ad58-bdeb258f96cd","","null","
                <div class=""stimulus-container"">
                    <img src=""images/causal_sequence/dog_causal/dog_causal_2.png"" class=""exp-image"">
                    <div class=""question-area""></div> 
                </div>","null","","","","","","","","","","","",""
"","","","","","html-button-response","104","193159","0.0-104.0","D167BA4F050545C6A8099735FFF272BB","019cfa7b-502b-7183-acbe-e22c016761a6","019cfa3a-388e-72ab-ad58-bdeb258f96cd","","404","
                <div class=""stimulus-container"">
                    <img src=""images/causal_sequence/dog_causal/dog_causal_2.png"" class=""exp-image"">
                    <div class=""question-area"">
                        <p style=""font-size: 20px; font-weight: bold; margin: 0;"">Is there a person in this image?</p>
                    </div>
                </div>","0","main_experiment_trial","2","dog_causal","causal_sequence","chronological","","","","","","",""
"","","","","","html-keyboard-response","105","194170","0.0-105.0","D167BA4F050545C6A8099735FFF272BB","019cfa7b-502b-7183-acbe-e22c016761a6","019cfa3a-388e-72ab-ad58-bdeb258f96cd","","null","
                <div class=""stimulus-container"">
                    <img src=""images/causal_sequence/dog_causal/dog_causal_3.png"" class=""exp-image"">
                    <div class=""question-area""></div> 
                </div>","null","","","","","","","","","","","",""
"","","","","","html-button-response","106","194727","0.0-106.0","D167BA4F050545C6A8099735FFF272BB","019cfa7b-502b-7183-acbe-e22c016761a6","019cfa3a-388e-72ab-ad58-bdeb258f96cd","","557","
                <div class=""stimulus-container"">
                    <img src=""images/causal_sequence/dog_causal/dog_causal_3.png"" class=""exp-image"">
                    <div class=""question-area"">
                        <p style=""font-size: 20px; font-weight: bold; margin: 0;"">Is there a person in this image?</p>
                    </div>
                </div>","0","main_experiment_trial","3","dog_causal","causal_sequence","chronological","","","","","","",""
"","","","","","html-keyboard-response","107","195742","0.0-107.0","D167BA4F050545C6A8099735FFF272BB","019cfa7b-502b-7183-acbe-e22c016761a6","019cfa3a-388e-72ab-ad58-bdeb258f96cd","","null","
                <div class=""stimulus-container"">
                    <img src=""images/causal_sequence/dog_causal/dog_causal_4.png"" class=""exp-image"">
                    <div class=""question-area""></div> 
                </div>","null","","","","","","","","","","","",""
"","","","","","html-button-response","108","196239","0.0-108.0","D167BA4F050545C6A8099735FFF272BB","019cfa7b-502b-7183-acbe-e22c016761a6","019cfa3a-388e-72ab-ad58-bdeb258f96cd","","497","
                <div class=""stimulus-container"">
                    <img src=""images/causal_sequence/dog_causal/dog_causal_4.png"" class=""exp-image"">
                    <div class=""question-area"">
                        <p style=""font-size: 20px; font-weight: bold; margin: 0;"">Is there a person in this image?</p>
                    </div>
                </div>","0","main_experiment_trial","4","dog_causal","causal_sequence","chronological","","","","","","",""
"","","","","","html-keyboard-response","109","197242","0.0-109.0","D167BA4F050545C6A8099735FFF272BB","019cfa7b-502b-7183-acbe-e22c016761a6","019cfa3a-388e-72ab-ad58-bdeb258f96cd","","null","
                <div class=""stimulus-container"">
                    <img src=""images/causal_sequence/dog_causal/dog_causal_5.png"" class=""exp-image"">
                    <div class=""question-area""></div> 
                </div>","null","","","","","","","","","","","",""
"","","","","","html-button-response","110","197663","0.0-110.0","D167BA4F050545C6A8099735FFF272BB","019cfa7b-502b-7183-acbe-e22c016761a6","019cfa3a-388e-72ab-ad58-bdeb258f96cd","","421","
                <div class=""stimulus-container"">
                    <img src=""images/causal_sequence/dog_causal/dog_causal_5.png"" class=""exp-image"">
                    <div class=""question-area"">
                        <p style=""font-size: 20px; font-weight: bold; margin: 0;"">Is there a person in this image?</p>
                    </div>
                </div>","0","main_experiment_trial","5","dog_causal","causal_sequence","chronological","","","","","","",""
"","","","","","html-keyboard-response","111","198666","0.0-111.0","D167BA4F050545C6A8099735FFF272BB","019cfa7b-502b-7183-acbe-e22c016761a6","019cfa3a-388e-72ab-ad58-bdeb258f96cd","","null","
                <div class=""stimulus-container"">
                    <img src=""images/causal_sequence/dog_causal/dog_causal_6.png"" class=""exp-image"">
                    <div class=""question-area""></div> 
                </div>","null","","","","","","","","","","","",""
"","","","","","html-button-response","112","199119","0.0-112.0","D167BA4F050545C6A8099735FFF272BB","019cfa7b-502b-7183-acbe-e22c016761a6","019cfa3a-388e-72ab-ad58-bdeb258f96cd","","453","
                <div class=""stimulus-container"">
                    <img src=""images/causal_sequence/dog_causal/dog_causal_6.png"" class=""exp-image"">
                    <div class=""question-area"">
                        <p style=""font-size: 20px; font-weight: bold; margin: 0;"">Is there a person in this image?</p>
                    </div>
                </div>","0","main_experiment_trial","6","dog_causal","causal_sequence","chronological","","","","","","",""
"","","","","","html-keyboard-response","113","200133","0.0-113.0","D167BA4F050545C6A8099735FFF272BB","019cfa7b-502b-7183-acbe-e22c016761a6","019cfa3a-388e-72ab-ad58-bdeb258f96cd","","null","
                <div class=""stimulus-container"">
                    <img src=""images/causal_sequence/dog_causal/dog_causal_7.png"" class=""exp-image"">
                    <div class=""question-area""></div> 
                </div>","null","","","","","","","","","","","",""
"","","","","","html-button-response","114","200499","0.0-114.0","D167BA4F050545C6A8099735FFF272BB","019cfa7b-502b-7183-acbe-e22c016761a6","019cfa3a-388e-72ab-ad58-bdeb258f96cd","","366","
                <div class=""stimulus-container"">
                    <img src=""images/causal_sequence/dog_causal/dog_causal_7.png"" class=""exp-image"">
                    <div class=""question-area"">
                        <p style=""font-size: 20px; font-weight: bold; margin: 0;"">Is there a person in this image?</p>
                    </div>
                </div>","0","main_experiment_trial","7","dog_causal","causal_sequence","chronological","","","","","","",""
"","","","","","html-keyboard-response","115","201508","0.0-115.0","D167BA4F050545C6A8099735FFF272BB","019cfa7b-502b-7183-acbe-e22c016761a6","019cfa3a-388e-72ab-ad58-bdeb258f96cd","","null","
                <div class=""stimulus-container"">
                    <img src=""images/causal_sequence/dog_causal/dog_causal_8.png"" class=""exp-image"">
                    <div class=""question-area""></div> 
                </div>","null","","","","","","","","","","","",""
"","","","","","html-button-response","116","201839","0.0-116.0","D167BA4F050545C6A8099735FFF272BB","019cfa7b-502b-7183-acbe-e22c016761a6","019cfa3a-388e-72ab-ad58-bdeb258f96cd","","331","
                <div class=""stimulus-container"">
                    <img src=""images/causal_sequence/dog_causal/dog_causal_8.png"" class=""exp-image"">
                    <div class=""question-area"">
                        <p style=""font-size: 20px; font-weight: bold; margin: 0;"">Is there a person in this image?</p>
                    </div>
                </div>","0","main_experiment_trial","8","dog_causal","causal_sequence","chronological","","","","","","",""
"","","","","","html-keyboard-response","117","202854","0.0-117.0","D167BA4F050545C6A8099735FFF272BB","019cfa7b-502b-7183-acbe-e22c016761a6","019cfa3a-388e-72ab-ad58-bdeb258f96cd","","null","
                <div class=""stimulus-container"">
                    <img src=""images/causal_sequence/dog_causal/dog_causal_9.png"" class=""exp-image"">
                    <div class=""question-area""></div> 
                </div>","null","","","","","","","","","","","",""
"","","","","","html-button-response","118","203311","0.0-118.0","D167BA4F050545C6A8099735FFF272BB","019cfa7b-502b-7183-acbe-e22c016761a6","019cfa3a-388e-72ab-ad58-bdeb258f96cd","","457","
                <div class=""stimulus-container"">
                    <img src=""images/causal_sequence/dog_causal/dog_causal_9.png"" class=""exp-image"">
                    <div class=""question-area"">
                        <p style=""font-size: 20px; font-weight: bold; margin: 0;"">Is there a person in this image?</p>
                    </div>
                </div>","0","main_experiment_trial","9","dog_causal","causal_sequence","chronological","","","","","","",""
"","","","","","html-keyboard-response","119","204324","0.0-119.0","D167BA4F050545C6A8099735FFF272BB","019cfa7b-502b-7183-acbe-e22c016761a6","019cfa3a-388e-72ab-ad58-bdeb258f96cd","","null","
                <div class=""stimulus-container"">
                    <img src=""images/causal_sequence/dog_causal/dog_causal_ten.png"" class=""exp-image"">
                    <div class=""question-area""></div> 
                </div>","null","","","","","","","","","","","",""
"","","","","","html-button-response","120","205135","0.0-120.0","D167BA4F050545C6A8099735FFF272BB","019cfa7b-502b-7183-acbe-e22c016761a6","019cfa3a-388e-72ab-ad58-bdeb258f96cd","","811","
                <div class=""stimulus-container"">
                    <img src=""images/causal_sequence/dog_causal/dog_causal_ten.png"" class=""exp-image"">
                    <div class=""question-area"">
                        <p style=""font-size: 20px; font-weight: bold; margin: 0;"">Is there a person in this image?</p>
                    </div>
                </div>","0","main_experiment_trial","ten","dog_causal","causal_sequence","chronological","","","","","","",""
"","","","","","html-keyboard-response","121","210147","0.0-121.0","D167BA4F050545C6A8099735FFF272BB","019cfa7b-502b-7183-acbe-e22c016761a6","019cfa3a-388e-72ab-ad58-bdeb258f96cd","","null","<div style=""background-color: white; width: 100vw; height: 100vh;""></div>","null","","","","","","","","","","","",""
"","","","","","html-keyboard-response","122","211151","0.0-122.0","D167BA4F050545C6A8099735FFF272BB","019cfa7b-502b-7183-acbe-e22c016761a6","019cfa3a-388e-72ab-ad58-bdeb258f96cd","","null","
                <div class=""stimulus-container"">
                    <img src=""images/semantic_sequence/market_semantic/market_semantic_1.png"" class=""exp-image"">
                    <div class=""question-area""></div> 
                </div>","null","","","","","","","","","","","",""
"","","","","","html-button-response","123","213711","0.0-123.0","D167BA4F050545C6A8099735FFF272BB","019cfa7b-502b-7183-acbe-e22c016761a6","019cfa3a-388e-72ab-ad58-bdeb258f96cd","","2560","
                <div class=""stimulus-container"">
                    <img src=""images/semantic_sequence/market_semantic/market_semantic_1.png"" class=""exp-image"">
                    <div class=""question-area"">
                        <p style=""font-size: 20px; font-weight: bold; margin: 0;"">Is there a person in this image?</p>
                    </div>
                </div>","1","main_experiment_trial","1","market_semantic","semantic_sequence","chronological","","","","","","",""
"","","","","","html-keyboard-response","124","214722","0.0-124.0","D167BA4F050545C6A8099735FFF272BB","019cfa7b-502b-7183-acbe-e22c016761a6","019cfa3a-388e-72ab-ad58-bdeb258f96cd","","null","
                <div class=""stimulus-container"">
                    <img src=""images/semantic_sequence/market_semantic/market_semantic_2.png"" class=""exp-image"">
                    <div class=""question-area""></div> 
                </div>","null","","","","","","","","","","","",""
"","","","","","html-button-response","125","216207","0.0-125.0","D167BA4F050545C6A8099735FFF272BB","019cfa7b-502b-7183-acbe-e22c016761a6","019cfa3a-388e-72ab-ad58-bdeb258f96cd","","1485","
                <div class=""stimulus-container"">
                    <img src=""images/semantic_sequence/market_semantic/market_semantic_2.png"" class=""exp-image"">
                    <div class=""question-area"">
                        <p style=""font-size: 20px; font-weight: bold; margin: 0;"">Is there a person in this image?</p>
                    </div>
                </div>","1","main_experiment_trial","2","market_semantic","semantic_sequence","chronological","","","","","","",""
"","","","","","html-keyboard-response","126","217210","0.0-126.0","D167BA4F050545C6A8099735FFF272BB","019cfa7b-502b-7183-acbe-e22c016761a6","019cfa3a-388e-72ab-ad58-bdeb258f96cd","","null","
                <div class=""stimulus-container"">
                    <img src=""images/semantic_sequence/market_semantic/market_semantic_3.png"" class=""exp-image"">
                    <div class=""question-area""></div> 
                </div>","null","","","","","","","","","","","",""
"","","","","","html-button-response","127","218847","0.0-127.0","D167BA4F050545C6A8099735FFF272BB","019cfa7b-502b-7183-acbe-e22c016761a6","019cfa3a-388e-72ab-ad58-bdeb258f96cd","","1637","
                <div class=""stimulus-container"">
                    <img src=""images/semantic_sequence/market_semantic/market_semantic_3.png"" class=""exp-image"">
                    <div class=""question-area"">
                        <p style=""font-size: 20px; font-weight: bold; margin: 0;"">Is there a person in this image?</p>
                    </div>
                </div>","1","main_experiment_trial","3","market_semantic","semantic_sequence","chronological","","","","","","",""
"","","","","","html-keyboard-response","128","219851","0.0-128.0","D167BA4F050545C6A8099735FFF272BB","019cfa7b-502b-7183-acbe-e22c016761a6","019cfa3a-388e-72ab-ad58-bdeb258f96cd","","null","
                <div class=""stimulus-container"">
                    <img src=""images/semantic_sequence/market_semantic/market_semantic_4.png"" class=""exp-image"">
                    <div class=""question-area""></div> 
                </div>","null","","","","","","","","","","","",""
"","","","","","html-button-response","129","220631","0.0-129.0","D167BA4F050545C6A8099735FFF272BB","019cfa7b-502b-7183-acbe-e22c016761a6","019cfa3a-388e-72ab-ad58-bdeb258f96cd","","780","
                <div class=""stimulus-container"">
                    <img src=""images/semantic_sequence/market_semantic/market_semantic_4.png"" class=""exp-image"">
                    <div class=""question-area"">
                        <p style=""font-size: 20px; font-weight: bold; margin: 0;"">Is there a person in this image?</p>
                    </div>
                </div>","0","main_experiment_trial","4","market_semantic","semantic_sequence","chronological","","","","","","",""
"","","","","","html-keyboard-response","130","221640","0.0-130.0","D167BA4F050545C6A8099735FFF272BB","019cfa7b-502b-7183-acbe-e22c016761a6","019cfa3a-388e-72ab-ad58-bdeb258f96cd","","null","
                <div class=""stimulus-container"">
                    <img src=""images/semantic_sequence/market_semantic/market_semantic_5.png"" class=""exp-image"">
                    <div class=""question-area""></div> 
                </div>","null","","","","","","","","","","","",""
"","","","","","html-button-response","131","222271","0.0-131.0","D167BA4F050545C6A8099735FFF272BB","019cfa7b-502b-7183-acbe-e22c016761a6","019cfa3a-388e-72ab-ad58-bdeb258f96cd","","631","
                <div class=""stimulus-container"">
                    <img src=""images/semantic_sequence/market_semantic/market_semantic_5.png"" class=""exp-image"">
                    <div class=""question-area"">
                        <p style=""font-size: 20px; font-weight: bold; margin: 0;"">Is there a person in this image?</p>
                    </div>
                </div>","1","main_experiment_trial","5","market_semantic","semantic_sequence","chronological","","","","","","",""
"","","","","","html-keyboard-response","132","223280","0.0-132.0","D167BA4F050545C6A8099735FFF272BB","019cfa7b-502b-7183-acbe-e22c016761a6","019cfa3a-388e-72ab-ad58-bdeb258f96cd","","null","
                <div class=""stimulus-container"">
                    <img src=""images/semantic_sequence/market_semantic/market_semantic_6.png"" class=""exp-image"">
                    <div class=""question-area""></div> 
                </div>","null","","","","","","","","","","","",""
"","","","","","html-button-response","133","225079","0.0-133.0","D167BA4F050545C6A8099735FFF272BB","019cfa7b-502b-7183-acbe-e22c016761a6","019cfa3a-388e-72ab-ad58-bdeb258f96cd","","1799","
                <div class=""stimulus-container"">
                    <img src=""images/semantic_sequence/market_semantic/market_semantic_6.png"" class=""exp-image"">
                    <div class=""question-area"">
                        <p style=""font-size: 20px; font-weight: bold; margin: 0;"">Is there a person in this image?</p>
                    </div>
                </div>","1","main_experiment_trial","6","market_semantic","semantic_sequence","chronological","","","","","","",""
"","","","","","html-keyboard-response","134","226083","0.0-134.0","D167BA4F050545C6A8099735FFF272BB","019cfa7b-502b-7183-acbe-e22c016761a6","019cfa3a-388e-72ab-ad58-bdeb258f96cd","","null","
                <div class=""stimulus-container"">
                    <img src=""images/semantic_sequence/market_semantic/market_semantic_7.png"" class=""exp-image"">
                    <div class=""question-area""></div> 
                </div>","null","","","","","","","","","","","",""
"","","","","","html-button-response","135","226847","0.0-135.0","D167BA4F050545C6A8099735FFF272BB","019cfa7b-502b-7183-acbe-e22c016761a6","019cfa3a-388e-72ab-ad58-bdeb258f96cd","","764","
                <div class=""stimulus-container"">
                    <img src=""images/semantic_sequence/market_semantic/market_semantic_7.png"" class=""exp-image"">
                    <div class=""question-area"">
                        <p style=""font-size: 20px; font-weight: bold; margin: 0;"">Is there a person in this image?</p>
                    </div>
                </div>","0","main_experiment_trial","7","market_semantic","semantic_sequence","chronological","","","","","","",""
"","","","","","html-keyboard-response","136","227850","0.0-136.0","D167BA4F050545C6A8099735FFF272BB","019cfa7b-502b-7183-acbe-e22c016761a6","019cfa3a-388e-72ab-ad58-bdeb258f96cd","","null","
                <div class=""stimulus-container"">
                    <img src=""images/semantic_sequence/market_semantic/market_semantic_8.png"" class=""exp-image"">
                    <div class=""question-area""></div> 
                </div>","null","","","","","","","","","","","",""
"","","","","","html-button-response","137","229407","0.0-137.0","D167BA4F050545C6A8099735FFF272BB","019cfa7b-502b-7183-acbe-e22c016761a6","019cfa3a-388e-72ab-ad58-bdeb258f96cd","","1557","
                <div class=""stimulus-container"">
                    <img src=""images/semantic_sequence/market_semantic/market_semantic_8.png"" class=""exp-image"">
                    <div class=""question-area"">
                        <p style=""font-size: 20px; font-weight: bold; margin: 0;"">Is there a person in this image?</p>
                    </div>
                </div>","0","main_experiment_trial","8","market_semantic","semantic_sequence","chronological","","","","","","",""
"","","","","","html-keyboard-response","138","230421","0.0-138.0","D167BA4F050545C6A8099735FFF272BB","019cfa7b-502b-7183-acbe-e22c016761a6","019cfa3a-388e-72ab-ad58-bdeb258f96cd","","null","
                <div class=""stimulus-container"">
                    <img src=""images/semantic_sequence/market_semantic/market_semantic_9.png"" class=""exp-image"">
                    <div class=""question-area""></div> 
                </div>","null","","","","","","","","","","","",""
"","","","","","html-button-response","139","230951","0.0-139.0","D167BA4F050545C6A8099735FFF272BB","019cfa7b-502b-7183-acbe-e22c016761a6","019cfa3a-388e-72ab-ad58-bdeb258f96cd","","530","
                <div class=""stimulus-container"">
                    <img src=""images/semantic_sequence/market_semantic/market_semantic_9.png"" class=""exp-image"">
                    <div class=""question-area"">
                        <p style=""font-size: 20px; font-weight: bold; margin: 0;"">Is there a person in this image?</p>
                    </div>
                </div>","0","main_experiment_trial","9","market_semantic","semantic_sequence","chronological","","","","","","",""
"","","","","","html-keyboard-response","140","231967","0.0-140.0","D167BA4F050545C6A8099735FFF272BB","019cfa7b-502b-7183-acbe-e22c016761a6","019cfa3a-388e-72ab-ad58-bdeb258f96cd","","null","
                <div class=""stimulus-container"">
                    <img src=""images/semantic_sequence/market_semantic/market_semantic_ten.png"" class=""exp-image"">
                    <div class=""question-area""></div> 
                </div>","null","","","","","","","","","","","",""
"","","","","","html-button-response","141","234879","0.0-141.0","D167BA4F050545C6A8099735FFF272BB","019cfa7b-502b-7183-acbe-e22c016761a6","019cfa3a-388e-72ab-ad58-bdeb258f96cd","","2912","
                <div class=""stimulus-container"">
                    <img src=""images/semantic_sequence/market_semantic/market_semantic_ten.png"" class=""exp-image"">
                    <div class=""question-area"">
                        <p style=""font-size: 20px; font-weight: bold; margin: 0;"">Is there a person in this image?</p>
                    </div>
                </div>","1","main_experiment_trial","ten","market_semantic","semantic_sequence","chronological","","","","","","",""
"","","","","","html-keyboard-response","142","239881","0.0-142.0","D167BA4F050545C6A8099735FFF272BB","019cfa7b-502b-7183-acbe-e22c016761a6","019cfa3a-388e-72ab-ad58-bdeb258f96cd","","null","<div style=""background-color: white; width: 100vw; height: 100vh;""></div>","null","","","","","","","","","","","",""
"","","","","","html-keyboard-response","143","240886","0.0-143.0","D167BA4F050545C6A8099735FFF272BB","019cfa7b-502b-7183-acbe-e22c016761a6","019cfa3a-388e-72ab-ad58-bdeb258f96cd","","null","
                <div class=""stimulus-container"">
                    <img src=""images/semantic_sequence/self_care_activities_semantic/self_care_activities_semantic_1.png"" class=""exp-image"">
                    <div class=""question-area""></div> 
                </div>","null","","","","","","","","","","","",""
"","","","","","html-button-response","144","242375","0.0-144.0","D167BA4F050545C6A8099735FFF272BB","019cfa7b-502b-7183-acbe-e22c016761a6","019cfa3a-388e-72ab-ad58-bdeb258f96cd","","1489","
                <div class=""stimulus-container"">
                    <img src=""images/semantic_sequence/self_care_activities_semantic/self_care_activities_semantic_1.png"" class=""exp-image"">
                    <div class=""question-area"">
                        <p style=""font-size: 20px; font-weight: bold; margin: 0;"">Is there a person in this image?</p>
                    </div>
                </div>","0","main_experiment_trial","1","self_care_activities_semantic","semantic_sequence","chronological","","","","","","",""
"","","","","","html-keyboard-response","145","243391","0.0-145.0","D167BA4F050545C6A8099735FFF272BB","019cfa7b-502b-7183-acbe-e22c016761a6","019cfa3a-388e-72ab-ad58-bdeb258f96cd","","null","
                <div class=""stimulus-container"">
                    <img src=""images/semantic_sequence/self_care_activities_semantic/self_care_activities_semantic_2.png"" class=""exp-image"">
                    <div class=""question-area""></div> 
                </div>","null","","","","","","","","","","","",""
"","","","","","html-button-response","146","244887","0.0-146.0","D167BA4F050545C6A8099735FFF272BB","019cfa7b-502b-7183-acbe-e22c016761a6","019cfa3a-388e-72ab-ad58-bdeb258f96cd","","1496","
                <div class=""stimulus-container"">
                    <img src=""images/semantic_sequence/self_care_activities_semantic/self_care_activities_semantic_2.png"" class=""exp-image"">
                    <div class=""question-area"">
                        <p style=""font-size: 20px; font-weight: bold; margin: 0;"">Is there a person in this image?</p>
                    </div>
                </div>","0","main_experiment_trial","2","self_care_activities_semantic","semantic_sequence","chronological","","","","","","",""
"","","","","","html-keyboard-response","147","245895","0.0-147.0","D167BA4F050545C6A8099735FFF272BB","019cfa7b-502b-7183-acbe-e22c016761a6","019cfa3a-388e-72ab-ad58-bdeb258f96cd","","null","
                <div class=""stimulus-container"">
                    <img src=""images/semantic_sequence/self_care_activities_semantic/self_care_activities_semantic_3.png"" class=""exp-image"">
                    <div class=""question-area""></div> 
                </div>","null","","","","","","","","","","","",""
"","","","","","html-button-response","148","247575","0.0-148.0","D167BA4F050545C6A8099735FFF272BB","019cfa7b-502b-7183-acbe-e22c016761a6","019cfa3a-388e-72ab-ad58-bdeb258f96cd","","1680","
                <div class=""stimulus-container"">
                    <img src=""images/semantic_sequence/self_care_activities_semantic/self_care_activities_semantic_3.png"" class=""exp-image"">
                    <div class=""question-area"">
                        <p style=""font-size: 20px; font-weight: bold; margin: 0;"">Is there a person in this image?</p>
                    </div>
                </div>","0","main_experiment_trial","3","self_care_activities_semantic","semantic_sequence","chronological","","","","","","",""
"","","","","","html-keyboard-response","149","248583","0.0-149.0","D167BA4F050545C6A8099735FFF272BB","019cfa7b-502b-7183-acbe-e22c016761a6","019cfa3a-388e-72ab-ad58-bdeb258f96cd","","null","
                <div class=""stimulus-container"">
                    <img src=""images/semantic_sequence/self_care_activities_semantic/self_care_activities_semantic_4.png"" class=""exp-image"">
                    <div class=""question-area""></div> 
                </div>","null","","","","","","","","","","","",""
"","","","","","html-button-response","150","250383","0.0-150.0","D167BA4F050545C6A8099735FFF272BB","019cfa7b-502b-7183-acbe-e22c016761a6","019cfa3a-388e-72ab-ad58-bdeb258f96cd","","1800","
                <div class=""stimulus-container"">
                    <img src=""images/semantic_sequence/self_care_activities_semantic/self_care_activities_semantic_4.png"" class=""exp-image"">
                    <div class=""question-area"">
                        <p style=""font-size: 20px; font-weight: bold; margin: 0;"">Is there a person in this image?</p>
                    </div>
                </div>","0","main_experiment_trial","4","self_care_activities_semantic","semantic_sequence","chronological","","","","","","",""
"","","","","","html-keyboard-response","151","251398","0.0-151.0","D167BA4F050545C6A8099735FFF272BB","019cfa7b-502b-7183-acbe-e22c016761a6","019cfa3a-388e-72ab-ad58-bdeb258f96cd","","null","
                <div class=""stimulus-container"">
                    <img src=""images/semantic_sequence/self_care_activities_semantic/self_care_activities_semantic_5.png"" class=""exp-image"">
                    <div class=""question-area""></div> 
                </div>","null","","","","","","","","","","","",""
"","","","","","html-button-response","152","252339","0.0-152.0","D167BA4F050545C6A8099735FFF272BB","019cfa7b-502b-7183-acbe-e22c016761a6","019cfa3a-388e-72ab-ad58-bdeb258f96cd","","941","
                <div class=""stimulus-container"">
                    <img src=""images/semantic_sequence/self_care_activities_semantic/self_care_activities_semantic_5.png"" class=""exp-image"">
                    <div class=""question-area"">
                        <p style=""font-size: 20px; font-weight: bold; margin: 0;"">Is there a person in this image?</p>
                    </div>
                </div>","0","main_experiment_trial","5","self_care_activities_semantic","semantic_sequence","chronological","","","","","","",""
"","","","","","html-keyboard-response","153","253344","0.0-153.0","D167BA4F050545C6A8099735FFF272BB","019cfa7b-502b-7183-acbe-e22c016761a6","019cfa3a-388e-72ab-ad58-bdeb258f96cd","","null","
                <div class=""stimulus-container"">
                    <img src=""images/semantic_sequence/self_care_activities_semantic/self_care_activities_semantic_6.png"" class=""exp-image"">
                    <div class=""question-area""></div> 
                </div>","null","","","","","","","","","","","",""
"","","","","","html-button-response","154","254343","0.0-154.0","D167BA4F050545C6A8099735FFF272BB","019cfa7b-502b-7183-acbe-e22c016761a6","019cfa3a-388e-72ab-ad58-bdeb258f96cd","","999","
                <div class=""stimulus-container"">
                    <img src=""images/semantic_sequence/self_care_activities_semantic/self_care_activities_semantic_6.png"" class=""exp-image"">
                    <div class=""question-area"">
                        <p style=""font-size: 20px; font-weight: bold; margin: 0;"">Is there a person in this image?</p>
                    </div>
                </div>","1","main_experiment_trial","6","self_care_activities_semantic","semantic_sequence","chronological","","","","","","",""
"","","","","","html-keyboard-response","155","255349","0.0-155.0","D167BA4F050545C6A8099735FFF272BB","019cfa7b-502b-7183-acbe-e22c016761a6","019cfa3a-388e-72ab-ad58-bdeb258f96cd","","null","
                <div class=""stimulus-container"">
                    <img src=""images/semantic_sequence/self_care_activities_semantic/self_care_activities_semantic_7.png"" class=""exp-image"">
                    <div class=""question-area""></div> 
                </div>","null","","","","","","","","","","","",""
"","","","","","html-button-response","156","257175","0.0-156.0","D167BA4F050545C6A8099735FFF272BB","019cfa7b-502b-7183-acbe-e22c016761a6","019cfa3a-388e-72ab-ad58-bdeb258f96cd","","1825","
                <div class=""stimulus-container"">
                    <img src=""images/semantic_sequence/self_care_activities_semantic/self_care_activities_semantic_7.png"" class=""exp-image"">
                    <div class=""question-area"">
                        <p style=""font-size: 20px; font-weight: bold; margin: 0;"">Is there a person in this image?</p>
                    </div>
                </div>","0","main_experiment_trial","7","self_care_activities_semantic","semantic_sequence","chronological","","","","","","",""
"","","","","","html-keyboard-response","157","258178","0.0-157.0","D167BA4F050545C6A8099735FFF272BB","019cfa7b-502b-7183-acbe-e22c016761a6","019cfa3a-388e-72ab-ad58-bdeb258f96cd","","null","
                <div class=""stimulus-container"">
                    <img src=""images/semantic_sequence/self_care_activities_semantic/self_care_activities_semantic_8.png"" class=""exp-image"">
                    <div class=""question-area""></div> 
                </div>","null","","","","","","","","","","","",""
"","","","","","html-button-response","158","259647","0.0-158.0","D167BA4F050545C6A8099735FFF272BB","019cfa7b-502b-7183-acbe-e22c016761a6","019cfa3a-388e-72ab-ad58-bdeb258f96cd","","1469","
                <div class=""stimulus-container"">
                    <img src=""images/semantic_sequence/self_care_activities_semantic/self_care_activities_semantic_8.png"" class=""exp-image"">
                    <div class=""question-area"">
                        <p style=""font-size: 20px; font-weight: bold; margin: 0;"">Is there a person in this image?</p>
                    </div>
                </div>","0","main_experiment_trial","8","self_care_activities_semantic","semantic_sequence","chronological","","","","","","",""
"","","","","","html-keyboard-response","159","260662","0.0-159.0","D167BA4F050545C6A8099735FFF272BB","019cfa7b-502b-7183-acbe-e22c016761a6","019cfa3a-388e-72ab-ad58-bdeb258f96cd","","null","
                <div class=""stimulus-container"">
                    <img src=""images/semantic_sequence/self_care_activities_semantic/self_care_activities_semantic_9.png"" class=""exp-image"">
                    <div class=""question-area""></div> 
                </div>","null","","","","","","","","","","","",""
"","","","","","html-button-response","160","261903","0.0-160.0","D167BA4F050545C6A8099735FFF272BB","019cfa7b-502b-7183-acbe-e22c016761a6","019cfa3a-388e-72ab-ad58-bdeb258f96cd","","1241","
                <div class=""stimulus-container"">
                    <img src=""images/semantic_sequence/self_care_activities_semantic/self_care_activities_semantic_9.png"" class=""exp-image"">
                    <div class=""question-area"">
                        <p style=""font-size: 20px; font-weight: bold; margin: 0;"">Is there a person in this image?</p>
                    </div>
                </div>","0","main_experiment_trial","9","self_care_activities_semantic","semantic_sequence","chronological","","","","","","",""
"","","","","","html-keyboard-response","161","262918","0.0-161.0","D167BA4F050545C6A8099735FFF272BB","019cfa7b-502b-7183-acbe-e22c016761a6","019cfa3a-388e-72ab-ad58-bdeb258f96cd","","null","
                <div class=""stimulus-container"">
                    <img src=""images/semantic_sequence/self_care_activities_semantic/self_care_activities_semantic_ten.png"" class=""exp-image"">
                    <div class=""question-area""></div> 
                </div>","null","","","","","","","","","","","",""
"","","","","","html-button-response","162","263559","0.0-162.0","D167BA4F050545C6A8099735FFF272BB","019cfa7b-502b-7183-acbe-e22c016761a6","019cfa3a-388e-72ab-ad58-bdeb258f96cd","","641","
                <div class=""stimulus-container"">
                    <img src=""images/semantic_sequence/self_care_activities_semantic/self_care_activities_semantic_ten.png"" class=""exp-image"">
                    <div class=""question-area"">
                        <p style=""font-size: 20px; font-weight: bold; margin: 0;"">Is there a person in this image?</p>
                    </div>
                </div>","0","main_experiment_trial","ten","self_care_activities_semantic","semantic_sequence","chronological","","","","","","",""
"","","","","","html-keyboard-response","163","268573","0.0-163.0","D167BA4F050545C6A8099735FFF272BB","019cfa7b-502b-7183-acbe-e22c016761a6","019cfa3a-388e-72ab-ad58-bdeb258f96cd","","null","<div style=""background-color: white; width: 100vw; height: 100vh;""></div>","null","","","","","","","","","","","",""
"","","","","","html-keyboard-response","164","269580","0.0-164.0","D167BA4F050545C6A8099735FFF272BB","019cfa7b-502b-7183-acbe-e22c016761a6","019cfa3a-388e-72ab-ad58-bdeb258f96cd","","null","
                <div class=""stimulus-container"">
                    <img src=""images/causal_sequence/coin_causal/coin_causal_1.png"" class=""exp-image"">
                    <div class=""question-area""></div> 
                </div>","null","","","","","","","","","","","",""
"","","","","","html-button-response","165","271671","0.0-165.0","D167BA4F050545C6A8099735FFF272BB","019cfa7b-502b-7183-acbe-e22c016761a6","019cfa3a-388e-72ab-ad58-bdeb258f96cd","","2091","
                <div class=""stimulus-container"">
                    <img src=""images/causal_sequence/coin_causal/coin_causal_1.png"" class=""exp-image"">
                    <div class=""question-area"">
                        <p style=""font-size: 20px; font-weight: bold; margin: 0;"">Is there a person in this image?</p>
                    </div>
                </div>","0","main_experiment_trial","1","coin_causal","causal_sequence","chronological","","","","","","",""
"","","","","","html-keyboard-response","166","272684","0.0-166.0","D167BA4F050545C6A8099735FFF272BB","019cfa7b-502b-7183-acbe-e22c016761a6","019cfa3a-388e-72ab-ad58-bdeb258f96cd","","null","
                <div class=""stimulus-container"">
                    <img src=""images/causal_sequence/coin_causal/coin_causal_2.png"" class=""exp-image"">
                    <div class=""question-area""></div> 
                </div>","null","","","","","","","","","","","",""
"","","","","","html-button-response","167","273159","0.0-167.0","D167BA4F050545C6A8099735FFF272BB","019cfa7b-502b-7183-acbe-e22c016761a6","019cfa3a-388e-72ab-ad58-bdeb258f96cd","","474","
                <div class=""stimulus-container"">
                    <img src=""images/causal_sequence/coin_causal/coin_causal_2.png"" class=""exp-image"">
                    <div class=""question-area"">
                        <p style=""font-size: 20px; font-weight: bold; margin: 0;"">Is there a person in this image?</p>
                    </div>
                </div>","0","main_experiment_trial","2","coin_causal","causal_sequence","chronological","","","","","","",""
"","","","","","html-keyboard-response","168","274170","0.0-168.0","D167BA4F050545C6A8099735FFF272BB","019cfa7b-502b-7183-acbe-e22c016761a6","019cfa3a-388e-72ab-ad58-bdeb258f96cd","","null","
                <div class=""stimulus-container"">
                    <img src=""images/causal_sequence/coin_causal/coin_causal_3.png"" class=""exp-image"">
                    <div class=""question-area""></div> 
                </div>","null","","","","","","","","","","","",""
"","","","","","html-button-response","169","274887","0.0-169.0","D167BA4F050545C6A8099735FFF272BB","019cfa7b-502b-7183-acbe-e22c016761a6","019cfa3a-388e-72ab-ad58-bdeb258f96cd","","717","
                <div class=""stimulus-container"">
                    <img src=""images/causal_sequence/coin_causal/coin_causal_3.png"" class=""exp-image"">
                    <div class=""question-area"">
                        <p style=""font-size: 20px; font-weight: bold; margin: 0;"">Is there a person in this image?</p>
                    </div>
                </div>","0","main_experiment_trial","3","coin_causal","causal_sequence","chronological","","","","","","",""
"","","","","","html-keyboard-response","170","275900","0.0-170.0","D167BA4F050545C6A8099735FFF272BB","019cfa7b-502b-7183-acbe-e22c016761a6","019cfa3a-388e-72ab-ad58-bdeb258f96cd","","null","
                <div class=""stimulus-container"">
                    <img src=""images/causal_sequence/coin_causal/coin_causal_4.png"" class=""exp-image"">
                    <div class=""question-area""></div> 
                </div>","null","","","","","","","","","","","",""
"","","","","","html-button-response","171","276647","0.0-171.0","D167BA4F050545C6A8099735FFF272BB","019cfa7b-502b-7183-acbe-e22c016761a6","019cfa3a-388e-72ab-ad58-bdeb258f96cd","","747","
                <div class=""stimulus-container"">
                    <img src=""images/causal_sequence/coin_causal/coin_causal_4.png"" class=""exp-image"">
                    <div class=""question-area"">
                        <p style=""font-size: 20px; font-weight: bold; margin: 0;"">Is there a person in this image?</p>
                    </div>
                </div>","0","main_experiment_trial","4","coin_causal","causal_sequence","chronological","","","","","","",""
"","","","","","html-keyboard-response","172","277662","0.0-172.0","D167BA4F050545C6A8099735FFF272BB","019cfa7b-502b-7183-acbe-e22c016761a6","019cfa3a-388e-72ab-ad58-bdeb258f96cd","","null","
                <div class=""stimulus-container"">
                    <img src=""images/causal_sequence/coin_causal/coin_causal_5.png"" class=""exp-image"">
                    <div class=""question-area""></div> 
                </div>","null","","","","","","","","","","","",""
"","","","","","html-button-response","173","278087","0.0-173.0","D167BA4F050545C6A8099735FFF272BB","019cfa7b-502b-7183-acbe-e22c016761a6","019cfa3a-388e-72ab-ad58-bdeb258f96cd","","425","
                <div class=""stimulus-container"">
                    <img src=""images/causal_sequence/coin_causal/coin_causal_5.png"" class=""exp-image"">
                    <div class=""question-area"">
                        <p style=""font-size: 20px; font-weight: bold; margin: 0;"">Is there a person in this image?</p>
                    </div>
                </div>","0","main_experiment_trial","5","coin_causal","causal_sequence","chronological","","","","","","",""
"","","","","","html-keyboard-response","174","279095","0.0-174.0","D167BA4F050545C6A8099735FFF272BB","019cfa7b-502b-7183-acbe-e22c016761a6","019cfa3a-388e-72ab-ad58-bdeb258f96cd","","null","
                <div class=""stimulus-container"">
                    <img src=""images/causal_sequence/coin_causal/coin_causal_6.png"" class=""exp-image"">
                    <div class=""question-area""></div> 
                </div>","null","","","","","","","","","","","",""
"","","","","","html-button-response","175","279455","0.0-175.0","D167BA4F050545C6A8099735FFF272BB","019cfa7b-502b-7183-acbe-e22c016761a6","019cfa3a-388e-72ab-ad58-bdeb258f96cd","","359","
                <div class=""stimulus-container"">
                    <img src=""images/causal_sequence/coin_causal/coin_causal_6.png"" class=""exp-image"">
                    <div class=""question-area"">
                        <p style=""font-size: 20px; font-weight: bold; margin: 0;"">Is there a person in this image?</p>
                    </div>
                </div>","0","main_experiment_trial","6","coin_causal","causal_sequence","chronological","","","","","","",""
"","","","","","html-keyboard-response","176","280468","0.0-176.0","D167BA4F050545C6A8099735FFF272BB","019cfa7b-502b-7183-acbe-e22c016761a6","019cfa3a-388e-72ab-ad58-bdeb258f96cd","","null","
                <div class=""stimulus-container"">
                    <img src=""images/causal_sequence/coin_causal/coin_causal_7.png"" class=""exp-image"">
                    <div class=""question-area""></div> 
                </div>","null","","","","","","","","","","","",""
"","","","","","html-button-response","177","280911","0.0-177.0","D167BA4F050545C6A8099735FFF272BB","019cfa7b-502b-7183-acbe-e22c016761a6","019cfa3a-388e-72ab-ad58-bdeb258f96cd","","443","
                <div class=""stimulus-container"">
                    <img src=""images/causal_sequence/coin_causal/coin_causal_7.png"" class=""exp-image"">
                    <div class=""question-area"">
                        <p style=""font-size: 20px; font-weight: bold; margin: 0;"">Is there a person in this image?</p>
                    </div>
                </div>","1","main_experiment_trial","7","coin_causal","causal_sequence","chronological","","","","","","",""
