"success","timeout","failed_images","failed_audio","failed_video","trial_type","trial_index","time_elapsed","internal_node_id","subject_id","study_id","session_id","view_history","rt","stimulus","response","task","image_index","folder","sequence_type","valuable_image_index","reward_type","chosen_image_index","target_X","correct_choice"
"true","false","[]","[]","[]","preload","0","9194","0.0-0.0","57BD9A62E709447AB3691E9E679F6E1A","019cf85a-2337-730c-b499-28e2fcb37db6","019cf855-66fc-7d76-a612-8313d2c5c123","","","","","","","","","","","","",""
"","","","","","instructions","1","11459","0.0-1.0","57BD9A62E709447AB3691E9E679F6E1A","019cf85a-2337-730c-b499-28e2fcb37db6","019cf855-66fc-7d76-a612-8313d2c5c123","[{""page_index"":0,""viewing_time"":2262}]","2263","","","","","","","","","","",""
"","","","","","instructions","2","16866","0.0-2.0","57BD9A62E709447AB3691E9E679F6E1A","019cf85a-2337-730c-b499-28e2fcb37db6","019cf855-66fc-7d76-a612-8313d2c5c123","[{""page_index"":0,""viewing_time"":5405}]","5406","","","","","","","","","","",""
"true","","","","","fullscreen","3","19305","0.0-3.0","57BD9A62E709447AB3691E9E679F6E1A","019cf85a-2337-730c-b499-28e2fcb37db6","019cf855-66fc-7d76-a612-8313d2c5c123","","1435","","","","","","","","","","",""
"","","","","","instructions","4","50912","0.0-4.0","57BD9A62E709447AB3691E9E679F6E1A","019cf85a-2337-730c-b499-28e2fcb37db6","019cf855-66fc-7d76-a612-8313d2c5c123","[{""page_index"":0,""viewing_time"":31605}]","31606","","","","","","","","","","",""
"","","","","","instructions","5","59963","0.0-5.0","57BD9A62E709447AB3691E9E679F6E1A","019cf85a-2337-730c-b499-28e2fcb37db6","019cf855-66fc-7d76-a612-8313d2c5c123","[{""page_index"":0,""viewing_time"":9049}]","9050","","","","","","","","","","",""
"","","","","","html-keyboard-response","6","63966","0.0-6.0","57BD9A62E709447AB3691E9E679F6E1A","019cf85a-2337-730c-b499-28e2fcb37db6","019cf855-66fc-7d76-a612-8313d2c5c123","","null","
                <div class=""stimulus-container"">
                    <img src=""images/instructions/movie_1.png"" class=""exp-image"">
                    <div class=""question-area""></div> 
                </div>","null","","","","","","","","",""
"","","","","","html-button-response","7","65405","0.0-7.0","57BD9A62E709447AB3691E9E679F6E1A","019cf85a-2337-730c-b499-28e2fcb37db6","019cf855-66fc-7d76-a612-8313d2c5c123","","1435","
                <div class=""stimulus-container"">
                    <img src=""images/instructions/movie_1.png"" class=""exp-image"">
                    <div class=""question-area"">
                        <p style=""font-size: 20px; font-weight: bold; margin: 0;"">Was there a person in this image?</p>
                    </div>
                </div>","0","example_question","1","","","","","","",""
"","","","","","html-keyboard-response","8","69408","0.0-8.0","57BD9A62E709447AB3691E9E679F6E1A","019cf85a-2337-730c-b499-28e2fcb37db6","019cf855-66fc-7d76-a612-8313d2c5c123","","null","
                <div class=""stimulus-container"">
                    <img src=""images/instructions/movie_2.png"" class=""exp-image"">
                    <div class=""question-area""></div> 
                </div>","null","","","","","","","","",""
"","","","","","html-button-response","9","70063","0.0-9.0","57BD9A62E709447AB3691E9E679F6E1A","019cf85a-2337-730c-b499-28e2fcb37db6","019cf855-66fc-7d76-a612-8313d2c5c123","","652","
                <div class=""stimulus-container"">
                    <img src=""images/instructions/movie_2.png"" class=""exp-image"">
                    <div class=""question-area"">
                        <p style=""font-size: 20px; font-weight: bold; margin: 0;"">Was there a person in this image?</p>
                    </div>
                </div>","0","example_question","2","","","","","","",""
"","","","","","html-keyboard-response","10","74065","0.0-10.0","57BD9A62E709447AB3691E9E679F6E1A","019cf85a-2337-730c-b499-28e2fcb37db6","019cf855-66fc-7d76-a612-8313d2c5c123","","null","
                <div class=""stimulus-container"">
                    <img src=""images/instructions/movie_3.png"" class=""exp-image"">
                    <div class=""question-area""></div> 
                </div>","null","","","","","","","","",""
"","","","","","html-button-response","11","74552","0.0-11.0","57BD9A62E709447AB3691E9E679F6E1A","019cf85a-2337-730c-b499-28e2fcb37db6","019cf855-66fc-7d76-a612-8313d2c5c123","","484","
                <div class=""stimulus-container"">
                    <img src=""images/instructions/movie_3.png"" class=""exp-image"">
                    <div class=""question-area"">
                        <p style=""font-size: 20px; font-weight: bold; margin: 0;"">Was there a person in this image?</p>
                    </div>
                </div>","0","example_question","3","","","","","","",""
"","","","","","html-keyboard-response","12","78554","0.0-12.0","57BD9A62E709447AB3691E9E679F6E1A","019cf85a-2337-730c-b499-28e2fcb37db6","019cf855-66fc-7d76-a612-8313d2c5c123","","null","
                <div class=""stimulus-container"">
                    <img src=""images/instructions/movie_4.png"" class=""exp-image"">
                    <div class=""question-area""></div> 
                </div>","null","","","","","","","","",""
"","","","","","html-button-response","13","78996","0.0-13.0","57BD9A62E709447AB3691E9E679F6E1A","019cf85a-2337-730c-b499-28e2fcb37db6","019cf855-66fc-7d76-a612-8313d2c5c123","","439","
                <div class=""stimulus-container"">
                    <img src=""images/instructions/movie_4.png"" class=""exp-image"">
                    <div class=""question-area"">
                        <p style=""font-size: 20px; font-weight: bold; margin: 0;"">Was there a person in this image?</p>
                    </div>
                </div>","0","example_question","4","","","","","","",""
"","","","","","instructions","14","80433","0.0-14.0","57BD9A62E709447AB3691E9E679F6E1A","019cf85a-2337-730c-b499-28e2fcb37db6","019cf855-66fc-7d76-a612-8313d2c5c123","[{""page_index"":0,""viewing_time"":1435}]","1436","","","","","","","","","","",""
"","","","","","instructions","15","98914","0.0-15.0","57BD9A62E709447AB3691E9E679F6E1A","019cf85a-2337-730c-b499-28e2fcb37db6","019cf855-66fc-7d76-a612-8313d2c5c123","[{""page_index"":0,""viewing_time"":18479}]","18480","","","","","","","","","","",""
"","","","","","html-keyboard-response","16","99916","0.0-16.0","57BD9A62E709447AB3691E9E679F6E1A","019cf85a-2337-730c-b499-28e2fcb37db6","019cf855-66fc-7d76-a612-8313d2c5c123","","null","<div style=""background-color: white; width: 100vw; height: 100vh;""></div>","null","","","","","","","","",""
"","","","","","html-keyboard-response","17","104918","0.0-17.0","57BD9A62E709447AB3691E9E679F6E1A","019cf85a-2337-730c-b499-28e2fcb37db6","019cf855-66fc-7d76-a612-8313d2c5c123","","null","
                <div class=""stimulus-container"">
                    <img src=""images/schematic_sequence/dinner_party_scheme/dinner_party_scheme_1.png"" class=""exp-image"">
                    <div class=""question-area""></div> 
                </div>","null","","","","","","","","",""
"","","","","","html-button-response","18","105945","0.0-18.0","57BD9A62E709447AB3691E9E679F6E1A","019cf85a-2337-730c-b499-28e2fcb37db6","019cf855-66fc-7d76-a612-8313d2c5c123","","1024","
                <div class=""stimulus-container"">
                    <img src=""images/schematic_sequence/dinner_party_scheme/dinner_party_scheme_1.png"" class=""exp-image"">
                    <div class=""question-area"">
                        <p style=""font-size: 20px; font-weight: bold; margin: 0;"">Is there a person in this image?</p>
                    </div>
                </div>","0","main_experiment_trial","1","dinner_party_scheme","schematic_sequence","","","","",""
"","","","","","html-keyboard-response","19","110948","0.0-19.0","57BD9A62E709447AB3691E9E679F6E1A","019cf85a-2337-730c-b499-28e2fcb37db6","019cf855-66fc-7d76-a612-8313d2c5c123","","null","
                <div class=""stimulus-container"">
                    <img src=""images/schematic_sequence/dinner_party_scheme/dinner_party_scheme_2.png"" class=""exp-image"">
                    <div class=""question-area""></div> 
                </div>","null","","","","","","","","",""
"","","","","","html-button-response","20","111862","0.0-20.0","57BD9A62E709447AB3691E9E679F6E1A","019cf85a-2337-730c-b499-28e2fcb37db6","019cf855-66fc-7d76-a612-8313d2c5c123","","912","
                <div class=""stimulus-container"">
                    <img src=""images/schematic_sequence/dinner_party_scheme/dinner_party_scheme_2.png"" class=""exp-image"">
                    <div class=""question-area"">
                        <p style=""font-size: 20px; font-weight: bold; margin: 0;"">Is there a person in this image?</p>
                    </div>
                </div>","0","main_experiment_trial","2","dinner_party_scheme","schematic_sequence","","","","",""
"","","","","","html-keyboard-response","21","116865","0.0-21.0","57BD9A62E709447AB3691E9E679F6E1A","019cf85a-2337-730c-b499-28e2fcb37db6","019cf855-66fc-7d76-a612-8313d2c5c123","","null","
                <div class=""stimulus-container"">
                    <img src=""images/schematic_sequence/dinner_party_scheme/dinner_party_scheme_3.png"" class=""exp-image"">
                    <div class=""question-area""></div> 
                </div>","null","","","","","","","","",""
"","","","","","html-button-response","22","117377","0.0-22.0","57BD9A62E709447AB3691E9E679F6E1A","019cf85a-2337-730c-b499-28e2fcb37db6","019cf855-66fc-7d76-a612-8313d2c5c123","","510","
                <div class=""stimulus-container"">
                    <img src=""images/schematic_sequence/dinner_party_scheme/dinner_party_scheme_3.png"" class=""exp-image"">
                    <div class=""question-area"">
                        <p style=""font-size: 20px; font-weight: bold; margin: 0;"">Is there a person in this image?</p>
                    </div>
                </div>","0","main_experiment_trial","3","dinner_party_scheme","schematic_sequence","","","","",""
"","","","","","html-keyboard-response","23","122380","0.0-23.0","57BD9A62E709447AB3691E9E679F6E1A","019cf85a-2337-730c-b499-28e2fcb37db6","019cf855-66fc-7d76-a612-8313d2c5c123","","null","
                <div class=""stimulus-container"">
                    <img src=""images/schematic_sequence/dinner_party_scheme/dinner_party_scheme_4.png"" class=""exp-image"">
                    <div class=""question-area""></div> 
                </div>","null","","","","","","","","",""
"","","","","","html-button-response","24","122867","0.0-24.0","57BD9A62E709447AB3691E9E679F6E1A","019cf85a-2337-730c-b499-28e2fcb37db6","019cf855-66fc-7d76-a612-8313d2c5c123","","485","
                <div class=""stimulus-container"">
                    <img src=""images/schematic_sequence/dinner_party_scheme/dinner_party_scheme_4.png"" class=""exp-image"">
                    <div class=""question-area"">
                        <p style=""font-size: 20px; font-weight: bold; margin: 0;"">Is there a person in this image?</p>
                    </div>
                </div>","0","main_experiment_trial","4","dinner_party_scheme","schematic_sequence","","","","",""
"","","","","","html-keyboard-response","25","127870","0.0-25.0","57BD9A62E709447AB3691E9E679F6E1A","019cf85a-2337-730c-b499-28e2fcb37db6","019cf855-66fc-7d76-a612-8313d2c5c123","","null","
                <div class=""stimulus-container"">
                    <img src=""images/schematic_sequence/dinner_party_scheme/dinner_party_scheme_5.png"" class=""exp-image"">
                    <div class=""question-area""></div> 
                </div>","null","","","","","","","","",""
"","","","","","html-button-response","26","128560","0.0-26.0","57BD9A62E709447AB3691E9E679F6E1A","019cf85a-2337-730c-b499-28e2fcb37db6","019cf855-66fc-7d76-a612-8313d2c5c123","","688","
                <div class=""stimulus-container"">
                    <img src=""images/schematic_sequence/dinner_party_scheme/dinner_party_scheme_5.png"" class=""exp-image"">
                    <div class=""question-area"">
                        <p style=""font-size: 20px; font-weight: bold; margin: 0;"">Is there a person in this image?</p>
                    </div>
                </div>","0","main_experiment_trial","5","dinner_party_scheme","schematic_sequence","","","","",""
"","","","","","html-keyboard-response","27","133562","0.0-27.0","57BD9A62E709447AB3691E9E679F6E1A","019cf85a-2337-730c-b499-28e2fcb37db6","019cf855-66fc-7d76-a612-8313d2c5c123","","null","
                <div class=""stimulus-container"">
                    <img src=""images/schematic_sequence/dinner_party_scheme/dinner_party_scheme_6.png"" class=""exp-image"">
                    <div class=""question-area""></div> 
                </div>","null","","","","","","","","",""
"","","","","","html-button-response","28","134140","0.0-28.0","57BD9A62E709447AB3691E9E679F6E1A","019cf85a-2337-730c-b499-28e2fcb37db6","019cf855-66fc-7d76-a612-8313d2c5c123","","575","
                <div class=""stimulus-container"">
                    <img src=""images/schematic_sequence/dinner_party_scheme/dinner_party_scheme_6.png"" class=""exp-image"">
                    <div class=""question-area"">
                        <p style=""font-size: 20px; font-weight: bold; margin: 0;"">Is there a person in this image?</p>
                    </div>
                </div>","0","main_experiment_trial","6","dinner_party_scheme","schematic_sequence","","","","",""
"","","","","","html-keyboard-response","29","139142","0.0-29.0","57BD9A62E709447AB3691E9E679F6E1A","019cf85a-2337-730c-b499-28e2fcb37db6","019cf855-66fc-7d76-a612-8313d2c5c123","","null","
                <div class=""stimulus-container"">
                    <img src=""images/schematic_sequence/dinner_party_scheme/dinner_party_scheme_7.png"" class=""exp-image"">
                    <div class=""question-area""></div> 
                </div>","null","","","","","","","","",""
"","","","","","html-button-response","30","139593","0.0-30.0","57BD9A62E709447AB3691E9E679F6E1A","019cf85a-2337-730c-b499-28e2fcb37db6","019cf855-66fc-7d76-a612-8313d2c5c123","","448","
                <div class=""stimulus-container"">
                    <img src=""images/schematic_sequence/dinner_party_scheme/dinner_party_scheme_7.png"" class=""exp-image"">
                    <div class=""question-area"">
                        <p style=""font-size: 20px; font-weight: bold; margin: 0;"">Is there a person in this image?</p>
                    </div>
                </div>","0","main_experiment_trial","7","dinner_party_scheme","schematic_sequence","","","","",""
"","","","","","html-keyboard-response","31","144595","0.0-31.0","57BD9A62E709447AB3691E9E679F6E1A","019cf85a-2337-730c-b499-28e2fcb37db6","019cf855-66fc-7d76-a612-8313d2c5c123","","null","
                <div class=""stimulus-container"">
                    <img src=""images/schematic_sequence/dinner_party_scheme/dinner_party_scheme_8.png"" class=""exp-image"">
                    <div class=""question-area""></div> 
                </div>","null","","","","","","","","",""
"","","","","","html-button-response","32","145303","0.0-32.0","57BD9A62E709447AB3691E9E679F6E1A","019cf85a-2337-730c-b499-28e2fcb37db6","019cf855-66fc-7d76-a612-8313d2c5c123","","705","
                <div class=""stimulus-container"">
                    <img src=""images/schematic_sequence/dinner_party_scheme/dinner_party_scheme_8.png"" class=""exp-image"">
                    <div class=""question-area"">
                        <p style=""font-size: 20px; font-weight: bold; margin: 0;"">Is there a person in this image?</p>
                    </div>
                </div>","0","main_experiment_trial","8","dinner_party_scheme","schematic_sequence","","","","",""
"","","","","","html-keyboard-response","33","150305","0.0-33.0","57BD9A62E709447AB3691E9E679F6E1A","019cf85a-2337-730c-b499-28e2fcb37db6","019cf855-66fc-7d76-a612-8313d2c5c123","","null","
                <div class=""stimulus-container"">
                    <img src=""images/schematic_sequence/dinner_party_scheme/dinner_party_scheme_9.png"" class=""exp-image"">
                    <div class=""question-area""></div> 
                </div>","null","","","","","","","","",""
"","","","","","html-button-response","34","151408","0.0-34.0","57BD9A62E709447AB3691E9E679F6E1A","019cf85a-2337-730c-b499-28e2fcb37db6","019cf855-66fc-7d76-a612-8313d2c5c123","","1100","
                <div class=""stimulus-container"">
                    <img src=""images/schematic_sequence/dinner_party_scheme/dinner_party_scheme_9.png"" class=""exp-image"">
                    <div class=""question-area"">
                        <p style=""font-size: 20px; font-weight: bold; margin: 0;"">Is there a person in this image?</p>
                    </div>
                </div>","0","main_experiment_trial","9","dinner_party_scheme","schematic_sequence","","","","",""
"","","","","","html-keyboard-response","35","156410","0.0-35.0","57BD9A62E709447AB3691E9E679F6E1A","019cf85a-2337-730c-b499-28e2fcb37db6","019cf855-66fc-7d76-a612-8313d2c5c123","","null","
                <div class=""stimulus-container"">
                    <img src=""images/schematic_sequence/dinner_party_scheme/dinner_party_scheme_ten.png"" class=""exp-image"">
                    <div class=""question-area""></div> 
                </div>","null","","","","","","","","",""
"","","","","","html-button-response","36","157011","0.0-36.0","57BD9A62E709447AB3691E9E679F6E1A","019cf85a-2337-730c-b499-28e2fcb37db6","019cf855-66fc-7d76-a612-8313d2c5c123","","599","
                <div class=""stimulus-container"">
                    <img src=""images/schematic_sequence/dinner_party_scheme/dinner_party_scheme_ten.png"" class=""exp-image"">
                    <div class=""question-area"">
                        <p style=""font-size: 20px; font-weight: bold; margin: 0;"">Is there a person in this image?</p>
                    </div>
                </div>","0","main_experiment_trial","ten","dinner_party_scheme","schematic_sequence","","","","",""
"","","","","","html-keyboard-response","37","158012","0.0-37.0","57BD9A62E709447AB3691E9E679F6E1A","019cf85a-2337-730c-b499-28e2fcb37db6","019cf855-66fc-7d76-a612-8313d2c5c123","","null","<div style=""background-color: white; width: 100vw; height: 100vh;""></div>","null","","","","","","","","",""
"","","","","","html-keyboard-response","38","163014","0.0-38.0","57BD9A62E709447AB3691E9E679F6E1A","019cf85a-2337-730c-b499-28e2fcb37db6","019cf855-66fc-7d76-a612-8313d2c5c123","","null","
                <div class=""stimulus-container"">
                    <img src=""images/schematic_sequence/supermarket_scheme/supermarket_scheme_1.png"" class=""exp-image"">
                    <div class=""question-area""></div> 
                </div>","null","","","","","","","","",""
"","","","","","html-button-response","39","163885","0.0-39.0","57BD9A62E709447AB3691E9E679F6E1A","019cf85a-2337-730c-b499-28e2fcb37db6","019cf855-66fc-7d76-a612-8313d2c5c123","","869","
                <div class=""stimulus-container"">
                    <img src=""images/schematic_sequence/supermarket_scheme/supermarket_scheme_1.png"" class=""exp-image"">
                    <div class=""question-area"">
                        <p style=""font-size: 20px; font-weight: bold; margin: 0;"">Is there a person in this image?</p>
                    </div>
                </div>","1","main_experiment_trial","1","supermarket_scheme","schematic_sequence","","","","",""
"","","","","","html-keyboard-response","40","168887","0.0-40.0","57BD9A62E709447AB3691E9E679F6E1A","019cf85a-2337-730c-b499-28e2fcb37db6","019cf855-66fc-7d76-a612-8313d2c5c123","","null","
                <div class=""stimulus-container"">
                    <img src=""images/schematic_sequence/supermarket_scheme/supermarket_scheme_2.png"" class=""exp-image"">
                    <div class=""question-area""></div> 
                </div>","null","","","","","","","","",""
"","","","","","html-button-response","41","169507","0.0-41.0","57BD9A62E709447AB3691E9E679F6E1A","019cf85a-2337-730c-b499-28e2fcb37db6","019cf855-66fc-7d76-a612-8313d2c5c123","","618","
                <div class=""stimulus-container"">
                    <img src=""images/schematic_sequence/supermarket_scheme/supermarket_scheme_2.png"" class=""exp-image"">
                    <div class=""question-area"">
                        <p style=""font-size: 20px; font-weight: bold; margin: 0;"">Is there a person in this image?</p>
                    </div>
                </div>","1","main_experiment_trial","2","supermarket_scheme","schematic_sequence","","","","",""
"","","","","","html-keyboard-response","42","174509","0.0-42.0","57BD9A62E709447AB3691E9E679F6E1A","019cf85a-2337-730c-b499-28e2fcb37db6","019cf855-66fc-7d76-a612-8313d2c5c123","","null","
                <div class=""stimulus-container"">
                    <img src=""images/schematic_sequence/supermarket_scheme/supermarket_scheme_3.png"" class=""exp-image"">
                    <div class=""question-area""></div> 
                </div>","null","","","","","","","","",""
"","","","","","html-button-response","43","175050","0.0-43.0","57BD9A62E709447AB3691E9E679F6E1A","019cf85a-2337-730c-b499-28e2fcb37db6","019cf855-66fc-7d76-a612-8313d2c5c123","","538","
                <div class=""stimulus-container"">
                    <img src=""images/schematic_sequence/supermarket_scheme/supermarket_scheme_3.png"" class=""exp-image"">
                    <div class=""question-area"">
                        <p style=""font-size: 20px; font-weight: bold; margin: 0;"">Is there a person in this image?</p>
                    </div>
                </div>","1","main_experiment_trial","3","supermarket_scheme","schematic_sequence","","","","",""
"","","","","","html-keyboard-response","44","180052","0.0-44.0","57BD9A62E709447AB3691E9E679F6E1A","019cf85a-2337-730c-b499-28e2fcb37db6","019cf855-66fc-7d76-a612-8313d2c5c123","","null","
                <div class=""stimulus-container"">
                    <img src=""images/schematic_sequence/supermarket_scheme/supermarket_scheme_4.png"" class=""exp-image"">
                    <div class=""question-area""></div> 
                </div>","null","","","","","","","","",""
"","","","","","html-button-response","45","180967","0.0-45.0","57BD9A62E709447AB3691E9E679F6E1A","019cf85a-2337-730c-b499-28e2fcb37db6","019cf855-66fc-7d76-a612-8313d2c5c123","","913","
                <div class=""stimulus-container"">
                    <img src=""images/schematic_sequence/supermarket_scheme/supermarket_scheme_4.png"" class=""exp-image"">
                    <div class=""question-area"">
                        <p style=""font-size: 20px; font-weight: bold; margin: 0;"">Is there a person in this image?</p>
                    </div>
                </div>","0","main_experiment_trial","4","supermarket_scheme","schematic_sequence","","","","",""
"","","","","","html-keyboard-response","46","185969","0.0-46.0","57BD9A62E709447AB3691E9E679F6E1A","019cf85a-2337-730c-b499-28e2fcb37db6","019cf855-66fc-7d76-a612-8313d2c5c123","","null","
                <div class=""stimulus-container"">
                    <img src=""images/schematic_sequence/supermarket_scheme/supermarket_scheme_5.png"" class=""exp-image"">
                    <div class=""question-area""></div> 
                </div>","null","","","","","","","","",""
"","","","","","html-button-response","47","187315","0.0-47.0","57BD9A62E709447AB3691E9E679F6E1A","019cf85a-2337-730c-b499-28e2fcb37db6","019cf855-66fc-7d76-a612-8313d2c5c123","","1343","
                <div class=""stimulus-container"">
                    <img src=""images/schematic_sequence/supermarket_scheme/supermarket_scheme_5.png"" class=""exp-image"">
                    <div class=""question-area"">
                        <p style=""font-size: 20px; font-weight: bold; margin: 0;"">Is there a person in this image?</p>
                    </div>
                </div>","1","main_experiment_trial","5","supermarket_scheme","schematic_sequence","","","","",""
"","","","","","html-keyboard-response","48","192317","0.0-48.0","57BD9A62E709447AB3691E9E679F6E1A","019cf85a-2337-730c-b499-28e2fcb37db6","019cf855-66fc-7d76-a612-8313d2c5c123","","null","
                <div class=""stimulus-container"">
                    <img src=""images/schematic_sequence/supermarket_scheme/supermarket_scheme_6.png"" class=""exp-image"">
                    <div class=""question-area""></div> 
                </div>","null","","","","","","","","",""
"","","","","","html-button-response","49","193552","0.0-49.0","57BD9A62E709447AB3691E9E679F6E1A","019cf85a-2337-730c-b499-28e2fcb37db6","019cf855-66fc-7d76-a612-8313d2c5c123","","1232","
                <div class=""stimulus-container"">
                    <img src=""images/schematic_sequence/supermarket_scheme/supermarket_scheme_6.png"" class=""exp-image"">
                    <div class=""question-area"">
                        <p style=""font-size: 20px; font-weight: bold; margin: 0;"">Is there a person in this image?</p>
                    </div>
                </div>","0","main_experiment_trial","6","supermarket_scheme","schematic_sequence","","","","",""
"","","","","","html-keyboard-response","50","198554","0.0-50.0","57BD9A62E709447AB3691E9E679F6E1A","019cf85a-2337-730c-b499-28e2fcb37db6","019cf855-66fc-7d76-a612-8313d2c5c123","","null","
                <div class=""stimulus-container"">
                    <img src=""images/schematic_sequence/supermarket_scheme/supermarket_scheme_7.png"" class=""exp-image"">
                    <div class=""question-area""></div> 
                </div>","null","","","","","","","","",""
"","","","","","html-button-response","51","199171","0.0-51.0","57BD9A62E709447AB3691E9E679F6E1A","019cf85a-2337-730c-b499-28e2fcb37db6","019cf855-66fc-7d76-a612-8313d2c5c123","","617","
                <div class=""stimulus-container"">
                    <img src=""images/schematic_sequence/supermarket_scheme/supermarket_scheme_7.png"" class=""exp-image"">
                    <div class=""question-area"">
                        <p style=""font-size: 20px; font-weight: bold; margin: 0;"">Is there a person in this image?</p>
                    </div>
                </div>","0","main_experiment_trial","7","supermarket_scheme","schematic_sequence","","","","",""
"","","","","","html-keyboard-response","52","204172","0.0-52.0","57BD9A62E709447AB3691E9E679F6E1A","019cf85a-2337-730c-b499-28e2fcb37db6","019cf855-66fc-7d76-a612-8313d2c5c123","","null","
                <div class=""stimulus-container"">
                    <img src=""images/schematic_sequence/supermarket_scheme/supermarket_scheme_8.png"" class=""exp-image"">
                    <div class=""question-area""></div> 
                </div>","null","","","","","","","","",""
"","","","","","html-button-response","53","204635","0.0-53.0","57BD9A62E709447AB3691E9E679F6E1A","019cf85a-2337-730c-b499-28e2fcb37db6","019cf855-66fc-7d76-a612-8313d2c5c123","","460","
                <div class=""stimulus-container"">
                    <img src=""images/schematic_sequence/supermarket_scheme/supermarket_scheme_8.png"" class=""exp-image"">
                    <div class=""question-area"">
                        <p style=""font-size: 20px; font-weight: bold; margin: 0;"">Is there a person in this image?</p>
                    </div>
                </div>","0","main_experiment_trial","8","supermarket_scheme","schematic_sequence","","","","",""
"","","","","","html-keyboard-response","54","209637","0.0-54.0","57BD9A62E709447AB3691E9E679F6E1A","019cf85a-2337-730c-b499-28e2fcb37db6","019cf855-66fc-7d76-a612-8313d2c5c123","","null","
                <div class=""stimulus-container"">
                    <img src=""images/schematic_sequence/supermarket_scheme/supermarket_scheme_9.png"" class=""exp-image"">
                    <div class=""question-area""></div> 
                </div>","null","","","","","","","","",""
"","","","","","html-button-response","55","210134","0.0-55.0","57BD9A62E709447AB3691E9E679F6E1A","019cf85a-2337-730c-b499-28e2fcb37db6","019cf855-66fc-7d76-a612-8313d2c5c123","","495","
                <div class=""stimulus-container"">
                    <img src=""images/schematic_sequence/supermarket_scheme/supermarket_scheme_9.png"" class=""exp-image"">
                    <div class=""question-area"">
                        <p style=""font-size: 20px; font-weight: bold; margin: 0;"">Is there a person in this image?</p>
                    </div>
                </div>","0","main_experiment_trial","9","supermarket_scheme","schematic_sequence","","","","",""
"","","","","","html-keyboard-response","56","215136","0.0-56.0","57BD9A62E709447AB3691E9E679F6E1A","019cf85a-2337-730c-b499-28e2fcb37db6","019cf855-66fc-7d76-a612-8313d2c5c123","","null","
                <div class=""stimulus-container"">
                    <img src=""images/schematic_sequence/supermarket_scheme/supermarket_scheme_ten.png"" class=""exp-image"">
                    <div class=""question-area""></div> 
                </div>","null","","","","","","","","",""
"","","","","","html-button-response","57","215622","0.0-57.0","57BD9A62E709447AB3691E9E679F6E1A","019cf85a-2337-730c-b499-28e2fcb37db6","019cf855-66fc-7d76-a612-8313d2c5c123","","484","
                <div class=""stimulus-container"">
                    <img src=""images/schematic_sequence/supermarket_scheme/supermarket_scheme_ten.png"" class=""exp-image"">
                    <div class=""question-area"">
                        <p style=""font-size: 20px; font-weight: bold; margin: 0;"">Is there a person in this image?</p>
                    </div>
                </div>","1","main_experiment_trial","ten","supermarket_scheme","schematic_sequence","","","","",""
"","","","","","html-keyboard-response","58","216624","0.0-58.0","57BD9A62E709447AB3691E9E679F6E1A","019cf85a-2337-730c-b499-28e2fcb37db6","019cf855-66fc-7d76-a612-8313d2c5c123","","null","<div style=""background-color: white; width: 100vw; height: 100vh;""></div>","null","","","","","","","","",""
"","","","","","html-keyboard-response","59","221626","0.0-59.0","57BD9A62E709447AB3691E9E679F6E1A","019cf85a-2337-730c-b499-28e2fcb37db6","019cf855-66fc-7d76-a612-8313d2c5c123","","null","
                <div class=""stimulus-container"">
                    <img src=""images/semantic_sequence/maintaining_a_car_semantic/maintaining_a_car_semantic_1.png"" class=""exp-image"">
                    <div class=""question-area""></div> 
                </div>","null","","","","","","","","",""
"","","","","","html-button-response","60","222164","0.0-60.0","57BD9A62E709447AB3691E9E679F6E1A","019cf85a-2337-730c-b499-28e2fcb37db6","019cf855-66fc-7d76-a612-8313d2c5c123","","536","
                <div class=""stimulus-container"">
                    <img src=""images/semantic_sequence/maintaining_a_car_semantic/maintaining_a_car_semantic_1.png"" class=""exp-image"">
                    <div class=""question-area"">
                        <p style=""font-size: 20px; font-weight: bold; margin: 0;"">Is there a person in this image?</p>
                    </div>
                </div>","0","main_experiment_trial","1","maintaining_a_car_semantic","semantic_sequence","","","","",""
"","","","","","html-keyboard-response","61","227167","0.0-61.0","57BD9A62E709447AB3691E9E679F6E1A","019cf85a-2337-730c-b499-28e2fcb37db6","019cf855-66fc-7d76-a612-8313d2c5c123","","null","
                <div class=""stimulus-container"">
                    <img src=""images/semantic_sequence/maintaining_a_car_semantic/maintaining_a_car_semantic_2.png"" class=""exp-image"">
                    <div class=""question-area""></div> 
                </div>","null","","","","","","","","",""
"","","","","","html-button-response","62","227787","0.0-62.0","57BD9A62E709447AB3691E9E679F6E1A","019cf85a-2337-730c-b499-28e2fcb37db6","019cf855-66fc-7d76-a612-8313d2c5c123","","618","
                <div class=""stimulus-container"">
                    <img src=""images/semantic_sequence/maintaining_a_car_semantic/maintaining_a_car_semantic_2.png"" class=""exp-image"">
                    <div class=""question-area"">
                        <p style=""font-size: 20px; font-weight: bold; margin: 0;"">Is there a person in this image?</p>
                    </div>
                </div>","0","main_experiment_trial","2","maintaining_a_car_semantic","semantic_sequence","","","","",""
"","","","","","html-keyboard-response","63","232789","0.0-63.0","57BD9A62E709447AB3691E9E679F6E1A","019cf85a-2337-730c-b499-28e2fcb37db6","019cf855-66fc-7d76-a612-8313d2c5c123","","null","
                <div class=""stimulus-container"">
                    <img src=""images/semantic_sequence/maintaining_a_car_semantic/maintaining_a_car_semantic_3.png"" class=""exp-image"">
                    <div class=""question-area""></div> 
                </div>","null","","","","","","","","",""
"","","","","","html-button-response","64","233258","0.0-64.0","57BD9A62E709447AB3691E9E679F6E1A","019cf85a-2337-730c-b499-28e2fcb37db6","019cf855-66fc-7d76-a612-8313d2c5c123","","466","
                <div class=""stimulus-container"">
                    <img src=""images/semantic_sequence/maintaining_a_car_semantic/maintaining_a_car_semantic_3.png"" class=""exp-image"">
                    <div class=""question-area"">
                        <p style=""font-size: 20px; font-weight: bold; margin: 0;"">Is there a person in this image?</p>
                    </div>
                </div>","0","main_experiment_trial","3","maintaining_a_car_semantic","semantic_sequence","","","","",""
"","","","","","html-keyboard-response","65","238260","0.0-65.0","57BD9A62E709447AB3691E9E679F6E1A","019cf85a-2337-730c-b499-28e2fcb37db6","019cf855-66fc-7d76-a612-8313d2c5c123","","null","
                <div class=""stimulus-container"">
                    <img src=""images/semantic_sequence/maintaining_a_car_semantic/maintaining_a_car_semantic_4.png"" class=""exp-image"">
                    <div class=""question-area""></div> 
                </div>","null","","","","","","","","",""
"","","","","","html-button-response","66","239718","0.0-66.0","57BD9A62E709447AB3691E9E679F6E1A","019cf85a-2337-730c-b499-28e2fcb37db6","019cf855-66fc-7d76-a612-8313d2c5c123","","1455","
                <div class=""stimulus-container"">
                    <img src=""images/semantic_sequence/maintaining_a_car_semantic/maintaining_a_car_semantic_4.png"" class=""exp-image"">
                    <div class=""question-area"">
                        <p style=""font-size: 20px; font-weight: bold; margin: 0;"">Is there a person in this image?</p>
                    </div>
                </div>","0","main_experiment_trial","4","maintaining_a_car_semantic","semantic_sequence","","","","",""
"","","","","","html-keyboard-response","67","244720","0.0-67.0","57BD9A62E709447AB3691E9E679F6E1A","019cf85a-2337-730c-b499-28e2fcb37db6","019cf855-66fc-7d76-a612-8313d2c5c123","","null","
                <div class=""stimulus-container"">
                    <img src=""images/semantic_sequence/maintaining_a_car_semantic/maintaining_a_car_semantic_5.png"" class=""exp-image"">
                    <div class=""question-area""></div> 
                </div>","null","","","","","","","","",""
"","","","","","html-button-response","68","245984","0.0-68.0","57BD9A62E709447AB3691E9E679F6E1A","019cf85a-2337-730c-b499-28e2fcb37db6","019cf855-66fc-7d76-a612-8313d2c5c123","","1261","
                <div class=""stimulus-container"">
                    <img src=""images/semantic_sequence/maintaining_a_car_semantic/maintaining_a_car_semantic_5.png"" class=""exp-image"">
                    <div class=""question-area"">
                        <p style=""font-size: 20px; font-weight: bold; margin: 0;"">Is there a person in this image?</p>
                    </div>
                </div>","0","main_experiment_trial","5","maintaining_a_car_semantic","semantic_sequence","","","","",""
"","","","","","html-keyboard-response","69","250986","0.0-69.0","57BD9A62E709447AB3691E9E679F6E1A","019cf85a-2337-730c-b499-28e2fcb37db6","019cf855-66fc-7d76-a612-8313d2c5c123","","null","
                <div class=""stimulus-container"">
                    <img src=""images/semantic_sequence/maintaining_a_car_semantic/maintaining_a_car_semantic_6.png"" class=""exp-image"">
                    <div class=""question-area""></div> 
                </div>","null","","","","","","","","",""
"","","","","","html-button-response","70","252249","0.0-70.0","57BD9A62E709447AB3691E9E679F6E1A","019cf85a-2337-730c-b499-28e2fcb37db6","019cf855-66fc-7d76-a612-8313d2c5c123","","1261","
                <div class=""stimulus-container"">
                    <img src=""images/semantic_sequence/maintaining_a_car_semantic/maintaining_a_car_semantic_6.png"" class=""exp-image"">
                    <div class=""question-area"">
                        <p style=""font-size: 20px; font-weight: bold; margin: 0;"">Is there a person in this image?</p>
                    </div>
                </div>","0","main_experiment_trial","6","maintaining_a_car_semantic","semantic_sequence","","","","",""
"","","","","","html-keyboard-response","71","257251","0.0-71.0","57BD9A62E709447AB3691E9E679F6E1A","019cf85a-2337-730c-b499-28e2fcb37db6","019cf855-66fc-7d76-a612-8313d2c5c123","","null","
                <div class=""stimulus-container"">
                    <img src=""images/semantic_sequence/maintaining_a_car_semantic/maintaining_a_car_semantic_7.png"" class=""exp-image"">
                    <div class=""question-area""></div> 
                </div>","null","","","","","","","","",""
"","","","","","html-button-response","72","258459","0.0-72.0","57BD9A62E709447AB3691E9E679F6E1A","019cf85a-2337-730c-b499-28e2fcb37db6","019cf855-66fc-7d76-a612-8313d2c5c123","","1206","
                <div class=""stimulus-container"">
                    <img src=""images/semantic_sequence/maintaining_a_car_semantic/maintaining_a_car_semantic_7.png"" class=""exp-image"">
                    <div class=""question-area"">
                        <p style=""font-size: 20px; font-weight: bold; margin: 0;"">Is there a person in this image?</p>
                    </div>
                </div>","0","main_experiment_trial","7","maintaining_a_car_semantic","semantic_sequence","","","","",""
"","","","","","html-keyboard-response","73","263462","0.0-73.0","57BD9A62E709447AB3691E9E679F6E1A","019cf85a-2337-730c-b499-28e2fcb37db6","019cf855-66fc-7d76-a612-8313d2c5c123","","null","
                <div class=""stimulus-container"">
                    <img src=""images/semantic_sequence/maintaining_a_car_semantic/maintaining_a_car_semantic_8.png"" class=""exp-image"">
                    <div class=""question-area""></div> 
                </div>","null","","","","","","","","",""
"","","","","","html-button-response","74","266056","0.0-74.0","57BD9A62E709447AB3691E9E679F6E1A","019cf85a-2337-730c-b499-28e2fcb37db6","019cf855-66fc-7d76-a612-8313d2c5c123","","2592","
                <div class=""stimulus-container"">
                    <img src=""images/semantic_sequence/maintaining_a_car_semantic/maintaining_a_car_semantic_8.png"" class=""exp-image"">
                    <div class=""question-area"">
                        <p style=""font-size: 20px; font-weight: bold; margin: 0;"">Is there a person in this image?</p>
                    </div>
                </div>","0","main_experiment_trial","8","maintaining_a_car_semantic","semantic_sequence","","","","",""
"","","","","","html-keyboard-response","75","271058","0.0-75.0","57BD9A62E709447AB3691E9E679F6E1A","019cf85a-2337-730c-b499-28e2fcb37db6","019cf855-66fc-7d76-a612-8313d2c5c123","","null","
                <div class=""stimulus-container"">
                    <img src=""images/semantic_sequence/maintaining_a_car_semantic/maintaining_a_car_semantic_9.png"" class=""exp-image"">
                    <div class=""question-area""></div> 
                </div>","null","","","","","","","","",""
"","","","","","html-button-response","76","271544","0.0-76.0","57BD9A62E709447AB3691E9E679F6E1A","019cf85a-2337-730c-b499-28e2fcb37db6","019cf855-66fc-7d76-a612-8313d2c5c123","","483","
                <div class=""stimulus-container"">
                    <img src=""images/semantic_sequence/maintaining_a_car_semantic/maintaining_a_car_semantic_9.png"" class=""exp-image"">
                    <div class=""question-area"">
                        <p style=""font-size: 20px; font-weight: bold; margin: 0;"">Is there a person in this image?</p>
                    </div>
                </div>","0","main_experiment_trial","9","maintaining_a_car_semantic","semantic_sequence","","","","",""
"","","","","","html-keyboard-response","77","276547","0.0-77.0","57BD9A62E709447AB3691E9E679F6E1A","019cf85a-2337-730c-b499-28e2fcb37db6","019cf855-66fc-7d76-a612-8313d2c5c123","","null","
                <div class=""stimulus-container"">
                    <img src=""images/semantic_sequence/maintaining_a_car_semantic/maintaining_a_car_semantic_ten.png"" class=""exp-image"">
                    <div class=""question-area""></div> 
                </div>","null","","","","","","","","",""
"","","","","","html-button-response","78","276963","0.0-78.0","57BD9A62E709447AB3691E9E679F6E1A","019cf85a-2337-730c-b499-28e2fcb37db6","019cf855-66fc-7d76-a612-8313d2c5c123","","414","
                <div class=""stimulus-container"">
                    <img src=""images/semantic_sequence/maintaining_a_car_semantic/maintaining_a_car_semantic_ten.png"" class=""exp-image"">
                    <div class=""question-area"">
                        <p style=""font-size: 20px; font-weight: bold; margin: 0;"">Is there a person in this image?</p>
                    </div>
                </div>","0","main_experiment_trial","ten","maintaining_a_car_semantic","semantic_sequence","","","","",""
"","","","","","html-keyboard-response","79","277965","0.0-79.0","57BD9A62E709447AB3691E9E679F6E1A","019cf85a-2337-730c-b499-28e2fcb37db6","019cf855-66fc-7d76-a612-8313d2c5c123","","null","<div style=""background-color: white; width: 100vw; height: 100vh;""></div>","null","","","","","","","","",""
"","","","","","html-keyboard-response","80","282967","0.0-80.0","57BD9A62E709447AB3691E9E679F6E1A","019cf85a-2337-730c-b499-28e2fcb37db6","019cf855-66fc-7d76-a612-8313d2c5c123","","null","
                <div class=""stimulus-container"">
                    <img src=""images/schematic_sequence/interview_scheme/interview_scheme_1.png"" class=""exp-image"">
                    <div class=""question-area""></div> 
                </div>","null","","","","","","","","",""
"","","","","","html-button-response","81","283645","0.0-81.0","57BD9A62E709447AB3691E9E679F6E1A","019cf85a-2337-730c-b499-28e2fcb37db6","019cf855-66fc-7d76-a612-8313d2c5c123","","676","
                <div class=""stimulus-container"">
                    <img src=""images/schematic_sequence/interview_scheme/interview_scheme_1.png"" class=""exp-image"">
                    <div class=""question-area"">
                        <p style=""font-size: 20px; font-weight: bold; margin: 0;"">Is there a person in this image?</p>
                    </div>
                </div>","1","main_experiment_trial","1","interview_scheme","schematic_sequence","","","","",""
"","","","","","html-keyboard-response","82","288647","0.0-82.0","57BD9A62E709447AB3691E9E679F6E1A","019cf85a-2337-730c-b499-28e2fcb37db6","019cf855-66fc-7d76-a612-8313d2c5c123","","null","
                <div class=""stimulus-container"">
                    <img src=""images/schematic_sequence/interview_scheme/interview_scheme_2.png"" class=""exp-image"">
                    <div class=""question-area""></div> 
                </div>","null","","","","","","","","",""
"","","","","","html-button-response","83","289589","0.0-83.0","57BD9A62E709447AB3691E9E679F6E1A","019cf85a-2337-730c-b499-28e2fcb37db6","019cf855-66fc-7d76-a612-8313d2c5c123","","940","
                <div class=""stimulus-container"">
                    <img src=""images/schematic_sequence/interview_scheme/interview_scheme_2.png"" class=""exp-image"">
                    <div class=""question-area"">
                        <p style=""font-size: 20px; font-weight: bold; margin: 0;"">Is there a person in this image?</p>
                    </div>
                </div>","1","main_experiment_trial","2","interview_scheme","schematic_sequence","","","","",""
"","","","","","html-keyboard-response","84","294592","0.0-84.0","57BD9A62E709447AB3691E9E679F6E1A","019cf85a-2337-730c-b499-28e2fcb37db6","019cf855-66fc-7d76-a612-8313d2c5c123","","null","
                <div class=""stimulus-container"">
                    <img src=""images/schematic_sequence/interview_scheme/interview_scheme_3.png"" class=""exp-image"">
                    <div class=""question-area""></div> 
                </div>","null","","","","","","","","",""
"","","","","","html-button-response","85","295736","0.0-85.0","57BD9A62E709447AB3691E9E679F6E1A","019cf85a-2337-730c-b499-28e2fcb37db6","019cf855-66fc-7d76-a612-8313d2c5c123","","1142","
                <div class=""stimulus-container"">
                    <img src=""images/schematic_sequence/interview_scheme/interview_scheme_3.png"" class=""exp-image"">
                    <div class=""question-area"">
                        <p style=""font-size: 20px; font-weight: bold; margin: 0;"">Is there a person in this image?</p>
                    </div>
                </div>","1","main_experiment_trial","3","interview_scheme","schematic_sequence","","","","",""
"","","","","","html-keyboard-response","86","300738","0.0-86.0","57BD9A62E709447AB3691E9E679F6E1A","019cf85a-2337-730c-b499-28e2fcb37db6","019cf855-66fc-7d76-a612-8313d2c5c123","","null","
                <div class=""stimulus-container"">
                    <img src=""images/schematic_sequence/interview_scheme/interview_scheme_4.png"" class=""exp-image"">
                    <div class=""question-area""></div> 
                </div>","null","","","","","","","","",""
"","","","","","html-button-response","87","301376","0.0-87.0","57BD9A62E709447AB3691E9E679F6E1A","019cf85a-2337-730c-b499-28e2fcb37db6","019cf855-66fc-7d76-a612-8313d2c5c123","","635","
                <div class=""stimulus-container"">
                    <img src=""images/schematic_sequence/interview_scheme/interview_scheme_4.png"" class=""exp-image"">
                    <div class=""question-area"">
                        <p style=""font-size: 20px; font-weight: bold; margin: 0;"">Is there a person in this image?</p>
                    </div>
                </div>","1","main_experiment_trial","4","interview_scheme","schematic_sequence","","","","",""
"","","","","","html-keyboard-response","88","306378","0.0-88.0","57BD9A62E709447AB3691E9E679F6E1A","019cf85a-2337-730c-b499-28e2fcb37db6","019cf855-66fc-7d76-a612-8313d2c5c123","","null","
                <div class=""stimulus-container"">
                    <img src=""images/schematic_sequence/interview_scheme/interview_scheme_5.png"" class=""exp-image"">
                    <div class=""question-area""></div> 
                </div>","null","","","","","","","","",""
"","","","","","html-button-response","89","307079","0.0-89.0","57BD9A62E709447AB3691E9E679F6E1A","019cf85a-2337-730c-b499-28e2fcb37db6","019cf855-66fc-7d76-a612-8313d2c5c123","","698","
                <div class=""stimulus-container"">
                    <img src=""images/schematic_sequence/interview_scheme/interview_scheme_5.png"" class=""exp-image"">
                    <div class=""question-area"">
                        <p style=""font-size: 20px; font-weight: bold; margin: 0;"">Is there a person in this image?</p>
                    </div>
                </div>","0","main_experiment_trial","5","interview_scheme","schematic_sequence","","","","",""
"","","","","","html-keyboard-response","90","312081","0.0-90.0","57BD9A62E709447AB3691E9E679F6E1A","019cf85a-2337-730c-b499-28e2fcb37db6","019cf855-66fc-7d76-a612-8313d2c5c123","","null","
                <div class=""stimulus-container"">
                    <img src=""images/schematic_sequence/interview_scheme/interview_scheme_6.png"" class=""exp-image"">
                    <div class=""question-area""></div> 
                </div>","null","","","","","","","","",""
"","","","","","html-button-response","91","312692","0.0-91.0","57BD9A62E709447AB3691E9E679F6E1A","019cf85a-2337-730c-b499-28e2fcb37db6","019cf855-66fc-7d76-a612-8313d2c5c123","","609","
                <div class=""stimulus-container"">
                    <img src=""images/schematic_sequence/interview_scheme/interview_scheme_6.png"" class=""exp-image"">
                    <div class=""question-area"">
                        <p style=""font-size: 20px; font-weight: bold; margin: 0;"">Is there a person in this image?</p>
                    </div>
                </div>","0","main_experiment_trial","6","interview_scheme","schematic_sequence","","","","",""
"","","","","","html-keyboard-response","92","317694","0.0-92.0","57BD9A62E709447AB3691E9E679F6E1A","019cf85a-2337-730c-b499-28e2fcb37db6","019cf855-66fc-7d76-a612-8313d2c5c123","","null","
                <div class=""stimulus-container"">
                    <img src=""images/schematic_sequence/interview_scheme/interview_scheme_7.png"" class=""exp-image"">
                    <div class=""question-area""></div> 
                </div>","null","","","","","","","","",""
"","","","","","html-button-response","93","318279","0.0-93.0","57BD9A62E709447AB3691E9E679F6E1A","019cf85a-2337-730c-b499-28e2fcb37db6","019cf855-66fc-7d76-a612-8313d2c5c123","","583","
                <div class=""stimulus-container"">
                    <img src=""images/schematic_sequence/interview_scheme/interview_scheme_7.png"" class=""exp-image"">
                    <div class=""question-area"">
                        <p style=""font-size: 20px; font-weight: bold; margin: 0;"">Is there a person in this image?</p>
                    </div>
                </div>","0","main_experiment_trial","7","interview_scheme","schematic_sequence","","","","",""
"","","","","","html-keyboard-response","94","323281","0.0-94.0","57BD9A62E709447AB3691E9E679F6E1A","019cf85a-2337-730c-b499-28e2fcb37db6","019cf855-66fc-7d76-a612-8313d2c5c123","","null","
                <div class=""stimulus-container"">
                    <img src=""images/schematic_sequence/interview_scheme/interview_scheme_8.png"" class=""exp-image"">
                    <div class=""question-area""></div> 
                </div>","null","","","","","","","","",""
"","","","","","html-button-response","95","323698","0.0-95.0","57BD9A62E709447AB3691E9E679F6E1A","019cf85a-2337-730c-b499-28e2fcb37db6","019cf855-66fc-7d76-a612-8313d2c5c123","","414","
                <div class=""stimulus-container"">
                    <img src=""images/schematic_sequence/interview_scheme/interview_scheme_8.png"" class=""exp-image"">
                    <div class=""question-area"">
                        <p style=""font-size: 20px; font-weight: bold; margin: 0;"">Is there a person in this image?</p>
                    </div>
                </div>","0","main_experiment_trial","8","interview_scheme","schematic_sequence","","","","",""
"","","","","","html-keyboard-response","96","328700","0.0-96.0","57BD9A62E709447AB3691E9E679F6E1A","019cf85a-2337-730c-b499-28e2fcb37db6","019cf855-66fc-7d76-a612-8313d2c5c123","","null","
                <div class=""stimulus-container"">
                    <img src=""images/schematic_sequence/interview_scheme/interview_scheme_9.png"" class=""exp-image"">
                    <div class=""question-area""></div> 
                </div>","null","","","","","","","","",""
"","","","","","html-button-response","97","329357","0.0-97.0","57BD9A62E709447AB3691E9E679F6E1A","019cf85a-2337-730c-b499-28e2fcb37db6","019cf855-66fc-7d76-a612-8313d2c5c123","","655","
                <div class=""stimulus-container"">
                    <img src=""images/schematic_sequence/interview_scheme/interview_scheme_9.png"" class=""exp-image"">
                    <div class=""question-area"">
                        <p style=""font-size: 20px; font-weight: bold; margin: 0;"">Is there a person in this image?</p>
                    </div>
                </div>","0","main_experiment_trial","9","interview_scheme","schematic_sequence","","","","",""
"","","","","","html-keyboard-response","98","334359","0.0-98.0","57BD9A62E709447AB3691E9E679F6E1A","019cf85a-2337-730c-b499-28e2fcb37db6","019cf855-66fc-7d76-a612-8313d2c5c123","","null","
                <div class=""stimulus-container"">
                    <img src=""images/schematic_sequence/interview_scheme/interview_scheme_ten.png"" class=""exp-image"">
                    <div class=""question-area""></div> 
                </div>","null","","","","","","","","",""
"","","","","","html-button-response","99","335131","0.0-99.0","57BD9A62E709447AB3691E9E679F6E1A","019cf85a-2337-730c-b499-28e2fcb37db6","019cf855-66fc-7d76-a612-8313d2c5c123","","769","
                <div class=""stimulus-container"">
                    <img src=""images/schematic_sequence/interview_scheme/interview_scheme_ten.png"" class=""exp-image"">
                    <div class=""question-area"">
                        <p style=""font-size: 20px; font-weight: bold; margin: 0;"">Is there a person in this image?</p>
                    </div>
                </div>","0","main_experiment_trial","ten","interview_scheme","schematic_sequence","","","","",""
"","","","","","html-keyboard-response","100","336132","0.0-100.0","57BD9A62E709447AB3691E9E679F6E1A","019cf85a-2337-730c-b499-28e2fcb37db6","019cf855-66fc-7d76-a612-8313d2c5c123","","null","<div style=""background-color: white; width: 100vw; height: 100vh;""></div>","null","","","","","","","","",""
"","","","","","html-keyboard-response","101","341134","0.0-101.0","57BD9A62E709447AB3691E9E679F6E1A","019cf85a-2337-730c-b499-28e2fcb37db6","019cf855-66fc-7d76-a612-8313d2c5c123","","null","
                <div class=""stimulus-container"">
                    <img src=""images/semantic_sequence/using_technology_semantic/using_technology_semantic_1.png"" class=""exp-image"">
                    <div class=""question-area""></div> 
                </div>","null","","","","","","","","",""
"","","","","","html-button-response","102","341878","0.0-102.0","57BD9A62E709447AB3691E9E679F6E1A","019cf85a-2337-730c-b499-28e2fcb37db6","019cf855-66fc-7d76-a612-8313d2c5c123","","741","
                <div class=""stimulus-container"">
                    <img src=""images/semantic_sequence/using_technology_semantic/using_technology_semantic_1.png"" class=""exp-image"">
                    <div class=""question-area"">
                        <p style=""font-size: 20px; font-weight: bold; margin: 0;"">Is there a person in this image?</p>
                    </div>
                </div>","0","main_experiment_trial","1","using_technology_semantic","semantic_sequence","","","","",""
"","","","","","html-keyboard-response","103","346880","0.0-103.0","57BD9A62E709447AB3691E9E679F6E1A","019cf85a-2337-730c-b499-28e2fcb37db6","019cf855-66fc-7d76-a612-8313d2c5c123","","null","
                <div class=""stimulus-container"">
                    <img src=""images/semantic_sequence/using_technology_semantic/using_technology_semantic_2.png"" class=""exp-image"">
                    <div class=""question-area""></div> 
                </div>","null","","","","","","","","",""
"","","","","","html-button-response","104","347458","0.0-104.0","57BD9A62E709447AB3691E9E679F6E1A","019cf85a-2337-730c-b499-28e2fcb37db6","019cf855-66fc-7d76-a612-8313d2c5c123","","575","
                <div class=""stimulus-container"">
                    <img src=""images/semantic_sequence/using_technology_semantic/using_technology_semantic_2.png"" class=""exp-image"">
                    <div class=""question-area"">
                        <p style=""font-size: 20px; font-weight: bold; margin: 0;"">Is there a person in this image?</p>
                    </div>
                </div>","0","main_experiment_trial","2","using_technology_semantic","semantic_sequence","","","","",""
"","","","","","html-keyboard-response","105","352460","0.0-105.0","57BD9A62E709447AB3691E9E679F6E1A","019cf85a-2337-730c-b499-28e2fcb37db6","019cf855-66fc-7d76-a612-8313d2c5c123","","null","
                <div class=""stimulus-container"">
                    <img src=""images/semantic_sequence/using_technology_semantic/using_technology_semantic_3.png"" class=""exp-image"">
                    <div class=""question-area""></div> 
                </div>","null","","","","","","","","",""
"","","","","","html-button-response","106","353769","0.0-106.0","57BD9A62E709447AB3691E9E679F6E1A","019cf85a-2337-730c-b499-28e2fcb37db6","019cf855-66fc-7d76-a612-8313d2c5c123","","1308","
                <div class=""stimulus-container"">
                    <img src=""images/semantic_sequence/using_technology_semantic/using_technology_semantic_3.png"" class=""exp-image"">
                    <div class=""question-area"">
                        <p style=""font-size: 20px; font-weight: bold; margin: 0;"">Is there a person in this image?</p>
                    </div>
                </div>","0","main_experiment_trial","3","using_technology_semantic","semantic_sequence","","","","",""
"","","","","","html-keyboard-response","107","358771","0.0-107.0","57BD9A62E709447AB3691E9E679F6E1A","019cf85a-2337-730c-b499-28e2fcb37db6","019cf855-66fc-7d76-a612-8313d2c5c123","","null","
                <div class=""stimulus-container"">
                    <img src=""images/semantic_sequence/using_technology_semantic/using_technology_semantic_4.png"" class=""exp-image"">
                    <div class=""question-area""></div> 
                </div>","null","","","","","","","","",""
"","","","","","html-button-response","108","360286","0.0-108.0","57BD9A62E709447AB3691E9E679F6E1A","019cf85a-2337-730c-b499-28e2fcb37db6","019cf855-66fc-7d76-a612-8313d2c5c123","","1513","
                <div class=""stimulus-container"">
                    <img src=""images/semantic_sequence/using_technology_semantic/using_technology_semantic_4.png"" class=""exp-image"">
                    <div class=""question-area"">
                        <p style=""font-size: 20px; font-weight: bold; margin: 0;"">Is there a person in this image?</p>
                    </div>
                </div>","0","main_experiment_trial","4","using_technology_semantic","semantic_sequence","","","","",""
"","","","","","html-keyboard-response","109","365288","0.0-109.0","57BD9A62E709447AB3691E9E679F6E1A","019cf85a-2337-730c-b499-28e2fcb37db6","019cf855-66fc-7d76-a612-8313d2c5c123","","null","
                <div class=""stimulus-container"">
                    <img src=""images/semantic_sequence/using_technology_semantic/using_technology_semantic_5.png"" class=""exp-image"">
                    <div class=""question-area""></div> 
                </div>","null","","","","","","","","",""
"","","","","","html-button-response","110","366883","0.0-110.0","57BD9A62E709447AB3691E9E679F6E1A","019cf85a-2337-730c-b499-28e2fcb37db6","019cf855-66fc-7d76-a612-8313d2c5c123","","1594","
                <div class=""stimulus-container"">
                    <img src=""images/semantic_sequence/using_technology_semantic/using_technology_semantic_5.png"" class=""exp-image"">
                    <div class=""question-area"">
                        <p style=""font-size: 20px; font-weight: bold; margin: 0;"">Is there a person in this image?</p>
                    </div>
                </div>","0","main_experiment_trial","5","using_technology_semantic","semantic_sequence","","","","",""
"","","","","","html-keyboard-response","111","371886","0.0-111.0","57BD9A62E709447AB3691E9E679F6E1A","019cf85a-2337-730c-b499-28e2fcb37db6","019cf855-66fc-7d76-a612-8313d2c5c123","","null","
                <div class=""stimulus-container"">
                    <img src=""images/semantic_sequence/using_technology_semantic/using_technology_semantic_6.png"" class=""exp-image"">
                    <div class=""question-area""></div> 
                </div>","null","","","","","","","","",""
"","","","","","html-button-response","112","372452","0.0-112.0","57BD9A62E709447AB3691E9E679F6E1A","019cf85a-2337-730c-b499-28e2fcb37db6","019cf855-66fc-7d76-a612-8313d2c5c123","","564","
                <div class=""stimulus-container"">
                    <img src=""images/semantic_sequence/using_technology_semantic/using_technology_semantic_6.png"" class=""exp-image"">
                    <div class=""question-area"">
                        <p style=""font-size: 20px; font-weight: bold; margin: 0;"">Is there a person in this image?</p>
                    </div>
                </div>","0","main_experiment_trial","6","using_technology_semantic","semantic_sequence","","","","",""
"","","","","","html-keyboard-response","113","377454","0.0-113.0","57BD9A62E709447AB3691E9E679F6E1A","019cf85a-2337-730c-b499-28e2fcb37db6","019cf855-66fc-7d76-a612-8313d2c5c123","","null","
                <div class=""stimulus-container"">
                    <img src=""images/semantic_sequence/using_technology_semantic/using_technology_semantic_7.png"" class=""exp-image"">
                    <div class=""question-area""></div> 
                </div>","null","","","","","","","","",""
"","","","","","html-button-response","114","379092","0.0-114.0","57BD9A62E709447AB3691E9E679F6E1A","019cf85a-2337-730c-b499-28e2fcb37db6","019cf855-66fc-7d76-a612-8313d2c5c123","","1635","
                <div class=""stimulus-container"">
                    <img src=""images/semantic_sequence/using_technology_semantic/using_technology_semantic_7.png"" class=""exp-image"">
                    <div class=""question-area"">
                        <p style=""font-size: 20px; font-weight: bold; margin: 0;"">Is there a person in this image?</p>
                    </div>
                </div>","0","main_experiment_trial","7","using_technology_semantic","semantic_sequence","","","","",""
"","","","","","html-keyboard-response","115","384094","0.0-115.0","57BD9A62E709447AB3691E9E679F6E1A","019cf85a-2337-730c-b499-28e2fcb37db6","019cf855-66fc-7d76-a612-8313d2c5c123","","null","
                <div class=""stimulus-container"">
                    <img src=""images/semantic_sequence/using_technology_semantic/using_technology_semantic_8.png"" class=""exp-image"">
                    <div class=""question-area""></div> 
                </div>","null","","","","","","","","",""
"","","","","","html-button-response","116","384770","0.0-116.0","57BD9A62E709447AB3691E9E679F6E1A","019cf85a-2337-730c-b499-28e2fcb37db6","019cf855-66fc-7d76-a612-8313d2c5c123","","674","
                <div class=""stimulus-container"">
                    <img src=""images/semantic_sequence/using_technology_semantic/using_technology_semantic_8.png"" class=""exp-image"">
                    <div class=""question-area"">
                        <p style=""font-size: 20px; font-weight: bold; margin: 0;"">Is there a person in this image?</p>
                    </div>
                </div>","0","main_experiment_trial","8","using_technology_semantic","semantic_sequence","","","","",""
"","","","","","html-keyboard-response","117","389773","0.0-117.0","57BD9A62E709447AB3691E9E679F6E1A","019cf85a-2337-730c-b499-28e2fcb37db6","019cf855-66fc-7d76-a612-8313d2c5c123","","null","
                <div class=""stimulus-container"">
                    <img src=""images/semantic_sequence/using_technology_semantic/using_technology_semantic_9.png"" class=""exp-image"">
                    <div class=""question-area""></div> 
                </div>","null","","","","","","","","",""
"","","","","","html-button-response","118","390633","0.0-118.0","57BD9A62E709447AB3691E9E679F6E1A","019cf85a-2337-730c-b499-28e2fcb37db6","019cf855-66fc-7d76-a612-8313d2c5c123","","858","
                <div class=""stimulus-container"">
                    <img src=""images/semantic_sequence/using_technology_semantic/using_technology_semantic_9.png"" class=""exp-image"">
                    <div class=""question-area"">
                        <p style=""font-size: 20px; font-weight: bold; margin: 0;"">Is there a person in this image?</p>
                    </div>
                </div>","0","main_experiment_trial","9","using_technology_semantic","semantic_sequence","","","","",""
"","","","","","html-keyboard-response","119","395635","0.0-119.0","57BD9A62E709447AB3691E9E679F6E1A","019cf85a-2337-730c-b499-28e2fcb37db6","019cf855-66fc-7d76-a612-8313d2c5c123","","null","
                <div class=""stimulus-container"">
                    <img src=""images/semantic_sequence/using_technology_semantic/using_technology_semantic_ten.png"" class=""exp-image"">
                    <div class=""question-area""></div> 
                </div>","null","","","","","","","","",""
"","","","","","html-button-response","120","396130","0.0-120.0","57BD9A62E709447AB3691E9E679F6E1A","019cf85a-2337-730c-b499-28e2fcb37db6","019cf855-66fc-7d76-a612-8313d2c5c123","","493","
                <div class=""stimulus-container"">
                    <img src=""images/semantic_sequence/using_technology_semantic/using_technology_semantic_ten.png"" class=""exp-image"">
                    <div class=""question-area"">
                        <p style=""font-size: 20px; font-weight: bold; margin: 0;"">Is there a person in this image?</p>
                    </div>
                </div>","0","main_experiment_trial","ten","using_technology_semantic","semantic_sequence","","","","",""
"","","","","","html-keyboard-response","121","397132","0.0-121.0","57BD9A62E709447AB3691E9E679F6E1A","019cf85a-2337-730c-b499-28e2fcb37db6","019cf855-66fc-7d76-a612-8313d2c5c123","","null","<div style=""background-color: white; width: 100vw; height: 100vh;""></div>","null","","","","","","","","",""
"","","","","","html-keyboard-response","122","402134","0.0-122.0","57BD9A62E709447AB3691E9E679F6E1A","019cf85a-2337-730c-b499-28e2fcb37db6","019cf855-66fc-7d76-a612-8313d2c5c123","","null","
                <div class=""stimulus-container"">
                    <img src=""images/semantic_sequence/housework_semantic/housework_semantic_1.png"" class=""exp-image"">
                    <div class=""question-area""></div> 
                </div>","null","","","","","","","","",""
"","","","","","html-button-response","123","402816","0.0-123.0","57BD9A62E709447AB3691E9E679F6E1A","019cf85a-2337-730c-b499-28e2fcb37db6","019cf855-66fc-7d76-a612-8313d2c5c123","","680","
                <div class=""stimulus-container"">
                    <img src=""images/semantic_sequence/housework_semantic/housework_semantic_1.png"" class=""exp-image"">
                    <div class=""question-area"">
                        <p style=""font-size: 20px; font-weight: bold; margin: 0;"">Is there a person in this image?</p>
                    </div>
                </div>","0","main_experiment_trial","1","housework_semantic","semantic_sequence","","","","",""
"","","","","","html-keyboard-response","124","407818","0.0-124.0","57BD9A62E709447AB3691E9E679F6E1A","019cf85a-2337-730c-b499-28e2fcb37db6","019cf855-66fc-7d76-a612-8313d2c5c123","","null","
                <div class=""stimulus-container"">
                    <img src=""images/semantic_sequence/housework_semantic/housework_semantic_2.png"" class=""exp-image"">
                    <div class=""question-area""></div> 
                </div>","null","","","","","","","","",""
"","","","","","html-button-response","125","408946","0.0-125.0","57BD9A62E709447AB3691E9E679F6E1A","019cf85a-2337-730c-b499-28e2fcb37db6","019cf855-66fc-7d76-a612-8313d2c5c123","","1126","
                <div class=""stimulus-container"">
                    <img src=""images/semantic_sequence/housework_semantic/housework_semantic_2.png"" class=""exp-image"">
                    <div class=""question-area"">
                        <p style=""font-size: 20px; font-weight: bold; margin: 0;"">Is there a person in this image?</p>
                    </div>
                </div>","0","main_experiment_trial","2","housework_semantic","semantic_sequence","","","","",""
"","","","","","html-keyboard-response","126","413948","0.0-126.0","57BD9A62E709447AB3691E9E679F6E1A","019cf85a-2337-730c-b499-28e2fcb37db6","019cf855-66fc-7d76-a612-8313d2c5c123","","null","
                <div class=""stimulus-container"">
                    <img src=""images/semantic_sequence/housework_semantic/housework_semantic_3.png"" class=""exp-image"">
                    <div class=""question-area""></div> 
                </div>","null","","","","","","","","",""
"","","","","","html-button-response","127","414482","0.0-127.0","57BD9A62E709447AB3691E9E679F6E1A","019cf85a-2337-730c-b499-28e2fcb37db6","019cf855-66fc-7d76-a612-8313d2c5c123","","531","
                <div class=""stimulus-container"">
                    <img src=""images/semantic_sequence/housework_semantic/housework_semantic_3.png"" class=""exp-image"">
                    <div class=""question-area"">
                        <p style=""font-size: 20px; font-weight: bold; margin: 0;"">Is there a person in this image?</p>
                    </div>
                </div>","0","main_experiment_trial","3","housework_semantic","semantic_sequence","","","","",""
"","","","","","html-keyboard-response","128","419483","0.0-128.0","57BD9A62E709447AB3691E9E679F6E1A","019cf85a-2337-730c-b499-28e2fcb37db6","019cf855-66fc-7d76-a612-8313d2c5c123","","null","
                <div class=""stimulus-container"">
                    <img src=""images/semantic_sequence/housework_semantic/housework_semantic_4.png"" class=""exp-image"">
                    <div class=""question-area""></div> 
                </div>","null","","","","","","","","",""
"","","","","","html-button-response","129","420748","0.0-129.0","57BD9A62E709447AB3691E9E679F6E1A","019cf85a-2337-730c-b499-28e2fcb37db6","019cf855-66fc-7d76-a612-8313d2c5c123","","1262","
                <div class=""stimulus-container"">
                    <img src=""images/semantic_sequence/housework_semantic/housework_semantic_4.png"" class=""exp-image"">
                    <div class=""question-area"">
                        <p style=""font-size: 20px; font-weight: bold; margin: 0;"">Is there a person in this image?</p>
                    </div>
                </div>","0","main_experiment_trial","4","housework_semantic","semantic_sequence","","","","",""
"","","","","","html-keyboard-response","130","425750","0.0-130.0","57BD9A62E709447AB3691E9E679F6E1A","019cf85a-2337-730c-b499-28e2fcb37db6","019cf855-66fc-7d76-a612-8313d2c5c123","","null","
                <div class=""stimulus-container"">
                    <img src=""images/semantic_sequence/housework_semantic/housework_semantic_5.png"" class=""exp-image"">
                    <div class=""question-area""></div> 
                </div>","null","","","","","","","","",""
"","","","","","html-button-response","131","426680","0.0-131.0","57BD9A62E709447AB3691E9E679F6E1A","019cf85a-2337-730c-b499-28e2fcb37db6","019cf855-66fc-7d76-a612-8313d2c5c123","","928","
                <div class=""stimulus-container"">
                    <img src=""images/semantic_sequence/housework_semantic/housework_semantic_5.png"" class=""exp-image"">
                    <div class=""question-area"">
                        <p style=""font-size: 20px; font-weight: bold; margin: 0;"">Is there a person in this image?</p>
                    </div>
                </div>","0","main_experiment_trial","5","housework_semantic","semantic_sequence","","","","",""
"","","","","","html-keyboard-response","132","431681","0.0-132.0","57BD9A62E709447AB3691E9E679F6E1A","019cf85a-2337-730c-b499-28e2fcb37db6","019cf855-66fc-7d76-a612-8313d2c5c123","","null","
                <div class=""stimulus-container"">
                    <img src=""images/semantic_sequence/housework_semantic/housework_semantic_6.png"" class=""exp-image"">
                    <div class=""question-area""></div> 
                </div>","null","","","","","","","","",""
"","","","","","html-button-response","133","432187","0.0-133.0","57BD9A62E709447AB3691E9E679F6E1A","019cf85a-2337-730c-b499-28e2fcb37db6","019cf855-66fc-7d76-a612-8313d2c5c123","","504","
                <div class=""stimulus-container"">
                    <img src=""images/semantic_sequence/housework_semantic/housework_semantic_6.png"" class=""exp-image"">
                    <div class=""question-area"">
                        <p style=""font-size: 20px; font-weight: bold; margin: 0;"">Is there a person in this image?</p>
                    </div>
                </div>","0","main_experiment_trial","6","housework_semantic","semantic_sequence","","","","",""
"","","","","","html-keyboard-response","134","437189","0.0-134.0","57BD9A62E709447AB3691E9E679F6E1A","019cf85a-2337-730c-b499-28e2fcb37db6","019cf855-66fc-7d76-a612-8313d2c5c123","","null","
                <div class=""stimulus-container"">
                    <img src=""images/semantic_sequence/housework_semantic/housework_semantic_7.png"" class=""exp-image"">
                    <div class=""question-area""></div> 
                </div>","null","","","","","","","","",""
"","","","","","html-button-response","135","437649","0.0-135.0","57BD9A62E709447AB3691E9E679F6E1A","019cf85a-2337-730c-b499-28e2fcb37db6","019cf855-66fc-7d76-a612-8313d2c5c123","","457","
                <div class=""stimulus-container"">
                    <img src=""images/semantic_sequence/housework_semantic/housework_semantic_7.png"" class=""exp-image"">
                    <div class=""question-area"">
                        <p style=""font-size: 20px; font-weight: bold; margin: 0;"">Is there a person in this image?</p>
                    </div>
                </div>","0","main_experiment_trial","7","housework_semantic","semantic_sequence","","","","",""
"","","","","","html-keyboard-response","136","442651","0.0-136.0","57BD9A62E709447AB3691E9E679F6E1A","019cf85a-2337-730c-b499-28e2fcb37db6","019cf855-66fc-7d76-a612-8313d2c5c123","","null","
                <div class=""stimulus-container"">
                    <img src=""images/semantic_sequence/housework_semantic/housework_semantic_8.png"" class=""exp-image"">
                    <div class=""question-area""></div> 
                </div>","null","","","","","","","","",""
"","","","","","html-button-response","137","444218","0.0-137.0","57BD9A62E709447AB3691E9E679F6E1A","019cf85a-2337-730c-b499-28e2fcb37db6","019cf855-66fc-7d76-a612-8313d2c5c123","","1565","
                <div class=""stimulus-container"">
                    <img src=""images/semantic_sequence/housework_semantic/housework_semantic_8.png"" class=""exp-image"">
                    <div class=""question-area"">
                        <p style=""font-size: 20px; font-weight: bold; margin: 0;"">Is there a person in this image?</p>
                    </div>
                </div>","0","main_experiment_trial","8","housework_semantic","semantic_sequence","","","","",""
"","","","","","html-keyboard-response","138","449220","0.0-138.0","57BD9A62E709447AB3691E9E679F6E1A","019cf85a-2337-730c-b499-28e2fcb37db6","019cf855-66fc-7d76-a612-8313d2c5c123","","null","
                <div class=""stimulus-container"">
                    <img src=""images/semantic_sequence/housework_semantic/housework_semantic_9.png"" class=""exp-image"">
                    <div class=""question-area""></div> 
                </div>","null","","","","","","","","",""
"","","","","","html-button-response","139","450393","0.0-139.0","57BD9A62E709447AB3691E9E679F6E1A","019cf85a-2337-730c-b499-28e2fcb37db6","019cf855-66fc-7d76-a612-8313d2c5c123","","1171","
                <div class=""stimulus-container"">
                    <img src=""images/semantic_sequence/housework_semantic/housework_semantic_9.png"" class=""exp-image"">
                    <div class=""question-area"">
                        <p style=""font-size: 20px; font-weight: bold; margin: 0;"">Is there a person in this image?</p>
                    </div>
                </div>","0","main_experiment_trial","9","housework_semantic","semantic_sequence","","","","",""
"","","","","","html-keyboard-response","140","455396","0.0-140.0","57BD9A62E709447AB3691E9E679F6E1A","019cf85a-2337-730c-b499-28e2fcb37db6","019cf855-66fc-7d76-a612-8313d2c5c123","","null","
                <div class=""stimulus-container"">
                    <img src=""images/semantic_sequence/housework_semantic/housework_semantic_ten.png"" class=""exp-image"">
                    <div class=""question-area""></div> 
                </div>","null","","","","","","","","",""
"","","","","","html-button-response","141","455952","0.0-141.0","57BD9A62E709447AB3691E9E679F6E1A","019cf85a-2337-730c-b499-28e2fcb37db6","019cf855-66fc-7d76-a612-8313d2c5c123","","554","
                <div class=""stimulus-container"">
                    <img src=""images/semantic_sequence/housework_semantic/housework_semantic_ten.png"" class=""exp-image"">
                    <div class=""question-area"">
                        <p style=""font-size: 20px; font-weight: bold; margin: 0;"">Is there a person in this image?</p>
                    </div>
                </div>","0","main_experiment_trial","ten","housework_semantic","semantic_sequence","","","","",""
"","","","","","html-keyboard-response","142","456955","0.0-142.0","57BD9A62E709447AB3691E9E679F6E1A","019cf85a-2337-730c-b499-28e2fcb37db6","019cf855-66fc-7d76-a612-8313d2c5c123","","null","<div style=""background-color: white; width: 100vw; height: 100vh;""></div>","null","","","","","","","","",""
"","","","","","html-keyboard-response","143","461956","0.0-143.0","57BD9A62E709447AB3691E9E679F6E1A","019cf85a-2337-730c-b499-28e2fcb37db6","019cf855-66fc-7d76-a612-8313d2c5c123","","null","
                <div class=""stimulus-container"">
                    <img src=""images/schematic_sequence/hotel_scheme/hotel_scheme_1.png"" class=""exp-image"">
                    <div class=""question-area""></div> 
                </div>","null","","","","","","","","",""
"","","","","","html-button-response","144","462432","0.0-144.0","57BD9A62E709447AB3691E9E679F6E1A","019cf85a-2337-730c-b499-28e2fcb37db6","019cf855-66fc-7d76-a612-8313d2c5c123","","474","
                <div class=""stimulus-container"">
                    <img src=""images/schematic_sequence/hotel_scheme/hotel_scheme_1.png"" class=""exp-image"">
                    <div class=""question-area"">
                        <p style=""font-size: 20px; font-weight: bold; margin: 0;"">Is there a person in this image?</p>
                    </div>
                </div>","1","main_experiment_trial","1","hotel_scheme","schematic_sequence","","","","",""
"","","","","","html-keyboard-response","145","467434","0.0-145.0","57BD9A62E709447AB3691E9E679F6E1A","019cf85a-2337-730c-b499-28e2fcb37db6","019cf855-66fc-7d76-a612-8313d2c5c123","","null","
                <div class=""stimulus-container"">
                    <img src=""images/schematic_sequence/hotel_scheme/hotel_scheme_2.png"" class=""exp-image"">
                    <div class=""question-area""></div> 
                </div>","null","","","","","","","","",""
"","","","","","html-button-response","146","468073","0.0-146.0","57BD9A62E709447AB3691E9E679F6E1A","019cf85a-2337-730c-b499-28e2fcb37db6","019cf855-66fc-7d76-a612-8313d2c5c123","","636","
                <div class=""stimulus-container"">
                    <img src=""images/schematic_sequence/hotel_scheme/hotel_scheme_2.png"" class=""exp-image"">
                    <div class=""question-area"">
                        <p style=""font-size: 20px; font-weight: bold; margin: 0;"">Is there a person in this image?</p>
                    </div>
                </div>","0","main_experiment_trial","2","hotel_scheme","schematic_sequence","","","","",""
"","","","","","html-keyboard-response","147","473076","0.0-147.0","57BD9A62E709447AB3691E9E679F6E1A","019cf85a-2337-730c-b499-28e2fcb37db6","019cf855-66fc-7d76-a612-8313d2c5c123","","null","
                <div class=""stimulus-container"">
                    <img src=""images/schematic_sequence/hotel_scheme/hotel_scheme_3.png"" class=""exp-image"">
                    <div class=""question-area""></div> 
                </div>","null","","","","","","","","",""
"","","","","","html-button-response","148","473560","0.0-148.0","57BD9A62E709447AB3691E9E679F6E1A","019cf85a-2337-730c-b499-28e2fcb37db6","019cf855-66fc-7d76-a612-8313d2c5c123","","482","
                <div class=""stimulus-container"">
                    <img src=""images/schematic_sequence/hotel_scheme/hotel_scheme_3.png"" class=""exp-image"">
                    <div class=""question-area"">
                        <p style=""font-size: 20px; font-weight: bold; margin: 0;"">Is there a person in this image?</p>
                    </div>
                </div>","0","main_experiment_trial","3","hotel_scheme","schematic_sequence","","","","",""
"","","","","","html-keyboard-response","149","478562","0.0-149.0","57BD9A62E709447AB3691E9E679F6E1A","019cf85a-2337-730c-b499-28e2fcb37db6","019cf855-66fc-7d76-a612-8313d2c5c123","","null","
                <div class=""stimulus-container"">
                    <img src=""images/schematic_sequence/hotel_scheme/hotel_scheme_4.png"" class=""exp-image"">
                    <div class=""question-area""></div> 
                </div>","null","","","","","","","","",""
"","","","","","html-button-response","150","479021","0.0-150.0","57BD9A62E709447AB3691E9E679F6E1A","019cf85a-2337-730c-b499-28e2fcb37db6","019cf855-66fc-7d76-a612-8313d2c5c123","","457","
                <div class=""stimulus-container"">
                    <img src=""images/schematic_sequence/hotel_scheme/hotel_scheme_4.png"" class=""exp-image"">
                    <div class=""question-area"">
                        <p style=""font-size: 20px; font-weight: bold; margin: 0;"">Is there a person in this image?</p>
                    </div>
                </div>","1","main_experiment_trial","4","hotel_scheme","schematic_sequence","","","","",""
"","","","","","html-keyboard-response","151","484022","0.0-151.0","57BD9A62E709447AB3691E9E679F6E1A","019cf85a-2337-730c-b499-28e2fcb37db6","019cf855-66fc-7d76-a612-8313d2c5c123","","null","
                <div class=""stimulus-container"">
                    <img src=""images/schematic_sequence/hotel_scheme/hotel_scheme_5.png"" class=""exp-image"">
                    <div class=""question-area""></div> 
                </div>","null","","","","","","","","",""
"","","","","","html-button-response","152","484577","0.0-152.0","57BD9A62E709447AB3691E9E679F6E1A","019cf85a-2337-730c-b499-28e2fcb37db6","019cf855-66fc-7d76-a612-8313d2c5c123","","554","
                <div class=""stimulus-container"">
                    <img src=""images/schematic_sequence/hotel_scheme/hotel_scheme_5.png"" class=""exp-image"">
                    <div class=""question-area"">
                        <p style=""font-size: 20px; font-weight: bold; margin: 0;"">Is there a person in this image?</p>
                    </div>
                </div>","0","main_experiment_trial","5","hotel_scheme","schematic_sequence","","","","",""
"","","","","","html-keyboard-response","153","489579","0.0-153.0","57BD9A62E709447AB3691E9E679F6E1A","019cf85a-2337-730c-b499-28e2fcb37db6","019cf855-66fc-7d76-a612-8313d2c5c123","","null","
                <div class=""stimulus-container"">
                    <img src=""images/schematic_sequence/hotel_scheme/hotel_scheme_6.png"" class=""exp-image"">
                    <div class=""question-area""></div> 
                </div>","null","","","","","","","","",""
"","","","","","html-button-response","154","492327","0.0-154.0","57BD9A62E709447AB3691E9E679F6E1A","019cf85a-2337-730c-b499-28e2fcb37db6","019cf855-66fc-7d76-a612-8313d2c5c123","","2745","
                <div class=""stimulus-container"">
                    <img src=""images/schematic_sequence/hotel_scheme/hotel_scheme_6.png"" class=""exp-image"">
                    <div class=""question-area"">
                        <p style=""font-size: 20px; font-weight: bold; margin: 0;"">Is there a person in this image?</p>
                    </div>
                </div>","0","main_experiment_trial","6","hotel_scheme","schematic_sequence","","","","",""
"","","","","","html-keyboard-response","155","497328","0.0-155.0","57BD9A62E709447AB3691E9E679F6E1A","019cf85a-2337-730c-b499-28e2fcb37db6","019cf855-66fc-7d76-a612-8313d2c5c123","","null","
                <div class=""stimulus-container"">
                    <img src=""images/schematic_sequence/hotel_scheme/hotel_scheme_7.png"" class=""exp-image"">
                    <div class=""question-area""></div> 
                </div>","null","","","","","","","","",""
"","","","","","html-button-response","156","500331","0.0-156.0","57BD9A62E709447AB3691E9E679F6E1A","019cf85a-2337-730c-b499-28e2fcb37db6","019cf855-66fc-7d76-a612-8313d2c5c123","","null","
                <div class=""stimulus-container"">
                    <img src=""images/schematic_sequence/hotel_scheme/hotel_scheme_7.png"" class=""exp-image"">
                    <div class=""question-area"">
                        <p style=""font-size: 20px; font-weight: bold; margin: 0;"">Is there a person in this image?</p>
                    </div>
                </div>","null","main_experiment_trial","7","hotel_scheme","schematic_sequence","","","","",""
"","","","","","html-keyboard-response","157","505333","0.0-157.0","57BD9A62E709447AB3691E9E679F6E1A","019cf85a-2337-730c-b499-28e2fcb37db6","019cf855-66fc-7d76-a612-8313d2c5c123","","null","
                <div class=""stimulus-container"">
                    <img src=""images/schematic_sequence/hotel_scheme/hotel_scheme_8.png"" class=""exp-image"">
                    <div class=""question-area""></div> 
                </div>","null","","","","","","","","",""
"","","","","","html-button-response","158","505918","0.0-158.0","57BD9A62E709447AB3691E9E679F6E1A","019cf85a-2337-730c-b499-28e2fcb37db6","019cf855-66fc-7d76-a612-8313d2c5c123","","583","
                <div class=""stimulus-container"">
                    <img src=""images/schematic_sequence/hotel_scheme/hotel_scheme_8.png"" class=""exp-image"">
                    <div class=""question-area"">
                        <p style=""font-size: 20px; font-weight: bold; margin: 0;"">Is there a person in this image?</p>
                    </div>
                </div>","0","main_experiment_trial","8","hotel_scheme","schematic_sequence","","","","",""
"","","","","","html-keyboard-response","159","510920","0.0-159.0","57BD9A62E709447AB3691E9E679F6E1A","019cf85a-2337-730c-b499-28e2fcb37db6","019cf855-66fc-7d76-a612-8313d2c5c123","","null","
                <div class=""stimulus-container"">
                    <img src=""images/schematic_sequence/hotel_scheme/hotel_scheme_9.png"" class=""exp-image"">
                    <div class=""question-area""></div> 
                </div>","null","","","","","","","","",""
"","","","","","html-button-response","160","512461","0.0-160.0","57BD9A62E709447AB3691E9E679F6E1A","019cf85a-2337-730c-b499-28e2fcb37db6","019cf855-66fc-7d76-a612-8313d2c5c123","","1538","
                <div class=""stimulus-container"">
                    <img src=""images/schematic_sequence/hotel_scheme/hotel_scheme_9.png"" class=""exp-image"">
                    <div class=""question-area"">
                        <p style=""font-size: 20px; font-weight: bold; margin: 0;"">Is there a person in this image?</p>
                    </div>
                </div>","0","main_experiment_trial","9","hotel_scheme","schematic_sequence","","","","",""
"","","","","","html-keyboard-response","161","517463","0.0-161.0","57BD9A62E709447AB3691E9E679F6E1A","019cf85a-2337-730c-b499-28e2fcb37db6","019cf855-66fc-7d76-a612-8313d2c5c123","","null","
                <div class=""stimulus-container"">
                    <img src=""images/schematic_sequence/hotel_scheme/hotel_scheme_ten.png"" class=""exp-image"">
                    <div class=""question-area""></div> 
                </div>","null","","","","","","","","",""
"","","","","","html-button-response","162","520003","0.0-162.0","57BD9A62E709447AB3691E9E679F6E1A","019cf85a-2337-730c-b499-28e2fcb37db6","019cf855-66fc-7d76-a612-8313d2c5c123","","2538","
                <div class=""stimulus-container"">
                    <img src=""images/schematic_sequence/hotel_scheme/hotel_scheme_ten.png"" class=""exp-image"">
                    <div class=""question-area"">
                        <p style=""font-size: 20px; font-weight: bold; margin: 0;"">Is there a person in this image?</p>
                    </div>
                </div>","0","main_experiment_trial","ten","hotel_scheme","schematic_sequence","","","","",""
"","","","","","html-keyboard-response","163","521005","0.0-163.0","57BD9A62E709447AB3691E9E679F6E1A","019cf85a-2337-730c-b499-28e2fcb37db6","019cf855-66fc-7d76-a612-8313d2c5c123","","null","<div style=""background-color: white; width: 100vw; height: 100vh;""></div>","null","","","","","","","","",""
"","","","","","html-keyboard-response","164","526007","0.0-164.0","57BD9A62E709447AB3691E9E679F6E1A","019cf85a-2337-730c-b499-28e2fcb37db6","019cf855-66fc-7d76-a612-8313d2c5c123","","null","
                <div class=""stimulus-container"">
                    <img src=""images/schematic_sequence/flight_scheme/flight_scheme_1.png"" class=""exp-image"">
                    <div class=""question-area""></div> 
                </div>","null","","","","","","","","",""
"","","","","","html-button-response","165","528537","0.0-165.0","57BD9A62E709447AB3691E9E679F6E1A","019cf85a-2337-730c-b499-28e2fcb37db6","019cf855-66fc-7d76-a612-8313d2c5c123","","2528","
                <div class=""stimulus-container"">
                    <img src=""images/schematic_sequence/flight_scheme/flight_scheme_1.png"" class=""exp-image"">
                    <div class=""question-area"">
                        <p style=""font-size: 20px; font-weight: bold; margin: 0;"">Is there a person in this image?</p>
                    </div>
                </div>","0","main_experiment_trial","1","flight_scheme","schematic_sequence","","","","",""
"","","","","","html-keyboard-response","166","533539","0.0-166.0","57BD9A62E709447AB3691E9E679F6E1A","019cf85a-2337-730c-b499-28e2fcb37db6","019cf855-66fc-7d76-a612-8313d2c5c123","","null","
                <div class=""stimulus-container"">
                    <img src=""images/schematic_sequence/flight_scheme/flight_scheme_2.png"" class=""exp-image"">
                    <div class=""question-area""></div> 
                </div>","null","","","","","","","","",""
"","","","","","html-button-response","167","536541","0.0-167.0","57BD9A62E709447AB3691E9E679F6E1A","019cf85a-2337-730c-b499-28e2fcb37db6","019cf855-66fc-7d76-a612-8313d2c5c123","","null","
                <div class=""stimulus-container"">
                    <img src=""images/schematic_sequence/flight_scheme/flight_scheme_2.png"" class=""exp-image"">
                    <div class=""question-area"">
                        <p style=""font-size: 20px; font-weight: bold; margin: 0;"">Is there a person in this image?</p>
                    </div>
                </div>","null","main_experiment_trial","2","flight_scheme","schematic_sequence","","","","",""
"","","","","","html-keyboard-response","168","541542","0.0-168.0","57BD9A62E709447AB3691E9E679F6E1A","019cf85a-2337-730c-b499-28e2fcb37db6","019cf855-66fc-7d76-a612-8313d2c5c123","","null","
                <div class=""stimulus-container"">
                    <img src=""images/schematic_sequence/flight_scheme/flight_scheme_3.png"" class=""exp-image"">
                    <div class=""question-area""></div> 
                </div>","null","","","","","","","","",""
"","","","","","html-button-response","169","542291","0.0-169.0","57BD9A62E709447AB3691E9E679F6E1A","019cf85a-2337-730c-b499-28e2fcb37db6","019cf855-66fc-7d76-a612-8313d2c5c123","","746","
                <div class=""stimulus-container"">
                    <img src=""images/schematic_sequence/flight_scheme/flight_scheme_3.png"" class=""exp-image"">
                    <div class=""question-area"">
                        <p style=""font-size: 20px; font-weight: bold; margin: 0;"">Is there a person in this image?</p>
                    </div>
                </div>","0","main_experiment_trial","3","flight_scheme","schematic_sequence","","","","",""
"","","","","","html-keyboard-response","170","547293","0.0-170.0","57BD9A62E709447AB3691E9E679F6E1A","019cf85a-2337-730c-b499-28e2fcb37db6","019cf855-66fc-7d76-a612-8313d2c5c123","","null","
                <div class=""stimulus-container"">
                    <img src=""images/schematic_sequence/flight_scheme/flight_scheme_4.png"" class=""exp-image"">
                    <div class=""question-area""></div> 
                </div>","null","","","","","","","","",""
"","","","","","html-button-response","171","547887","0.0-171.0","57BD9A62E709447AB3691E9E679F6E1A","019cf85a-2337-730c-b499-28e2fcb37db6","019cf855-66fc-7d76-a612-8313d2c5c123","","591","
                <div class=""stimulus-container"">
                    <img src=""images/schematic_sequence/flight_scheme/flight_scheme_4.png"" class=""exp-image"">
                    <div class=""question-area"">
                        <p style=""font-size: 20px; font-weight: bold; margin: 0;"">Is there a person in this image?</p>
                    </div>
                </div>","0","main_experiment_trial","4","flight_scheme","schematic_sequence","","","","",""
"","","","","","html-keyboard-response","172","552889","0.0-172.0","57BD9A62E709447AB3691E9E679F6E1A","019cf85a-2337-730c-b499-28e2fcb37db6","019cf855-66fc-7d76-a612-8313d2c5c123","","null","
                <div class=""stimulus-container"">
                    <img src=""images/schematic_sequence/flight_scheme/flight_scheme_5.png"" class=""exp-image"">
                    <div class=""question-area""></div> 
                </div>","null","","","","","","","","",""
"","","","","","html-button-response","173","553386","0.0-173.0","57BD9A62E709447AB3691E9E679F6E1A","019cf85a-2337-730c-b499-28e2fcb37db6","019cf855-66fc-7d76-a612-8313d2c5c123","","495","
                <div class=""stimulus-container"">
                    <img src=""images/schematic_sequence/flight_scheme/flight_scheme_5.png"" class=""exp-image"">
                    <div class=""question-area"">
                        <p style=""font-size: 20px; font-weight: bold; margin: 0;"">Is there a person in this image?</p>
                    </div>
                </div>","0","main_experiment_trial","5","flight_scheme","schematic_sequence","","","","",""
"","","","","","html-keyboard-response","174","558388","0.0-174.0","57BD9A62E709447AB3691E9E679F6E1A","019cf85a-2337-730c-b499-28e2fcb37db6","019cf855-66fc-7d76-a612-8313d2c5c123","","null","
                <div class=""stimulus-container"">
                    <img src=""images/schematic_sequence/flight_scheme/flight_scheme_6.png"" class=""exp-image"">
                    <div class=""question-area""></div> 
                </div>","null","","","","","","","","",""
"","","","","","html-button-response","175","559207","0.0-175.0","57BD9A62E709447AB3691E9E679F6E1A","019cf85a-2337-730c-b499-28e2fcb37db6","019cf855-66fc-7d76-a612-8313d2c5c123","","816","
                <div class=""stimulus-container"">
                    <img src=""images/schematic_sequence/flight_scheme/flight_scheme_6.png"" class=""exp-image"">
                    <div class=""question-area"">
                        <p style=""font-size: 20px; font-weight: bold; margin: 0;"">Is there a person in this image?</p>
                    </div>
                </div>","1","main_experiment_trial","6","flight_scheme","schematic_sequence","","","","",""
"","","","","","html-keyboard-response","176","564208","0.0-176.0","57BD9A62E709447AB3691E9E679F6E1A","019cf85a-2337-730c-b499-28e2fcb37db6","019cf855-66fc-7d76-a612-8313d2c5c123","","null","
                <div class=""stimulus-container"">
                    <img src=""images/schematic_sequence/flight_scheme/flight_scheme_7.png"" class=""exp-image"">
                    <div class=""question-area""></div> 
                </div>","null","","","","","","","","",""
"","","","","","html-button-response","177","564758","0.0-177.0","57BD9A62E709447AB3691E9E679F6E1A","019cf85a-2337-730c-b499-28e2fcb37db6","019cf855-66fc-7d76-a612-8313d2c5c123","","547","
                <div class=""stimulus-container"">
                    <img src=""images/schematic_sequence/flight_scheme/flight_scheme_7.png"" class=""exp-image"">
                    <div class=""question-area"">
                        <p style=""font-size: 20px; font-weight: bold; margin: 0;"">Is there a person in this image?</p>
                    </div>
                </div>","1","main_experiment_trial","7","flight_scheme","schematic_sequence","","","","",""
"","","","","","html-keyboard-response","178","569760","0.0-178.0","57BD9A62E709447AB3691E9E679F6E1A","019cf85a-2337-730c-b499-28e2fcb37db6","019cf855-66fc-7d76-a612-8313d2c5c123","","null","
                <div class=""stimulus-container"">
                    <img src=""images/schematic_sequence/flight_scheme/flight_scheme_8.png"" class=""exp-image"">
                    <div class=""question-area""></div> 
                </div>","null","","","","","","","","",""
"","","","","","html-button-response","179","570211","0.0-179.0","57BD9A62E709447AB3691E9E679F6E1A","019cf85a-2337-730c-b499-28e2fcb37db6","019cf855-66fc-7d76-a612-8313d2c5c123","","449","
                <div class=""stimulus-container"">
                    <img src=""images/schematic_sequence/flight_scheme/flight_scheme_8.png"" class=""exp-image"">
                    <div class=""question-area"">
                        <p style=""font-size: 20px; font-weight: bold; margin: 0;"">Is there a person in this image?</p>
                    </div>
                </div>","1","main_experiment_trial","8","flight_scheme","schematic_sequence","","","","",""
"","","","","","html-keyboard-response","180","575213","0.0-180.0","57BD9A62E709447AB3691E9E679F6E1A","019cf85a-2337-730c-b499-28e2fcb37db6","019cf855-66fc-7d76-a612-8313d2c5c123","","null","
                <div class=""stimulus-container"">
                    <img src=""images/schematic_sequence/flight_scheme/flight_scheme_9.png"" class=""exp-image"">
                    <div class=""question-area""></div> 
                </div>","null","","","","","","","","",""
"","","","","","html-button-response","181","576814","0.0-181.0","57BD9A62E709447AB3691E9E679F6E1A","019cf85a-2337-730c-b499-28e2fcb37db6","019cf855-66fc-7d76-a612-8313d2c5c123","","1599","
                <div class=""stimulus-container"">
