"success","timeout","failed_images","failed_audio","failed_video","trial_type","trial_index","time_elapsed","internal_node_id","subject_id","study_id","session_id","view_history","rt","stimulus","response","task","image_index","folder","sequence_type","presentation_order","valuable_image_index","reward_type","target_X","l_dist","r_dist","chosen_image_index","selected_after_X","correct_choice"
"true","false","[]","[]","[]","preload","0","3918","0.0-0.0","DA737D50D59340D38E9FBE5BE89ED438","019d6664-97ae-7e47-9f0f-d191756f561e","019d6630-2071-75cb-8026-6699844a2719","","","","","","","","","","","","","","","","",""
"","","","","","instructions","1","13854","0.0-1.0","DA737D50D59340D38E9FBE5BE89ED438","019d6664-97ae-7e47-9f0f-d191756f561e","019d6630-2071-75cb-8026-6699844a2719","[{""page_index"":0,""viewing_time"":9935}]","9935","","","","","","","","","","","","","","",""
"","","","","","instructions","2","21869","0.0-2.0","DA737D50D59340D38E9FBE5BE89ED438","019d6664-97ae-7e47-9f0f-d191756f561e","019d6630-2071-75cb-8026-6699844a2719","[{""page_index"":0,""viewing_time"":8015}]","8015","","","","","","","","","","","","","","",""
"true","","","","","fullscreen","3","27035","0.0-3.0","DA737D50D59340D38E9FBE5BE89ED438","019d6664-97ae-7e47-9f0f-d191756f561e","019d6630-2071-75cb-8026-6699844a2719","","4152","","","","","","","","","","","","","","",""
"","","","","","instructions","4","33700","0.0-4.0","DA737D50D59340D38E9FBE5BE89ED438","019d6664-97ae-7e47-9f0f-d191756f561e","019d6630-2071-75cb-8026-6699844a2719","[{""page_index"":0,""viewing_time"":6665}]","6665","","","","","","","","","","","","","","",""
"","","","","","instructions","5","38140","0.0-5.0","DA737D50D59340D38E9FBE5BE89ED438","019d6664-97ae-7e47-9f0f-d191756f561e","019d6630-2071-75cb-8026-6699844a2719","[{""page_index"":0,""viewing_time"":4440}]","4441","","","","","","","","","","","","","","",""
"","","","","","html-keyboard-response","6","42153","0.0-6.0","DA737D50D59340D38E9FBE5BE89ED438","019d6664-97ae-7e47-9f0f-d191756f561e","019d6630-2071-75cb-8026-6699844a2719","","null","
                <div class=""stimulus-container"">
                    <img src=""images/instructions/movie_1.png"" class=""exp-image"">
                    <div class=""question-area""></div> 
                </div>","null","","","","","","","","","","","","",""
"","","","","","html-button-response","7","45162","0.0-7.0","DA737D50D59340D38E9FBE5BE89ED438","019d6664-97ae-7e47-9f0f-d191756f561e","019d6630-2071-75cb-8026-6699844a2719","","null","
                <div class=""stimulus-container"">
                    <img src=""images/instructions/movie_1.png"" class=""exp-image"">
                    <div class=""question-area"">
                        <p style=""font-size: 20px; font-weight: bold; margin: 0;"">Was there a person in this image?</p>
                    </div>
                </div>","null","example_question","1","","","","","","","","","","",""
"","","","","","html-keyboard-response","8","49177","0.0-8.0","DA737D50D59340D38E9FBE5BE89ED438","019d6664-97ae-7e47-9f0f-d191756f561e","019d6630-2071-75cb-8026-6699844a2719","","null","
                <div class=""stimulus-container"">
                    <img src=""images/instructions/movie_2.png"" class=""exp-image"">
                    <div class=""question-area""></div> 
                </div>","null","","","","","","","","","","","","",""
"","","","","","html-button-response","9","49955","0.0-9.0","DA737D50D59340D38E9FBE5BE89ED438","019d6664-97ae-7e47-9f0f-d191756f561e","019d6630-2071-75cb-8026-6699844a2719","","778","
                <div class=""stimulus-container"">
                    <img src=""images/instructions/movie_2.png"" class=""exp-image"">
                    <div class=""question-area"">
                        <p style=""font-size: 20px; font-weight: bold; margin: 0;"">Was there a person in this image?</p>
                    </div>
                </div>","0","example_question","2","","","","","","","","","","",""
"","","","","","html-keyboard-response","10","53960","0.0-10.0","DA737D50D59340D38E9FBE5BE89ED438","019d6664-97ae-7e47-9f0f-d191756f561e","019d6630-2071-75cb-8026-6699844a2719","","null","
                <div class=""stimulus-container"">
                    <img src=""images/instructions/movie_3.png"" class=""exp-image"">
                    <div class=""question-area""></div> 
                </div>","null","","","","","","","","","","","","",""
"","","","","","html-button-response","11","54893","0.0-11.0","DA737D50D59340D38E9FBE5BE89ED438","019d6664-97ae-7e47-9f0f-d191756f561e","019d6630-2071-75cb-8026-6699844a2719","","932","
                <div class=""stimulus-container"">
                    <img src=""images/instructions/movie_3.png"" class=""exp-image"">
                    <div class=""question-area"">
                        <p style=""font-size: 20px; font-weight: bold; margin: 0;"">Was there a person in this image?</p>
                    </div>
                </div>","0","example_question","3","","","","","","","","","","",""
"","","","","","html-keyboard-response","12","58905","0.0-12.0","DA737D50D59340D38E9FBE5BE89ED438","019d6664-97ae-7e47-9f0f-d191756f561e","019d6630-2071-75cb-8026-6699844a2719","","null","
                <div class=""stimulus-container"">
                    <img src=""images/instructions/movie_4.png"" class=""exp-image"">
                    <div class=""question-area""></div> 
                </div>","null","","","","","","","","","","","","",""
"","","","","","html-button-response","13","59338","0.0-13.0","DA737D50D59340D38E9FBE5BE89ED438","019d6664-97ae-7e47-9f0f-d191756f561e","019d6630-2071-75cb-8026-6699844a2719","","433","
                <div class=""stimulus-container"">
                    <img src=""images/instructions/movie_4.png"" class=""exp-image"">
                    <div class=""question-area"">
                        <p style=""font-size: 20px; font-weight: bold; margin: 0;"">Was there a person in this image?</p>
                    </div>
                </div>","0","example_question","4","","","","","","","","","","",""
"","","","","","instructions","14","62218","0.0-14.0","DA737D50D59340D38E9FBE5BE89ED438","019d6664-97ae-7e47-9f0f-d191756f561e","019d6630-2071-75cb-8026-6699844a2719","[{""page_index"":0,""viewing_time"":2880}]","2880","","","","","","","","","","","","","","",""
"","","","","","instructions","15","69634","0.0-15.0","DA737D50D59340D38E9FBE5BE89ED438","019d6664-97ae-7e47-9f0f-d191756f561e","019d6630-2071-75cb-8026-6699844a2719","[{""page_index"":0,""viewing_time"":7416}]","7416","","","","","","","","","","","","","","",""
"","","","","","html-keyboard-response","16","74648","0.0-16.0","DA737D50D59340D38E9FBE5BE89ED438","019d6664-97ae-7e47-9f0f-d191756f561e","019d6630-2071-75cb-8026-6699844a2719","","null","<div style=""background-color: white; width: 100vw; height: 100vh;""></div>","null","","","","","","","","","","","","",""
"","","","","","html-keyboard-response","17","79656","0.0-17.0","DA737D50D59340D38E9FBE5BE89ED438","019d6664-97ae-7e47-9f0f-d191756f561e","019d6630-2071-75cb-8026-6699844a2719","","null","
                <div class=""stimulus-container"">
                    <img src=""images/semantic_sequence/physical_activity_semantic/physical_activity_semantic_1.png"" class=""exp-image"">
                    <div class=""question-area""></div> 
                </div>","null","","","","","","","","","","","","",""
"","","","","","html-button-response","18","80405","0.0-18.0","DA737D50D59340D38E9FBE5BE89ED438","019d6664-97ae-7e47-9f0f-d191756f561e","019d6630-2071-75cb-8026-6699844a2719","","749","
                <div class=""stimulus-container"">
                    <img src=""images/semantic_sequence/physical_activity_semantic/physical_activity_semantic_1.png"" class=""exp-image"">
                    <div class=""question-area"">
                        <p style=""font-size: 20px; font-weight: bold; margin: 0;"">Is there a person in this image?</p>
                    </div>
                </div>","0","main_experiment_trial","1","physical_activity_semantic","semantic_sequence","chronological","","","","","","","",""
"","","","","","html-keyboard-response","19","85417","0.0-19.0","DA737D50D59340D38E9FBE5BE89ED438","019d6664-97ae-7e47-9f0f-d191756f561e","019d6630-2071-75cb-8026-6699844a2719","","null","
                <div class=""stimulus-container"">
                    <img src=""images/semantic_sequence/physical_activity_semantic/physical_activity_semantic_2.png"" class=""exp-image"">
                    <div class=""question-area""></div> 
                </div>","null","","","","","","","","","","","","",""
"","","","","","html-button-response","20","85930","0.0-20.0","DA737D50D59340D38E9FBE5BE89ED438","019d6664-97ae-7e47-9f0f-d191756f561e","019d6630-2071-75cb-8026-6699844a2719","","513","
                <div class=""stimulus-container"">
                    <img src=""images/semantic_sequence/physical_activity_semantic/physical_activity_semantic_2.png"" class=""exp-image"">
                    <div class=""question-area"">
                        <p style=""font-size: 20px; font-weight: bold; margin: 0;"">Is there a person in this image?</p>
                    </div>
                </div>","0","main_experiment_trial","2","physical_activity_semantic","semantic_sequence","chronological","","","","","","","",""
"","","","","","html-keyboard-response","21","90941","0.0-21.0","DA737D50D59340D38E9FBE5BE89ED438","019d6664-97ae-7e47-9f0f-d191756f561e","019d6630-2071-75cb-8026-6699844a2719","","null","
                <div class=""stimulus-container"">
                    <img src=""images/semantic_sequence/physical_activity_semantic/physical_activity_semantic_3.png"" class=""exp-image"">
                    <div class=""question-area""></div> 
                </div>","null","","","","","","","","","","","","",""
"","","","","","html-button-response","22","91472","0.0-22.0","DA737D50D59340D38E9FBE5BE89ED438","019d6664-97ae-7e47-9f0f-d191756f561e","019d6630-2071-75cb-8026-6699844a2719","","530","
                <div class=""stimulus-container"">
                    <img src=""images/semantic_sequence/physical_activity_semantic/physical_activity_semantic_3.png"" class=""exp-image"">
                    <div class=""question-area"">
                        <p style=""font-size: 20px; font-weight: bold; margin: 0;"">Is there a person in this image?</p>
                    </div>
                </div>","0","main_experiment_trial","3","physical_activity_semantic","semantic_sequence","chronological","","","","","","","",""
"","","","","","html-keyboard-response","23","96483","0.0-23.0","DA737D50D59340D38E9FBE5BE89ED438","019d6664-97ae-7e47-9f0f-d191756f561e","019d6630-2071-75cb-8026-6699844a2719","","null","
                <div class=""stimulus-container"">
                    <img src=""images/semantic_sequence/physical_activity_semantic/physical_activity_semantic_4.png"" class=""exp-image"">
                    <div class=""question-area""></div> 
                </div>","null","","","","","","","","","","","","",""
"","","","","","html-button-response","24","97154","0.0-24.0","DA737D50D59340D38E9FBE5BE89ED438","019d6664-97ae-7e47-9f0f-d191756f561e","019d6630-2071-75cb-8026-6699844a2719","","670","
                <div class=""stimulus-container"">
                    <img src=""images/semantic_sequence/physical_activity_semantic/physical_activity_semantic_4.png"" class=""exp-image"">
                    <div class=""question-area"">
                        <p style=""font-size: 20px; font-weight: bold; margin: 0;"">Is there a person in this image?</p>
                    </div>
                </div>","0","main_experiment_trial","4","physical_activity_semantic","semantic_sequence","chronological","","","","","","","",""
"","","","","","html-keyboard-response","25","102166","0.0-25.0","DA737D50D59340D38E9FBE5BE89ED438","019d6664-97ae-7e47-9f0f-d191756f561e","019d6630-2071-75cb-8026-6699844a2719","","null","
                <div class=""stimulus-container"">
                    <img src=""images/semantic_sequence/physical_activity_semantic/physical_activity_semantic_5.png"" class=""exp-image"">
                    <div class=""question-area""></div> 
                </div>","null","","","","","","","","","","","","",""
"","","","","","html-button-response","26","102606","0.0-26.0","DA737D50D59340D38E9FBE5BE89ED438","019d6664-97ae-7e47-9f0f-d191756f561e","019d6630-2071-75cb-8026-6699844a2719","","439","
                <div class=""stimulus-container"">
                    <img src=""images/semantic_sequence/physical_activity_semantic/physical_activity_semantic_5.png"" class=""exp-image"">
                    <div class=""question-area"">
                        <p style=""font-size: 20px; font-weight: bold; margin: 0;"">Is there a person in this image?</p>
                    </div>
                </div>","0","main_experiment_trial","5","physical_activity_semantic","semantic_sequence","chronological","","","","","","","",""
"","","","","","html-keyboard-response","27","107614","0.0-27.0","DA737D50D59340D38E9FBE5BE89ED438","019d6664-97ae-7e47-9f0f-d191756f561e","019d6630-2071-75cb-8026-6699844a2719","","null","
                <div class=""stimulus-container"">
                    <img src=""images/semantic_sequence/physical_activity_semantic/physical_activity_semantic_6.png"" class=""exp-image"">
                    <div class=""question-area""></div> 
                </div>","null","","","","","","","","","","","","",""
"","","","","","html-button-response","28","108085","0.0-28.0","DA737D50D59340D38E9FBE5BE89ED438","019d6664-97ae-7e47-9f0f-d191756f561e","019d6630-2071-75cb-8026-6699844a2719","","471","
                <div class=""stimulus-container"">
                    <img src=""images/semantic_sequence/physical_activity_semantic/physical_activity_semantic_6.png"" class=""exp-image"">
                    <div class=""question-area"">
                        <p style=""font-size: 20px; font-weight: bold; margin: 0;"">Is there a person in this image?</p>
                    </div>
                </div>","0","main_experiment_trial","6","physical_activity_semantic","semantic_sequence","chronological","","","","","","","",""
"","","","","","html-keyboard-response","29","113098","0.0-29.0","DA737D50D59340D38E9FBE5BE89ED438","019d6664-97ae-7e47-9f0f-d191756f561e","019d6630-2071-75cb-8026-6699844a2719","","null","
                <div class=""stimulus-container"">
                    <img src=""images/semantic_sequence/physical_activity_semantic/physical_activity_semantic_7.png"" class=""exp-image"">
                    <div class=""question-area""></div> 
                </div>","null","","","","","","","","","","","","",""
"","","","","","html-button-response","30","113823","0.0-30.0","DA737D50D59340D38E9FBE5BE89ED438","019d6664-97ae-7e47-9f0f-d191756f561e","019d6630-2071-75cb-8026-6699844a2719","","724","
                <div class=""stimulus-container"">
                    <img src=""images/semantic_sequence/physical_activity_semantic/physical_activity_semantic_7.png"" class=""exp-image"">
                    <div class=""question-area"">
                        <p style=""font-size: 20px; font-weight: bold; margin: 0;"">Is there a person in this image?</p>
                    </div>
                </div>","0","main_experiment_trial","7","physical_activity_semantic","semantic_sequence","chronological","","","","","","","",""
"","","","","","html-keyboard-response","31","118837","0.0-31.0","DA737D50D59340D38E9FBE5BE89ED438","019d6664-97ae-7e47-9f0f-d191756f561e","019d6630-2071-75cb-8026-6699844a2719","","null","
                <div class=""stimulus-container"">
                    <img src=""images/semantic_sequence/physical_activity_semantic/physical_activity_semantic_8.png"" class=""exp-image"">
                    <div class=""question-area""></div> 
                </div>","null","","","","","","","","","","","","",""
"","","","","","html-button-response","32","119618","0.0-32.0","DA737D50D59340D38E9FBE5BE89ED438","019d6664-97ae-7e47-9f0f-d191756f561e","019d6630-2071-75cb-8026-6699844a2719","","780","
                <div class=""stimulus-container"">
                    <img src=""images/semantic_sequence/physical_activity_semantic/physical_activity_semantic_8.png"" class=""exp-image"">
                    <div class=""question-area"">
                        <p style=""font-size: 20px; font-weight: bold; margin: 0;"">Is there a person in this image?</p>
                    </div>
                </div>","0","main_experiment_trial","8","physical_activity_semantic","semantic_sequence","chronological","","","","","","","",""
"","","","","","html-keyboard-response","33","124627","0.0-33.0","DA737D50D59340D38E9FBE5BE89ED438","019d6664-97ae-7e47-9f0f-d191756f561e","019d6630-2071-75cb-8026-6699844a2719","","null","
                <div class=""stimulus-container"">
                    <img src=""images/semantic_sequence/physical_activity_semantic/physical_activity_semantic_9.png"" class=""exp-image"">
                    <div class=""question-area""></div> 
                </div>","null","","","","","","","","","","","","",""
"","","","","","html-button-response","34","125422","0.0-34.0","DA737D50D59340D38E9FBE5BE89ED438","019d6664-97ae-7e47-9f0f-d191756f561e","019d6630-2071-75cb-8026-6699844a2719","","794","
                <div class=""stimulus-container"">
                    <img src=""images/semantic_sequence/physical_activity_semantic/physical_activity_semantic_9.png"" class=""exp-image"">
                    <div class=""question-area"">
                        <p style=""font-size: 20px; font-weight: bold; margin: 0;"">Is there a person in this image?</p>
                    </div>
                </div>","0","main_experiment_trial","9","physical_activity_semantic","semantic_sequence","chronological","","","","","","","",""
"","","","","","html-keyboard-response","35","130424","0.0-35.0","DA737D50D59340D38E9FBE5BE89ED438","019d6664-97ae-7e47-9f0f-d191756f561e","019d6630-2071-75cb-8026-6699844a2719","","null","
                <div class=""stimulus-container"">
                    <img src=""images/semantic_sequence/physical_activity_semantic/physical_activity_semantic_ten.png"" class=""exp-image"">
                    <div class=""question-area""></div> 
                </div>","null","","","","","","","","","","","","",""
"","","","","","html-button-response","36","131099","0.0-36.0","DA737D50D59340D38E9FBE5BE89ED438","019d6664-97ae-7e47-9f0f-d191756f561e","019d6630-2071-75cb-8026-6699844a2719","","674","
                <div class=""stimulus-container"">
                    <img src=""images/semantic_sequence/physical_activity_semantic/physical_activity_semantic_ten.png"" class=""exp-image"">
                    <div class=""question-area"">
                        <p style=""font-size: 20px; font-weight: bold; margin: 0;"">Is there a person in this image?</p>
                    </div>
                </div>","0","main_experiment_trial","ten","physical_activity_semantic","semantic_sequence","chronological","","","","","","","",""
"","","","","","html-keyboard-response","37","136103","0.0-37.0","DA737D50D59340D38E9FBE5BE89ED438","019d6664-97ae-7e47-9f0f-d191756f561e","019d6630-2071-75cb-8026-6699844a2719","","null","<div style=""background-color: white; width: 100vw; height: 100vh;""></div>","null","","","","","","","","","","","","",""
"","","","","","html-keyboard-response","38","141112","0.0-38.0","DA737D50D59340D38E9FBE5BE89ED438","019d6664-97ae-7e47-9f0f-d191756f561e","019d6630-2071-75cb-8026-6699844a2719","","null","
                <div class=""stimulus-container"">
                    <img src=""images/schematic_sequence/restaurant_scheme/restaurant_scheme_1.png"" class=""exp-image"">
                    <div class=""question-area""></div> 
                </div>","null","","","","","","","","","","","","",""
"","","","","","html-button-response","39","142023","0.0-39.0","DA737D50D59340D38E9FBE5BE89ED438","019d6664-97ae-7e47-9f0f-d191756f561e","019d6630-2071-75cb-8026-6699844a2719","","910","
                <div class=""stimulus-container"">
                    <img src=""images/schematic_sequence/restaurant_scheme/restaurant_scheme_1.png"" class=""exp-image"">
                    <div class=""question-area"">
                        <p style=""font-size: 20px; font-weight: bold; margin: 0;"">Is there a person in this image?</p>
                    </div>
                </div>","0","main_experiment_trial","1","restaurant_scheme","schematic_sequence","chronological","","","","","","","",""
"","","","","","html-keyboard-response","40","147032","0.0-40.0","DA737D50D59340D38E9FBE5BE89ED438","019d6664-97ae-7e47-9f0f-d191756f561e","019d6630-2071-75cb-8026-6699844a2719","","null","
                <div class=""stimulus-container"">
                    <img src=""images/schematic_sequence/restaurant_scheme/restaurant_scheme_2.png"" class=""exp-image"">
                    <div class=""question-area""></div> 
                </div>","null","","","","","","","","","","","","",""
"","","","","","html-button-response","41","147720","0.0-41.0","DA737D50D59340D38E9FBE5BE89ED438","019d6664-97ae-7e47-9f0f-d191756f561e","019d6630-2071-75cb-8026-6699844a2719","","687","
                <div class=""stimulus-container"">
                    <img src=""images/schematic_sequence/restaurant_scheme/restaurant_scheme_2.png"" class=""exp-image"">
                    <div class=""question-area"">
                        <p style=""font-size: 20px; font-weight: bold; margin: 0;"">Is there a person in this image?</p>
                    </div>
                </div>","1","main_experiment_trial","2","restaurant_scheme","schematic_sequence","chronological","","","","","","","",""
"","","","","","html-keyboard-response","42","152732","0.0-42.0","DA737D50D59340D38E9FBE5BE89ED438","019d6664-97ae-7e47-9f0f-d191756f561e","019d6630-2071-75cb-8026-6699844a2719","","null","
                <div class=""stimulus-container"">
                    <img src=""images/schematic_sequence/restaurant_scheme/restaurant_scheme_3.png"" class=""exp-image"">
                    <div class=""question-area""></div> 
                </div>","null","","","","","","","","","","","","",""
"","","","","","html-button-response","43","153506","0.0-43.0","DA737D50D59340D38E9FBE5BE89ED438","019d6664-97ae-7e47-9f0f-d191756f561e","019d6630-2071-75cb-8026-6699844a2719","","774","
                <div class=""stimulus-container"">
                    <img src=""images/schematic_sequence/restaurant_scheme/restaurant_scheme_3.png"" class=""exp-image"">
                    <div class=""question-area"">
                        <p style=""font-size: 20px; font-weight: bold; margin: 0;"">Is there a person in this image?</p>
                    </div>
                </div>","1","main_experiment_trial","3","restaurant_scheme","schematic_sequence","chronological","","","","","","","",""
"","","","","","html-keyboard-response","44","158516","0.0-44.0","DA737D50D59340D38E9FBE5BE89ED438","019d6664-97ae-7e47-9f0f-d191756f561e","019d6630-2071-75cb-8026-6699844a2719","","null","
                <div class=""stimulus-container"">
                    <img src=""images/schematic_sequence/restaurant_scheme/restaurant_scheme_4.png"" class=""exp-image"">
                    <div class=""question-area""></div> 
                </div>","null","","","","","","","","","","","","",""
"","","","","","html-button-response","45","158993","0.0-45.0","DA737D50D59340D38E9FBE5BE89ED438","019d6664-97ae-7e47-9f0f-d191756f561e","019d6630-2071-75cb-8026-6699844a2719","","476","
                <div class=""stimulus-container"">
                    <img src=""images/schematic_sequence/restaurant_scheme/restaurant_scheme_4.png"" class=""exp-image"">
                    <div class=""question-area"">
                        <p style=""font-size: 20px; font-weight: bold; margin: 0;"">Is there a person in this image?</p>
                    </div>
                </div>","0","main_experiment_trial","4","restaurant_scheme","schematic_sequence","chronological","","","","","","","",""
"","","","","","html-keyboard-response","46","163999","0.0-46.0","DA737D50D59340D38E9FBE5BE89ED438","019d6664-97ae-7e47-9f0f-d191756f561e","019d6630-2071-75cb-8026-6699844a2719","","null","
                <div class=""stimulus-container"">
                    <img src=""images/schematic_sequence/restaurant_scheme/restaurant_scheme_5.png"" class=""exp-image"">
                    <div class=""question-area""></div> 
                </div>","null","","","","","","","","","","","","",""
"","","","","","html-button-response","47","164702","0.0-47.0","DA737D50D59340D38E9FBE5BE89ED438","019d6664-97ae-7e47-9f0f-d191756f561e","019d6630-2071-75cb-8026-6699844a2719","","702","
                <div class=""stimulus-container"">
                    <img src=""images/schematic_sequence/restaurant_scheme/restaurant_scheme_5.png"" class=""exp-image"">
                    <div class=""question-area"">
                        <p style=""font-size: 20px; font-weight: bold; margin: 0;"">Is there a person in this image?</p>
                    </div>
                </div>","0","main_experiment_trial","5","restaurant_scheme","schematic_sequence","chronological","","","","","","","",""
"","","","","","html-keyboard-response","48","169713","0.0-48.0","DA737D50D59340D38E9FBE5BE89ED438","019d6664-97ae-7e47-9f0f-d191756f561e","019d6630-2071-75cb-8026-6699844a2719","","null","
                <div class=""stimulus-container"">
                    <img src=""images/schematic_sequence/restaurant_scheme/restaurant_scheme_6.png"" class=""exp-image"">
                    <div class=""question-area""></div> 
                </div>","null","","","","","","","","","","","","",""
"","","","","","html-button-response","49","170947","0.0-49.0","DA737D50D59340D38E9FBE5BE89ED438","019d6664-97ae-7e47-9f0f-d191756f561e","019d6630-2071-75cb-8026-6699844a2719","","1233","
                <div class=""stimulus-container"">
                    <img src=""images/schematic_sequence/restaurant_scheme/restaurant_scheme_6.png"" class=""exp-image"">
                    <div class=""question-area"">
                        <p style=""font-size: 20px; font-weight: bold; margin: 0;"">Is there a person in this image?</p>
                    </div>
                </div>","1","main_experiment_trial","6","restaurant_scheme","schematic_sequence","chronological","","","","","","","",""
"","","","","","html-keyboard-response","50","175962","0.0-50.0","DA737D50D59340D38E9FBE5BE89ED438","019d6664-97ae-7e47-9f0f-d191756f561e","019d6630-2071-75cb-8026-6699844a2719","","null","
                <div class=""stimulus-container"">
                    <img src=""images/schematic_sequence/restaurant_scheme/restaurant_scheme_7.png"" class=""exp-image"">
                    <div class=""question-area""></div> 
                </div>","null","","","","","","","","","","","","",""
"","","","","","html-button-response","51","176883","0.0-51.0","DA737D50D59340D38E9FBE5BE89ED438","019d6664-97ae-7e47-9f0f-d191756f561e","019d6630-2071-75cb-8026-6699844a2719","","921","
                <div class=""stimulus-container"">
                    <img src=""images/schematic_sequence/restaurant_scheme/restaurant_scheme_7.png"" class=""exp-image"">
                    <div class=""question-area"">
                        <p style=""font-size: 20px; font-weight: bold; margin: 0;"">Is there a person in this image?</p>
                    </div>
                </div>","1","main_experiment_trial","7","restaurant_scheme","schematic_sequence","chronological","","","","","","","",""
"","","","","","html-keyboard-response","52","181887","0.0-52.0","DA737D50D59340D38E9FBE5BE89ED438","019d6664-97ae-7e47-9f0f-d191756f561e","019d6630-2071-75cb-8026-6699844a2719","","null","
                <div class=""stimulus-container"">
                    <img src=""images/schematic_sequence/restaurant_scheme/restaurant_scheme_8.png"" class=""exp-image"">
                    <div class=""question-area""></div> 
                </div>","null","","","","","","","","","","","","",""
"","","","","","html-button-response","53","184895","0.0-53.0","DA737D50D59340D38E9FBE5BE89ED438","019d6664-97ae-7e47-9f0f-d191756f561e","019d6630-2071-75cb-8026-6699844a2719","","null","
                <div class=""stimulus-container"">
                    <img src=""images/schematic_sequence/restaurant_scheme/restaurant_scheme_8.png"" class=""exp-image"">
                    <div class=""question-area"">
                        <p style=""font-size: 20px; font-weight: bold; margin: 0;"">Is there a person in this image?</p>
                    </div>
                </div>","null","main_experiment_trial","8","restaurant_scheme","schematic_sequence","chronological","","","","","","","",""
"","","","","","html-keyboard-response","54","189905","0.0-54.0","DA737D50D59340D38E9FBE5BE89ED438","019d6664-97ae-7e47-9f0f-d191756f561e","019d6630-2071-75cb-8026-6699844a2719","","null","
                <div class=""stimulus-container"">
                    <img src=""images/schematic_sequence/restaurant_scheme/restaurant_scheme_9.png"" class=""exp-image"">
                    <div class=""question-area""></div> 
                </div>","null","","","","","","","","","","","","",""
"","","","","","html-button-response","55","190557","0.0-55.0","DA737D50D59340D38E9FBE5BE89ED438","019d6664-97ae-7e47-9f0f-d191756f561e","019d6630-2071-75cb-8026-6699844a2719","","651","
                <div class=""stimulus-container"">
                    <img src=""images/schematic_sequence/restaurant_scheme/restaurant_scheme_9.png"" class=""exp-image"">
                    <div class=""question-area"">
                        <p style=""font-size: 20px; font-weight: bold; margin: 0;"">Is there a person in this image?</p>
                    </div>
                </div>","0","main_experiment_trial","9","restaurant_scheme","schematic_sequence","chronological","","","","","","","",""
"","","","","","html-keyboard-response","56","195561","0.0-56.0","DA737D50D59340D38E9FBE5BE89ED438","019d6664-97ae-7e47-9f0f-d191756f561e","019d6630-2071-75cb-8026-6699844a2719","","null","
                <div class=""stimulus-container"">
                    <img src=""images/schematic_sequence/restaurant_scheme/restaurant_scheme_ten.png"" class=""exp-image"">
                    <div class=""question-area""></div> 
                </div>","null","","","","","","","","","","","","",""
"","","","","","html-button-response","57","196100","0.0-57.0","DA737D50D59340D38E9FBE5BE89ED438","019d6664-97ae-7e47-9f0f-d191756f561e","019d6630-2071-75cb-8026-6699844a2719","","538","
                <div class=""stimulus-container"">
                    <img src=""images/schematic_sequence/restaurant_scheme/restaurant_scheme_ten.png"" class=""exp-image"">
                    <div class=""question-area"">
                        <p style=""font-size: 20px; font-weight: bold; margin: 0;"">Is there a person in this image?</p>
                    </div>
                </div>","0","main_experiment_trial","ten","restaurant_scheme","schematic_sequence","chronological","","","","","","","",""
"","","","","","html-keyboard-response","58","201106","0.0-58.0","DA737D50D59340D38E9FBE5BE89ED438","019d6664-97ae-7e47-9f0f-d191756f561e","019d6630-2071-75cb-8026-6699844a2719","","null","<div style=""background-color: white; width: 100vw; height: 100vh;""></div>","null","","","","","","","","","","","","",""
"","","","","","html-keyboard-response","59","206121","0.0-59.0","DA737D50D59340D38E9FBE5BE89ED438","019d6664-97ae-7e47-9f0f-d191756f561e","019d6630-2071-75cb-8026-6699844a2719","","null","
                <div class=""stimulus-container"">
                    <img src=""images/semantic_sequence/visiting_cities_semantic/visiting_cities_semantic_1.png"" class=""exp-image"">
                    <div class=""question-area""></div> 
                </div>","null","","","","","","","","","","","","",""
"","","","","","html-button-response","60","206538","0.0-60.0","DA737D50D59340D38E9FBE5BE89ED438","019d6664-97ae-7e47-9f0f-d191756f561e","019d6630-2071-75cb-8026-6699844a2719","","416","
                <div class=""stimulus-container"">
                    <img src=""images/semantic_sequence/visiting_cities_semantic/visiting_cities_semantic_1.png"" class=""exp-image"">
                    <div class=""question-area"">
                        <p style=""font-size: 20px; font-weight: bold; margin: 0;"">Is there a person in this image?</p>
                    </div>
                </div>","0","main_experiment_trial","1","visiting_cities_semantic","semantic_sequence","chronological","","","","","","","",""
"","","","","","html-keyboard-response","61","211547","0.0-61.0","DA737D50D59340D38E9FBE5BE89ED438","019d6664-97ae-7e47-9f0f-d191756f561e","019d6630-2071-75cb-8026-6699844a2719","","null","
                <div class=""stimulus-container"">
                    <img src=""images/semantic_sequence/visiting_cities_semantic/visiting_cities_semantic_2.png"" class=""exp-image"">
                    <div class=""question-area""></div> 
                </div>","null","","","","","","","","","","","","",""
"","","","","","html-button-response","62","212237","0.0-62.0","DA737D50D59340D38E9FBE5BE89ED438","019d6664-97ae-7e47-9f0f-d191756f561e","019d6630-2071-75cb-8026-6699844a2719","","690","
                <div class=""stimulus-container"">
                    <img src=""images/semantic_sequence/visiting_cities_semantic/visiting_cities_semantic_2.png"" class=""exp-image"">
                    <div class=""question-area"">
                        <p style=""font-size: 20px; font-weight: bold; margin: 0;"">Is there a person in this image?</p>
                    </div>
                </div>","1","main_experiment_trial","2","visiting_cities_semantic","semantic_sequence","chronological","","","","","","","",""
"","","","","","html-keyboard-response","63","217243","0.0-63.0","DA737D50D59340D38E9FBE5BE89ED438","019d6664-97ae-7e47-9f0f-d191756f561e","019d6630-2071-75cb-8026-6699844a2719","","null","
                <div class=""stimulus-container"">
                    <img src=""images/semantic_sequence/visiting_cities_semantic/visiting_cities_semantic_3.png"" class=""exp-image"">
                    <div class=""question-area""></div> 
                </div>","null","","","","","","","","","","","","",""
"","","","","","html-button-response","64","217990","0.0-64.0","DA737D50D59340D38E9FBE5BE89ED438","019d6664-97ae-7e47-9f0f-d191756f561e","019d6630-2071-75cb-8026-6699844a2719","","747","
                <div class=""stimulus-container"">
                    <img src=""images/semantic_sequence/visiting_cities_semantic/visiting_cities_semantic_3.png"" class=""exp-image"">
                    <div class=""question-area"">
                        <p style=""font-size: 20px; font-weight: bold; margin: 0;"">Is there a person in this image?</p>
                    </div>
                </div>","1","main_experiment_trial","3","visiting_cities_semantic","semantic_sequence","chronological","","","","","","","",""
"","","","","","html-keyboard-response","65","222993","0.0-65.0","DA737D50D59340D38E9FBE5BE89ED438","019d6664-97ae-7e47-9f0f-d191756f561e","019d6630-2071-75cb-8026-6699844a2719","","null","
                <div class=""stimulus-container"">
                    <img src=""images/semantic_sequence/visiting_cities_semantic/visiting_cities_semantic_4.png"" class=""exp-image"">
                    <div class=""question-area""></div> 
                </div>","null","","","","","","","","","","","","",""
"","","","","","html-button-response","66","223642","0.0-66.0","DA737D50D59340D38E9FBE5BE89ED438","019d6664-97ae-7e47-9f0f-d191756f561e","019d6630-2071-75cb-8026-6699844a2719","","648","
                <div class=""stimulus-container"">
                    <img src=""images/semantic_sequence/visiting_cities_semantic/visiting_cities_semantic_4.png"" class=""exp-image"">
                    <div class=""question-area"">
                        <p style=""font-size: 20px; font-weight: bold; margin: 0;"">Is there a person in this image?</p>
                    </div>
                </div>","1","main_experiment_trial","4","visiting_cities_semantic","semantic_sequence","chronological","","","","","","","",""
"","","","","","html-keyboard-response","67","228649","0.0-67.0","DA737D50D59340D38E9FBE5BE89ED438","019d6664-97ae-7e47-9f0f-d191756f561e","019d6630-2071-75cb-8026-6699844a2719","","null","
                <div class=""stimulus-container"">
                    <img src=""images/semantic_sequence/visiting_cities_semantic/visiting_cities_semantic_5.png"" class=""exp-image"">
                    <div class=""question-area""></div> 
                </div>","null","","","","","","","","","","","","",""
"","","","","","html-button-response","68","229139","0.0-68.0","DA737D50D59340D38E9FBE5BE89ED438","019d6664-97ae-7e47-9f0f-d191756f561e","019d6630-2071-75cb-8026-6699844a2719","","490","
                <div class=""stimulus-container"">
                    <img src=""images/semantic_sequence/visiting_cities_semantic/visiting_cities_semantic_5.png"" class=""exp-image"">
                    <div class=""question-area"">
                        <p style=""font-size: 20px; font-weight: bold; margin: 0;"">Is there a person in this image?</p>
                    </div>
                </div>","1","main_experiment_trial","5","visiting_cities_semantic","semantic_sequence","chronological","","","","","","","",""
"","","","","","html-keyboard-response","69","234151","0.0-69.0","DA737D50D59340D38E9FBE5BE89ED438","019d6664-97ae-7e47-9f0f-d191756f561e","019d6630-2071-75cb-8026-6699844a2719","","null","
                <div class=""stimulus-container"">
                    <img src=""images/semantic_sequence/visiting_cities_semantic/visiting_cities_semantic_6.png"" class=""exp-image"">
                    <div class=""question-area""></div> 
                </div>","null","","","","","","","","","","","","",""
"","","","","","html-button-response","70","234726","0.0-70.0","DA737D50D59340D38E9FBE5BE89ED438","019d6664-97ae-7e47-9f0f-d191756f561e","019d6630-2071-75cb-8026-6699844a2719","","575","
                <div class=""stimulus-container"">
                    <img src=""images/semantic_sequence/visiting_cities_semantic/visiting_cities_semantic_6.png"" class=""exp-image"">
                    <div class=""question-area"">
                        <p style=""font-size: 20px; font-weight: bold; margin: 0;"">Is there a person in this image?</p>
                    </div>
                </div>","1","main_experiment_trial","6","visiting_cities_semantic","semantic_sequence","chronological","","","","","","","",""
"","","","","","html-keyboard-response","71","239743","0.0-71.0","DA737D50D59340D38E9FBE5BE89ED438","019d6664-97ae-7e47-9f0f-d191756f561e","019d6630-2071-75cb-8026-6699844a2719","","null","
                <div class=""stimulus-container"">
                    <img src=""images/semantic_sequence/visiting_cities_semantic/visiting_cities_semantic_7.png"" class=""exp-image"">
                    <div class=""question-area""></div> 
                </div>","null","","","","","","","","","","","","",""
"","","","","","html-button-response","72","240222","0.0-72.0","DA737D50D59340D38E9FBE5BE89ED438","019d6664-97ae-7e47-9f0f-d191756f561e","019d6630-2071-75cb-8026-6699844a2719","","479","
                <div class=""stimulus-container"">
                    <img src=""images/semantic_sequence/visiting_cities_semantic/visiting_cities_semantic_7.png"" class=""exp-image"">
                    <div class=""question-area"">
                        <p style=""font-size: 20px; font-weight: bold; margin: 0;"">Is there a person in this image?</p>
                    </div>
                </div>","0","main_experiment_trial","7","visiting_cities_semantic","semantic_sequence","chronological","","","","","","","",""
"","","","","","html-keyboard-response","73","245237","0.0-73.0","DA737D50D59340D38E9FBE5BE89ED438","019d6664-97ae-7e47-9f0f-d191756f561e","019d6630-2071-75cb-8026-6699844a2719","","null","
                <div class=""stimulus-container"">
                    <img src=""images/semantic_sequence/visiting_cities_semantic/visiting_cities_semantic_8.png"" class=""exp-image"">
                    <div class=""question-area""></div> 
                </div>","null","","","","","","","","","","","","",""
"","","","","","html-button-response","74","245940","0.0-74.0","DA737D50D59340D38E9FBE5BE89ED438","019d6664-97ae-7e47-9f0f-d191756f561e","019d6630-2071-75cb-8026-6699844a2719","","703","
                <div class=""stimulus-container"">
                    <img src=""images/semantic_sequence/visiting_cities_semantic/visiting_cities_semantic_8.png"" class=""exp-image"">
                    <div class=""question-area"">
                        <p style=""font-size: 20px; font-weight: bold; margin: 0;"">Is there a person in this image?</p>
                    </div>
                </div>","0","main_experiment_trial","8","visiting_cities_semantic","semantic_sequence","chronological","","","","","","","",""
"","","","","","html-keyboard-response","75","250944","0.0-75.0","DA737D50D59340D38E9FBE5BE89ED438","019d6664-97ae-7e47-9f0f-d191756f561e","019d6630-2071-75cb-8026-6699844a2719","","null","
                <div class=""stimulus-container"">
                    <img src=""images/semantic_sequence/visiting_cities_semantic/visiting_cities_semantic_9.png"" class=""exp-image"">
                    <div class=""question-area""></div> 
                </div>","null","","","","","","","","","","","","",""
"","","","","","html-button-response","76","251417","0.0-76.0","DA737D50D59340D38E9FBE5BE89ED438","019d6664-97ae-7e47-9f0f-d191756f561e","019d6630-2071-75cb-8026-6699844a2719","","472","
                <div class=""stimulus-container"">
                    <img src=""images/semantic_sequence/visiting_cities_semantic/visiting_cities_semantic_9.png"" class=""exp-image"">
                    <div class=""question-area"">
                        <p style=""font-size: 20px; font-weight: bold; margin: 0;"">Is there a person in this image?</p>
                    </div>
                </div>","0","main_experiment_trial","9","visiting_cities_semantic","semantic_sequence","chronological","","","","","","","",""
"","","","","","html-keyboard-response","77","256420","0.0-77.0","DA737D50D59340D38E9FBE5BE89ED438","019d6664-97ae-7e47-9f0f-d191756f561e","019d6630-2071-75cb-8026-6699844a2719","","null","
                <div class=""stimulus-container"">
                    <img src=""images/semantic_sequence/visiting_cities_semantic/visiting_cities_semantic_ten.png"" class=""exp-image"">
                    <div class=""question-area""></div> 
                </div>","null","","","","","","","","","","","","",""
"","","","","","html-button-response","78","257280","0.0-78.0","DA737D50D59340D38E9FBE5BE89ED438","019d6664-97ae-7e47-9f0f-d191756f561e","019d6630-2071-75cb-8026-6699844a2719","","860","
                <div class=""stimulus-container"">
                    <img src=""images/semantic_sequence/visiting_cities_semantic/visiting_cities_semantic_ten.png"" class=""exp-image"">
                    <div class=""question-area"">
                        <p style=""font-size: 20px; font-weight: bold; margin: 0;"">Is there a person in this image?</p>
                    </div>
                </div>","1","main_experiment_trial","ten","visiting_cities_semantic","semantic_sequence","chronological","","","","","","","",""
"","","","","","html-keyboard-response","79","262285","0.0-79.0","DA737D50D59340D38E9FBE5BE89ED438","019d6664-97ae-7e47-9f0f-d191756f561e","019d6630-2071-75cb-8026-6699844a2719","","null","<div style=""background-color: white; width: 100vw; height: 100vh;""></div>","null","","","","","","","","","","","","",""
"","","","","","html-keyboard-response","80","267300","0.0-80.0","DA737D50D59340D38E9FBE5BE89ED438","019d6664-97ae-7e47-9f0f-d191756f561e","019d6630-2071-75cb-8026-6699844a2719","","null","
                <div class=""stimulus-container"">
                    <img src=""images/semantic_sequence/self_care_activities_semantic/self_care_activities_semantic_1.png"" class=""exp-image"">
                    <div class=""question-area""></div> 
                </div>","null","","","","","","","","","","","","",""
"","","","","","html-button-response","81","268272","0.0-81.0","DA737D50D59340D38E9FBE5BE89ED438","019d6664-97ae-7e47-9f0f-d191756f561e","019d6630-2071-75cb-8026-6699844a2719","","971","
                <div class=""stimulus-container"">
                    <img src=""images/semantic_sequence/self_care_activities_semantic/self_care_activities_semantic_1.png"" class=""exp-image"">
                    <div class=""question-area"">
                        <p style=""font-size: 20px; font-weight: bold; margin: 0;"">Is there a person in this image?</p>
                    </div>
                </div>","0","main_experiment_trial","1","self_care_activities_semantic","semantic_sequence","chronological","","","","","","","",""
"","","","","","html-keyboard-response","82","273284","0.0-82.0","DA737D50D59340D38E9FBE5BE89ED438","019d6664-97ae-7e47-9f0f-d191756f561e","019d6630-2071-75cb-8026-6699844a2719","","null","
                <div class=""stimulus-container"">
                    <img src=""images/semantic_sequence/self_care_activities_semantic/self_care_activities_semantic_2.png"" class=""exp-image"">
                    <div class=""question-area""></div> 
                </div>","null","","","","","","","","","","","","",""
"","","","","","html-button-response","83","273736","0.0-83.0","DA737D50D59340D38E9FBE5BE89ED438","019d6664-97ae-7e47-9f0f-d191756f561e","019d6630-2071-75cb-8026-6699844a2719","","451","
                <div class=""stimulus-container"">
                    <img src=""images/semantic_sequence/self_care_activities_semantic/self_care_activities_semantic_2.png"" class=""exp-image"">
                    <div class=""question-area"">
                        <p style=""font-size: 20px; font-weight: bold; margin: 0;"">Is there a person in this image?</p>
                    </div>
                </div>","0","main_experiment_trial","2","self_care_activities_semantic","semantic_sequence","chronological","","","","","","","",""
"","","","","","html-keyboard-response","84","278749","0.0-84.0","DA737D50D59340D38E9FBE5BE89ED438","019d6664-97ae-7e47-9f0f-d191756f561e","019d6630-2071-75cb-8026-6699844a2719","","null","
                <div class=""stimulus-container"">
                    <img src=""images/semantic_sequence/self_care_activities_semantic/self_care_activities_semantic_3.png"" class=""exp-image"">
                    <div class=""question-area""></div> 
                </div>","null","","","","","","","","","","","","",""
"","","","","","html-button-response","85","279311","0.0-85.0","DA737D50D59340D38E9FBE5BE89ED438","019d6664-97ae-7e47-9f0f-d191756f561e","019d6630-2071-75cb-8026-6699844a2719","","562","
                <div class=""stimulus-container"">
                    <img src=""images/semantic_sequence/self_care_activities_semantic/self_care_activities_semantic_3.png"" class=""exp-image"">
                    <div class=""question-area"">
                        <p style=""font-size: 20px; font-weight: bold; margin: 0;"">Is there a person in this image?</p>
                    </div>
                </div>","0","main_experiment_trial","3","self_care_activities_semantic","semantic_sequence","chronological","","","","","","","",""
"","","","","","html-keyboard-response","86","284326","0.0-86.0","DA737D50D59340D38E9FBE5BE89ED438","019d6664-97ae-7e47-9f0f-d191756f561e","019d6630-2071-75cb-8026-6699844a2719","","null","
                <div class=""stimulus-container"">
                    <img src=""images/semantic_sequence/self_care_activities_semantic/self_care_activities_semantic_4.png"" class=""exp-image"">
                    <div class=""question-area""></div> 
                </div>","null","","","","","","","","","","","","",""
"","","","","","html-button-response","87","284776","0.0-87.0","DA737D50D59340D38E9FBE5BE89ED438","019d6664-97ae-7e47-9f0f-d191756f561e","019d6630-2071-75cb-8026-6699844a2719","","450","
                <div class=""stimulus-container"">
                    <img src=""images/semantic_sequence/self_care_activities_semantic/self_care_activities_semantic_4.png"" class=""exp-image"">
                    <div class=""question-area"">
                        <p style=""font-size: 20px; font-weight: bold; margin: 0;"">Is there a person in this image?</p>
                    </div>
                </div>","0","main_experiment_trial","4","self_care_activities_semantic","semantic_sequence","chronological","","","","","","","",""
"","","","","","html-keyboard-response","88","289781","0.0-88.0","DA737D50D59340D38E9FBE5BE89ED438","019d6664-97ae-7e47-9f0f-d191756f561e","019d6630-2071-75cb-8026-6699844a2719","","null","
                <div class=""stimulus-container"">
                    <img src=""images/semantic_sequence/self_care_activities_semantic/self_care_activities_semantic_5.png"" class=""exp-image"">
                    <div class=""question-area""></div> 
                </div>","null","","","","","","","","","","","","",""
"","","","","","html-button-response","89","290248","0.0-89.0","DA737D50D59340D38E9FBE5BE89ED438","019d6664-97ae-7e47-9f0f-d191756f561e","019d6630-2071-75cb-8026-6699844a2719","","466","
                <div class=""stimulus-container"">
                    <img src=""images/semantic_sequence/self_care_activities_semantic/self_care_activities_semantic_5.png"" class=""exp-image"">
                    <div class=""question-area"">
                        <p style=""font-size: 20px; font-weight: bold; margin: 0;"">Is there a person in this image?</p>
                    </div>
                </div>","0","main_experiment_trial","5","self_care_activities_semantic","semantic_sequence","chronological","","","","","","","",""
"","","","","","html-keyboard-response","90","295255","0.0-90.0","DA737D50D59340D38E9FBE5BE89ED438","019d6664-97ae-7e47-9f0f-d191756f561e","019d6630-2071-75cb-8026-6699844a2719","","null","
                <div class=""stimulus-container"">
                    <img src=""images/semantic_sequence/self_care_activities_semantic/self_care_activities_semantic_6.png"" class=""exp-image"">
                    <div class=""question-area""></div> 
                </div>","null","","","","","","","","","","","","",""
"","","","","","html-button-response","91","295694","0.0-91.0","DA737D50D59340D38E9FBE5BE89ED438","019d6664-97ae-7e47-9f0f-d191756f561e","019d6630-2071-75cb-8026-6699844a2719","","438","
                <div class=""stimulus-container"">
                    <img src=""images/semantic_sequence/self_care_activities_semantic/self_care_activities_semantic_6.png"" class=""exp-image"">
                    <div class=""question-area"">
                        <p style=""font-size: 20px; font-weight: bold; margin: 0;"">Is there a person in this image?</p>
                    </div>
                </div>","1","main_experiment_trial","6","self_care_activities_semantic","semantic_sequence","chronological","","","","","","","",""
"","","","","","html-keyboard-response","92","300709","0.0-92.0","DA737D50D59340D38E9FBE5BE89ED438","019d6664-97ae-7e47-9f0f-d191756f561e","019d6630-2071-75cb-8026-6699844a2719","","null","
                <div class=""stimulus-container"">
                    <img src=""images/semantic_sequence/self_care_activities_semantic/self_care_activities_semantic_7.png"" class=""exp-image"">
                    <div class=""question-area""></div> 
                </div>","null","","","","","","","","","","","","",""
"","","","","","html-button-response","93","301167","0.0-93.0","DA737D50D59340D38E9FBE5BE89ED438","019d6664-97ae-7e47-9f0f-d191756f561e","019d6630-2071-75cb-8026-6699844a2719","","458","
                <div class=""stimulus-container"">
                    <img src=""images/semantic_sequence/self_care_activities_semantic/self_care_activities_semantic_7.png"" class=""exp-image"">
                    <div class=""question-area"">
                        <p style=""font-size: 20px; font-weight: bold; margin: 0;"">Is there a person in this image?</p>
                    </div>
                </div>","0","main_experiment_trial","7","self_care_activities_semantic","semantic_sequence","chronological","","","","","","","",""
"","","","","","html-keyboard-response","94","306180","0.0-94.0","DA737D50D59340D38E9FBE5BE89ED438","019d6664-97ae-7e47-9f0f-d191756f561e","019d6630-2071-75cb-8026-6699844a2719","","null","
                <div class=""stimulus-container"">
                    <img src=""images/semantic_sequence/self_care_activities_semantic/self_care_activities_semantic_8.png"" class=""exp-image"">
                    <div class=""question-area""></div> 
                </div>","null","","","","","","","","","","","","",""
"","","","","","html-button-response","95","306977","0.0-95.0","DA737D50D59340D38E9FBE5BE89ED438","019d6664-97ae-7e47-9f0f-d191756f561e","019d6630-2071-75cb-8026-6699844a2719","","797","
                <div class=""stimulus-container"">
                    <img src=""images/semantic_sequence/self_care_activities_semantic/self_care_activities_semantic_8.png"" class=""exp-image"">
                    <div class=""question-area"">
                        <p style=""font-size: 20px; font-weight: bold; margin: 0;"">Is there a person in this image?</p>
                    </div>
                </div>","0","main_experiment_trial","8","self_care_activities_semantic","semantic_sequence","chronological","","","","","","","",""
"","","","","","html-keyboard-response","96","311981","0.0-96.0","DA737D50D59340D38E9FBE5BE89ED438","019d6664-97ae-7e47-9f0f-d191756f561e","019d6630-2071-75cb-8026-6699844a2719","","null","
                <div class=""stimulus-container"">
                    <img src=""images/semantic_sequence/self_care_activities_semantic/self_care_activities_semantic_9.png"" class=""exp-image"">
                    <div class=""question-area""></div> 
                </div>","null","","","","","","","","","","","","",""
"","","","","","html-button-response","97","312443","0.0-97.0","DA737D50D59340D38E9FBE5BE89ED438","019d6664-97ae-7e47-9f0f-d191756f561e","019d6630-2071-75cb-8026-6699844a2719","","461","
                <div class=""stimulus-container"">
                    <img src=""images/semantic_sequence/self_care_activities_semantic/self_care_activities_semantic_9.png"" class=""exp-image"">
                    <div class=""question-area"">
                        <p style=""font-size: 20px; font-weight: bold; margin: 0;"">Is there a person in this image?</p>
                    </div>
                </div>","0","main_experiment_trial","9","self_care_activities_semantic","semantic_sequence","chronological","","","","","","","",""
"","","","","","html-keyboard-response","98","317444","0.0-98.0","DA737D50D59340D38E9FBE5BE89ED438","019d6664-97ae-7e47-9f0f-d191756f561e","019d6630-2071-75cb-8026-6699844a2719","","null","
                <div class=""stimulus-container"">
                    <img src=""images/semantic_sequence/self_care_activities_semantic/self_care_activities_semantic_ten.png"" class=""exp-image"">
                    <div class=""question-area""></div> 
                </div>","null","","","","","","","","","","","","",""
"","","","","","html-button-response","99","318690","0.0-99.0","DA737D50D59340D38E9FBE5BE89ED438","019d6664-97ae-7e47-9f0f-d191756f561e","019d6630-2071-75cb-8026-6699844a2719","","1246","
                <div class=""stimulus-container"">
                    <img src=""images/semantic_sequence/self_care_activities_semantic/self_care_activities_semantic_ten.png"" class=""exp-image"">
                    <div class=""question-area"">
                        <p style=""font-size: 20px; font-weight: bold; margin: 0;"">Is there a person in this image?</p>
                    </div>
                </div>","0","main_experiment_trial","ten","self_care_activities_semantic","semantic_sequence","chronological","","","","","","","",""
"","","","","","html-keyboard-response","100","323700","0.0-100.0","DA737D50D59340D38E9FBE5BE89ED438","019d6664-97ae-7e47-9f0f-d191756f561e","019d6630-2071-75cb-8026-6699844a2719","","null","<div style=""background-color: white; width: 100vw; height: 100vh;""></div>","null","","","","","","","","","","","","",""
"","","","","","html-keyboard-response","101","328701","0.0-101.0","DA737D50D59340D38E9FBE5BE89ED438","019d6664-97ae-7e47-9f0f-d191756f561e","019d6630-2071-75cb-8026-6699844a2719","","null","
                <div class=""stimulus-container"">
                    <img src=""images/schematic_sequence/flight_scheme/flight_scheme_1.png"" class=""exp-image"">
                    <div class=""question-area""></div> 
                </div>","null","","","","","","","","","","","","",""
"","","","","","html-button-response","102","329713","0.0-102.0","DA737D50D59340D38E9FBE5BE89ED438","019d6664-97ae-7e47-9f0f-d191756f561e","019d6630-2071-75cb-8026-6699844a2719","","1011","
                <div class=""stimulus-container"">
                    <img src=""images/schematic_sequence/flight_scheme/flight_scheme_1.png"" class=""exp-image"">
                    <div class=""question-area"">
                        <p style=""font-size: 20px; font-weight: bold; margin: 0;"">Is there a person in this image?</p>
                    </div>
                </div>","0","main_experiment_trial","1","flight_scheme","schematic_sequence","chronological","","","","","","","",""
"","","","","","html-keyboard-response","103","334714","0.0-103.0","DA737D50D59340D38E9FBE5BE89ED438","019d6664-97ae-7e47-9f0f-d191756f561e","019d6630-2071-75cb-8026-6699844a2719","","null","
                <div class=""stimulus-container"">
                    <img src=""images/schematic_sequence/flight_scheme/flight_scheme_2.png"" class=""exp-image"">
                    <div class=""question-area""></div> 
                </div>","null","","","","","","","","","","","","",""
"","","","","","html-button-response","104","335566","0.0-104.0","DA737D50D59340D38E9FBE5BE89ED438","019d6664-97ae-7e47-9f0f-d191756f561e","019d6630-2071-75cb-8026-6699844a2719","","852","
                <div class=""stimulus-container"">
                    <img src=""images/schematic_sequence/flight_scheme/flight_scheme_2.png"" class=""exp-image"">
                    <div class=""question-area"">
                        <p style=""font-size: 20px; font-weight: bold; margin: 0;"">Is there a person in this image?</p>
                    </div>
                </div>","1","main_experiment_trial","2","flight_scheme","schematic_sequence","chronological","","","","","","","",""
"","","","","","html-keyboard-response","105","340569","0.0-105.0","DA737D50D59340D38E9FBE5BE89ED438","019d6664-97ae-7e47-9f0f-d191756f561e","019d6630-2071-75cb-8026-6699844a2719","","null","
                <div class=""stimulus-container"">
                    <img src=""images/schematic_sequence/flight_scheme/flight_scheme_3.png"" class=""exp-image"">
                    <div class=""question-area""></div> 
                </div>","null","","","","","","","","","","","","",""
"","","","","","html-button-response","106","341264","0.0-106.0","DA737D50D59340D38E9FBE5BE89ED438","019d6664-97ae-7e47-9f0f-d191756f561e","019d6630-2071-75cb-8026-6699844a2719","","695","
                <div class=""stimulus-container"">
                    <img src=""images/schematic_sequence/flight_scheme/flight_scheme_3.png"" class=""exp-image"">
                    <div class=""question-area"">
                        <p style=""font-size: 20px; font-weight: bold; margin: 0;"">Is there a person in this image?</p>
                    </div>
                </div>","0","main_experiment_trial","3","flight_scheme","schematic_sequence","chronological","","","","","","","",""
"","","","","","html-keyboard-response","107","346268","0.0-107.0","DA737D50D59340D38E9FBE5BE89ED438","019d6664-97ae-7e47-9f0f-d191756f561e","019d6630-2071-75cb-8026-6699844a2719","","null","
                <div class=""stimulus-container"">
                    <img src=""images/schematic_sequence/flight_scheme/flight_scheme_4.png"" class=""exp-image"">
                    <div class=""question-area""></div> 
                </div>","null","","","","","","","","","","","","",""
"","","","","","html-button-response","108","347621","0.0-108.0","DA737D50D59340D38E9FBE5BE89ED438","019d6664-97ae-7e47-9f0f-d191756f561e","019d6630-2071-75cb-8026-6699844a2719","","1352","
                <div class=""stimulus-container"">
                    <img src=""images/schematic_sequence/flight_scheme/flight_scheme_4.png"" class=""exp-image"">
                    <div class=""question-area"">
                        <p style=""font-size: 20px; font-weight: bold; margin: 0;"">Is there a person in this image?</p>
                    </div>
                </div>","0","main_experiment_trial","4","flight_scheme","schematic_sequence","chronological","","","","","","","",""
"","","","","","html-keyboard-response","109","352628","0.0-109.0","DA737D50D59340D38E9FBE5BE89ED438","019d6664-97ae-7e47-9f0f-d191756f561e","019d6630-2071-75cb-8026-6699844a2719","","null","
                <div class=""stimulus-container"">
                    <img src=""images/schematic_sequence/flight_scheme/flight_scheme_5.png"" class=""exp-image"">
                    <div class=""question-area""></div> 
                </div>","null","","","","","","","","","","","","",""
"","","","","","html-button-response","110","353234","0.0-110.0","DA737D50D59340D38E9FBE5BE89ED438","019d6664-97ae-7e47-9f0f-d191756f561e","019d6630-2071-75cb-8026-6699844a2719","","606","
                <div class=""stimulus-container"">
                    <img src=""images/schematic_sequence/flight_scheme/flight_scheme_5.png"" class=""exp-image"">
                    <div class=""question-area"">
                        <p style=""font-size: 20px; font-weight: bold; margin: 0;"">Is there a person in this image?</p>
                    </div>
                </div>","0","main_experiment_trial","5","flight_scheme","schematic_sequence","chronological","","","","","","","",""
"","","","","","html-keyboard-response","111","358239","0.0-111.0","DA737D50D59340D38E9FBE5BE89ED438","019d6664-97ae-7e47-9f0f-d191756f561e","019d6630-2071-75cb-8026-6699844a2719","","null","
                <div class=""stimulus-container"">
                    <img src=""images/schematic_sequence/flight_scheme/flight_scheme_6.png"" class=""exp-image"">
                    <div class=""question-area""></div> 
                </div>","null","","","","","","","","","","","","",""
"","","","","","html-button-response","112","358746","0.0-112.0","DA737D50D59340D38E9FBE5BE89ED438","019d6664-97ae-7e47-9f0f-d191756f561e","019d6630-2071-75cb-8026-6699844a2719","","507","
                <div class=""stimulus-container"">
                    <img src=""images/schematic_sequence/flight_scheme/flight_scheme_6.png"" class=""exp-image"">
                    <div class=""question-area"">
                        <p style=""font-size: 20px; font-weight: bold; margin: 0;"">Is there a person in this image?</p>
                    </div>
                </div>","1","main_experiment_trial","6","flight_scheme","schematic_sequence","chronological","","","","","","","",""
"","","","","","html-keyboard-response","113","363748","0.0-113.0","DA737D50D59340D38E9FBE5BE89ED438","019d6664-97ae-7e47-9f0f-d191756f561e","019d6630-2071-75cb-8026-6699844a2719","","null","
                <div class=""stimulus-container"">
                    <img src=""images/schematic_sequence/flight_scheme/flight_scheme_7.png"" class=""exp-image"">
                    <div class=""question-area""></div> 
                </div>","null","","","","","","","","","","","","",""
"","","","","","html-button-response","114","364341","0.0-114.0","DA737D50D59340D38E9FBE5BE89ED438","019d6664-97ae-7e47-9f0f-d191756f561e","019d6630-2071-75cb-8026-6699844a2719","","593","
                <div class=""stimulus-container"">
                    <img src=""images/schematic_sequence/flight_scheme/flight_scheme_7.png"" class=""exp-image"">
                    <div class=""question-area"">
                        <p style=""font-size: 20px; font-weight: bold; margin: 0;"">Is there a person in this image?</p>
                    </div>
                </div>","1","main_experiment_trial","7","flight_scheme","schematic_sequence","chronological","","","","","","","",""
"","","","","","html-keyboard-response","115","369346","0.0-115.0","DA737D50D59340D38E9FBE5BE89ED438","019d6664-97ae-7e47-9f0f-d191756f561e","019d6630-2071-75cb-8026-6699844a2719","","null","
                <div class=""stimulus-container"">
                    <img src=""images/schematic_sequence/flight_scheme/flight_scheme_8.png"" class=""exp-image"">
                    <div class=""question-area""></div> 
                </div>","null","","","","","","","","","","","","",""
"","","","","","html-button-response","116","369871","0.0-116.0","DA737D50D59340D38E9FBE5BE89ED438","019d6664-97ae-7e47-9f0f-d191756f561e","019d6630-2071-75cb-8026-6699844a2719","","524","
                <div class=""stimulus-container"">
                    <img src=""images/schematic_sequence/flight_scheme/flight_scheme_8.png"" class=""exp-image"">
                    <div class=""question-area"">
                        <p style=""font-size: 20px; font-weight: bold; margin: 0;"">Is there a person in this image?</p>
                    </div>
                </div>","1","main_experiment_trial","8","flight_scheme","schematic_sequence","chronological","","","","","","","",""
"","","","","","html-keyboard-response","117","374879","0.0-117.0","DA737D50D59340D38E9FBE5BE89ED438","019d6664-97ae-7e47-9f0f-d191756f561e","019d6630-2071-75cb-8026-6699844a2719","","null","
                <div class=""stimulus-container"">
                    <img src=""images/schematic_sequence/flight_scheme/flight_scheme_9.png"" class=""exp-image"">
                    <div class=""question-area""></div> 
                </div>","null","","","","","","","","","","","","",""
"","","","","","html-button-response","118","375315","0.0-118.0","DA737D50D59340D38E9FBE5BE89ED438","019d6664-97ae-7e47-9f0f-d191756f561e","019d6630-2071-75cb-8026-6699844a2719","","436","
                <div class=""stimulus-container"">
                    <img src=""images/schematic_sequence/flight_scheme/flight_scheme_9.png"" class=""exp-image"">
                    <div class=""question-area"">
                        <p style=""font-size: 20px; font-weight: bold; margin: 0;"">Is there a person in this image?</p>
                    </div>
                </div>","0","main_experiment_trial","9","flight_scheme","schematic_sequence","chronological","","","","","","","",""
"","","","","","html-keyboard-response","119","380325","0.0-119.0","DA737D50D59340D38E9FBE5BE89ED438","019d6664-97ae-7e47-9f0f-d191756f561e","019d6630-2071-75cb-8026-6699844a2719","","null","
                <div class=""stimulus-container"">
                    <img src=""images/schematic_sequence/flight_scheme/flight_scheme_ten.png"" class=""exp-image"">
                    <div class=""question-area""></div> 
                </div>","null","","","","","","","","","","","","",""
"","","","","","html-button-response","120","380894","0.0-120.0","DA737D50D59340D38E9FBE5BE89ED438","019d6664-97ae-7e47-9f0f-d191756f561e","019d6630-2071-75cb-8026-6699844a2719","","568","
                <div class=""stimulus-container"">
                    <img src=""images/schematic_sequence/flight_scheme/flight_scheme_ten.png"" class=""exp-image"">
                    <div class=""question-area"">
                        <p style=""font-size: 20px; font-weight: bold; margin: 0;"">Is there a person in this image?</p>
                    </div>
                </div>","0","main_experiment_trial","ten","flight_scheme","schematic_sequence","chronological","","","","","","","",""
"","","","","","html-keyboard-response","121","385898","0.0-121.0","DA737D50D59340D38E9FBE5BE89ED438","019d6664-97ae-7e47-9f0f-d191756f561e","019d6630-2071-75cb-8026-6699844a2719","","null","<div style=""background-color: white; width: 100vw; height: 100vh;""></div>","null","","","","","","","","","","","","",""
"","","","","","html-keyboard-response","122","390904","0.0-122.0","DA737D50D59340D38E9FBE5BE89ED438","019d6664-97ae-7e47-9f0f-d191756f561e","019d6630-2071-75cb-8026-6699844a2719","","null","
                <div class=""stimulus-container"">
                    <img src=""images/causal_sequence/dog_causal/dog_causal_1.png"" class=""exp-image"">
                    <div class=""question-area""></div> 
                </div>","null","","","","","","","","","","","","",""
"","","","","","html-button-response","123","391540","0.0-123.0","DA737D50D59340D38E9FBE5BE89ED438","019d6664-97ae-7e47-9f0f-d191756f561e","019d6630-2071-75cb-8026-6699844a2719","","636","
                <div class=""stimulus-container"">
                    <img src=""images/causal_sequence/dog_causal/dog_causal_1.png"" class=""exp-image"">
                    <div class=""question-area"">
                        <p style=""font-size: 20px; font-weight: bold; margin: 0;"">Is there a person in this image?</p>
                    </div>
                </div>","0","main_experiment_trial","1","dog_causal","causal_sequence","chronological","","","","","","","",""
"","","","","","html-keyboard-response","124","396542","0.0-124.0","DA737D50D59340D38E9FBE5BE89ED438","019d6664-97ae-7e47-9f0f-d191756f561e","019d6630-2071-75cb-8026-6699844a2719","","null","
                <div class=""stimulus-container"">
                    <img src=""images/causal_sequence/dog_causal/dog_causal_2.png"" class=""exp-image"">
                    <div class=""question-area""></div> 
                </div>","null","","","","","","","","","","","","",""
"","","","","","html-button-response","125","397170","0.0-125.0","DA737D50D59340D38E9FBE5BE89ED438","019d6664-97ae-7e47-9f0f-d191756f561e","019d6630-2071-75cb-8026-6699844a2719","","628","
                <div class=""stimulus-container"">
                    <img src=""images/causal_sequence/dog_causal/dog_causal_2.png"" class=""exp-image"">
                    <div class=""question-area"">
                        <p style=""font-size: 20px; font-weight: bold; margin: 0;"">Is there a person in this image?</p>
                    </div>
                </div>","0","main_experiment_trial","2","dog_causal","causal_sequence","chronological","","","","","","","",""
"","","","","","html-keyboard-response","126","402171","0.0-126.0","DA737D50D59340D38E9FBE5BE89ED438","019d6664-97ae-7e47-9f0f-d191756f561e","019d6630-2071-75cb-8026-6699844a2719","","null","
                <div class=""stimulus-container"">
                    <img src=""images/causal_sequence/dog_causal/dog_causal_3.png"" class=""exp-image"">
                    <div class=""question-area""></div> 
                </div>","null","","","","","","","","","","","","",""
"","","","","","html-button-response","127","402808","0.0-127.0","DA737D50D59340D38E9FBE5BE89ED438","019d6664-97ae-7e47-9f0f-d191756f561e","019d6630-2071-75cb-8026-6699844a2719","","637","
                <div class=""stimulus-container"">
                    <img src=""images/causal_sequence/dog_causal/dog_causal_3.png"" class=""exp-image"">
                    <div class=""question-area"">
                        <p style=""font-size: 20px; font-weight: bold; margin: 0;"">Is there a person in this image?</p>
                    </div>
                </div>","0","main_experiment_trial","3","dog_causal","causal_sequence","chronological","","","","","","","",""
"","","","","","html-keyboard-response","128","407821","0.0-128.0","DA737D50D59340D38E9FBE5BE89ED438","019d6664-97ae-7e47-9f0f-d191756f561e","019d6630-2071-75cb-8026-6699844a2719","","null","
                <div class=""stimulus-container"">
                    <img src=""images/causal_sequence/dog_causal/dog_causal_4.png"" class=""exp-image"">
                    <div class=""question-area""></div> 
                </div>","null","","","","","","","","","","","","",""
"","","","","","html-button-response","129","409115","0.0-129.0","DA737D50D59340D38E9FBE5BE89ED438","019d6664-97ae-7e47-9f0f-d191756f561e","019d6630-2071-75cb-8026-6699844a2719","","1293","
                <div class=""stimulus-container"">
                    <img src=""images/causal_sequence/dog_causal/dog_causal_4.png"" class=""exp-image"">
                    <div class=""question-area"">
                        <p style=""font-size: 20px; font-weight: bold; margin: 0;"">Is there a person in this image?</p>
                    </div>
                </div>","0","main_experiment_trial","4","dog_causal","causal_sequence","chronological","","","","","","","",""
"","","","","","html-keyboard-response","130","414130","0.0-130.0","DA737D50D59340D38E9FBE5BE89ED438","019d6664-97ae-7e47-9f0f-d191756f561e","019d6630-2071-75cb-8026-6699844a2719","","null","
                <div class=""stimulus-container"">
                    <img src=""images/causal_sequence/dog_causal/dog_causal_5.png"" class=""exp-image"">
                    <div class=""question-area""></div> 
                </div>","null","","","","","","","","","","","","",""
"","","","","","html-button-response","131","415101","0.0-131.0","DA737D50D59340D38E9FBE5BE89ED438","019d6664-97ae-7e47-9f0f-d191756f561e","019d6630-2071-75cb-8026-6699844a2719","","971","
                <div class=""stimulus-container"">
                    <img src=""images/causal_sequence/dog_causal/dog_causal_5.png"" class=""exp-image"">
                    <div class=""question-area"">
                        <p style=""font-size: 20px; font-weight: bold; margin: 0;"">Is there a person in this image?</p>
                    </div>
                </div>","0","main_experiment_trial","5","dog_causal","causal_sequence","chronological","","","","","","","",""
"","","","","","html-keyboard-response","132","420117","0.0-132.0","DA737D50D59340D38E9FBE5BE89ED438","019d6664-97ae-7e47-9f0f-d191756f561e","019d6630-2071-75cb-8026-6699844a2719","","null","
                <div class=""stimulus-container"">
                    <img src=""images/causal_sequence/dog_causal/dog_causal_6.png"" class=""exp-image"">
                    <div class=""question-area""></div> 
                </div>","null","","","","","","","","","","","","",""
"","","","","","html-button-response","133","421110","0.0-133.0","DA737D50D59340D38E9FBE5BE89ED438","019d6664-97ae-7e47-9f0f-d191756f561e","019d6630-2071-75cb-8026-6699844a2719","","993","
                <div class=""stimulus-container"">
                    <img src=""images/causal_sequence/dog_causal/dog_causal_6.png"" class=""exp-image"">
                    <div class=""question-area"">
                        <p style=""font-size: 20px; font-weight: bold; margin: 0;"">Is there a person in this image?</p>
                    </div>
                </div>","0","main_experiment_trial","6","dog_causal","causal_sequence","chronological","","","","","","","",""
"","","","","","html-keyboard-response","134","426114","0.0-134.0","DA737D50D59340D38E9FBE5BE89ED438","019d6664-97ae-7e47-9f0f-d191756f561e","019d6630-2071-75cb-8026-6699844a2719","","null","
                <div class=""stimulus-container"">
                    <img src=""images/causal_sequence/dog_causal/dog_causal_7.png"" class=""exp-image"">
                    <div class=""question-area""></div> 
                </div>","null","","","","","","","","","","","","",""
"","","","","","html-button-response","135","426945","0.0-135.0","DA737D50D59340D38E9FBE5BE89ED438","019d6664-97ae-7e47-9f0f-d191756f561e","019d6630-2071-75cb-8026-6699844a2719","","831","
                <div class=""stimulus-container"">
                    <img src=""images/causal_sequence/dog_causal/dog_causal_7.png"" class=""exp-image"">
                    <div class=""question-area"">
                        <p style=""font-size: 20px; font-weight: bold; margin: 0;"">Is there a person in this image?</p>
                    </div>
                </div>","0","main_experiment_trial","7","dog_causal","causal_sequence","chronological","","","","","","","",""
"","","","","","html-keyboard-response","136","431947","0.0-136.0","DA737D50D59340D38E9FBE5BE89ED438","019d6664-97ae-7e47-9f0f-d191756f561e","019d6630-2071-75cb-8026-6699844a2719","","null","
                <div class=""stimulus-container"">
                    <img src=""images/causal_sequence/dog_causal/dog_causal_8.png"" class=""exp-image"">
                    <div class=""question-area""></div> 
                </div>","null","","","","","","","","","","","","",""
"","","","","","html-button-response","137","433102","0.0-137.0","DA737D50D59340D38E9FBE5BE89ED438","019d6664-97ae-7e47-9f0f-d191756f561e","019d6630-2071-75cb-8026-6699844a2719","","1154","
                <div class=""stimulus-container"">
                    <img src=""images/causal_sequence/dog_causal/dog_causal_8.png"" class=""exp-image"">
                    <div class=""question-area"">
                        <p style=""font-size: 20px; font-weight: bold; margin: 0;"">Is there a person in this image?</p>
                    </div>
                </div>","0","main_experiment_trial","8","dog_causal","causal_sequence","chronological","","","","","","","",""
"","","","","","html-keyboard-response","138","438116","0.0-138.0","DA737D50D59340D38E9FBE5BE89ED438","019d6664-97ae-7e47-9f0f-d191756f561e","019d6630-2071-75cb-8026-6699844a2719","","null","
                <div class=""stimulus-container"">
                    <img src=""images/causal_sequence/dog_causal/dog_causal_9.png"" class=""exp-image"">
                    <div class=""question-area""></div> 
                </div>","null","","","","","","","","","","","","",""
"","","","","","html-button-response","139","439211","0.0-139.0","DA737D50D59340D38E9FBE5BE89ED438","019d6664-97ae-7e47-9f0f-d191756f561e","019d6630-2071-75cb-8026-6699844a2719","","1094","
                <div class=""stimulus-container"">
                    <img src=""images/causal_sequence/dog_causal/dog_causal_9.png"" class=""exp-image"">
                    <div class=""question-area"">
                        <p style=""font-size: 20px; font-weight: bold; margin: 0;"">Is there a person in this image?</p>
                    </div>
                </div>","0","main_experiment_trial","9","dog_causal","causal_sequence","chronological","","","","","","","",""
"","","","","","html-keyboard-response","140","444221","0.0-140.0","DA737D50D59340D38E9FBE5BE89ED438","019d6664-97ae-7e47-9f0f-d191756f561e","019d6630-2071-75cb-8026-6699844a2719","","null","
                <div class=""stimulus-container"">
                    <img src=""images/causal_sequence/dog_causal/dog_causal_ten.png"" class=""exp-image"">
                    <div class=""question-area""></div> 
                </div>","null","","","","","","","","","","","","",""
"","","","","","html-button-response","141","444775","0.0-141.0","DA737D50D59340D38E9FBE5BE89ED438","019d6664-97ae-7e47-9f0f-d191756f561e","019d6630-2071-75cb-8026-6699844a2719","","554","
                <div class=""stimulus-container"">
                    <img src=""images/causal_sequence/dog_causal/dog_causal_ten.png"" class=""exp-image"">
                    <div class=""question-area"">
                        <p style=""font-size: 20px; font-weight: bold; margin: 0;"">Is there a person in this image?</p>
                    </div>
                </div>","0","main_experiment_trial","ten","dog_causal","causal_sequence","chronological","","","","","","","",""
"","","","","","html-keyboard-response","142","449789","0.0-142.0","DA737D50D59340D38E9FBE5BE89ED438","019d6664-97ae-7e47-9f0f-d191756f561e","019d6630-2071-75cb-8026-6699844a2719","","null","<div style=""background-color: white; width: 100vw; height: 100vh;""></div>","null","","","","","","","","","","","","",""
"","","","","","html-keyboard-response","143","454799","0.0-143.0","DA737D50D59340D38E9FBE5BE89ED438","019d6664-97ae-7e47-9f0f-d191756f561e","019d6630-2071-75cb-8026-6699844a2719","","null","
                <div class=""stimulus-container"">
                    <img src=""images/causal_sequence/museum_causal/museum_causal_1.png"" class=""exp-image"">
                    <div class=""question-area""></div> 
                </div>","null","","","","","","","","","","","","",""
"","","","","","html-button-response","144","456096","0.0-144.0","DA737D50D59340D38E9FBE5BE89ED438","019d6664-97ae-7e47-9f0f-d191756f561e","019d6630-2071-75cb-8026-6699844a2719","","1296","
                <div class=""stimulus-container"">
                    <img src=""images/causal_sequence/museum_causal/museum_causal_1.png"" class=""exp-image"">
                    <div class=""question-area"">
                        <p style=""font-size: 20px; font-weight: bold; margin: 0;"">Is there a person in this image?</p>
                    </div>
                </div>","0","main_experiment_trial","1","museum_causal","causal_sequence","chronological","","","","","","","",""
"","","","","","html-keyboard-response","145","461110","0.0-145.0","DA737D50D59340D38E9FBE5BE89ED438","019d6664-97ae-7e47-9f0f-d191756f561e","019d6630-2071-75cb-8026-6699844a2719","","null","
                <div class=""stimulus-container"">
                    <img src=""images/causal_sequence/museum_causal/museum_causal_2.png"" class=""exp-image"">
                    <div class=""question-area""></div> 
                </div>","null","","","","","","","","","","","","",""
"","","","","","html-button-response","146","461555","0.0-146.0","DA737D50D59340D38E9FBE5BE89ED438","019d6664-97ae-7e47-9f0f-d191756f561e","019d6630-2071-75cb-8026-6699844a2719","","444","
                <div class=""stimulus-container"">
                    <img src=""images/causal_sequence/museum_causal/museum_causal_2.png"" class=""exp-image"">
                    <div class=""question-area"">
                        <p style=""font-size: 20px; font-weight: bold; margin: 0;"">Is there a person in this image?</p>
                    </div>
                </div>","0","main_experiment_trial","2","museum_causal","causal_sequence","chronological","","","","","","","",""
"","","","","","html-keyboard-response","147","466557","0.0-147.0","DA737D50D59340D38E9FBE5BE89ED438","019d6664-97ae-7e47-9f0f-d191756f561e","019d6630-2071-75cb-8026-6699844a2719","","null","
                <div class=""stimulus-container"">
                    <img src=""images/causal_sequence/museum_causal/museum_causal_3.png"" class=""exp-image"">
                    <div class=""question-area""></div> 
                </div>","null","","","","","","","","","","","","",""
"","","","","","html-button-response","148","467047","0.0-148.0","DA737D50D59340D38E9FBE5BE89ED438","019d6664-97ae-7e47-9f0f-d191756f561e","019d6630-2071-75cb-8026-6699844a2719","","490","
                <div class=""stimulus-container"">
                    <img src=""images/causal_sequence/museum_causal/museum_causal_3.png"" class=""exp-image"">
                    <div class=""question-area"">
                        <p style=""font-size: 20px; font-weight: bold; margin: 0;"">Is there a person in this image?</p>
                    </div>
                </div>","0","main_experiment_trial","3","museum_causal","causal_sequence","chronological","","","","","","","",""
"","","","","","html-keyboard-response","149","472063","0.0-149.0","DA737D50D59340D38E9FBE5BE89ED438","019d6664-97ae-7e47-9f0f-d191756f561e","019d6630-2071-75cb-8026-6699844a2719","","null","
                <div class=""stimulus-container"">
                    <img src=""images/causal_sequence/museum_causal/museum_causal_4.png"" class=""exp-image"">
                    <div class=""question-area""></div> 
                </div>","null","","","","","","","","","","","","",""
"","","","","","html-button-response","150","472927","0.0-150.0","DA737D50D59340D38E9FBE5BE89ED438","019d6664-97ae-7e47-9f0f-d191756f561e","019d6630-2071-75cb-8026-6699844a2719","","864","
                <div class=""stimulus-container"">
                    <img src=""images/causal_sequence/museum_causal/museum_causal_4.png"" class=""exp-image"">
                    <div class=""question-area"">
                        <p style=""font-size: 20px; font-weight: bold; margin: 0;"">Is there a person in this image?</p>
                    </div>
                </div>","1","main_experiment_trial","4","museum_causal","causal_sequence","chronological","","","","","","","",""
"","","","","","html-keyboard-response","151","477943","0.0-151.0","DA737D50D59340D38E9FBE5BE89ED438","019d6664-97ae-7e47-9f0f-d191756f561e","019d6630-2071-75cb-8026-6699844a2719","","null","
                <div class=""stimulus-container"">
                    <img src=""images/causal_sequence/museum_causal/museum_causal_5.png"" class=""exp-image"">
                    <div class=""question-area""></div> 
                </div>","null","","","","","","","","","","","","",""
"","","","","","html-button-response","152","478373","0.0-152.0","DA737D50D59340D38E9FBE5BE89ED438","019d6664-97ae-7e47-9f0f-d191756f561e","019d6630-2071-75cb-8026-6699844a2719","","430","
                <div class=""stimulus-container"">
                    <img src=""images/causal_sequence/museum_causal/museum_causal_5.png"" class=""exp-image"">
                    <div class=""question-area"">
                        <p style=""font-size: 20px; font-weight: bold; margin: 0;"">Is there a person in this image?</p>
                    </div>
                </div>","0","main_experiment_trial","5","museum_causal","causal_sequence","chronological","","","","","","","",""
"","","","","","html-keyboard-response","153","483378","0.0-153.0","DA737D50D59340D38E9FBE5BE89ED438","019d6664-97ae-7e47-9f0f-d191756f561e","019d6630-2071-75cb-8026-6699844a2719","","null","
                <div class=""stimulus-container"">
                    <img src=""images/causal_sequence/museum_causal/museum_causal_6.png"" class=""exp-image"">
                    <div class=""question-area""></div> 
                </div>","null","","","","","","","","","","","","",""
"","","","","","html-button-response","154","483979","0.0-154.0","DA737D50D59340D38E9FBE5BE89ED438","019d6664-97ae-7e47-9f0f-d191756f561e","019d6630-2071-75cb-8026-6699844a2719","","600","
                <div class=""stimulus-container"">
                    <img src=""images/causal_sequence/museum_causal/museum_causal_6.png"" class=""exp-image"">
                    <div class=""question-area"">
                        <p style=""font-size: 20px; font-weight: bold; margin: 0;"">Is there a person in this image?</p>
                    </div>
                </div>","0","main_experiment_trial","6","museum_causal","causal_sequence","chronological","","","","","","","",""
"","","","","","html-keyboard-response","155","488984","0.0-155.0","DA737D50D59340D38E9FBE5BE89ED438","019d6664-97ae-7e47-9f0f-d191756f561e","019d6630-2071-75cb-8026-6699844a2719","","null","
                <div class=""stimulus-container"">
                    <img src=""images/causal_sequence/museum_causal/museum_causal_7.png"" class=""exp-image"">
                    <div class=""question-area""></div> 
                </div>","null","","","","","","","","","","","","",""
"","","","","","html-button-response","156","489492","0.0-156.0","DA737D50D59340D38E9FBE5BE89ED438","019d6664-97ae-7e47-9f0f-d191756f561e","019d6630-2071-75cb-8026-6699844a2719","","507","
                <div class=""stimulus-container"">
                    <img src=""images/causal_sequence/museum_causal/museum_causal_7.png"" class=""exp-image"">
                    <div class=""question-area"">
                        <p style=""font-size: 20px; font-weight: bold; margin: 0;"">Is there a person in this image?</p>
                    </div>
                </div>","1","main_experiment_trial","7","museum_causal","causal_sequence","chronological","","","","","","","",""
"","","","","","html-keyboard-response","157","494500","0.0-157.0","DA737D50D59340D38E9FBE5BE89ED438","019d6664-97ae-7e47-9f0f-d191756f561e","019d6630-2071-75cb-8026-6699844a2719","","null","
                <div class=""stimulus-container"">
                    <img src=""images/causal_sequence/museum_causal/museum_causal_8.png"" class=""exp-image"">
                    <div class=""question-area""></div> 
                </div>","null","","","","","","","","","","","","",""
"","","","","","html-button-response","158","495028","0.0-158.0","DA737D50D59340D38E9FBE5BE89ED438","019d6664-97ae-7e47-9f0f-d191756f561e","019d6630-2071-75cb-8026-6699844a2719","","528","
                <div class=""stimulus-container"">
                    <img src=""images/causal_sequence/museum_causal/museum_causal_8.png"" class=""exp-image"">
                    <div class=""question-area"">
                        <p style=""font-size: 20px; font-weight: bold; margin: 0;"">Is there a person in this image?</p>
                    </div>
                </div>","0","main_experiment_trial","8","museum_causal","causal_sequence","chronological","","","","","","","",""
"","","","","","html-keyboard-response","159","500034","0.0-159.0","DA737D50D59340D38E9FBE5BE89ED438","019d6664-97ae-7e47-9f0f-d191756f561e","019d6630-2071-75cb-8026-6699844a2719","","null","
                <div class=""stimulus-container"">
                    <img src=""images/causal_sequence/museum_causal/museum_causal_9.png"" class=""exp-image"">
                    <div class=""question-area""></div> 
                </div>","null","","","","","","","","","","","","",""
"","","","","","html-button-response","160","500661","0.0-160.0","DA737D50D59340D38E9FBE5BE89ED438","019d6664-97ae-7e47-9f0f-d191756f561e","019d6630-2071-75cb-8026-6699844a2719","","627","
                <div class=""stimulus-container"">
                    <img src=""images/causal_sequence/museum_causal/museum_causal_9.png"" class=""exp-image"">
                    <div class=""question-area"">
                        <p style=""font-size: 20px; font-weight: bold; margin: 0;"">Is there a person in this image?</p>
                    </div>
                </div>","1","main_experiment_trial","9","museum_causal","causal_sequence","chronological","","","","","","","",""
"","","","","","html-keyboard-response","161","505675","0.0-161.0","DA737D50D59340D38E9FBE5BE89ED438","019d6664-97ae-7e47-9f0f-d191756f561e","019d6630-2071-75cb-8026-6699844a2719","","null","
                <div class=""stimulus-container"">
                    <img src=""images/causal_sequence/museum_causal/museum_causal_ten.png"" class=""exp-image"">
                    <div class=""question-area""></div> 
                </div>","null","","","","","","","","","","","","",""
"","","","","","html-button-response","162","506284","0.0-162.0","DA737D50D59340D38E9FBE5BE89ED438","019d6664-97ae-7e47-9f0f-d191756f561e","019d6630-2071-75cb-8026-6699844a2719","","608","
                <div class=""stimulus-container"">
                    <img src=""images/causal_sequence/museum_causal/museum_causal_ten.png"" class=""exp-image"">
                    <div class=""question-area"">
                        <p style=""font-size: 20px; font-weight: bold; margin: 0;"">Is there a person in this image?</p>
                    </div>
                </div>","0","main_experiment_trial","ten","museum_causal","causal_sequence","chronological","","","","","","","",""
"","","","","","html-keyboard-response","163","511296","0.0-163.0","DA737D50D59340D38E9FBE5BE89ED438","019d6664-97ae-7e47-9f0f-d191756f561e","019d6630-2071-75cb-8026-6699844a2719","","null","<div style=""background-color: white; width: 100vw; height: 100vh;""></div>","null","","","","","","","","","","","","",""
"","","","","","html-keyboard-response","164","516301","0.0-164.0","DA737D50D59340D38E9FBE5BE89ED438","019d6664-97ae-7e47-9f0f-d191756f561e","019d6630-2071-75cb-8026-6699844a2719","","null","
                <div class=""stimulus-container"">
                    <img src=""images/causal_sequence/saving_a_cat_causal/saving_a_cat_causal_1.png"" class=""exp-image"">
                    <div class=""question-area""></div> 
                </div>","null","","","","","","","","","","","","",""
"","","","","","html-button-response","165","516854","0.0-165.0","DA737D50D59340D38E9FBE5BE89ED438","019d6664-97ae-7e47-9f0f-d191756f561e","019d6630-2071-75cb-8026-6699844a2719","","552","
                <div class=""stimulus-container"">
                    <img src=""images/causal_sequence/saving_a_cat_causal/saving_a_cat_causal_1.png"" class=""exp-image"">
                    <div class=""question-area"">
                        <p style=""font-size: 20px; font-weight: bold; margin: 0;"">Is there a person in this image?</p>
                    </div>
                </div>","0","main_experiment_trial","1","saving_a_cat_causal","causal_sequence","chronological","","","","","","","",""
"","","","","","html-keyboard-response","166","521867","0.0-166.0","DA737D50D59340D38E9FBE5BE89ED438","019d6664-97ae-7e47-9f0f-d191756f561e","019d6630-2071-75cb-8026-6699844a2719","","null","
                <div class=""stimulus-container"">
                    <img src=""images/causal_sequence/saving_a_cat_causal/saving_a_cat_causal_2.png"" class=""exp-image"">
                    <div class=""question-area""></div> 
                </div>","null","","","","","","","","","","","","",""
"","","","","","html-button-response","167","522783","0.0-167.0","DA737D50D59340D38E9FBE5BE89ED438","019d6664-97ae-7e47-9f0f-d191756f561e","019d6630-2071-75cb-8026-6699844a2719","","916","
                <div class=""stimulus-container"">
                    <img src=""images/causal_sequence/saving_a_cat_causal/saving_a_cat_causal_2.png"" class=""exp-image"">
                    <div class=""question-area"">
                        <p style=""font-size: 20px; font-weight: bold; margin: 0;"">Is there a person in this image?</p>
                    </div>
                </div>","1","main_experiment_trial","2","saving_a_cat_causal","causal_sequence","chronological","","","","","","","",""
"","","","","","html-keyboard-response","168","527789","0.0-168.0","DA737D50D59340D38E9FBE5BE89ED438","019d6664-97ae-7e47-9f0f-d191756f561e","019d6630-2071-75cb-8026-6699844a2719","","null","
                <div class=""stimulus-container"">
                    <img src=""images/causal_sequence/saving_a_cat_causal/saving_a_cat_causal_3.png"" class=""exp-image"">
                    <div class=""question-area""></div> 
                </div>","null","","","","","","","","","","","","",""
"","","","","","html-button-response","169","528685","0.0-169.0","DA737D50D59340D38E9FBE5BE89ED438","019d6664-97ae-7e47-9f0f-d191756f561e","019d6630-2071-75cb-8026-6699844a2719","","895","
                <div class=""stimulus-container"">
                    <img src=""images/causal_sequence/saving_a_cat_causal/saving_a_cat_causal_3.png"" class=""exp-image"">
                    <div class=""question-area"">
                        <p style=""font-size: 20px; font-weight: bold; margin: 0;"">Is there a person in this image?</p>
                    </div>
                </div>","1","main_experiment_trial","3","saving_a_cat_causal","causal_sequence","chronological","","","","","","","",""
"","","","","","html-keyboard-response","170","533689","0.0-170.0","DA737D50D59340D38E9FBE5BE89ED438","019d6664-97ae-7e47-9f0f-d191756f561e","019d6630-2071-75cb-8026-6699844a2719","","null","
                <div class=""stimulus-container"">
                    <img src=""images/causal_sequence/saving_a_cat_causal/saving_a_cat_causal_4.png"" class=""exp-image"">
                    <div class=""question-area""></div> 
                </div>","null","","","","","","","","","","","","",""
"","","","","","html-button-response","171","534258","0.0-171.0","DA737D50D59340D38E9FBE5BE89ED438","019d6664-97ae-7e47-9f0f-d191756f561e","019d6630-2071-75cb-8026-6699844a2719","","569","
                <div class=""stimulus-container"">
                    <img src=""images/causal_sequence/saving_a_cat_causal/saving_a_cat_causal_4.png"" class=""exp-image"">
                    <div class=""question-area"">
                        <p style=""font-size: 20px; font-weight: bold; margin: 0;"">Is there a person in this image?</p>
                    </div>
                </div>","0","main_experiment_trial","4","saving_a_cat_causal","causal_sequence","chronological","","","","","","","",""
"","","","","","html-keyboard-response","172","539261","0.0-172.0","DA737D50D59340D38E9FBE5BE89ED438","019d6664-97ae-7e47-9f0f-d191756f561e","019d6630-2071-75cb-8026-6699844a2719","","null","
                <div class=""stimulus-container"">
                    <img src=""images/causal_sequence/saving_a_cat_causal/saving_a_cat_causal_5.png"" class=""exp-image"">
                    <div class=""question-area""></div> 
                </div>","null","","","","","","","","","","","","",""
"","","","","","html-button-response","173","540073","0.0-173.0","DA737D50D59340D38E9FBE5BE89ED438","019d6664-97ae-7e47-9f0f-d191756f561e","019d6630-2071-75cb-8026-6699844a2719","","811","
                <div class=""stimulus-container"">
                    <img src=""images/causal_sequence/saving_a_cat_causal/saving_a_cat_causal_5.png"" class=""exp-image"">
                    <div class=""question-area"">
                        <p style=""font-size: 20px; font-weight: bold; margin: 0;"">Is there a person in this image?</p>
                    </div>
                </div>","0","main_experiment_trial","5","saving_a_cat_causal","causal_sequence","chronological","","","","","","","",""
"","","","","","html-keyboard-response","174","545075","0.0-174.0","DA737D50D59340D38E9FBE5BE89ED438","019d6664-97ae-7e47-9f0f-d191756f561e","019d6630-2071-75cb-8026-6699844a2719","","null","
                <div class=""stimulus-container"">
                    <img src=""images/causal_sequence/saving_a_cat_causal/saving_a_cat_causal_6.png"" class=""exp-image"">
                    <div class=""question-area""></div> 
                </div>","null","","","","","","","","","","","","",""
"","","","","","html-button-response","175","545639","0.0-175.0","DA737D50D59340D38E9FBE5BE89ED438","019d6664-97ae-7e47-9f0f-d191756f561e","019d6630-2071-75cb-8026-6699844a2719","","563","
                <div class=""stimulus-container"">
                    <img src=""images/causal_sequence/saving_a_cat_causal/saving_a_cat_causal_6.png"" class=""exp-image"">
                    <div class=""question-area"">
                        <p style=""font-size: 20px; font-weight: bold; margin: 0;"">Is there a person in this image?</p>
                    </div>
                </div>","0","main_experiment_trial","6","saving_a_cat_causal","causal_sequence","chronological","","","","","","","",""
