"success","timeout","failed_images","failed_audio","failed_video","trial_type","trial_index","time_elapsed","internal_node_id","subject_id","study_id","session_id","view_history","rt","stimulus","response","task","image_index","folder","valuable_image_index","valuable_X","chosen_image_index","distance_from_X"
"false","false","[]","[]","[]","preload","0","1523","0.0-0.0","2733436663A849F9BF9B6FE082FF1FFB","019ce688-a8ba-7fee-9dbb-04ecea4aa9a3","019ce643-47c6-74a0-b3d2-7bf5651ded46","","","","","","","","","","",""
"","","","","","instructions","1","5243","0.0-1.0","2733436663A849F9BF9B6FE082FF1FFB","019ce688-a8ba-7fee-9dbb-04ecea4aa9a3","019ce643-47c6-74a0-b3d2-7bf5651ded46","[{""page_index"":0,""viewing_time"":3719}]","3719","","","","","","","","",""
"","","","","","instructions","2","7589","0.0-2.0","2733436663A849F9BF9B6FE082FF1FFB","019ce688-a8ba-7fee-9dbb-04ecea4aa9a3","019ce643-47c6-74a0-b3d2-7bf5651ded46","[{""page_index"":0,""viewing_time"":2346}]","2346","","","","","","","","",""
"true","","","","","fullscreen","3","15459","0.0-3.0","2733436663A849F9BF9B6FE082FF1FFB","019ce688-a8ba-7fee-9dbb-04ecea4aa9a3","019ce643-47c6-74a0-b3d2-7bf5651ded46","","6867","","","","","","","","",""
"","","","","","instructions","4","343972","0.0-4.0","2733436663A849F9BF9B6FE082FF1FFB","019ce688-a8ba-7fee-9dbb-04ecea4aa9a3","019ce643-47c6-74a0-b3d2-7bf5651ded46","[{""page_index"":0,""viewing_time"":328512}]","328512","","","","","","","","",""
"","","","","","instructions","5","357238","0.0-5.0","2733436663A849F9BF9B6FE082FF1FFB","019ce688-a8ba-7fee-9dbb-04ecea4aa9a3","019ce643-47c6-74a0-b3d2-7bf5651ded46","[{""page_index"":0,""viewing_time"":13266}]","13266","","","","","","","","",""
"","","","","","html-keyboard-response","6","361241","0.0-6.0","2733436663A849F9BF9B6FE082FF1FFB","019ce688-a8ba-7fee-9dbb-04ecea4aa9a3","019ce643-47c6-74a0-b3d2-7bf5651ded46","","null","
                <div class=""stimulus-container"">
                    <img src=""images/instructions/movie_1.png"" class=""exp-image"">
                    <div class=""question-area""></div> 
                </div>","null","","","","","","",""
"","","","","","html-button-response","7","363117","0.0-7.0","2733436663A849F9BF9B6FE082FF1FFB","019ce688-a8ba-7fee-9dbb-04ecea4aa9a3","019ce643-47c6-74a0-b3d2-7bf5651ded46","","1874","
                <div class=""stimulus-container"">
                    <img src=""images/instructions/movie_1.png"" class=""exp-image"">
                    <div class=""question-area"">
                        <p style=""font-size: 20px; font-weight: bold; margin: 0;"">Was there a person in this image?</p>
                    </div>
                </div>","0","example_question","1","","","","",""
"","","","","","html-keyboard-response","8","367126","0.0-8.0","2733436663A849F9BF9B6FE082FF1FFB","019ce688-a8ba-7fee-9dbb-04ecea4aa9a3","019ce643-47c6-74a0-b3d2-7bf5651ded46","","null","
                <div class=""stimulus-container"">
                    <img src=""images/instructions/movie_2.png"" class=""exp-image"">
                    <div class=""question-area""></div> 
                </div>","null","","","","","","",""
"","","","","","html-button-response","9","367889","0.0-9.0","2733436663A849F9BF9B6FE082FF1FFB","019ce688-a8ba-7fee-9dbb-04ecea4aa9a3","019ce643-47c6-74a0-b3d2-7bf5651ded46","","762","
                <div class=""stimulus-container"">
                    <img src=""images/instructions/movie_2.png"" class=""exp-image"">
                    <div class=""question-area"">
                        <p style=""font-size: 20px; font-weight: bold; margin: 0;"">Was there a person in this image?</p>
                    </div>
                </div>","0","example_question","2","","","","",""
"","","","","","html-keyboard-response","10","371896","0.0-10.0","2733436663A849F9BF9B6FE082FF1FFB","019ce688-a8ba-7fee-9dbb-04ecea4aa9a3","019ce643-47c6-74a0-b3d2-7bf5651ded46","","null","
                <div class=""stimulus-container"">
                    <img src=""images/instructions/movie_3.png"" class=""exp-image"">
                    <div class=""question-area""></div> 
                </div>","null","","","","","","",""
"","","","","","html-button-response","11","373086","0.0-11.0","2733436663A849F9BF9B6FE082FF1FFB","019ce688-a8ba-7fee-9dbb-04ecea4aa9a3","019ce643-47c6-74a0-b3d2-7bf5651ded46","","1189","
                <div class=""stimulus-container"">
                    <img src=""images/instructions/movie_3.png"" class=""exp-image"">
                    <div class=""question-area"">
                        <p style=""font-size: 20px; font-weight: bold; margin: 0;"">Was there a person in this image?</p>
                    </div>
                </div>","0","example_question","3","","","","",""
"","","","","","html-keyboard-response","12","377092","0.0-12.0","2733436663A849F9BF9B6FE082FF1FFB","019ce688-a8ba-7fee-9dbb-04ecea4aa9a3","019ce643-47c6-74a0-b3d2-7bf5651ded46","","null","
                <div class=""stimulus-container"">
                    <img src=""images/instructions/movie_4.png"" class=""exp-image"">
                    <div class=""question-area""></div> 
                </div>","null","","","","","","",""
"","","","","","html-button-response","13","377704","0.0-13.0","2733436663A849F9BF9B6FE082FF1FFB","019ce688-a8ba-7fee-9dbb-04ecea4aa9a3","019ce643-47c6-74a0-b3d2-7bf5651ded46","","611","
                <div class=""stimulus-container"">
                    <img src=""images/instructions/movie_4.png"" class=""exp-image"">
                    <div class=""question-area"">
                        <p style=""font-size: 20px; font-weight: bold; margin: 0;"">Was there a person in this image?</p>
                    </div>
                </div>","0","example_question","4","","","","",""
"","","","","","instructions","14","379046","0.0-14.0","2733436663A849F9BF9B6FE082FF1FFB","019ce688-a8ba-7fee-9dbb-04ecea4aa9a3","019ce643-47c6-74a0-b3d2-7bf5651ded46","[{""page_index"":0,""viewing_time"":1342}]","1342","","","","","","","","",""
"","","","","","html-keyboard-response","15","380053","0.0-15.0","2733436663A849F9BF9B6FE082FF1FFB","019ce688-a8ba-7fee-9dbb-04ecea4aa9a3","019ce643-47c6-74a0-b3d2-7bf5651ded46","","null","<div style=""background-color: gray; width: 100vw; height: 100vh;""></div>","null","","","","","","",""
"","","","","","html-keyboard-response","16","385059","0.0-16.0","2733436663A849F9BF9B6FE082FF1FFB","019ce688-a8ba-7fee-9dbb-04ecea4aa9a3","019ce643-47c6-74a0-b3d2-7bf5651ded46","","null","
                    <div class=""stimulus-container"">
                        <img src=""images/causal_sequence/saving_a_cat_causal/saving_a_cat_causal_1.png"" class=""exp-image"">
                        <div class=""question-area""></div> 
                    </div>","null","","","","","","",""
"","","","","","html-button-response","17","386282","0.0-17.0","2733436663A849F9BF9B6FE082FF1FFB","019ce688-a8ba-7fee-9dbb-04ecea4aa9a3","019ce643-47c6-74a0-b3d2-7bf5651ded46","","1222","
                    <div class=""stimulus-container"">
                        <img src=""images/causal_sequence/saving_a_cat_causal/saving_a_cat_causal_1.png"" class=""exp-image"">
                        <div class=""question-area"">
                            <p style=""font-size: 20px; font-weight: bold; margin: 0;"">Is there a person in this image?</p>
                        </div>
                    </div>","0","main_causal_task","1","saving_a_cat_causal","","","",""
"","","","","","html-keyboard-response","18","391291","0.0-18.0","2733436663A849F9BF9B6FE082FF1FFB","019ce688-a8ba-7fee-9dbb-04ecea4aa9a3","019ce643-47c6-74a0-b3d2-7bf5651ded46","","null","
                    <div class=""stimulus-container"">
                        <img src=""images/causal_sequence/saving_a_cat_causal/saving_a_cat_causal_2.png"" class=""exp-image"">
                        <div class=""question-area""></div> 
                    </div>","null","","","","","","",""
"","","","","","html-button-response","19","391874","0.0-19.0","2733436663A849F9BF9B6FE082FF1FFB","019ce688-a8ba-7fee-9dbb-04ecea4aa9a3","019ce643-47c6-74a0-b3d2-7bf5651ded46","","583","
                    <div class=""stimulus-container"">
                        <img src=""images/causal_sequence/saving_a_cat_causal/saving_a_cat_causal_2.png"" class=""exp-image"">
                        <div class=""question-area"">
                            <p style=""font-size: 20px; font-weight: bold; margin: 0;"">Is there a person in this image?</p>
                        </div>
                    </div>","1","main_causal_task","2","saving_a_cat_causal","","","",""
"","","","","","html-keyboard-response","20","396883","0.0-20.0","2733436663A849F9BF9B6FE082FF1FFB","019ce688-a8ba-7fee-9dbb-04ecea4aa9a3","019ce643-47c6-74a0-b3d2-7bf5651ded46","","null","
                    <div class=""stimulus-container"">
                        <img src=""images/causal_sequence/saving_a_cat_causal/saving_a_cat_causal_3.png"" class=""exp-image"">
                        <div class=""question-area""></div> 
                    </div>","null","","","","","","",""
"","","","","","html-button-response","21","398281","0.0-21.0","2733436663A849F9BF9B6FE082FF1FFB","019ce688-a8ba-7fee-9dbb-04ecea4aa9a3","019ce643-47c6-74a0-b3d2-7bf5651ded46","","1398","
                    <div class=""stimulus-container"">
                        <img src=""images/causal_sequence/saving_a_cat_causal/saving_a_cat_causal_3.png"" class=""exp-image"">
                        <div class=""question-area"">
                            <p style=""font-size: 20px; font-weight: bold; margin: 0;"">Is there a person in this image?</p>
                        </div>
                    </div>","1","main_causal_task","3","saving_a_cat_causal","","","",""
"","","","","","html-keyboard-response","22","403283","0.0-22.0","2733436663A849F9BF9B6FE082FF1FFB","019ce688-a8ba-7fee-9dbb-04ecea4aa9a3","019ce643-47c6-74a0-b3d2-7bf5651ded46","","null","
                    <div class=""stimulus-container"">
                        <img src=""images/causal_sequence/saving_a_cat_causal/saving_a_cat_causal_4.png"" class=""exp-image"">
                        <div class=""question-area""></div> 
                    </div>","null","","","","","","",""
"","","","","","html-button-response","23","404146","0.0-23.0","2733436663A849F9BF9B6FE082FF1FFB","019ce688-a8ba-7fee-9dbb-04ecea4aa9a3","019ce643-47c6-74a0-b3d2-7bf5651ded46","","862","
                    <div class=""stimulus-container"">
                        <img src=""images/causal_sequence/saving_a_cat_causal/saving_a_cat_causal_4.png"" class=""exp-image"">
                        <div class=""question-area"">
                            <p style=""font-size: 20px; font-weight: bold; margin: 0;"">Is there a person in this image?</p>
                        </div>
                    </div>","0","main_causal_task","4","saving_a_cat_causal","","","",""
"","","","","","html-keyboard-response","24","409159","0.0-24.0","2733436663A849F9BF9B6FE082FF1FFB","019ce688-a8ba-7fee-9dbb-04ecea4aa9a3","019ce643-47c6-74a0-b3d2-7bf5651ded46","","null","
                    <div class=""stimulus-container"">
                        <img src=""images/causal_sequence/saving_a_cat_causal/saving_a_cat_causal_5.png"" class=""exp-image"">
                        <div class=""question-area""></div> 
                    </div>","null","","","","","","",""
"","","","","","html-button-response","25","410194","0.0-25.0","2733436663A849F9BF9B6FE082FF1FFB","019ce688-a8ba-7fee-9dbb-04ecea4aa9a3","019ce643-47c6-74a0-b3d2-7bf5651ded46","","1034","
                    <div class=""stimulus-container"">
                        <img src=""images/causal_sequence/saving_a_cat_causal/saving_a_cat_causal_5.png"" class=""exp-image"">
                        <div class=""question-area"">
                            <p style=""font-size: 20px; font-weight: bold; margin: 0;"">Is there a person in this image?</p>
                        </div>
                    </div>","0","main_causal_task","5","saving_a_cat_causal","","","",""
"","","","","","html-keyboard-response","26","415203","0.0-26.0","2733436663A849F9BF9B6FE082FF1FFB","019ce688-a8ba-7fee-9dbb-04ecea4aa9a3","019ce643-47c6-74a0-b3d2-7bf5651ded46","","null","
                    <div class=""stimulus-container"">
                        <img src=""images/causal_sequence/saving_a_cat_causal/saving_a_cat_causal_6.png"" class=""exp-image"">
                        <div class=""question-area""></div> 
                    </div>","null","","","","","","",""
"","","","","","html-button-response","27","415964","0.0-27.0","2733436663A849F9BF9B6FE082FF1FFB","019ce688-a8ba-7fee-9dbb-04ecea4aa9a3","019ce643-47c6-74a0-b3d2-7bf5651ded46","","760","
                    <div class=""stimulus-container"">
                        <img src=""images/causal_sequence/saving_a_cat_causal/saving_a_cat_causal_6.png"" class=""exp-image"">
                        <div class=""question-area"">
                            <p style=""font-size: 20px; font-weight: bold; margin: 0;"">Is there a person in this image?</p>
                        </div>
                    </div>","0","main_causal_task","6","saving_a_cat_causal","","","",""
"","","","","","html-keyboard-response","28","420969","0.0-28.0","2733436663A849F9BF9B6FE082FF1FFB","019ce688-a8ba-7fee-9dbb-04ecea4aa9a3","019ce643-47c6-74a0-b3d2-7bf5651ded46","","null","
                    <div class=""stimulus-container"">
                        <img src=""images/causal_sequence/saving_a_cat_causal/saving_a_cat_causal_7.png"" class=""exp-image"">
                        <div class=""question-area""></div> 
                    </div>","null","","","","","","",""
"","","","","","html-button-response","29","421842","0.0-29.0","2733436663A849F9BF9B6FE082FF1FFB","019ce688-a8ba-7fee-9dbb-04ecea4aa9a3","019ce643-47c6-74a0-b3d2-7bf5651ded46","","872","
                    <div class=""stimulus-container"">
                        <img src=""images/causal_sequence/saving_a_cat_causal/saving_a_cat_causal_7.png"" class=""exp-image"">
                        <div class=""question-area"">
                            <p style=""font-size: 20px; font-weight: bold; margin: 0;"">Is there a person in this image?</p>
                        </div>
                    </div>","0","main_causal_task","7","saving_a_cat_causal","","","",""
"","","","","","html-keyboard-response","30","426848","0.0-30.0","2733436663A849F9BF9B6FE082FF1FFB","019ce688-a8ba-7fee-9dbb-04ecea4aa9a3","019ce643-47c6-74a0-b3d2-7bf5651ded46","","null","
                    <div class=""stimulus-container"">
                        <img src=""images/causal_sequence/saving_a_cat_causal/saving_a_cat_causal_8.png"" class=""exp-image"">
                        <div class=""question-area""></div> 
                    </div>","null","","","","","","",""
"","","","","","html-button-response","31","427618","0.0-31.0","2733436663A849F9BF9B6FE082FF1FFB","019ce688-a8ba-7fee-9dbb-04ecea4aa9a3","019ce643-47c6-74a0-b3d2-7bf5651ded46","","770","
                    <div class=""stimulus-container"">
                        <img src=""images/causal_sequence/saving_a_cat_causal/saving_a_cat_causal_8.png"" class=""exp-image"">
                        <div class=""question-area"">
                            <p style=""font-size: 20px; font-weight: bold; margin: 0;"">Is there a person in this image?</p>
                        </div>
                    </div>","0","main_causal_task","8","saving_a_cat_causal","","","",""
"","","","","","html-keyboard-response","32","432621","0.0-32.0","2733436663A849F9BF9B6FE082FF1FFB","019ce688-a8ba-7fee-9dbb-04ecea4aa9a3","019ce643-47c6-74a0-b3d2-7bf5651ded46","","null","
                    <div class=""stimulus-container"">
                        <img src=""images/causal_sequence/saving_a_cat_causal/saving_a_cat_causal_9.png"" class=""exp-image"">
                        <div class=""question-area""></div> 
                    </div>","null","","","","","","",""
"","","","","","html-button-response","33","433140","0.0-33.0","2733436663A849F9BF9B6FE082FF1FFB","019ce688-a8ba-7fee-9dbb-04ecea4aa9a3","019ce643-47c6-74a0-b3d2-7bf5651ded46","","518","
                    <div class=""stimulus-container"">
                        <img src=""images/causal_sequence/saving_a_cat_causal/saving_a_cat_causal_9.png"" class=""exp-image"">
                        <div class=""question-area"">
                            <p style=""font-size: 20px; font-weight: bold; margin: 0;"">Is there a person in this image?</p>
                        </div>
                    </div>","0","main_causal_task","9","saving_a_cat_causal","","","",""
"","","","","","html-keyboard-response","34","434147","0.0-34.0","2733436663A849F9BF9B6FE082FF1FFB","019ce688-a8ba-7fee-9dbb-04ecea4aa9a3","019ce643-47c6-74a0-b3d2-7bf5651ded46","","null","<div style=""background-color: gray; width: 100vw; height: 100vh;""></div>","null","","","","","","",""
"","","","","","html-keyboard-response","35","439162","0.0-35.0","2733436663A849F9BF9B6FE082FF1FFB","019ce688-a8ba-7fee-9dbb-04ecea4aa9a3","019ce643-47c6-74a0-b3d2-7bf5651ded46","","null","
                    <div class=""stimulus-container"">
                        <img src=""images/causal_sequence/package_causal/package_causal_1.png"" class=""exp-image"">
                        <div class=""question-area""></div> 
                    </div>","null","","","","","","",""
"","","","","","html-button-response","36","440037","0.0-36.0","2733436663A849F9BF9B6FE082FF1FFB","019ce688-a8ba-7fee-9dbb-04ecea4aa9a3","019ce643-47c6-74a0-b3d2-7bf5651ded46","","874","
                    <div class=""stimulus-container"">
                        <img src=""images/causal_sequence/package_causal/package_causal_1.png"" class=""exp-image"">
                        <div class=""question-area"">
                            <p style=""font-size: 20px; font-weight: bold; margin: 0;"">Is there a person in this image?</p>
                        </div>
                    </div>","0","main_causal_task","1","package_causal","","","",""
"","","","","","html-keyboard-response","37","445039","0.0-37.0","2733436663A849F9BF9B6FE082FF1FFB","019ce688-a8ba-7fee-9dbb-04ecea4aa9a3","019ce643-47c6-74a0-b3d2-7bf5651ded46","","null","
                    <div class=""stimulus-container"">
                        <img src=""images/causal_sequence/package_causal/package_causal_2.png"" class=""exp-image"">
                        <div class=""question-area""></div> 
                    </div>","null","","","","","","",""
"","","","","","html-button-response","38","445675","0.0-38.0","2733436663A849F9BF9B6FE082FF1FFB","019ce688-a8ba-7fee-9dbb-04ecea4aa9a3","019ce643-47c6-74a0-b3d2-7bf5651ded46","","635","
                    <div class=""stimulus-container"">
                        <img src=""images/causal_sequence/package_causal/package_causal_2.png"" class=""exp-image"">
                        <div class=""question-area"">
                            <p style=""font-size: 20px; font-weight: bold; margin: 0;"">Is there a person in this image?</p>
                        </div>
                    </div>","0","main_causal_task","2","package_causal","","","",""
"","","","","","html-keyboard-response","39","450681","0.0-39.0","2733436663A849F9BF9B6FE082FF1FFB","019ce688-a8ba-7fee-9dbb-04ecea4aa9a3","019ce643-47c6-74a0-b3d2-7bf5651ded46","","null","
                    <div class=""stimulus-container"">
                        <img src=""images/causal_sequence/package_causal/package_causal_3.png"" class=""exp-image"">
                        <div class=""question-area""></div> 
                    </div>","null","","","","","","",""
"","","","","","html-button-response","40","451803","0.0-40.0","2733436663A849F9BF9B6FE082FF1FFB","019ce688-a8ba-7fee-9dbb-04ecea4aa9a3","019ce643-47c6-74a0-b3d2-7bf5651ded46","","1122","
                    <div class=""stimulus-container"">
                        <img src=""images/causal_sequence/package_causal/package_causal_3.png"" class=""exp-image"">
                        <div class=""question-area"">
                            <p style=""font-size: 20px; font-weight: bold; margin: 0;"">Is there a person in this image?</p>
                        </div>
                    </div>","0","main_causal_task","3","package_causal","","","",""
"","","","","","html-keyboard-response","41","456810","0.0-41.0","2733436663A849F9BF9B6FE082FF1FFB","019ce688-a8ba-7fee-9dbb-04ecea4aa9a3","019ce643-47c6-74a0-b3d2-7bf5651ded46","","null","
                    <div class=""stimulus-container"">
                        <img src=""images/causal_sequence/package_causal/package_causal_4.png"" class=""exp-image"">
                        <div class=""question-area""></div> 
                    </div>","null","","","","","","",""
"","","","","","html-button-response","42","457382","0.0-42.0","2733436663A849F9BF9B6FE082FF1FFB","019ce688-a8ba-7fee-9dbb-04ecea4aa9a3","019ce643-47c6-74a0-b3d2-7bf5651ded46","","571","
                    <div class=""stimulus-container"">
                        <img src=""images/causal_sequence/package_causal/package_causal_4.png"" class=""exp-image"">
                        <div class=""question-area"">
                            <p style=""font-size: 20px; font-weight: bold; margin: 0;"">Is there a person in this image?</p>
                        </div>
                    </div>","1","main_causal_task","4","package_causal","","","",""
"","","","","","html-keyboard-response","43","462395","0.0-43.0","2733436663A849F9BF9B6FE082FF1FFB","019ce688-a8ba-7fee-9dbb-04ecea4aa9a3","019ce643-47c6-74a0-b3d2-7bf5651ded46","","null","
                    <div class=""stimulus-container"">
                        <img src=""images/causal_sequence/package_causal/package_causal_5.png"" class=""exp-image"">
                        <div class=""question-area""></div> 
                    </div>","null","","","","","","",""
"","","","","","html-button-response","44","463305","0.0-44.0","2733436663A849F9BF9B6FE082FF1FFB","019ce688-a8ba-7fee-9dbb-04ecea4aa9a3","019ce643-47c6-74a0-b3d2-7bf5651ded46","","909","
                    <div class=""stimulus-container"">
                        <img src=""images/causal_sequence/package_causal/package_causal_5.png"" class=""exp-image"">
                        <div class=""question-area"">
                            <p style=""font-size: 20px; font-weight: bold; margin: 0;"">Is there a person in this image?</p>
                        </div>
                    </div>","0","main_causal_task","5","package_causal","","","",""
"","","","","","html-keyboard-response","45","468311","0.0-45.0","2733436663A849F9BF9B6FE082FF1FFB","019ce688-a8ba-7fee-9dbb-04ecea4aa9a3","019ce643-47c6-74a0-b3d2-7bf5651ded46","","null","
                    <div class=""stimulus-container"">
                        <img src=""images/causal_sequence/package_causal/package_causal_6.png"" class=""exp-image"">
                        <div class=""question-area""></div> 
                    </div>","null","","","","","","",""
"","","","","","html-button-response","46","468810","0.0-46.0","2733436663A849F9BF9B6FE082FF1FFB","019ce688-a8ba-7fee-9dbb-04ecea4aa9a3","019ce643-47c6-74a0-b3d2-7bf5651ded46","","499","
                    <div class=""stimulus-container"">
                        <img src=""images/causal_sequence/package_causal/package_causal_6.png"" class=""exp-image"">
                        <div class=""question-area"">
                            <p style=""font-size: 20px; font-weight: bold; margin: 0;"">Is there a person in this image?</p>
                        </div>
                    </div>","0","main_causal_task","6","package_causal","","","",""
"","","","","","html-keyboard-response","47","473817","0.0-47.0","2733436663A849F9BF9B6FE082FF1FFB","019ce688-a8ba-7fee-9dbb-04ecea4aa9a3","019ce643-47c6-74a0-b3d2-7bf5651ded46","","null","
                    <div class=""stimulus-container"">
                        <img src=""images/causal_sequence/package_causal/package_causal_7.png"" class=""exp-image"">
                        <div class=""question-area""></div> 
                    </div>","null","","","","","","",""
"","","","","","html-button-response","48","474631","0.0-48.0","2733436663A849F9BF9B6FE082FF1FFB","019ce688-a8ba-7fee-9dbb-04ecea4aa9a3","019ce643-47c6-74a0-b3d2-7bf5651ded46","","813","
                    <div class=""stimulus-container"">
                        <img src=""images/causal_sequence/package_causal/package_causal_7.png"" class=""exp-image"">
                        <div class=""question-area"">
                            <p style=""font-size: 20px; font-weight: bold; margin: 0;"">Is there a person in this image?</p>
                        </div>
                    </div>","0","main_causal_task","7","package_causal","","","",""
"","","","","","html-keyboard-response","49","479646","0.0-49.0","2733436663A849F9BF9B6FE082FF1FFB","019ce688-a8ba-7fee-9dbb-04ecea4aa9a3","019ce643-47c6-74a0-b3d2-7bf5651ded46","","null","
                    <div class=""stimulus-container"">
                        <img src=""images/causal_sequence/package_causal/package_causal_8.png"" class=""exp-image"">
                        <div class=""question-area""></div> 
                    </div>","null","","","","","","",""
"","","","","","html-button-response","50","480803","0.0-50.0","2733436663A849F9BF9B6FE082FF1FFB","019ce688-a8ba-7fee-9dbb-04ecea4aa9a3","019ce643-47c6-74a0-b3d2-7bf5651ded46","","1157","
                    <div class=""stimulus-container"">
                        <img src=""images/causal_sequence/package_causal/package_causal_8.png"" class=""exp-image"">
                        <div class=""question-area"">
                            <p style=""font-size: 20px; font-weight: bold; margin: 0;"">Is there a person in this image?</p>
                        </div>
                    </div>","0","main_causal_task","8","package_causal","","","",""
"","","","","","html-keyboard-response","51","485815","0.0-51.0","2733436663A849F9BF9B6FE082FF1FFB","019ce688-a8ba-7fee-9dbb-04ecea4aa9a3","019ce643-47c6-74a0-b3d2-7bf5651ded46","","null","
                    <div class=""stimulus-container"">
                        <img src=""images/causal_sequence/package_causal/package_causal_9.png"" class=""exp-image"">
                        <div class=""question-area""></div> 
                    </div>","null","","","","","","",""
"","","","","","html-button-response","52","486580","0.0-52.0","2733436663A849F9BF9B6FE082FF1FFB","019ce688-a8ba-7fee-9dbb-04ecea4aa9a3","019ce643-47c6-74a0-b3d2-7bf5651ded46","","764","
                    <div class=""stimulus-container"">
                        <img src=""images/causal_sequence/package_causal/package_causal_9.png"" class=""exp-image"">
                        <div class=""question-area"">
                            <p style=""font-size: 20px; font-weight: bold; margin: 0;"">Is there a person in this image?</p>
                        </div>
                    </div>","0","main_causal_task","9","package_causal","","","",""
"","","","","","html-keyboard-response","53","487586","0.0-53.0","2733436663A849F9BF9B6FE082FF1FFB","019ce688-a8ba-7fee-9dbb-04ecea4aa9a3","019ce643-47c6-74a0-b3d2-7bf5651ded46","","null","<div style=""background-color: gray; width: 100vw; height: 100vh;""></div>","null","","","","","","",""
"","","","","","html-keyboard-response","54","492588","0.0-54.0","2733436663A849F9BF9B6FE082FF1FFB","019ce688-a8ba-7fee-9dbb-04ecea4aa9a3","019ce643-47c6-74a0-b3d2-7bf5651ded46","","null","
                    <div class=""stimulus-container"">
                        <img src=""images/causal_sequence/the_performance_causal/the_performance_causal_1.png"" class=""exp-image"">
                        <div class=""question-area""></div> 
                    </div>","null","","","","","","",""
"","","","","","html-button-response","55","493346","0.0-55.0","2733436663A849F9BF9B6FE082FF1FFB","019ce688-a8ba-7fee-9dbb-04ecea4aa9a3","019ce643-47c6-74a0-b3d2-7bf5651ded46","","758","
                    <div class=""stimulus-container"">
                        <img src=""images/causal_sequence/the_performance_causal/the_performance_causal_1.png"" class=""exp-image"">
                        <div class=""question-area"">
                            <p style=""font-size: 20px; font-weight: bold; margin: 0;"">Is there a person in this image?</p>
                        </div>
                    </div>","0","main_causal_task","1","the_performance_causal","","","",""
"","","","","","html-keyboard-response","56","498361","0.0-56.0","2733436663A849F9BF9B6FE082FF1FFB","019ce688-a8ba-7fee-9dbb-04ecea4aa9a3","019ce643-47c6-74a0-b3d2-7bf5651ded46","","null","
                    <div class=""stimulus-container"">
                        <img src=""images/causal_sequence/the_performance_causal/the_performance_causal_2.png"" class=""exp-image"">
                        <div class=""question-area""></div> 
                    </div>","null","","","","","","",""
"","","","","","html-button-response","57","499702","0.0-57.0","2733436663A849F9BF9B6FE082FF1FFB","019ce688-a8ba-7fee-9dbb-04ecea4aa9a3","019ce643-47c6-74a0-b3d2-7bf5651ded46","","1340","
                    <div class=""stimulus-container"">
                        <img src=""images/causal_sequence/the_performance_causal/the_performance_causal_2.png"" class=""exp-image"">
                        <div class=""question-area"">
                            <p style=""font-size: 20px; font-weight: bold; margin: 0;"">Is there a person in this image?</p>
                        </div>
                    </div>","0","main_causal_task","2","the_performance_causal","","","",""
"","","","","","html-keyboard-response","58","504706","0.0-58.0","2733436663A849F9BF9B6FE082FF1FFB","019ce688-a8ba-7fee-9dbb-04ecea4aa9a3","019ce643-47c6-74a0-b3d2-7bf5651ded46","","null","
                    <div class=""stimulus-container"">
                        <img src=""images/causal_sequence/the_performance_causal/the_performance_causal_3.png"" class=""exp-image"">
                        <div class=""question-area""></div> 
                    </div>","null","","","","","","",""
"","","","","","html-button-response","59","505839","0.0-59.0","2733436663A849F9BF9B6FE082FF1FFB","019ce688-a8ba-7fee-9dbb-04ecea4aa9a3","019ce643-47c6-74a0-b3d2-7bf5651ded46","","1132","
                    <div class=""stimulus-container"">
                        <img src=""images/causal_sequence/the_performance_causal/the_performance_causal_3.png"" class=""exp-image"">
                        <div class=""question-area"">
                            <p style=""font-size: 20px; font-weight: bold; margin: 0;"">Is there a person in this image?</p>
                        </div>
                    </div>","0","main_causal_task","3","the_performance_causal","","","",""
"","","","","","html-keyboard-response","60","510844","0.0-60.0","2733436663A849F9BF9B6FE082FF1FFB","019ce688-a8ba-7fee-9dbb-04ecea4aa9a3","019ce643-47c6-74a0-b3d2-7bf5651ded46","","null","
                    <div class=""stimulus-container"">
                        <img src=""images/causal_sequence/the_performance_causal/the_performance_causal_4.png"" class=""exp-image"">
                        <div class=""question-area""></div> 
                    </div>","null","","","","","","",""
"","","","","","html-button-response","61","511255","0.0-61.0","2733436663A849F9BF9B6FE082FF1FFB","019ce688-a8ba-7fee-9dbb-04ecea4aa9a3","019ce643-47c6-74a0-b3d2-7bf5651ded46","","410","
                    <div class=""stimulus-container"">
                        <img src=""images/causal_sequence/the_performance_causal/the_performance_causal_4.png"" class=""exp-image"">
                        <div class=""question-area"">
                            <p style=""font-size: 20px; font-weight: bold; margin: 0;"">Is there a person in this image?</p>
                        </div>
                    </div>","0","main_causal_task","4","the_performance_causal","","","",""
"","","","","","html-keyboard-response","62","516270","0.0-62.0","2733436663A849F9BF9B6FE082FF1FFB","019ce688-a8ba-7fee-9dbb-04ecea4aa9a3","019ce643-47c6-74a0-b3d2-7bf5651ded46","","null","
                    <div class=""stimulus-container"">
                        <img src=""images/causal_sequence/the_performance_causal/the_performance_causal_5.png"" class=""exp-image"">
                        <div class=""question-area""></div> 
                    </div>","null","","","","","","",""
"","","","","","html-button-response","63","516753","0.0-63.0","2733436663A849F9BF9B6FE082FF1FFB","019ce688-a8ba-7fee-9dbb-04ecea4aa9a3","019ce643-47c6-74a0-b3d2-7bf5651ded46","","482","
                    <div class=""stimulus-container"">
                        <img src=""images/causal_sequence/the_performance_causal/the_performance_causal_5.png"" class=""exp-image"">
                        <div class=""question-area"">
                            <p style=""font-size: 20px; font-weight: bold; margin: 0;"">Is there a person in this image?</p>
                        </div>
                    </div>","0","main_causal_task","5","the_performance_causal","","","",""
"","","","","","html-keyboard-response","64","521769","0.0-64.0","2733436663A849F9BF9B6FE082FF1FFB","019ce688-a8ba-7fee-9dbb-04ecea4aa9a3","019ce643-47c6-74a0-b3d2-7bf5651ded46","","null","
                    <div class=""stimulus-container"">
                        <img src=""images/causal_sequence/the_performance_causal/the_performance_causal_6.png"" class=""exp-image"">
                        <div class=""question-area""></div> 
                    </div>","null","","","","","","",""
"","","","","","html-button-response","65","522251","0.0-65.0","2733436663A849F9BF9B6FE082FF1FFB","019ce688-a8ba-7fee-9dbb-04ecea4aa9a3","019ce643-47c6-74a0-b3d2-7bf5651ded46","","482","
                    <div class=""stimulus-container"">
                        <img src=""images/causal_sequence/the_performance_causal/the_performance_causal_6.png"" class=""exp-image"">
                        <div class=""question-area"">
                            <p style=""font-size: 20px; font-weight: bold; margin: 0;"">Is there a person in this image?</p>
                        </div>
                    </div>","0","main_causal_task","6","the_performance_causal","","","",""
"","","","","","html-keyboard-response","66","527267","0.0-66.0","2733436663A849F9BF9B6FE082FF1FFB","019ce688-a8ba-7fee-9dbb-04ecea4aa9a3","019ce643-47c6-74a0-b3d2-7bf5651ded46","","null","
                    <div class=""stimulus-container"">
                        <img src=""images/causal_sequence/the_performance_causal/the_performance_causal_7.png"" class=""exp-image"">
                        <div class=""question-area""></div> 
                    </div>","null","","","","","","",""
"","","","","","html-button-response","67","527801","0.0-67.0","2733436663A849F9BF9B6FE082FF1FFB","019ce688-a8ba-7fee-9dbb-04ecea4aa9a3","019ce643-47c6-74a0-b3d2-7bf5651ded46","","533","
                    <div class=""stimulus-container"">
                        <img src=""images/causal_sequence/the_performance_causal/the_performance_causal_7.png"" class=""exp-image"">
                        <div class=""question-area"">
                            <p style=""font-size: 20px; font-weight: bold; margin: 0;"">Is there a person in this image?</p>
                        </div>
                    </div>","0","main_causal_task","7","the_performance_causal","","","",""
"","","","","","html-keyboard-response","68","532802","0.0-68.0","2733436663A849F9BF9B6FE082FF1FFB","019ce688-a8ba-7fee-9dbb-04ecea4aa9a3","019ce643-47c6-74a0-b3d2-7bf5651ded46","","null","
                    <div class=""stimulus-container"">
                        <img src=""images/causal_sequence/the_performance_causal/the_performance_causal_8.png"" class=""exp-image"">
                        <div class=""question-area""></div> 
                    </div>","null","","","","","","",""
"","","","","","html-button-response","69","533518","0.0-69.0","2733436663A849F9BF9B6FE082FF1FFB","019ce688-a8ba-7fee-9dbb-04ecea4aa9a3","019ce643-47c6-74a0-b3d2-7bf5651ded46","","715","
                    <div class=""stimulus-container"">
                        <img src=""images/causal_sequence/the_performance_causal/the_performance_causal_8.png"" class=""exp-image"">
                        <div class=""question-area"">
                            <p style=""font-size: 20px; font-weight: bold; margin: 0;"">Is there a person in this image?</p>
                        </div>
                    </div>","0","main_causal_task","8","the_performance_causal","","","",""
"","","","","","html-keyboard-response","70","538521","0.0-70.0","2733436663A849F9BF9B6FE082FF1FFB","019ce688-a8ba-7fee-9dbb-04ecea4aa9a3","019ce643-47c6-74a0-b3d2-7bf5651ded46","","null","
                    <div class=""stimulus-container"">
                        <img src=""images/causal_sequence/the_performance_causal/the_performance_causal_9.png"" class=""exp-image"">
                        <div class=""question-area""></div> 
                    </div>","null","","","","","","",""
"","","","","","html-button-response","71","539567","0.0-71.0","2733436663A849F9BF9B6FE082FF1FFB","019ce688-a8ba-7fee-9dbb-04ecea4aa9a3","019ce643-47c6-74a0-b3d2-7bf5651ded46","","1046","
                    <div class=""stimulus-container"">
                        <img src=""images/causal_sequence/the_performance_causal/the_performance_causal_9.png"" class=""exp-image"">
                        <div class=""question-area"">
                            <p style=""font-size: 20px; font-weight: bold; margin: 0;"">Is there a person in this image?</p>
                        </div>
                    </div>","0","main_causal_task","9","the_performance_causal","","","",""
"","","","","","html-keyboard-response","72","540571","0.0-72.0","2733436663A849F9BF9B6FE082FF1FFB","019ce688-a8ba-7fee-9dbb-04ecea4aa9a3","019ce643-47c6-74a0-b3d2-7bf5651ded46","","null","<div style=""background-color: gray; width: 100vw; height: 100vh;""></div>","null","","","","","","",""
"","","","","","html-keyboard-response","73","545584","0.0-73.0","2733436663A849F9BF9B6FE082FF1FFB","019ce688-a8ba-7fee-9dbb-04ecea4aa9a3","019ce643-47c6-74a0-b3d2-7bf5651ded46","","null","
                    <div class=""stimulus-container"">
                        <img src=""images/causal_sequence/coin_causal/coin_causal_1.png"" class=""exp-image"">
                        <div class=""question-area""></div> 
                    </div>","null","","","","","","",""
"","","","","","html-button-response","74","546574","0.0-74.0","2733436663A849F9BF9B6FE082FF1FFB","019ce688-a8ba-7fee-9dbb-04ecea4aa9a3","019ce643-47c6-74a0-b3d2-7bf5651ded46","","989","
                    <div class=""stimulus-container"">
                        <img src=""images/causal_sequence/coin_causal/coin_causal_1.png"" class=""exp-image"">
                        <div class=""question-area"">
                            <p style=""font-size: 20px; font-weight: bold; margin: 0;"">Is there a person in this image?</p>
                        </div>
                    </div>","0","main_causal_task","1","coin_causal","","","",""
"","","","","","html-keyboard-response","75","551581","0.0-75.0","2733436663A849F9BF9B6FE082FF1FFB","019ce688-a8ba-7fee-9dbb-04ecea4aa9a3","019ce643-47c6-74a0-b3d2-7bf5651ded46","","null","
                    <div class=""stimulus-container"">
                        <img src=""images/causal_sequence/coin_causal/coin_causal_2.png"" class=""exp-image"">
                        <div class=""question-area""></div> 
                    </div>","null","","","","","","",""
"","","","","","html-button-response","76","552307","0.0-76.0","2733436663A849F9BF9B6FE082FF1FFB","019ce688-a8ba-7fee-9dbb-04ecea4aa9a3","019ce643-47c6-74a0-b3d2-7bf5651ded46","","726","
                    <div class=""stimulus-container"">
                        <img src=""images/causal_sequence/coin_causal/coin_causal_2.png"" class=""exp-image"">
                        <div class=""question-area"">
                            <p style=""font-size: 20px; font-weight: bold; margin: 0;"">Is there a person in this image?</p>
                        </div>
                    </div>","0","main_causal_task","2","coin_causal","","","",""
"","","","","","html-keyboard-response","77","557316","0.0-77.0","2733436663A849F9BF9B6FE082FF1FFB","019ce688-a8ba-7fee-9dbb-04ecea4aa9a3","019ce643-47c6-74a0-b3d2-7bf5651ded46","","null","
                    <div class=""stimulus-container"">
                        <img src=""images/causal_sequence/coin_causal/coin_causal_3.png"" class=""exp-image"">
                        <div class=""question-area""></div> 
                    </div>","null","","","","","","",""
"","","","","","html-button-response","78","559066","0.0-78.0","2733436663A849F9BF9B6FE082FF1FFB","019ce688-a8ba-7fee-9dbb-04ecea4aa9a3","019ce643-47c6-74a0-b3d2-7bf5651ded46","","1749","
                    <div class=""stimulus-container"">
                        <img src=""images/causal_sequence/coin_causal/coin_causal_3.png"" class=""exp-image"">
                        <div class=""question-area"">
                            <p style=""font-size: 20px; font-weight: bold; margin: 0;"">Is there a person in this image?</p>
                        </div>
                    </div>","0","main_causal_task","3","coin_causal","","","",""
"","","","","","html-keyboard-response","79","564079","0.0-79.0","2733436663A849F9BF9B6FE082FF1FFB","019ce688-a8ba-7fee-9dbb-04ecea4aa9a3","019ce643-47c6-74a0-b3d2-7bf5651ded46","","null","
                    <div class=""stimulus-container"">
                        <img src=""images/causal_sequence/coin_causal/coin_causal_4.png"" class=""exp-image"">
                        <div class=""question-area""></div> 
                    </div>","null","","","","","","",""
"","","","","","html-button-response","80","564842","0.0-80.0","2733436663A849F9BF9B6FE082FF1FFB","019ce688-a8ba-7fee-9dbb-04ecea4aa9a3","019ce643-47c6-74a0-b3d2-7bf5651ded46","","763","
                    <div class=""stimulus-container"">
                        <img src=""images/causal_sequence/coin_causal/coin_causal_4.png"" class=""exp-image"">
                        <div class=""question-area"">
                            <p style=""font-size: 20px; font-weight: bold; margin: 0;"">Is there a person in this image?</p>
                        </div>
                    </div>","0","main_causal_task","4","coin_causal","","","",""
"","","","","","html-keyboard-response","81","569846","0.0-81.0","2733436663A849F9BF9B6FE082FF1FFB","019ce688-a8ba-7fee-9dbb-04ecea4aa9a3","019ce643-47c6-74a0-b3d2-7bf5651ded46","","null","
                    <div class=""stimulus-container"">
                        <img src=""images/causal_sequence/coin_causal/coin_causal_5.png"" class=""exp-image"">
                        <div class=""question-area""></div> 
                    </div>","null","","","","","","",""
"","","","","","html-button-response","82","570875","0.0-82.0","2733436663A849F9BF9B6FE082FF1FFB","019ce688-a8ba-7fee-9dbb-04ecea4aa9a3","019ce643-47c6-74a0-b3d2-7bf5651ded46","","1028","
                    <div class=""stimulus-container"">
                        <img src=""images/causal_sequence/coin_causal/coin_causal_5.png"" class=""exp-image"">
                        <div class=""question-area"">
                            <p style=""font-size: 20px; font-weight: bold; margin: 0;"">Is there a person in this image?</p>
                        </div>
                    </div>","0","main_causal_task","5","coin_causal","","","",""
"","","","","","html-keyboard-response","83","575889","0.0-83.0","2733436663A849F9BF9B6FE082FF1FFB","019ce688-a8ba-7fee-9dbb-04ecea4aa9a3","019ce643-47c6-74a0-b3d2-7bf5651ded46","","null","
                    <div class=""stimulus-container"">
                        <img src=""images/causal_sequence/coin_causal/coin_causal_6.png"" class=""exp-image"">
                        <div class=""question-area""></div> 
                    </div>","null","","","","","","",""
"","","","","","html-button-response","84","576776","0.0-84.0","2733436663A849F9BF9B6FE082FF1FFB","019ce688-a8ba-7fee-9dbb-04ecea4aa9a3","019ce643-47c6-74a0-b3d2-7bf5651ded46","","887","
                    <div class=""stimulus-container"">
                        <img src=""images/causal_sequence/coin_causal/coin_causal_6.png"" class=""exp-image"">
                        <div class=""question-area"">
                            <p style=""font-size: 20px; font-weight: bold; margin: 0;"">Is there a person in this image?</p>
                        </div>
                    </div>","0","main_causal_task","6","coin_causal","","","",""
"","","","","","html-keyboard-response","85","581790","0.0-85.0","2733436663A849F9BF9B6FE082FF1FFB","019ce688-a8ba-7fee-9dbb-04ecea4aa9a3","019ce643-47c6-74a0-b3d2-7bf5651ded46","","null","
                    <div class=""stimulus-container"">
                        <img src=""images/causal_sequence/coin_causal/coin_causal_7.png"" class=""exp-image"">
                        <div class=""question-area""></div> 
                    </div>","null","","","","","","",""
"","","","","","html-button-response","86","583477","0.0-86.0","2733436663A849F9BF9B6FE082FF1FFB","019ce688-a8ba-7fee-9dbb-04ecea4aa9a3","019ce643-47c6-74a0-b3d2-7bf5651ded46","","1687","
                    <div class=""stimulus-container"">
                        <img src=""images/causal_sequence/coin_causal/coin_causal_7.png"" class=""exp-image"">
                        <div class=""question-area"">
                            <p style=""font-size: 20px; font-weight: bold; margin: 0;"">Is there a person in this image?</p>
                        </div>
                    </div>","1","main_causal_task","7","coin_causal","","","",""
"","","","","","html-keyboard-response","87","588490","0.0-87.0","2733436663A849F9BF9B6FE082FF1FFB","019ce688-a8ba-7fee-9dbb-04ecea4aa9a3","019ce643-47c6-74a0-b3d2-7bf5651ded46","","null","
                    <div class=""stimulus-container"">
                        <img src=""images/causal_sequence/coin_causal/coin_causal_8.png"" class=""exp-image"">
                        <div class=""question-area""></div> 
                    </div>","null","","","","","","",""
"","","","","","html-button-response","88","591497","0.0-88.0","2733436663A849F9BF9B6FE082FF1FFB","019ce688-a8ba-7fee-9dbb-04ecea4aa9a3","019ce643-47c6-74a0-b3d2-7bf5651ded46","","null","
                    <div class=""stimulus-container"">
                        <img src=""images/causal_sequence/coin_causal/coin_causal_8.png"" class=""exp-image"">
                        <div class=""question-area"">
                            <p style=""font-size: 20px; font-weight: bold; margin: 0;"">Is there a person in this image?</p>
                        </div>
                    </div>","null","main_causal_task","8","coin_causal","","","",""
"","","","","","html-keyboard-response","89","596503","0.0-89.0","2733436663A849F9BF9B6FE082FF1FFB","019ce688-a8ba-7fee-9dbb-04ecea4aa9a3","019ce643-47c6-74a0-b3d2-7bf5651ded46","","null","
                    <div class=""stimulus-container"">
                        <img src=""images/causal_sequence/coin_causal/coin_causal_9.png"" class=""exp-image"">
                        <div class=""question-area""></div> 
                    </div>","null","","","","","","",""
"","","","","","html-button-response","90","599459","0.0-90.0","2733436663A849F9BF9B6FE082FF1FFB","019ce688-a8ba-7fee-9dbb-04ecea4aa9a3","019ce643-47c6-74a0-b3d2-7bf5651ded46","","2955","
                    <div class=""stimulus-container"">
                        <img src=""images/causal_sequence/coin_causal/coin_causal_9.png"" class=""exp-image"">
                        <div class=""question-area"">
                            <p style=""font-size: 20px; font-weight: bold; margin: 0;"">Is there a person in this image?</p>
                        </div>
                    </div>","0","main_causal_task","9","coin_causal","","","",""
"","","","","","html-keyboard-response","91","600474","0.0-91.0","2733436663A849F9BF9B6FE082FF1FFB","019ce688-a8ba-7fee-9dbb-04ecea4aa9a3","019ce643-47c6-74a0-b3d2-7bf5651ded46","","null","<div style=""background-color: gray; width: 100vw; height: 100vh;""></div>","null","","","","","","",""
"","","","","","html-keyboard-response","92","605489","0.0-92.0","2733436663A849F9BF9B6FE082FF1FFB","019ce688-a8ba-7fee-9dbb-04ecea4aa9a3","019ce643-47c6-74a0-b3d2-7bf5651ded46","","null","
                    <div class=""stimulus-container"">
                        <img src=""images/causal_sequence/dog_causal/dog_causal_1.png"" class=""exp-image"">
                        <div class=""question-area""></div> 
                    </div>","null","","","","","","",""
"","","","","","html-button-response","93","606349","0.0-93.0","2733436663A849F9BF9B6FE082FF1FFB","019ce688-a8ba-7fee-9dbb-04ecea4aa9a3","019ce643-47c6-74a0-b3d2-7bf5651ded46","","859","
                    <div class=""stimulus-container"">
                        <img src=""images/causal_sequence/dog_causal/dog_causal_1.png"" class=""exp-image"">
                        <div class=""question-area"">
                            <p style=""font-size: 20px; font-weight: bold; margin: 0;"">Is there a person in this image?</p>
                        </div>
                    </div>","0","main_causal_task","1","dog_causal","","","",""
"","","","","","html-keyboard-response","94","611365","0.0-94.0","2733436663A849F9BF9B6FE082FF1FFB","019ce688-a8ba-7fee-9dbb-04ecea4aa9a3","019ce643-47c6-74a0-b3d2-7bf5651ded46","","null","
                    <div class=""stimulus-container"">
                        <img src=""images/causal_sequence/dog_causal/dog_causal_2.png"" class=""exp-image"">
                        <div class=""question-area""></div> 
                    </div>","null","","","","","","",""
"","","","","","html-button-response","95","612060","0.0-95.0","2733436663A849F9BF9B6FE082FF1FFB","019ce688-a8ba-7fee-9dbb-04ecea4aa9a3","019ce643-47c6-74a0-b3d2-7bf5651ded46","","694","
                    <div class=""stimulus-container"">
                        <img src=""images/causal_sequence/dog_causal/dog_causal_2.png"" class=""exp-image"">
                        <div class=""question-area"">
                            <p style=""font-size: 20px; font-weight: bold; margin: 0;"">Is there a person in this image?</p>
                        </div>
                    </div>","0","main_causal_task","2","dog_causal","","","",""
"","","","","","html-keyboard-response","96","617061","0.0-96.0","2733436663A849F9BF9B6FE082FF1FFB","019ce688-a8ba-7fee-9dbb-04ecea4aa9a3","019ce643-47c6-74a0-b3d2-7bf5651ded46","","null","
                    <div class=""stimulus-container"">
                        <img src=""images/causal_sequence/dog_causal/dog_causal_3.png"" class=""exp-image"">
                        <div class=""question-area""></div> 
                    </div>","null","","","","","","",""
"","","","","","html-button-response","97","617770","0.0-97.0","2733436663A849F9BF9B6FE082FF1FFB","019ce688-a8ba-7fee-9dbb-04ecea4aa9a3","019ce643-47c6-74a0-b3d2-7bf5651ded46","","709","
                    <div class=""stimulus-container"">
                        <img src=""images/causal_sequence/dog_causal/dog_causal_3.png"" class=""exp-image"">
                        <div class=""question-area"">
                            <p style=""font-size: 20px; font-weight: bold; margin: 0;"">Is there a person in this image?</p>
                        </div>
                    </div>","0","main_causal_task","3","dog_causal","","","",""
"","","","","","html-keyboard-response","98","622780","0.0-98.0","2733436663A849F9BF9B6FE082FF1FFB","019ce688-a8ba-7fee-9dbb-04ecea4aa9a3","019ce643-47c6-74a0-b3d2-7bf5651ded46","","null","
                    <div class=""stimulus-container"">
                        <img src=""images/causal_sequence/dog_causal/dog_causal_4.png"" class=""exp-image"">
                        <div class=""question-area""></div> 
                    </div>","null","","","","","","",""
"","","","","","html-button-response","99","623511","0.0-99.0","2733436663A849F9BF9B6FE082FF1FFB","019ce688-a8ba-7fee-9dbb-04ecea4aa9a3","019ce643-47c6-74a0-b3d2-7bf5651ded46","","730","
                    <div class=""stimulus-container"">
                        <img src=""images/causal_sequence/dog_causal/dog_causal_4.png"" class=""exp-image"">
                        <div class=""question-area"">
                            <p style=""font-size: 20px; font-weight: bold; margin: 0;"">Is there a person in this image?</p>
                        </div>
                    </div>","0","main_causal_task","4","dog_causal","","","",""
"","","","","","html-keyboard-response","100","628523","0.0-100.0","2733436663A849F9BF9B6FE082FF1FFB","019ce688-a8ba-7fee-9dbb-04ecea4aa9a3","019ce643-47c6-74a0-b3d2-7bf5651ded46","","null","
                    <div class=""stimulus-container"">
                        <img src=""images/causal_sequence/dog_causal/dog_causal_5.png"" class=""exp-image"">
                        <div class=""question-area""></div> 
                    </div>","null","","","","","","",""
"","","","","","html-button-response","101","628994","0.0-101.0","2733436663A849F9BF9B6FE082FF1FFB","019ce688-a8ba-7fee-9dbb-04ecea4aa9a3","019ce643-47c6-74a0-b3d2-7bf5651ded46","","470","
                    <div class=""stimulus-container"">
                        <img src=""images/causal_sequence/dog_causal/dog_causal_5.png"" class=""exp-image"">
                        <div class=""question-area"">
                            <p style=""font-size: 20px; font-weight: bold; margin: 0;"">Is there a person in this image?</p>
                        </div>
                    </div>","0","main_causal_task","5","dog_causal","","","",""
"","","","","","html-keyboard-response","102","634004","0.0-102.0","2733436663A849F9BF9B6FE082FF1FFB","019ce688-a8ba-7fee-9dbb-04ecea4aa9a3","019ce643-47c6-74a0-b3d2-7bf5651ded46","","null","
                    <div class=""stimulus-container"">
                        <img src=""images/causal_sequence/dog_causal/dog_causal_6.png"" class=""exp-image"">
                        <div class=""question-area""></div> 
                    </div>","null","","","","","","",""
"","","","","","html-button-response","103","635298","0.0-103.0","2733436663A849F9BF9B6FE082FF1FFB","019ce688-a8ba-7fee-9dbb-04ecea4aa9a3","019ce643-47c6-74a0-b3d2-7bf5651ded46","","1293","
                    <div class=""stimulus-container"">
                        <img src=""images/causal_sequence/dog_causal/dog_causal_6.png"" class=""exp-image"">
                        <div class=""question-area"">
                            <p style=""font-size: 20px; font-weight: bold; margin: 0;"">Is there a person in this image?</p>
                        </div>
                    </div>","0","main_causal_task","6","dog_causal","","","",""
"","","","","","html-keyboard-response","104","640300","0.0-104.0","2733436663A849F9BF9B6FE082FF1FFB","019ce688-a8ba-7fee-9dbb-04ecea4aa9a3","019ce643-47c6-74a0-b3d2-7bf5651ded46","","null","
                    <div class=""stimulus-container"">
                        <img src=""images/causal_sequence/dog_causal/dog_causal_7.png"" class=""exp-image"">
                        <div class=""question-area""></div> 
                    </div>","null","","","","","","",""
"","","","","","html-button-response","105","641206","0.0-105.0","2733436663A849F9BF9B6FE082FF1FFB","019ce688-a8ba-7fee-9dbb-04ecea4aa9a3","019ce643-47c6-74a0-b3d2-7bf5651ded46","","905","
                    <div class=""stimulus-container"">
                        <img src=""images/causal_sequence/dog_causal/dog_causal_7.png"" class=""exp-image"">
                        <div class=""question-area"">
                            <p style=""font-size: 20px; font-weight: bold; margin: 0;"">Is there a person in this image?</p>
                        </div>
                    </div>","0","main_causal_task","7","dog_causal","","","",""
"","","","","","html-keyboard-response","106","646212","0.0-106.0","2733436663A849F9BF9B6FE082FF1FFB","019ce688-a8ba-7fee-9dbb-04ecea4aa9a3","019ce643-47c6-74a0-b3d2-7bf5651ded46","","null","
                    <div class=""stimulus-container"">
                        <img src=""images/causal_sequence/dog_causal/dog_causal_8.png"" class=""exp-image"">
                        <div class=""question-area""></div> 
                    </div>","null","","","","","","",""
"","","","","","html-button-response","107","646857","0.0-107.0","2733436663A849F9BF9B6FE082FF1FFB","019ce688-a8ba-7fee-9dbb-04ecea4aa9a3","019ce643-47c6-74a0-b3d2-7bf5651ded46","","644","
                    <div class=""stimulus-container"">
                        <img src=""images/causal_sequence/dog_causal/dog_causal_8.png"" class=""exp-image"">
                        <div class=""question-area"">
                            <p style=""font-size: 20px; font-weight: bold; margin: 0;"">Is there a person in this image?</p>
                        </div>
                    </div>","0","main_causal_task","8","dog_causal","","","",""
"","","","","","html-keyboard-response","108","651865","0.0-108.0","2733436663A849F9BF9B6FE082FF1FFB","019ce688-a8ba-7fee-9dbb-04ecea4aa9a3","019ce643-47c6-74a0-b3d2-7bf5651ded46","","null","
                    <div class=""stimulus-container"">
                        <img src=""images/causal_sequence/dog_causal/dog_causal_9.png"" class=""exp-image"">
                        <div class=""question-area""></div> 
                    </div>","null","","","","","","",""
"","","","","","html-button-response","109","652699","0.0-109.0","2733436663A849F9BF9B6FE082FF1FFB","019ce688-a8ba-7fee-9dbb-04ecea4aa9a3","019ce643-47c6-74a0-b3d2-7bf5651ded46","","834","
                    <div class=""stimulus-container"">
                        <img src=""images/causal_sequence/dog_causal/dog_causal_9.png"" class=""exp-image"">
                        <div class=""question-area"">
                            <p style=""font-size: 20px; font-weight: bold; margin: 0;"">Is there a person in this image?</p>
                        </div>
                    </div>","0","main_causal_task","9","dog_causal","","","",""
"","","","","","html-keyboard-response","110","653708","0.0-110.0","2733436663A849F9BF9B6FE082FF1FFB","019ce688-a8ba-7fee-9dbb-04ecea4aa9a3","019ce643-47c6-74a0-b3d2-7bf5651ded46","","null","<div style=""background-color: gray; width: 100vw; height: 100vh;""></div>","null","","","","","","",""
"","","","","","html-keyboard-response","111","658722","0.0-111.0","2733436663A849F9BF9B6FE082FF1FFB","019ce688-a8ba-7fee-9dbb-04ecea4aa9a3","019ce643-47c6-74a0-b3d2-7bf5651ded46","","null","
                    <div class=""stimulus-container"">
                        <img src=""images/causal_sequence/museum_causal/museum_causal_1.png"" class=""exp-image"">
                        <div class=""question-area""></div> 
                    </div>","null","","","","","","",""
"","","","","","html-button-response","112","659766","0.0-112.0","2733436663A849F9BF9B6FE082FF1FFB","019ce688-a8ba-7fee-9dbb-04ecea4aa9a3","019ce643-47c6-74a0-b3d2-7bf5651ded46","","1044","
                    <div class=""stimulus-container"">
                        <img src=""images/causal_sequence/museum_causal/museum_causal_1.png"" class=""exp-image"">
                        <div class=""question-area"">
                            <p style=""font-size: 20px; font-weight: bold; margin: 0;"">Is there a person in this image?</p>
                        </div>
                    </div>","0","main_causal_task","1","museum_causal","","","",""
"","","","","","html-keyboard-response","113","664783","0.0-113.0","2733436663A849F9BF9B6FE082FF1FFB","019ce688-a8ba-7fee-9dbb-04ecea4aa9a3","019ce643-47c6-74a0-b3d2-7bf5651ded46","","null","
                    <div class=""stimulus-container"">
                        <img src=""images/causal_sequence/museum_causal/museum_causal_2.png"" class=""exp-image"">
                        <div class=""question-area""></div> 
                    </div>","null","","","","","","",""
"","","","","","html-button-response","114","665345","0.0-114.0","2733436663A849F9BF9B6FE082FF1FFB","019ce688-a8ba-7fee-9dbb-04ecea4aa9a3","019ce643-47c6-74a0-b3d2-7bf5651ded46","","561","
                    <div class=""stimulus-container"">
                        <img src=""images/causal_sequence/museum_causal/museum_causal_2.png"" class=""exp-image"">
                        <div class=""question-area"">
                            <p style=""font-size: 20px; font-weight: bold; margin: 0;"">Is there a person in this image?</p>
                        </div>
                    </div>","0","main_causal_task","2","museum_causal","","","",""
"","","","","","html-keyboard-response","115","670359","0.0-115.0","2733436663A849F9BF9B6FE082FF1FFB","019ce688-a8ba-7fee-9dbb-04ecea4aa9a3","019ce643-47c6-74a0-b3d2-7bf5651ded46","","null","
                    <div class=""stimulus-container"">
                        <img src=""images/causal_sequence/museum_causal/museum_causal_3.png"" class=""exp-image"">
                        <div class=""question-area""></div> 
                    </div>","null","","","","","","",""
"","","","","","html-button-response","116","671188","0.0-116.0","2733436663A849F9BF9B6FE082FF1FFB","019ce688-a8ba-7fee-9dbb-04ecea4aa9a3","019ce643-47c6-74a0-b3d2-7bf5651ded46","","828","
                    <div class=""stimulus-container"">
                        <img src=""images/causal_sequence/museum_causal/museum_causal_3.png"" class=""exp-image"">
                        <div class=""question-area"">
                            <p style=""font-size: 20px; font-weight: bold; margin: 0;"">Is there a person in this image?</p>
                        </div>
                    </div>","0","main_causal_task","3","museum_causal","","","",""
"","","","","","html-keyboard-response","117","676193","0.0-117.0","2733436663A849F9BF9B6FE082FF1FFB","019ce688-a8ba-7fee-9dbb-04ecea4aa9a3","019ce643-47c6-74a0-b3d2-7bf5651ded46","","null","
                    <div class=""stimulus-container"">
                        <img src=""images/causal_sequence/museum_causal/museum_causal_4.png"" class=""exp-image"">
                        <div class=""question-area""></div> 
                    </div>","null","","","","","","",""
"","","","","","html-button-response","118","676664","0.0-118.0","2733436663A849F9BF9B6FE082FF1FFB","019ce688-a8ba-7fee-9dbb-04ecea4aa9a3","019ce643-47c6-74a0-b3d2-7bf5651ded46","","471","
                    <div class=""stimulus-container"">
                        <img src=""images/causal_sequence/museum_causal/museum_causal_4.png"" class=""exp-image"">
                        <div class=""question-area"">
                            <p style=""font-size: 20px; font-weight: bold; margin: 0;"">Is there a person in this image?</p>
                        </div>
                    </div>","1","main_causal_task","4","museum_causal","","","",""
"","","","","","html-keyboard-response","119","681680","0.0-119.0","2733436663A849F9BF9B6FE082FF1FFB","019ce688-a8ba-7fee-9dbb-04ecea4aa9a3","019ce643-47c6-74a0-b3d2-7bf5651ded46","","null","
                    <div class=""stimulus-container"">
                        <img src=""images/causal_sequence/museum_causal/museum_causal_5.png"" class=""exp-image"">
                        <div class=""question-area""></div> 
                    </div>","null","","","","","","",""
"","","","","","html-button-response","120","682594","0.0-120.0","2733436663A849F9BF9B6FE082FF1FFB","019ce688-a8ba-7fee-9dbb-04ecea4aa9a3","019ce643-47c6-74a0-b3d2-7bf5651ded46","","914","
                    <div class=""stimulus-container"">
                        <img src=""images/causal_sequence/museum_causal/museum_causal_5.png"" class=""exp-image"">
                        <div class=""question-area"">
                            <p style=""font-size: 20px; font-weight: bold; margin: 0;"">Is there a person in this image?</p>
                        </div>
                    </div>","0","main_causal_task","5","museum_causal","","","",""
"","","","","","html-keyboard-response","121","687603","0.0-121.0","2733436663A849F9BF9B6FE082FF1FFB","019ce688-a8ba-7fee-9dbb-04ecea4aa9a3","019ce643-47c6-74a0-b3d2-7bf5651ded46","","null","
                    <div class=""stimulus-container"">
                        <img src=""images/causal_sequence/museum_causal/museum_causal_6.png"" class=""exp-image"">
                        <div class=""question-area""></div> 
                    </div>","null","","","","","","",""
"","","","","","html-button-response","122","688327","0.0-122.0","2733436663A849F9BF9B6FE082FF1FFB","019ce688-a8ba-7fee-9dbb-04ecea4aa9a3","019ce643-47c6-74a0-b3d2-7bf5651ded46","","723","
                    <div class=""stimulus-container"">
                        <img src=""images/causal_sequence/museum_causal/museum_causal_6.png"" class=""exp-image"">
                        <div class=""question-area"">
                            <p style=""font-size: 20px; font-weight: bold; margin: 0;"">Is there a person in this image?</p>
                        </div>
                    </div>","0","main_causal_task","6","museum_causal","","","",""
"","","","","","html-keyboard-response","123","693330","0.0-123.0","2733436663A849F9BF9B6FE082FF1FFB","019ce688-a8ba-7fee-9dbb-04ecea4aa9a3","019ce643-47c6-74a0-b3d2-7bf5651ded46","","null","
                    <div class=""stimulus-container"">
                        <img src=""images/causal_sequence/museum_causal/museum_causal_7.png"" class=""exp-image"">
                        <div class=""question-area""></div> 
                    </div>","null","","","","","","",""
"","","","","","html-button-response","124","693987","0.0-124.0","2733436663A849F9BF9B6FE082FF1FFB","019ce688-a8ba-7fee-9dbb-04ecea4aa9a3","019ce643-47c6-74a0-b3d2-7bf5651ded46","","656","
                    <div class=""stimulus-container"">
                        <img src=""images/causal_sequence/museum_causal/museum_causal_7.png"" class=""exp-image"">
                        <div class=""question-area"">
                            <p style=""font-size: 20px; font-weight: bold; margin: 0;"">Is there a person in this image?</p>
                        </div>
                    </div>","1","main_causal_task","7","museum_causal","","","",""
"","","","","","html-keyboard-response","125","699002","0.0-125.0","2733436663A849F9BF9B6FE082FF1FFB","019ce688-a8ba-7fee-9dbb-04ecea4aa9a3","019ce643-47c6-74a0-b3d2-7bf5651ded46","","null","
                    <div class=""stimulus-container"">
                        <img src=""images/causal_sequence/museum_causal/museum_causal_8.png"" class=""exp-image"">
                        <div class=""question-area""></div> 
                    </div>","null","","","","","","",""
"","","","","","html-button-response","126","699873","0.0-126.0","2733436663A849F9BF9B6FE082FF1FFB","019ce688-a8ba-7fee-9dbb-04ecea4aa9a3","019ce643-47c6-74a0-b3d2-7bf5651ded46","","870","
                    <div class=""stimulus-container"">
                        <img src=""images/causal_sequence/museum_causal/museum_causal_8.png"" class=""exp-image"">
                        <div class=""question-area"">
                            <p style=""font-size: 20px; font-weight: bold; margin: 0;"">Is there a person in this image?</p>
                        </div>
                    </div>","0","main_causal_task","8","museum_causal","","","",""
"","","","","","html-keyboard-response","127","704881","0.0-127.0","2733436663A849F9BF9B6FE082FF1FFB","019ce688-a8ba-7fee-9dbb-04ecea4aa9a3","019ce643-47c6-74a0-b3d2-7bf5651ded46","","null","
                    <div class=""stimulus-container"">
                        <img src=""images/causal_sequence/museum_causal/museum_causal_9.png"" class=""exp-image"">
                        <div class=""question-area""></div> 
                    </div>","null","","","","","","",""
"","","","","","html-button-response","128","706112","0.0-128.0","2733436663A849F9BF9B6FE082FF1FFB","019ce688-a8ba-7fee-9dbb-04ecea4aa9a3","019ce643-47c6-74a0-b3d2-7bf5651ded46","","1230","
                    <div class=""stimulus-container"">
                        <img src=""images/causal_sequence/museum_causal/museum_causal_9.png"" class=""exp-image"">
                        <div class=""question-area"">
                            <p style=""font-size: 20px; font-weight: bold; margin: 0;"">Is there a person in this image?</p>
                        </div>
                    </div>","1","main_causal_task","9","museum_causal","","","",""
"","","","","","instructions","129","707659","0.0-129.0","2733436663A849F9BF9B6FE082FF1FFB","019ce688-a8ba-7fee-9dbb-04ecea4aa9a3","019ce643-47c6-74a0-b3d2-7bf5651ded46","[{""page_index"":0,""viewing_time"":1547}]","1547","","","","","","","","",""
"","","","","","instructions","130","716206","0.0-130.0","2733436663A849F9BF9B6FE082FF1FFB","019ce688-a8ba-7fee-9dbb-04ecea4aa9a3","019ce643-47c6-74a0-b3d2-7bf5651ded46","[{""page_index"":0,""viewing_time"":8547}]","8547","","","","","","","","",""
"","","","","","html-keyboard-response","131","717220","0.0-131.0","2733436663A849F9BF9B6FE082FF1FFB","019ce688-a8ba-7fee-9dbb-04ecea4aa9a3","019ce643-47c6-74a0-b3d2-7bf5651ded46","","null","
        <div class=""stimulus-container"" style=""display: flex; align-items: center; justify-content: center; gap: 30px;"">
            <img src=""images/instructions/movie_1.png"" class=""exp-image"">
            <div style=""font-size: 40px; font-weight: bold; color: green; border: 5px solid green; padding: 25px; border-radius: 15px; background-color: #f0fff0;"">
                WORTH<br>$1
            </div>
        </div>
        <div class=""question-area""></div>","null","","","","","","",""
"","","","","","html-button-response","132","720223","0.0-132.0","2733436663A849F9BF9B6FE082FF1FFB","019ce688-a8ba-7fee-9dbb-04ecea4aa9a3","019ce643-47c6-74a0-b3d2-7bf5651ded46","","null","
        <div class=""stimulus-container"" style=""display: flex; align-items: center; justify-content: center; gap: 30px;"">
            <img src=""images/instructions/movie_1.png"" class=""exp-image"">
            <div style=""font-size: 40px; font-weight: bold; color: green; border: 5px solid green; padding: 25px; border-radius: 15px; background-color: #f0fff0;"">
                WORTH<br>$1
            </div>
        </div>
        <div class=""question-area"">
            <p style=""font-size: 20px; font-weight: bold; margin: 0;"">Was there a person in this image?</p>
        </div>","null","","","","","","",""
"","","","","","instructions","133","727781","0.0-133.0","2733436663A849F9BF9B6FE082FF1FFB","019ce688-a8ba-7fee-9dbb-04ecea4aa9a3","019ce643-47c6-74a0-b3d2-7bf5651ded46","[{""page_index"":0,""viewing_time"":7558}]","7558","","","","","","","","",""
"","","","","","html-keyboard-response","134","737785","0.0-134.0","2733436663A849F9BF9B6FE082FF1FFB","019ce688-a8ba-7fee-9dbb-04ecea4aa9a3","019ce643-47c6-74a0-b3d2-7bf5651ded46","","null","
            <div class=""stimulus-container"" style=""display: flex; align-items: center; justify-content: center; gap: 30px;"">
                <img src=""images/causal_sequence/museum_causal/museum_causal_4.png"" class=""exp-image"">
                <div style=""font-size: 40px; font-weight: bold; color: green; border: 5px solid green; padding: 25px; border-radius: 15px; background-color: #f0fff0;"">
                    WORTH<br>$1
                </div>
            </div>
            <div class=""question-area""></div>","null","","","","","","",""
"","","","","","html-button-response","135","738844","0.0-135.0","2733436663A849F9BF9B6FE082FF1FFB","019ce688-a8ba-7fee-9dbb-04ecea4aa9a3","019ce643-47c6-74a0-b3d2-7bf5651ded46","","1058","
            <div class=""stimulus-container"" style=""display: flex; align-items: center; justify-content: center; gap: 30px;"">
                <img src=""images/causal_sequence/museum_causal/museum_causal_4.png"" class=""exp-image"">
                <div style=""font-size: 40px; font-weight: bold; color: green; border: 5px solid green; padding: 25px; border-radius: 15px; background-color: #f0fff0;"">
                    WORTH<br>$1
                </div>
            </div>
            <div class=""question-area"">
                <p style=""font-size: 20px; font-weight: bold; margin: 0;"">Was there a person in this image?</p>
            </div>","1","part2_value_learning","","museum_causal","4","","",""
"","","","","","html-keyboard-response","136","748850","0.0-136.0","2733436663A849F9BF9B6FE082FF1FFB","019ce688-a8ba-7fee-9dbb-04ecea4aa9a3","019ce643-47c6-74a0-b3d2-7bf5651ded46","","null","
            <div class=""stimulus-container"" style=""display: flex; align-items: center; justify-content: center; gap: 30px;"">
                <img src=""images/causal_sequence/saving_a_cat_causal/saving_a_cat_causal_5.png"" class=""exp-image"">
                <div style=""font-size: 40px; font-weight: bold; color: green; border: 5px solid green; padding: 25px; border-radius: 15px; background-color: #f0fff0;"">
                    WORTH<br>$1
                </div>
            </div>
            <div class=""question-area""></div>","null","","","","","","",""
"","","","","","html-button-response","137","751167","0.0-137.0","2733436663A849F9BF9B6FE082FF1FFB","019ce688-a8ba-7fee-9dbb-04ecea4aa9a3","019ce643-47c6-74a0-b3d2-7bf5651ded46","","2316","
            <div class=""stimulus-container"" style=""display: flex; align-items: center; justify-content: center; gap: 30px;"">
                <img src=""images/causal_sequence/saving_a_cat_causal/saving_a_cat_causal_5.png"" class=""exp-image"">
                <div style=""font-size: 40px; font-weight: bold; color: green; border: 5px solid green; padding: 25px; border-radius: 15px; background-color: #f0fff0;"">
                    WORTH<br>$1
                </div>
            </div>
            <div class=""question-area"">
                <p style=""font-size: 20px; font-weight: bold; margin: 0;"">Was there a person in this image?</p>
            </div>","0","part2_value_learning","","saving_a_cat_causal","5","","",""
"","","","","","html-keyboard-response","138","761175","0.0-138.0","2733436663A849F9BF9B6FE082FF1FFB","019ce688-a8ba-7fee-9dbb-04ecea4aa9a3","019ce643-47c6-74a0-b3d2-7bf5651ded46","","null","
            <div class=""stimulus-container"" style=""display: flex; align-items: center; justify-content: center; gap: 30px;"">
                <img src=""images/causal_sequence/package_causal/package_causal_4.png"" class=""exp-image"">
                <div style=""font-size: 40px; font-weight: bold; color: green; border: 5px solid green; padding: 25px; border-radius: 15px; background-color: #f0fff0;"">
                    WORTH<br>$1
                </div>
            </div>
            <div class=""question-area""></div>","null","","","","","","",""
"","","","","","html-button-response","139","762412","0.0-139.0","2733436663A849F9BF9B6FE082FF1FFB","019ce688-a8ba-7fee-9dbb-04ecea4aa9a3","019ce643-47c6-74a0-b3d2-7bf5651ded46","","1236","
            <div class=""stimulus-container"" style=""display: flex; align-items: center; justify-content: center; gap: 30px;"">
                <img src=""images/causal_sequence/package_causal/package_causal_4.png"" class=""exp-image"">
                <div style=""font-size: 40px; font-weight: bold; color: green; border: 5px solid green; padding: 25px; border-radius: 15px; background-color: #f0fff0;"">
                    WORTH<br>$1
                </div>
            </div>
            <div class=""question-area"">
                <p style=""font-size: 20px; font-weight: bold; margin: 0;"">Was there a person in this image?</p>
            </div>","1","part2_value_learning","","package_causal","4","","",""
"","","","","","html-keyboard-response","140","772415","0.0-140.0","2733436663A849F9BF9B6FE082FF1FFB","019ce688-a8ba-7fee-9dbb-04ecea4aa9a3","019ce643-47c6-74a0-b3d2-7bf5651ded46","","null","
            <div class=""stimulus-container"" style=""display: flex; align-items: center; justify-content: center; gap: 30px;"">
                <img src=""images/causal_sequence/dog_causal/dog_causal_6.png"" class=""exp-image"">
                <div style=""font-size: 40px; font-weight: bold; color: green; border: 5px solid green; padding: 25px; border-radius: 15px; background-color: #f0fff0;"">
                    WORTH<br>$1
                </div>
            </div>
            <div class=""question-area""></div>","null","","","","","","",""
"","","","","","html-button-response","141","773453","0.0-141.0","2733436663A849F9BF9B6FE082FF1FFB","019ce688-a8ba-7fee-9dbb-04ecea4aa9a3","019ce643-47c6-74a0-b3d2-7bf5651ded46","","1037","
            <div class=""stimulus-container"" style=""display: flex; align-items: center; justify-content: center; gap: 30px;"">
                <img src=""images/causal_sequence/dog_causal/dog_causal_6.png"" class=""exp-image"">
                <div style=""font-size: 40px; font-weight: bold; color: green; border: 5px solid green; padding: 25px; border-radius: 15px; background-color: #f0fff0;"">
                    WORTH<br>$1
                </div>
            </div>
            <div class=""question-area"">
                <p style=""font-size: 20px; font-weight: bold; margin: 0;"">Was there a person in this image?</p>
            </div>","0","part2_value_learning","","dog_causal","6","","",""
"","","","","","html-keyboard-response","142","783458","0.0-142.0","2733436663A849F9BF9B6FE082FF1FFB","019ce688-a8ba-7fee-9dbb-04ecea4aa9a3","019ce643-47c6-74a0-b3d2-7bf5651ded46","","null","
            <div class=""stimulus-container"" style=""display: flex; align-items: center; justify-content: center; gap: 30px;"">
                <img src=""images/causal_sequence/the_performance_causal/the_performance_causal_7.png"" class=""exp-image"">
                <div style=""font-size: 40px; font-weight: bold; color: green; border: 5px solid green; padding: 25px; border-radius: 15px; background-color: #f0fff0;"">
                    WORTH<br>$1
                </div>
            </div>
            <div class=""question-area""></div>","null","","","","","","",""
"","","","","","html-button-response","143","784462","0.0-143.0","2733436663A849F9BF9B6FE082FF1FFB","019ce688-a8ba-7fee-9dbb-04ecea4aa9a3","019ce643-47c6-74a0-b3d2-7bf5651ded46","","1003","
            <div class=""stimulus-container"" style=""display: flex; align-items: center; justify-content: center; gap: 30px;"">
                <img src=""images/causal_sequence/the_performance_causal/the_performance_causal_7.png"" class=""exp-image"">
                <div style=""font-size: 40px; font-weight: bold; color: green; border: 5px solid green; padding: 25px; border-radius: 15px; background-color: #f0fff0;"">
                    WORTH<br>$1
                </div>
            </div>
            <div class=""question-area"">
                <p style=""font-size: 20px; font-weight: bold; margin: 0;"">Was there a person in this image?</p>
            </div>","0","part2_value_learning","","the_performance_causal","7","","",""
"","","","","","html-keyboard-response","144","794478","0.0-144.0","2733436663A849F9BF9B6FE082FF1FFB","019ce688-a8ba-7fee-9dbb-04ecea4aa9a3","019ce643-47c6-74a0-b3d2-7bf5651ded46","","null","
            <div class=""stimulus-container"" style=""display: flex; align-items: center; justify-content: center; gap: 30px;"">
                <img src=""images/causal_sequence/coin_causal/coin_causal_4.png"" class=""exp-image"">
                <div style=""font-size: 40px; font-weight: bold; color: green; border: 5px solid green; padding: 25px; border-radius: 15px; background-color: #f0fff0;"">
                    WORTH<br>$1
                </div>
            </div>
            <div class=""question-area""></div>","null","","","","","","",""
"","","","","","html-button-response","145","795672","0.0-145.0","2733436663A849F9BF9B6FE082FF1FFB","019ce688-a8ba-7fee-9dbb-04ecea4aa9a3","019ce643-47c6-74a0-b3d2-7bf5651ded46","","1193","
            <div class=""stimulus-container"" style=""display: flex; align-items: center; justify-content: center; gap: 30px;"">
                <img src=""images/causal_sequence/coin_causal/coin_causal_4.png"" class=""exp-image"">
                <div style=""font-size: 40px; font-weight: bold; color: green; border: 5px solid green; padding: 25px; border-radius: 15px; background-color: #f0fff0;"">
                    WORTH<br>$1
                </div>
            </div>
            <div class=""question-area"">
                <p style=""font-size: 20px; font-weight: bold; margin: 0;"">Was there a person in this image?</p>
            </div>","0","part2_value_learning","","coin_causal","4","","",""
"","","","","","instructions","146","796939","0.0-146.0","2733436663A849F9BF9B6FE082FF1FFB","019ce688-a8ba-7fee-9dbb-04ecea4aa9a3","019ce643-47c6-74a0-b3d2-7bf5651ded46","[{""page_index"":0,""viewing_time"":1267}]","1267","","","","","","","","",""
"","","","","","instructions","147","798720","0.0-147.0","2733436663A849F9BF9B6FE082FF1FFB","019ce688-a8ba-7fee-9dbb-04ecea4aa9a3","019ce643-47c6-74a0-b3d2-7bf5651ded46","[{""page_index"":0,""viewing_time"":1780}]","1780","","","","","","","","",""
"","","","","","html-keyboard-response","148","808724","0.0-148.0-0.0","2733436663A849F9BF9B6FE082FF1FFB","019ce688-a8ba-7fee-9dbb-04ecea4aa9a3","019ce643-47c6-74a0-b3d2-7bf5651ded46","","null","
                        <div style=""font-family: Arial; margin-bottom: 20px;""><h3>Which image is more valuable?</h3></div>
                        <div class=""stimulus-container"" style=""display: flex; width: 1100px; justify-content: center; gap: 50px;"">
                            <img src=""images/causal_sequence/museum_causal/museum_causal_5.png"" class=""exp-image"">
                            <img src=""images/causal_sequence/museum_causal/museum_causal_3.png"" class=""exp-image"">
                        </div>","null","","","","","","",""
"","","","","","html-button-response","149","810127","0.0-148.0-1.0","2733436663A849F9BF9B6FE082FF1FFB","019ce688-a8ba-7fee-9dbb-04ecea4aa9a3","019ce643-47c6-74a0-b3d2-7bf5651ded46","","1402","
                        <div style=""font-family: Arial; margin-bottom: 20px;""><h3>Which image is more valuable?</h3></div>
                        <div class=""stimulus-container"" style=""display: flex; width: 1100px; justify-content: center; gap: 50px;"">
                            <img src=""images/causal_sequence/museum_causal/museum_causal_5.png"" class=""exp-image"">
                            <img src=""images/causal_sequence/museum_causal/museum_causal_3.png"" class=""exp-image"">
                        </div>","1","part3_final_choice","","museum_causal","","4","3","-1"
"","","","","","html-keyboard-response","150","820139","0.0-149.0-0.0","2733436663A849F9BF9B6FE082FF1FFB","019ce688-a8ba-7fee-9dbb-04ecea4aa9a3","019ce643-47c6-74a0-b3d2-7bf5651ded46","","null","
                        <div style=""font-family: Arial; margin-bottom: 20px;""><h3>Which image is more valuable?</h3></div>
                        <div class=""stimulus-container"" style=""display: flex; width: 1100px; justify-content: center; gap: 50px;"">
                            <img src=""images/causal_sequence/coin_causal/coin_causal_5.png"" class=""exp-image"">
                            <img src=""images/causal_sequence/coin_causal/coin_causal_3.png"" class=""exp-image"">
                        </div>","null","","","","","","",""
"","","","","","html-button-response","151","821299","0.0-149.0-1.0","2733436663A849F9BF9B6FE082FF1FFB","019ce688-a8ba-7fee-9dbb-04ecea4aa9a3","019ce643-47c6-74a0-b3d2-7bf5651ded46","","1159","
                        <div style=""font-family: Arial; margin-bottom: 20px;""><h3>Which image is more valuable?</h3></div>
                        <div class=""stimulus-container"" style=""display: flex; width: 1100px; justify-content: center; gap: 50px;"">
                            <img src=""images/causal_sequence/coin_causal/coin_causal_5.png"" class=""exp-image"">
                            <img src=""images/causal_sequence/coin_causal/coin_causal_3.png"" class=""exp-image"">
                        </div>","0","part3_final_choice","","coin_causal","","4","5","1"
"","","","","","html-keyboard-response","152","831312","0.0-150.0-0.0","2733436663A849F9BF9B6FE082FF1FFB","019ce688-a8ba-7fee-9dbb-04ecea4aa9a3","019ce643-47c6-74a0-b3d2-7bf5651ded46","","null","
                        <div style=""font-family: Arial; margin-bottom: 20px;""><h3>Which image is more valuable?</h3></div>
                        <div class=""stimulus-container"" style=""display: flex; width: 1100px; justify-content: center; gap: 50px;"">
                            <img src=""images/causal_sequence/dog_causal/dog_causal_5.png"" class=""exp-image"">
                            <img src=""images/causal_sequence/dog_causal/dog_causal_7.png"" class=""exp-image"">
                        </div>","null","","","","","","",""
"","","","","","html-button-response","153","832361","0.0-150.0-1.0","2733436663A849F9BF9B6FE082FF1FFB","019ce688-a8ba-7fee-9dbb-04ecea4aa9a3","019ce643-47c6-74a0-b3d2-7bf5651ded46","","1048","
                        <div style=""font-family: Arial; margin-bottom: 20px;""><h3>Which image is more valuable?</h3></div>
                        <div class=""stimulus-container"" style=""display: flex; width: 1100px; justify-content: center; gap: 50px;"">
                            <img src=""images/causal_sequence/dog_causal/dog_causal_5.png"" class=""exp-image"">
                            <img src=""images/causal_sequence/dog_causal/dog_causal_7.png"" class=""exp-image"">
                        </div>","1","part3_final_choice","","dog_causal","","6","7","1"
"","","","","","html-keyboard-response","154","842365","0.0-151.0-0.0","2733436663A849F9BF9B6FE082FF1FFB","019ce688-a8ba-7fee-9dbb-04ecea4aa9a3","019ce643-47c6-74a0-b3d2-7bf5651ded46","","null","
                        <div style=""font-family: Arial; margin-bottom: 20px;""><h3>Which image is more valuable?</h3></div>
                        <div class=""stimulus-container"" style=""display: flex; width: 1100px; justify-content: center; gap: 50px;"">
                            <img src=""images/causal_sequence/package_causal/package_causal_3.png"" class=""exp-image"">
                            <img src=""images/causal_sequence/package_causal/package_causal_5.png"" class=""exp-image"">
                        </div>","null","","","","","","",""
"","","","","","html-button-response","155","843285","0.0-151.0-1.0","2733436663A849F9BF9B6FE082FF1FFB","019ce688-a8ba-7fee-9dbb-04ecea4aa9a3","019ce643-47c6-74a0-b3d2-7bf5651ded46","","919","
                        <div style=""font-family: Arial; margin-bottom: 20px;""><h3>Which image is more valuable?</h3></div>
                        <div class=""stimulus-container"" style=""display: flex; width: 1100px; justify-content: center; gap: 50px;"">
                            <img src=""images/causal_sequence/package_causal/package_causal_3.png"" class=""exp-image"">
                            <img src=""images/causal_sequence/package_causal/package_causal_5.png"" class=""exp-image"">
                        </div>","1","part3_final_choice","","package_causal","","4","5","1"
"","","","","","html-keyboard-response","156","853296","0.0-152.0-0.0","2733436663A849F9BF9B6FE082FF1FFB","019ce688-a8ba-7fee-9dbb-04ecea4aa9a3","019ce643-47c6-74a0-b3d2-7bf5651ded46","","null","
                        <div style=""font-family: Arial; margin-bottom: 20px;""><h3>Which image is more valuable?</h3></div>
                        <div class=""stimulus-container"" style=""display: flex; width: 1100px; justify-content: center; gap: 50px;"">
                            <img src=""images/causal_sequence/the_performance_causal/the_performance_causal_6.png"" class=""exp-image"">
                            <img src=""images/causal_sequence/the_performance_causal/the_performance_causal_8.png"" class=""exp-image"">
                        </div>","null","","","","","","",""
"","","","","","html-button-response","157","855153","0.0-152.0-1.0","2733436663A849F9BF9B6FE082FF1FFB","019ce688-a8ba-7fee-9dbb-04ecea4aa9a3","019ce643-47c6-74a0-b3d2-7bf5651ded46","","1857","
                        <div style=""font-family: Arial; margin-bottom: 20px;""><h3>Which image is more valuable?</h3></div>
                        <div class=""stimulus-container"" style=""display: flex; width: 1100px; justify-content: center; gap: 50px;"">
                            <img src=""images/causal_sequence/the_performance_causal/the_performance_causal_6.png"" class=""exp-image"">
                            <img src=""images/causal_sequence/the_performance_causal/the_performance_causal_8.png"" class=""exp-image"">
                        </div>","0","part3_final_choice","","the_performance_causal","","7","6","-1"
"","","","","","html-keyboard-response","158","865169","0.0-153.0-0.0","2733436663A849F9BF9B6FE082FF1FFB","019ce688-a8ba-7fee-9dbb-04ecea4aa9a3","019ce643-47c6-74a0-b3d2-7bf5651ded46","","null","
                        <div style=""font-family: Arial; margin-bottom: 20px;""><h3>Which image is more valuable?</h3></div>
                        <div class=""stimulus-container"" style=""display: flex; width: 1100px; justify-content: center; gap: 50px;"">
                            <img src=""images/causal_sequence/saving_a_cat_causal/saving_a_cat_causal_6.png"" class=""exp-image"">
                            <img src=""images/causal_sequence/saving_a_cat_causal/saving_a_cat_causal_4.png"" class=""exp-image"">
                        </div>","null","","","","","","",""
"","","","","","html-button-response","159","865967","0.0-153.0-1.0","2733436663A849F9BF9B6FE082FF1FFB","019ce688-a8ba-7fee-9dbb-04ecea4aa9a3","019ce643-47c6-74a0-b3d2-7bf5651ded46","","797","
                        <div style=""font-family: Arial; margin-bottom: 20px;""><h3>Which image is more valuable?</h3></div>
                        <div class=""stimulus-container"" style=""display: flex; width: 1100px; justify-content: center; gap: 50px;"">
                            <img src=""images/causal_sequence/saving_a_cat_causal/saving_a_cat_causal_6.png"" class=""exp-image"">
                            <img src=""images/causal_sequence/saving_a_cat_causal/saving_a_cat_causal_4.png"" class=""exp-image"">
                        </div>","0","part3_final_choice","","saving_a_cat_causal","","5","6","1"
"","","","","","survey-text","160","901185","0.0-154.0","2733436663A849F9BF9B6FE082FF1FFB","019ce688-a8ba-7fee-9dbb-04ecea4aa9a3","019ce643-47c6-74a0-b3d2-7bf5651ded46","","35214","","{""gender"":""FEMALE"",""age"":""29"",""decision_strategy"":""instinctual"",""consistency_check"":""same logic/instincts""}","demographics_and_strategy","","","","","",""
"","","","","","instructions","161","903810","0.0-155.0","2733436663A849F9BF9B6FE082FF1FFB","019ce688-a8ba-7fee-9dbb-04ecea4aa9a3","019ce643-47c6-74a0-b3d2-7bf5651ded46","[{""page_index"":0,""viewing_time"":2625}]","2625","","","","","","","","",""
