"success","timeout","failed_images","failed_audio","failed_video","trial_type","trial_index","time_elapsed","internal_node_id","subject_id","study_id","session_id","view_history","rt","stimulus","response","task","image_index","folder","sequence_type","presentation_order","valuable_image_index","reward_type","correct_choice","distance_from_x","target_X","chosen_image_index","is_x_plus_dist"
"true","false","[]","[]","[]","preload","0","8785","0.0-0.0","D788729468F54B408DB3C24A1A54190A","019d6bab-7995-7a24-9dd5-f5e7f293eeae","019d6b6d-d11f-7233-9b95-7a424dbf389f","","","","","","","","","","","","","","","",""
"","","","","","instructions","1","12060","0.0-1.0","D788729468F54B408DB3C24A1A54190A","019d6bab-7995-7a24-9dd5-f5e7f293eeae","019d6b6d-d11f-7233-9b95-7a424dbf389f","[{""page_index"":0,""viewing_time"":3274}]","3275","","","","","","","","","","","","","",""
"","","","","","instructions","2","16300","0.0-2.0","D788729468F54B408DB3C24A1A54190A","019d6bab-7995-7a24-9dd5-f5e7f293eeae","019d6b6d-d11f-7233-9b95-7a424dbf389f","[{""page_index"":0,""viewing_time"":4238}]","4238","","","","","","","","","","","","","",""
"true","","","","","fullscreen","3","18567","0.0-3.0","D788729468F54B408DB3C24A1A54190A","019d6bab-7995-7a24-9dd5-f5e7f293eeae","019d6b6d-d11f-7233-9b95-7a424dbf389f","","1258","","","","","","","","","","","","","",""
"","","","","","instructions","4","28902","0.0-4.0","D788729468F54B408DB3C24A1A54190A","019d6bab-7995-7a24-9dd5-f5e7f293eeae","019d6b6d-d11f-7233-9b95-7a424dbf389f","[{""page_index"":0,""viewing_time"":10335}]","10335","","","","","","","","","","","","","",""
"","","","","","instructions","5","72470","0.0-5.0","D788729468F54B408DB3C24A1A54190A","019d6bab-7995-7a24-9dd5-f5e7f293eeae","019d6b6d-d11f-7233-9b95-7a424dbf389f","[{""page_index"":0,""viewing_time"":43567}]","43568","","","","","","","","","","","","","",""
"","","","","","html-keyboard-response","6","76473","0.0-6.0","D788729468F54B408DB3C24A1A54190A","019d6bab-7995-7a24-9dd5-f5e7f293eeae","019d6b6d-d11f-7233-9b95-7a424dbf389f","","null","
            <div class=""stimulus-container"">
                <img src=""images/instructions/movie_1.png"" class=""exp-image"">
                <div class=""question-area""></div> 
            </div>","null","","","","","","","","","","","",""
"","","","","","html-button-response","7","79478","0.0-7.0","D788729468F54B408DB3C24A1A54190A","019d6bab-7995-7a24-9dd5-f5e7f293eeae","019d6b6d-d11f-7233-9b95-7a424dbf389f","","null","
            <div class=""stimulus-container"">
                <img src=""images/instructions/movie_1.png"" class=""exp-image"">
                <div class=""question-area"">
                    <p style=""font-size: 20px; font-weight: bold; margin: 0;"">Was there a person in this image?</p>
                </div>
            </div>","null","example_question","1","","","","","","","","","",""
"","","","","","html-keyboard-response","8","83479","0.0-8.0","D788729468F54B408DB3C24A1A54190A","019d6bab-7995-7a24-9dd5-f5e7f293eeae","019d6b6d-d11f-7233-9b95-7a424dbf389f","","null","
            <div class=""stimulus-container"">
                <img src=""images/instructions/movie_2.png"" class=""exp-image"">
                <div class=""question-area""></div> 
            </div>","null","","","","","","","","","","","",""
"","","","","","html-button-response","9","84552","0.0-9.0","D788729468F54B408DB3C24A1A54190A","019d6bab-7995-7a24-9dd5-f5e7f293eeae","019d6b6d-d11f-7233-9b95-7a424dbf389f","","1071","
            <div class=""stimulus-container"">
                <img src=""images/instructions/movie_2.png"" class=""exp-image"">
                <div class=""question-area"">
                    <p style=""font-size: 20px; font-weight: bold; margin: 0;"">Was there a person in this image?</p>
                </div>
            </div>","0","example_question","2","","","","","","","","","",""
"","","","","","html-keyboard-response","10","88556","0.0-10.0","D788729468F54B408DB3C24A1A54190A","019d6bab-7995-7a24-9dd5-f5e7f293eeae","019d6b6d-d11f-7233-9b95-7a424dbf389f","","null","
            <div class=""stimulus-container"">
                <img src=""images/instructions/movie_3.png"" class=""exp-image"">
                <div class=""question-area""></div> 
            </div>","null","","","","","","","","","","","",""
"","","","","","html-button-response","11","89736","0.0-11.0","D788729468F54B408DB3C24A1A54190A","019d6bab-7995-7a24-9dd5-f5e7f293eeae","019d6b6d-d11f-7233-9b95-7a424dbf389f","","1178","
            <div class=""stimulus-container"">
                <img src=""images/instructions/movie_3.png"" class=""exp-image"">
                <div class=""question-area"">
                    <p style=""font-size: 20px; font-weight: bold; margin: 0;"">Was there a person in this image?</p>
                </div>
            </div>","0","example_question","3","","","","","","","","","",""
"","","","","","html-keyboard-response","12","93740","0.0-12.0","D788729468F54B408DB3C24A1A54190A","019d6bab-7995-7a24-9dd5-f5e7f293eeae","019d6b6d-d11f-7233-9b95-7a424dbf389f","","null","
            <div class=""stimulus-container"">
                <img src=""images/instructions/movie_4.png"" class=""exp-image"">
                <div class=""question-area""></div> 
            </div>","null","","","","","","","","","","","",""
"","","","","","html-button-response","13","94678","0.0-13.0","D788729468F54B408DB3C24A1A54190A","019d6bab-7995-7a24-9dd5-f5e7f293eeae","019d6b6d-d11f-7233-9b95-7a424dbf389f","","937","
            <div class=""stimulus-container"">
                <img src=""images/instructions/movie_4.png"" class=""exp-image"">
                <div class=""question-area"">
                    <p style=""font-size: 20px; font-weight: bold; margin: 0;"">Was there a person in this image?</p>
                </div>
            </div>","0","example_question","4","","","","","","","","","",""
"","","","","","instructions","14","128930","0.0-14.0","D788729468F54B408DB3C24A1A54190A","019d6bab-7995-7a24-9dd5-f5e7f293eeae","019d6b6d-d11f-7233-9b95-7a424dbf389f","[{""page_index"":0,""viewing_time"":34251}]","34251","","","","","","","","","","","","","",""
"","","","","","instructions","15","247255","0.0-15.0","D788729468F54B408DB3C24A1A54190A","019d6bab-7995-7a24-9dd5-f5e7f293eeae","019d6b6d-d11f-7233-9b95-7a424dbf389f","[{""page_index"":0,""viewing_time"":118325}]","118325","","","","","","","","","","","","","",""
"","","","","","html-keyboard-response","16","252267","0.0-16.0","D788729468F54B408DB3C24A1A54190A","019d6bab-7995-7a24-9dd5-f5e7f293eeae","019d6b6d-d11f-7233-9b95-7a424dbf389f","","null","<div style=""background-color: white; width: 100vw; height: 100vh;""></div>","null","","","","","","","","","","","",""
"","","","","","html-keyboard-response","17","257277","0.0-17.0","D788729468F54B408DB3C24A1A54190A","019d6bab-7995-7a24-9dd5-f5e7f293eeae","019d6b6d-d11f-7233-9b95-7a424dbf389f","","null","
                <div class=""stimulus-container"">
                    <img src=""images/causal_sequence/museum_causal/museum_causal_1.png"" class=""exp-image"">
                    <div class=""question-area""></div> 
                </div>","null","","","","","","","","","","","",""
"","","","","","html-button-response","18","258315","0.0-18.0","D788729468F54B408DB3C24A1A54190A","019d6bab-7995-7a24-9dd5-f5e7f293eeae","019d6b6d-d11f-7233-9b95-7a424dbf389f","","1037","
                <div class=""stimulus-container"">
                    <img src=""images/causal_sequence/museum_causal/museum_causal_1.png"" class=""exp-image"">
                    <div class=""question-area"">
                        <p style=""font-size: 20px; font-weight: bold; margin: 0;"">Is there a person in this image?</p>
                    </div>
                </div>","0","main_experiment_trial","1","museum_causal","causal_sequence","chronological","","","","","","",""
"","","","","","html-keyboard-response","19","263322","0.0-19.0","D788729468F54B408DB3C24A1A54190A","019d6bab-7995-7a24-9dd5-f5e7f293eeae","019d6b6d-d11f-7233-9b95-7a424dbf389f","","null","
                <div class=""stimulus-container"">
                    <img src=""images/causal_sequence/museum_causal/museum_causal_2.png"" class=""exp-image"">
                    <div class=""question-area""></div> 
                </div>","null","","","","","","","","","","","",""
"","","","","","html-button-response","20","264414","0.0-20.0","D788729468F54B408DB3C24A1A54190A","019d6bab-7995-7a24-9dd5-f5e7f293eeae","019d6b6d-d11f-7233-9b95-7a424dbf389f","","1092","
                <div class=""stimulus-container"">
                    <img src=""images/causal_sequence/museum_causal/museum_causal_2.png"" class=""exp-image"">
                    <div class=""question-area"">
                        <p style=""font-size: 20px; font-weight: bold; margin: 0;"">Is there a person in this image?</p>
                    </div>
                </div>","1","main_experiment_trial","2","museum_causal","causal_sequence","chronological","","","","","","",""
"","","","","","html-keyboard-response","21","269427","0.0-21.0","D788729468F54B408DB3C24A1A54190A","019d6bab-7995-7a24-9dd5-f5e7f293eeae","019d6b6d-d11f-7233-9b95-7a424dbf389f","","null","
                <div class=""stimulus-container"">
                    <img src=""images/causal_sequence/museum_causal/museum_causal_3.png"" class=""exp-image"">
                    <div class=""question-area""></div> 
                </div>","null","","","","","","","","","","","",""
"","","","","","html-button-response","22","271588","0.0-22.0","D788729468F54B408DB3C24A1A54190A","019d6bab-7995-7a24-9dd5-f5e7f293eeae","019d6b6d-d11f-7233-9b95-7a424dbf389f","","2161","
                <div class=""stimulus-container"">
                    <img src=""images/causal_sequence/museum_causal/museum_causal_3.png"" class=""exp-image"">
                    <div class=""question-area"">
                        <p style=""font-size: 20px; font-weight: bold; margin: 0;"">Is there a person in this image?</p>
                    </div>
                </div>","0","main_experiment_trial","3","museum_causal","causal_sequence","chronological","","","","","","",""
"","","","","","html-keyboard-response","23","276602","0.0-23.0","D788729468F54B408DB3C24A1A54190A","019d6bab-7995-7a24-9dd5-f5e7f293eeae","019d6b6d-d11f-7233-9b95-7a424dbf389f","","null","
                <div class=""stimulus-container"">
                    <img src=""images/causal_sequence/museum_causal/museum_causal_4.png"" class=""exp-image"">
                    <div class=""question-area""></div> 
                </div>","null","","","","","","","","","","","",""
"","","","","","html-button-response","24","277898","0.0-24.0","D788729468F54B408DB3C24A1A54190A","019d6bab-7995-7a24-9dd5-f5e7f293eeae","019d6b6d-d11f-7233-9b95-7a424dbf389f","","1295","
                <div class=""stimulus-container"">
                    <img src=""images/causal_sequence/museum_causal/museum_causal_4.png"" class=""exp-image"">
                    <div class=""question-area"">
                        <p style=""font-size: 20px; font-weight: bold; margin: 0;"">Is there a person in this image?</p>
                    </div>
                </div>","1","main_experiment_trial","4","museum_causal","causal_sequence","chronological","","","","","","",""
"","","","","","html-keyboard-response","25","282903","0.0-25.0","D788729468F54B408DB3C24A1A54190A","019d6bab-7995-7a24-9dd5-f5e7f293eeae","019d6b6d-d11f-7233-9b95-7a424dbf389f","","null","
                <div class=""stimulus-container"">
                    <img src=""images/causal_sequence/museum_causal/museum_causal_5.png"" class=""exp-image"">
                    <div class=""question-area""></div> 
                </div>","null","","","","","","","","","","","",""
"","","","","","html-button-response","26","284443","0.0-26.0","D788729468F54B408DB3C24A1A54190A","019d6bab-7995-7a24-9dd5-f5e7f293eeae","019d6b6d-d11f-7233-9b95-7a424dbf389f","","1539","
                <div class=""stimulus-container"">
                    <img src=""images/causal_sequence/museum_causal/museum_causal_5.png"" class=""exp-image"">
                    <div class=""question-area"">
                        <p style=""font-size: 20px; font-weight: bold; margin: 0;"">Is there a person in this image?</p>
                    </div>
                </div>","0","main_experiment_trial","5","museum_causal","causal_sequence","chronological","","","","","","",""
"","","","","","html-keyboard-response","27","289454","0.0-27.0","D788729468F54B408DB3C24A1A54190A","019d6bab-7995-7a24-9dd5-f5e7f293eeae","019d6b6d-d11f-7233-9b95-7a424dbf389f","","null","
                <div class=""stimulus-container"">
                    <img src=""images/causal_sequence/museum_causal/museum_causal_6.png"" class=""exp-image"">
                    <div class=""question-area""></div> 
                </div>","null","","","","","","","","","","","",""
"","","","","","html-button-response","28","291902","0.0-28.0","D788729468F54B408DB3C24A1A54190A","019d6bab-7995-7a24-9dd5-f5e7f293eeae","019d6b6d-d11f-7233-9b95-7a424dbf389f","","2447","
                <div class=""stimulus-container"">
                    <img src=""images/causal_sequence/museum_causal/museum_causal_6.png"" class=""exp-image"">
                    <div class=""question-area"">
                        <p style=""font-size: 20px; font-weight: bold; margin: 0;"">Is there a person in this image?</p>
                    </div>
                </div>","0","main_experiment_trial","6","museum_causal","causal_sequence","chronological","","","","","","",""
"","","","","","html-keyboard-response","29","296910","0.0-29.0","D788729468F54B408DB3C24A1A54190A","019d6bab-7995-7a24-9dd5-f5e7f293eeae","019d6b6d-d11f-7233-9b95-7a424dbf389f","","null","
                <div class=""stimulus-container"">
                    <img src=""images/causal_sequence/museum_causal/museum_causal_7.png"" class=""exp-image"">
                    <div class=""question-area""></div> 
                </div>","null","","","","","","","","","","","",""
"","","","","","html-button-response","30","298187","0.0-30.0","D788729468F54B408DB3C24A1A54190A","019d6bab-7995-7a24-9dd5-f5e7f293eeae","019d6b6d-d11f-7233-9b95-7a424dbf389f","","1277","
                <div class=""stimulus-container"">
                    <img src=""images/causal_sequence/museum_causal/museum_causal_7.png"" class=""exp-image"">
                    <div class=""question-area"">
                        <p style=""font-size: 20px; font-weight: bold; margin: 0;"">Is there a person in this image?</p>
                    </div>
                </div>","1","main_experiment_trial","7","museum_causal","causal_sequence","chronological","","","","","","",""
"","","","","","html-keyboard-response","31","303190","0.0-31.0","D788729468F54B408DB3C24A1A54190A","019d6bab-7995-7a24-9dd5-f5e7f293eeae","019d6b6d-d11f-7233-9b95-7a424dbf389f","","null","
                <div class=""stimulus-container"">
                    <img src=""images/causal_sequence/museum_causal/museum_causal_8.png"" class=""exp-image"">
                    <div class=""question-area""></div> 
                </div>","null","","","","","","","","","","","",""
"","","","","","html-button-response","32","306196","0.0-32.0","D788729468F54B408DB3C24A1A54190A","019d6bab-7995-7a24-9dd5-f5e7f293eeae","019d6b6d-d11f-7233-9b95-7a424dbf389f","","null","
                <div class=""stimulus-container"">
                    <img src=""images/causal_sequence/museum_causal/museum_causal_8.png"" class=""exp-image"">
                    <div class=""question-area"">
                        <p style=""font-size: 20px; font-weight: bold; margin: 0;"">Is there a person in this image?</p>
                    </div>
                </div>","null","main_experiment_trial","8","museum_causal","causal_sequence","chronological","","","","","","",""
"","","","","","html-keyboard-response","33","311199","0.0-33.0","D788729468F54B408DB3C24A1A54190A","019d6bab-7995-7a24-9dd5-f5e7f293eeae","019d6b6d-d11f-7233-9b95-7a424dbf389f","","null","
                <div class=""stimulus-container"">
                    <img src=""images/causal_sequence/museum_causal/museum_causal_9.png"" class=""exp-image"">
                    <div class=""question-area""></div> 
                </div>","null","","","","","","","","","","","",""
"","","","","","html-button-response","34","311696","0.0-34.0","D788729468F54B408DB3C24A1A54190A","019d6bab-7995-7a24-9dd5-f5e7f293eeae","019d6b6d-d11f-7233-9b95-7a424dbf389f","","496","
                <div class=""stimulus-container"">
                    <img src=""images/causal_sequence/museum_causal/museum_causal_9.png"" class=""exp-image"">
                    <div class=""question-area"">
                        <p style=""font-size: 20px; font-weight: bold; margin: 0;"">Is there a person in this image?</p>
                    </div>
                </div>","1","main_experiment_trial","9","museum_causal","causal_sequence","chronological","","","","","","",""
"","","","","","html-keyboard-response","35","316711","0.0-35.0","D788729468F54B408DB3C24A1A54190A","019d6bab-7995-7a24-9dd5-f5e7f293eeae","019d6b6d-d11f-7233-9b95-7a424dbf389f","","null","
                <div class=""stimulus-container"">
                    <img src=""images/causal_sequence/museum_causal/museum_causal_ten.png"" class=""exp-image"">
                    <div class=""question-area""></div> 
                </div>","null","","","","","","","","","","","",""
"","","","","","html-button-response","36","317795","0.0-36.0","D788729468F54B408DB3C24A1A54190A","019d6bab-7995-7a24-9dd5-f5e7f293eeae","019d6b6d-d11f-7233-9b95-7a424dbf389f","","1084","
                <div class=""stimulus-container"">
                    <img src=""images/causal_sequence/museum_causal/museum_causal_ten.png"" class=""exp-image"">
                    <div class=""question-area"">
                        <p style=""font-size: 20px; font-weight: bold; margin: 0;"">Is there a person in this image?</p>
                    </div>
                </div>","0","main_experiment_trial","ten","museum_causal","causal_sequence","chronological","","","","","","",""
"","","","","","html-keyboard-response","37","322809","0.0-37.0","D788729468F54B408DB3C24A1A54190A","019d6bab-7995-7a24-9dd5-f5e7f293eeae","019d6b6d-d11f-7233-9b95-7a424dbf389f","","null","<div style=""background-color: white; width: 100vw; height: 100vh;""></div>","null","","","","","","","","","","","",""
"","","","","","html-keyboard-response","38","327813","0.0-38.0","D788729468F54B408DB3C24A1A54190A","019d6bab-7995-7a24-9dd5-f5e7f293eeae","019d6b6d-d11f-7233-9b95-7a424dbf389f","","null","
                <div class=""stimulus-container"">
                    <img src=""images/causal_sequence/dog_causal/dog_causal_1.png"" class=""exp-image"">
                    <div class=""question-area""></div> 
                </div>","null","","","","","","","","","","","",""
"","","","","","html-button-response","39","328863","0.0-39.0","D788729468F54B408DB3C24A1A54190A","019d6bab-7995-7a24-9dd5-f5e7f293eeae","019d6b6d-d11f-7233-9b95-7a424dbf389f","","1049","
                <div class=""stimulus-container"">
                    <img src=""images/causal_sequence/dog_causal/dog_causal_1.png"" class=""exp-image"">
                    <div class=""question-area"">
                        <p style=""font-size: 20px; font-weight: bold; margin: 0;"">Is there a person in this image?</p>
                    </div>
                </div>","0","main_experiment_trial","1","dog_causal","causal_sequence","chronological","","","","","","",""
"","","","","","html-keyboard-response","40","333878","0.0-40.0","D788729468F54B408DB3C24A1A54190A","019d6bab-7995-7a24-9dd5-f5e7f293eeae","019d6b6d-d11f-7233-9b95-7a424dbf389f","","null","
                <div class=""stimulus-container"">
                    <img src=""images/causal_sequence/dog_causal/dog_causal_2.png"" class=""exp-image"">
                    <div class=""question-area""></div> 
                </div>","null","","","","","","","","","","","",""
"","","","","","html-button-response","41","334795","0.0-41.0","D788729468F54B408DB3C24A1A54190A","019d6bab-7995-7a24-9dd5-f5e7f293eeae","019d6b6d-d11f-7233-9b95-7a424dbf389f","","916","
                <div class=""stimulus-container"">
                    <img src=""images/causal_sequence/dog_causal/dog_causal_2.png"" class=""exp-image"">
                    <div class=""question-area"">
                        <p style=""font-size: 20px; font-weight: bold; margin: 0;"">Is there a person in this image?</p>
                    </div>
                </div>","0","main_experiment_trial","2","dog_causal","causal_sequence","chronological","","","","","","",""
"","","","","","html-keyboard-response","42","339809","0.0-42.0","D788729468F54B408DB3C24A1A54190A","019d6bab-7995-7a24-9dd5-f5e7f293eeae","019d6b6d-d11f-7233-9b95-7a424dbf389f","","null","
                <div class=""stimulus-container"">
                    <img src=""images/causal_sequence/dog_causal/dog_causal_3.png"" class=""exp-image"">
                    <div class=""question-area""></div> 
                </div>","null","","","","","","","","","","","",""
"","","","","","html-button-response","43","340946","0.0-43.0","D788729468F54B408DB3C24A1A54190A","019d6bab-7995-7a24-9dd5-f5e7f293eeae","019d6b6d-d11f-7233-9b95-7a424dbf389f","","1135","
                <div class=""stimulus-container"">
                    <img src=""images/causal_sequence/dog_causal/dog_causal_3.png"" class=""exp-image"">
                    <div class=""question-area"">
                        <p style=""font-size: 20px; font-weight: bold; margin: 0;"">Is there a person in this image?</p>
                    </div>
                </div>","0","main_experiment_trial","3","dog_causal","causal_sequence","chronological","","","","","","",""
"","","","","","html-keyboard-response","44","345951","0.0-44.0","D788729468F54B408DB3C24A1A54190A","019d6bab-7995-7a24-9dd5-f5e7f293eeae","019d6b6d-d11f-7233-9b95-7a424dbf389f","","null","
                <div class=""stimulus-container"">
                    <img src=""images/causal_sequence/dog_causal/dog_causal_4.png"" class=""exp-image"">
                    <div class=""question-area""></div> 
                </div>","null","","","","","","","","","","","",""
"","","","","","html-button-response","45","347188","0.0-45.0","D788729468F54B408DB3C24A1A54190A","019d6bab-7995-7a24-9dd5-f5e7f293eeae","019d6b6d-d11f-7233-9b95-7a424dbf389f","","1236","
                <div class=""stimulus-container"">
                    <img src=""images/causal_sequence/dog_causal/dog_causal_4.png"" class=""exp-image"">
                    <div class=""question-area"">
                        <p style=""font-size: 20px; font-weight: bold; margin: 0;"">Is there a person in this image?</p>
                    </div>
                </div>","0","main_experiment_trial","4","dog_causal","causal_sequence","chronological","","","","","","",""
"","","","","","html-keyboard-response","46","352200","0.0-46.0","D788729468F54B408DB3C24A1A54190A","019d6bab-7995-7a24-9dd5-f5e7f293eeae","019d6b6d-d11f-7233-9b95-7a424dbf389f","","null","
                <div class=""stimulus-container"">
                    <img src=""images/causal_sequence/dog_causal/dog_causal_5.png"" class=""exp-image"">
                    <div class=""question-area""></div> 
                </div>","null","","","","","","","","","","","",""
"","","","","","html-button-response","47","353256","0.0-47.0","D788729468F54B408DB3C24A1A54190A","019d6bab-7995-7a24-9dd5-f5e7f293eeae","019d6b6d-d11f-7233-9b95-7a424dbf389f","","1055","
                <div class=""stimulus-container"">
                    <img src=""images/causal_sequence/dog_causal/dog_causal_5.png"" class=""exp-image"">
                    <div class=""question-area"">
                        <p style=""font-size: 20px; font-weight: bold; margin: 0;"">Is there a person in this image?</p>
                    </div>
                </div>","0","main_experiment_trial","5","dog_causal","causal_sequence","chronological","","","","","","",""
"","","","","","html-keyboard-response","48","358267","0.0-48.0","D788729468F54B408DB3C24A1A54190A","019d6bab-7995-7a24-9dd5-f5e7f293eeae","019d6b6d-d11f-7233-9b95-7a424dbf389f","","null","
                <div class=""stimulus-container"">
                    <img src=""images/causal_sequence/dog_causal/dog_causal_6.png"" class=""exp-image"">
                    <div class=""question-area""></div> 
                </div>","null","","","","","","","","","","","",""
"","","","","","html-button-response","49","360890","0.0-49.0","D788729468F54B408DB3C24A1A54190A","019d6bab-7995-7a24-9dd5-f5e7f293eeae","019d6b6d-d11f-7233-9b95-7a424dbf389f","","2621","
                <div class=""stimulus-container"">
                    <img src=""images/causal_sequence/dog_causal/dog_causal_6.png"" class=""exp-image"">
                    <div class=""question-area"">
                        <p style=""font-size: 20px; font-weight: bold; margin: 0;"">Is there a person in this image?</p>
                    </div>
                </div>","0","main_experiment_trial","6","dog_causal","causal_sequence","chronological","","","","","","",""
"","","","","","html-keyboard-response","50","365903","0.0-50.0","D788729468F54B408DB3C24A1A54190A","019d6bab-7995-7a24-9dd5-f5e7f293eeae","019d6b6d-d11f-7233-9b95-7a424dbf389f","","null","
                <div class=""stimulus-container"">
                    <img src=""images/causal_sequence/dog_causal/dog_causal_7.png"" class=""exp-image"">
                    <div class=""question-area""></div> 
                </div>","null","","","","","","","","","","","",""
"","","","","","html-button-response","51","367082","0.0-51.0","D788729468F54B408DB3C24A1A54190A","019d6bab-7995-7a24-9dd5-f5e7f293eeae","019d6b6d-d11f-7233-9b95-7a424dbf389f","","1178","
                <div class=""stimulus-container"">
                    <img src=""images/causal_sequence/dog_causal/dog_causal_7.png"" class=""exp-image"">
                    <div class=""question-area"">
                        <p style=""font-size: 20px; font-weight: bold; margin: 0;"">Is there a person in this image?</p>
                    </div>
                </div>","0","main_experiment_trial","7","dog_causal","causal_sequence","chronological","","","","","","",""
"","","","","","html-keyboard-response","52","372090","0.0-52.0","D788729468F54B408DB3C24A1A54190A","019d6bab-7995-7a24-9dd5-f5e7f293eeae","019d6b6d-d11f-7233-9b95-7a424dbf389f","","null","
                <div class=""stimulus-container"">
                    <img src=""images/causal_sequence/dog_causal/dog_causal_8.png"" class=""exp-image"">
                    <div class=""question-area""></div> 
                </div>","null","","","","","","","","","","","",""
"","","","","","html-button-response","53","373425","0.0-53.0","D788729468F54B408DB3C24A1A54190A","019d6bab-7995-7a24-9dd5-f5e7f293eeae","019d6b6d-d11f-7233-9b95-7a424dbf389f","","1334","
                <div class=""stimulus-container"">
                    <img src=""images/causal_sequence/dog_causal/dog_causal_8.png"" class=""exp-image"">
                    <div class=""question-area"">
                        <p style=""font-size: 20px; font-weight: bold; margin: 0;"">Is there a person in this image?</p>
                    </div>
                </div>","0","main_experiment_trial","8","dog_causal","causal_sequence","chronological","","","","","","",""
"","","","","","html-keyboard-response","54","378429","0.0-54.0","D788729468F54B408DB3C24A1A54190A","019d6bab-7995-7a24-9dd5-f5e7f293eeae","019d6b6d-d11f-7233-9b95-7a424dbf389f","","null","
                <div class=""stimulus-container"">
                    <img src=""images/causal_sequence/dog_causal/dog_causal_9.png"" class=""exp-image"">
                    <div class=""question-area""></div> 
                </div>","null","","","","","","","","","","","",""
"","","","","","html-button-response","55","379424","0.0-55.0","D788729468F54B408DB3C24A1A54190A","019d6bab-7995-7a24-9dd5-f5e7f293eeae","019d6b6d-d11f-7233-9b95-7a424dbf389f","","994","
                <div class=""stimulus-container"">
                    <img src=""images/causal_sequence/dog_causal/dog_causal_9.png"" class=""exp-image"">
                    <div class=""question-area"">
                        <p style=""font-size: 20px; font-weight: bold; margin: 0;"">Is there a person in this image?</p>
                    </div>
                </div>","0","main_experiment_trial","9","dog_causal","causal_sequence","chronological","","","","","","",""
"","","","","","html-keyboard-response","56","384433","0.0-56.0","D788729468F54B408DB3C24A1A54190A","019d6bab-7995-7a24-9dd5-f5e7f293eeae","019d6b6d-d11f-7233-9b95-7a424dbf389f","","null","
                <div class=""stimulus-container"">
                    <img src=""images/causal_sequence/dog_causal/dog_causal_ten.png"" class=""exp-image"">
                    <div class=""question-area""></div> 
                </div>","null","","","","","","","","","","","",""
"","","","","","html-button-response","57","385415","0.0-57.0","D788729468F54B408DB3C24A1A54190A","019d6bab-7995-7a24-9dd5-f5e7f293eeae","019d6b6d-d11f-7233-9b95-7a424dbf389f","","981","
                <div class=""stimulus-container"">
                    <img src=""images/causal_sequence/dog_causal/dog_causal_ten.png"" class=""exp-image"">
                    <div class=""question-area"">
                        <p style=""font-size: 20px; font-weight: bold; margin: 0;"">Is there a person in this image?</p>
                    </div>
                </div>","0","main_experiment_trial","ten","dog_causal","causal_sequence","chronological","","","","","","",""
"","","","","","html-keyboard-response","58","390421","0.0-58.0","D788729468F54B408DB3C24A1A54190A","019d6bab-7995-7a24-9dd5-f5e7f293eeae","019d6b6d-d11f-7233-9b95-7a424dbf389f","","null","<div style=""background-color: white; width: 100vw; height: 100vh;""></div>","null","","","","","","","","","","","",""
"","","","","","html-keyboard-response","59","395435","0.0-59.0","D788729468F54B408DB3C24A1A54190A","019d6bab-7995-7a24-9dd5-f5e7f293eeae","019d6b6d-d11f-7233-9b95-7a424dbf389f","","null","
                <div class=""stimulus-container"">
                    <img src=""semantic_sequence_notimeline/clothing_semantic/clothing_semantic_1.png"" class=""exp-image"">
                    <div class=""question-area""></div> 
                </div>","null","","","","","","","","","","","",""
"","","","","","html-button-response","60","396240","0.0-60.0","D788729468F54B408DB3C24A1A54190A","019d6bab-7995-7a24-9dd5-f5e7f293eeae","019d6b6d-d11f-7233-9b95-7a424dbf389f","","804","
                <div class=""stimulus-container"">
                    <img src=""semantic_sequence_notimeline/clothing_semantic/clothing_semantic_1.png"" class=""exp-image"">
                    <div class=""question-area"">
                        <p style=""font-size: 20px; font-weight: bold; margin: 0;"">Is there a person in this image?</p>
                    </div>
                </div>","1","main_experiment_trial","1","clothing_semantic","semantic_sequence_notimeline","chronological","","","","","","",""
"","","","","","html-keyboard-response","61","401251","0.0-61.0","D788729468F54B408DB3C24A1A54190A","019d6bab-7995-7a24-9dd5-f5e7f293eeae","019d6b6d-d11f-7233-9b95-7a424dbf389f","","null","
                <div class=""stimulus-container"">
                    <img src=""semantic_sequence_notimeline/clothing_semantic/clothing_semantic_2.png"" class=""exp-image"">
                    <div class=""question-area""></div> 
                </div>","null","","","","","","","","","","","",""
"","","","","","html-button-response","62","401971","0.0-62.0","D788729468F54B408DB3C24A1A54190A","019d6bab-7995-7a24-9dd5-f5e7f293eeae","019d6b6d-d11f-7233-9b95-7a424dbf389f","","719","
                <div class=""stimulus-container"">
                    <img src=""semantic_sequence_notimeline/clothing_semantic/clothing_semantic_2.png"" class=""exp-image"">
                    <div class=""question-area"">
                        <p style=""font-size: 20px; font-weight: bold; margin: 0;"">Is there a person in this image?</p>
                    </div>
                </div>","1","main_experiment_trial","2","clothing_semantic","semantic_sequence_notimeline","chronological","","","","","","",""
"","","","","","html-keyboard-response","63","406984","0.0-63.0","D788729468F54B408DB3C24A1A54190A","019d6bab-7995-7a24-9dd5-f5e7f293eeae","019d6b6d-d11f-7233-9b95-7a424dbf389f","","null","
                <div class=""stimulus-container"">
                    <img src=""semantic_sequence_notimeline/clothing_semantic/clothing_semantic_3.png"" class=""exp-image"">
                    <div class=""question-area""></div> 
                </div>","null","","","","","","","","","","","",""
"","","","","","html-button-response","64","407728","0.0-64.0","D788729468F54B408DB3C24A1A54190A","019d6bab-7995-7a24-9dd5-f5e7f293eeae","019d6b6d-d11f-7233-9b95-7a424dbf389f","","742","
                <div class=""stimulus-container"">
                    <img src=""semantic_sequence_notimeline/clothing_semantic/clothing_semantic_3.png"" class=""exp-image"">
                    <div class=""question-area"">
                        <p style=""font-size: 20px; font-weight: bold; margin: 0;"">Is there a person in this image?</p>
                    </div>
                </div>","1","main_experiment_trial","3","clothing_semantic","semantic_sequence_notimeline","chronological","","","","","","",""
"","","","","","html-keyboard-response","65","412737","0.0-65.0","D788729468F54B408DB3C24A1A54190A","019d6bab-7995-7a24-9dd5-f5e7f293eeae","019d6b6d-d11f-7233-9b95-7a424dbf389f","","null","
                <div class=""stimulus-container"">
                    <img src=""semantic_sequence_notimeline/clothing_semantic/clothing_semantic_4.png"" class=""exp-image"">
                    <div class=""question-area""></div> 
                </div>","null","","","","","","","","","","","",""
"","","","","","html-button-response","66","414631","0.0-66.0","D788729468F54B408DB3C24A1A54190A","019d6bab-7995-7a24-9dd5-f5e7f293eeae","019d6b6d-d11f-7233-9b95-7a424dbf389f","","1893","
                <div class=""stimulus-container"">
                    <img src=""semantic_sequence_notimeline/clothing_semantic/clothing_semantic_4.png"" class=""exp-image"">
                    <div class=""question-area"">
                        <p style=""font-size: 20px; font-weight: bold; margin: 0;"">Is there a person in this image?</p>
                    </div>
                </div>","1","main_experiment_trial","4","clothing_semantic","semantic_sequence_notimeline","chronological","","","","","","",""
"","","","","","html-keyboard-response","67","419639","0.0-67.0","D788729468F54B408DB3C24A1A54190A","019d6bab-7995-7a24-9dd5-f5e7f293eeae","019d6b6d-d11f-7233-9b95-7a424dbf389f","","null","
                <div class=""stimulus-container"">
                    <img src=""semantic_sequence_notimeline/clothing_semantic/clothing_semantic_5.png"" class=""exp-image"">
                    <div class=""question-area""></div> 
                </div>","null","","","","","","","","","","","",""
"","","","","","html-button-response","68","420740","0.0-68.0","D788729468F54B408DB3C24A1A54190A","019d6bab-7995-7a24-9dd5-f5e7f293eeae","019d6b6d-d11f-7233-9b95-7a424dbf389f","","1100","
                <div class=""stimulus-container"">
                    <img src=""semantic_sequence_notimeline/clothing_semantic/clothing_semantic_5.png"" class=""exp-image"">
                    <div class=""question-area"">
                        <p style=""font-size: 20px; font-weight: bold; margin: 0;"">Is there a person in this image?</p>
                    </div>
                </div>","1","main_experiment_trial","5","clothing_semantic","semantic_sequence_notimeline","chronological","","","","","","",""
"","","","","","html-keyboard-response","69","425753","0.0-69.0","D788729468F54B408DB3C24A1A54190A","019d6bab-7995-7a24-9dd5-f5e7f293eeae","019d6b6d-d11f-7233-9b95-7a424dbf389f","","null","
                <div class=""stimulus-container"">
                    <img src=""semantic_sequence_notimeline/clothing_semantic/clothing_semantic_6.png"" class=""exp-image"">
                    <div class=""question-area""></div> 
                </div>","null","","","","","","","","","","","",""
"","","","","","html-button-response","70","426740","0.0-70.0","D788729468F54B408DB3C24A1A54190A","019d6bab-7995-7a24-9dd5-f5e7f293eeae","019d6b6d-d11f-7233-9b95-7a424dbf389f","","986","
                <div class=""stimulus-container"">
                    <img src=""semantic_sequence_notimeline/clothing_semantic/clothing_semantic_6.png"" class=""exp-image"">
                    <div class=""question-area"">
                        <p style=""font-size: 20px; font-weight: bold; margin: 0;"">Is there a person in this image?</p>
                    </div>
                </div>","1","main_experiment_trial","6","clothing_semantic","semantic_sequence_notimeline","chronological","","","","","","",""
"","","","","","html-keyboard-response","71","431747","0.0-71.0","D788729468F54B408DB3C24A1A54190A","019d6bab-7995-7a24-9dd5-f5e7f293eeae","019d6b6d-d11f-7233-9b95-7a424dbf389f","","null","
                <div class=""stimulus-container"">
                    <img src=""semantic_sequence_notimeline/clothing_semantic/clothing_semantic_7.png"" class=""exp-image"">
                    <div class=""question-area""></div> 
                </div>","null","","","","","","","","","","","",""
"","","","","","html-button-response","72","432949","0.0-72.0","D788729468F54B408DB3C24A1A54190A","019d6bab-7995-7a24-9dd5-f5e7f293eeae","019d6b6d-d11f-7233-9b95-7a424dbf389f","","1201","
                <div class=""stimulus-container"">
                    <img src=""semantic_sequence_notimeline/clothing_semantic/clothing_semantic_7.png"" class=""exp-image"">
                    <div class=""question-area"">
                        <p style=""font-size: 20px; font-weight: bold; margin: 0;"">Is there a person in this image?</p>
                    </div>
                </div>","1","main_experiment_trial","7","clothing_semantic","semantic_sequence_notimeline","chronological","","","","","","",""
"","","","","","html-keyboard-response","73","437951","0.0-73.0","D788729468F54B408DB3C24A1A54190A","019d6bab-7995-7a24-9dd5-f5e7f293eeae","019d6b6d-d11f-7233-9b95-7a424dbf389f","","null","
                <div class=""stimulus-container"">
                    <img src=""semantic_sequence_notimeline/clothing_semantic/clothing_semantic_8.png"" class=""exp-image"">
                    <div class=""question-area""></div> 
                </div>","null","","","","","","","","","","","",""
"","","","","","html-button-response","74","439160","0.0-74.0","D788729468F54B408DB3C24A1A54190A","019d6bab-7995-7a24-9dd5-f5e7f293eeae","019d6b6d-d11f-7233-9b95-7a424dbf389f","","1208","
                <div class=""stimulus-container"">
                    <img src=""semantic_sequence_notimeline/clothing_semantic/clothing_semantic_8.png"" class=""exp-image"">
                    <div class=""question-area"">
                        <p style=""font-size: 20px; font-weight: bold; margin: 0;"">Is there a person in this image?</p>
                    </div>
                </div>","1","main_experiment_trial","8","clothing_semantic","semantic_sequence_notimeline","chronological","","","","","","",""
"","","","","","html-keyboard-response","75","444171","0.0-75.0","D788729468F54B408DB3C24A1A54190A","019d6bab-7995-7a24-9dd5-f5e7f293eeae","019d6b6d-d11f-7233-9b95-7a424dbf389f","","null","
                <div class=""stimulus-container"">
                    <img src=""semantic_sequence_notimeline/clothing_semantic/clothing_semantic_9.png"" class=""exp-image"">
                    <div class=""question-area""></div> 
                </div>","null","","","","","","","","","","","",""
"","","","","","html-button-response","76","445241","0.0-76.0","D788729468F54B408DB3C24A1A54190A","019d6bab-7995-7a24-9dd5-f5e7f293eeae","019d6b6d-d11f-7233-9b95-7a424dbf389f","","1068","
                <div class=""stimulus-container"">
                    <img src=""semantic_sequence_notimeline/clothing_semantic/clothing_semantic_9.png"" class=""exp-image"">
                    <div class=""question-area"">
                        <p style=""font-size: 20px; font-weight: bold; margin: 0;"">Is there a person in this image?</p>
                    </div>
                </div>","1","main_experiment_trial","9","clothing_semantic","semantic_sequence_notimeline","chronological","","","","","","",""
"","","","","","html-keyboard-response","77","450253","0.0-77.0","D788729468F54B408DB3C24A1A54190A","019d6bab-7995-7a24-9dd5-f5e7f293eeae","019d6b6d-d11f-7233-9b95-7a424dbf389f","","null","
                <div class=""stimulus-container"">
                    <img src=""semantic_sequence_notimeline/clothing_semantic/clothing_semantic_ten.png"" class=""exp-image"">
                    <div class=""question-area""></div> 
                </div>","null","","","","","","","","","","","",""
"","","","","","html-button-response","78","451593","0.0-78.0","D788729468F54B408DB3C24A1A54190A","019d6bab-7995-7a24-9dd5-f5e7f293eeae","019d6b6d-d11f-7233-9b95-7a424dbf389f","","1339","
                <div class=""stimulus-container"">
                    <img src=""semantic_sequence_notimeline/clothing_semantic/clothing_semantic_ten.png"" class=""exp-image"">
                    <div class=""question-area"">
                        <p style=""font-size: 20px; font-weight: bold; margin: 0;"">Is there a person in this image?</p>
                    </div>
                </div>","1","main_experiment_trial","ten","clothing_semantic","semantic_sequence_notimeline","chronological","","","","","","",""
"","","","","","html-keyboard-response","79","456599","0.0-79.0","D788729468F54B408DB3C24A1A54190A","019d6bab-7995-7a24-9dd5-f5e7f293eeae","019d6b6d-d11f-7233-9b95-7a424dbf389f","","null","<div style=""background-color: white; width: 100vw; height: 100vh;""></div>","null","","","","","","","","","","","",""
"","","","","","html-keyboard-response","80","461611","0.0-80.0","D788729468F54B408DB3C24A1A54190A","019d6bab-7995-7a24-9dd5-f5e7f293eeae","019d6b6d-d11f-7233-9b95-7a424dbf389f","","null","
                <div class=""stimulus-container"">
                    <img src=""semantic_sequence_notimeline/household_objects_semantic/household_objects_semantic_1.png"" class=""exp-image"">
                    <div class=""question-area""></div> 
                </div>","null","","","","","","","","","","","",""
"","","","","","html-button-response","81","462770","0.0-81.0","D788729468F54B408DB3C24A1A54190A","019d6bab-7995-7a24-9dd5-f5e7f293eeae","019d6b6d-d11f-7233-9b95-7a424dbf389f","","1158","
                <div class=""stimulus-container"">
                    <img src=""semantic_sequence_notimeline/household_objects_semantic/household_objects_semantic_1.png"" class=""exp-image"">
                    <div class=""question-area"">
                        <p style=""font-size: 20px; font-weight: bold; margin: 0;"">Is there a person in this image?</p>
                    </div>
                </div>","1","main_experiment_trial","1","household_objects_semantic","semantic_sequence_notimeline","chronological","","","","","","",""
"","","","","","html-keyboard-response","82","467773","0.0-82.0","D788729468F54B408DB3C24A1A54190A","019d6bab-7995-7a24-9dd5-f5e7f293eeae","019d6b6d-d11f-7233-9b95-7a424dbf389f","","null","
                <div class=""stimulus-container"">
                    <img src=""semantic_sequence_notimeline/household_objects_semantic/household_objects_semantic_2.png"" class=""exp-image"">
                    <div class=""question-area""></div> 
                </div>","null","","","","","","","","","","","",""
"","","","","","html-button-response","83","469692","0.0-83.0","D788729468F54B408DB3C24A1A54190A","019d6bab-7995-7a24-9dd5-f5e7f293eeae","019d6b6d-d11f-7233-9b95-7a424dbf389f","","1918","
                <div class=""stimulus-container"">
                    <img src=""semantic_sequence_notimeline/household_objects_semantic/household_objects_semantic_2.png"" class=""exp-image"">
                    <div class=""question-area"">
                        <p style=""font-size: 20px; font-weight: bold; margin: 0;"">Is there a person in this image?</p>
                    </div>
                </div>","1","main_experiment_trial","2","household_objects_semantic","semantic_sequence_notimeline","chronological","","","","","","",""
"","","","","","html-keyboard-response","84","474706","0.0-84.0","D788729468F54B408DB3C24A1A54190A","019d6bab-7995-7a24-9dd5-f5e7f293eeae","019d6b6d-d11f-7233-9b95-7a424dbf389f","","null","
                <div class=""stimulus-container"">
                    <img src=""semantic_sequence_notimeline/household_objects_semantic/household_objects_semantic_3.png"" class=""exp-image"">
                    <div class=""question-area""></div> 
                </div>","null","","","","","","","","","","","",""
"","","","","","html-button-response","85","475868","0.0-85.0","D788729468F54B408DB3C24A1A54190A","019d6bab-7995-7a24-9dd5-f5e7f293eeae","019d6b6d-d11f-7233-9b95-7a424dbf389f","","1161","
                <div class=""stimulus-container"">
                    <img src=""semantic_sequence_notimeline/household_objects_semantic/household_objects_semantic_3.png"" class=""exp-image"">
                    <div class=""question-area"">
                        <p style=""font-size: 20px; font-weight: bold; margin: 0;"">Is there a person in this image?</p>
                    </div>
                </div>","1","main_experiment_trial","3","household_objects_semantic","semantic_sequence_notimeline","chronological","","","","","","",""
"","","","","","html-keyboard-response","86","480873","0.0-86.0","D788729468F54B408DB3C24A1A54190A","019d6bab-7995-7a24-9dd5-f5e7f293eeae","019d6b6d-d11f-7233-9b95-7a424dbf389f","","null","
                <div class=""stimulus-container"">
                    <img src=""semantic_sequence_notimeline/household_objects_semantic/household_objects_semantic_4.png"" class=""exp-image"">
                    <div class=""question-area""></div> 
                </div>","null","","","","","","","","","","","",""
"","","","","","html-button-response","87","482143","0.0-87.0","D788729468F54B408DB3C24A1A54190A","019d6bab-7995-7a24-9dd5-f5e7f293eeae","019d6b6d-d11f-7233-9b95-7a424dbf389f","","1269","
                <div class=""stimulus-container"">
                    <img src=""semantic_sequence_notimeline/household_objects_semantic/household_objects_semantic_4.png"" class=""exp-image"">
                    <div class=""question-area"">
                        <p style=""font-size: 20px; font-weight: bold; margin: 0;"">Is there a person in this image?</p>
                    </div>
                </div>","1","main_experiment_trial","4","household_objects_semantic","semantic_sequence_notimeline","chronological","","","","","","",""
"","","","","","html-keyboard-response","88","487151","0.0-88.0","D788729468F54B408DB3C24A1A54190A","019d6bab-7995-7a24-9dd5-f5e7f293eeae","019d6b6d-d11f-7233-9b95-7a424dbf389f","","null","
                <div class=""stimulus-container"">
                    <img src=""semantic_sequence_notimeline/household_objects_semantic/household_objects_semantic_5.png"" class=""exp-image"">
                    <div class=""question-area""></div> 
                </div>","null","","","","","","","","","","","",""
"","","","","","html-button-response","89","488655","0.0-89.0","D788729468F54B408DB3C24A1A54190A","019d6bab-7995-7a24-9dd5-f5e7f293eeae","019d6b6d-d11f-7233-9b95-7a424dbf389f","","1503","
                <div class=""stimulus-container"">
                    <img src=""semantic_sequence_notimeline/household_objects_semantic/household_objects_semantic_5.png"" class=""exp-image"">
                    <div class=""question-area"">
                        <p style=""font-size: 20px; font-weight: bold; margin: 0;"">Is there a person in this image?</p>
                    </div>
                </div>","1","main_experiment_trial","5","household_objects_semantic","semantic_sequence_notimeline","chronological","","","","","","",""
"","","","","","html-keyboard-response","90","493657","0.0-90.0","D788729468F54B408DB3C24A1A54190A","019d6bab-7995-7a24-9dd5-f5e7f293eeae","019d6b6d-d11f-7233-9b95-7a424dbf389f","","null","
                <div class=""stimulus-container"">
                    <img src=""semantic_sequence_notimeline/household_objects_semantic/household_objects_semantic_6.png"" class=""exp-image"">
                    <div class=""question-area""></div> 
                </div>","null","","","","","","","","","","","",""
"","","","","","html-button-response","91","494730","0.0-91.0","D788729468F54B408DB3C24A1A54190A","019d6bab-7995-7a24-9dd5-f5e7f293eeae","019d6b6d-d11f-7233-9b95-7a424dbf389f","","1072","
                <div class=""stimulus-container"">
                    <img src=""semantic_sequence_notimeline/household_objects_semantic/household_objects_semantic_6.png"" class=""exp-image"">
                    <div class=""question-area"">
                        <p style=""font-size: 20px; font-weight: bold; margin: 0;"">Is there a person in this image?</p>
                    </div>
                </div>","1","main_experiment_trial","6","household_objects_semantic","semantic_sequence_notimeline","chronological","","","","","","",""
"","","","","","html-keyboard-response","92","499731","0.0-92.0","D788729468F54B408DB3C24A1A54190A","019d6bab-7995-7a24-9dd5-f5e7f293eeae","019d6b6d-d11f-7233-9b95-7a424dbf389f","","null","
                <div class=""stimulus-container"">
                    <img src=""semantic_sequence_notimeline/household_objects_semantic/household_objects_semantic_7.png"" class=""exp-image"">
                    <div class=""question-area""></div> 
                </div>","null","","","","","","","","","","","",""
"","","","","","html-button-response","93","500704","0.0-93.0","D788729468F54B408DB3C24A1A54190A","019d6bab-7995-7a24-9dd5-f5e7f293eeae","019d6b6d-d11f-7233-9b95-7a424dbf389f","","971","
                <div class=""stimulus-container"">
                    <img src=""semantic_sequence_notimeline/household_objects_semantic/household_objects_semantic_7.png"" class=""exp-image"">
                    <div class=""question-area"">
                        <p style=""font-size: 20px; font-weight: bold; margin: 0;"">Is there a person in this image?</p>
                    </div>
                </div>","1","main_experiment_trial","7","household_objects_semantic","semantic_sequence_notimeline","chronological","","","","","","",""
"","","","","","html-keyboard-response","94","505714","0.0-94.0","D788729468F54B408DB3C24A1A54190A","019d6bab-7995-7a24-9dd5-f5e7f293eeae","019d6b6d-d11f-7233-9b95-7a424dbf389f","","null","
                <div class=""stimulus-container"">
                    <img src=""semantic_sequence_notimeline/household_objects_semantic/household_objects_semantic_8.png"" class=""exp-image"">
                    <div class=""question-area""></div> 
                </div>","null","","","","","","","","","","","",""
"","","","","","html-button-response","95","508280","0.0-95.0","D788729468F54B408DB3C24A1A54190A","019d6bab-7995-7a24-9dd5-f5e7f293eeae","019d6b6d-d11f-7233-9b95-7a424dbf389f","","2565","
                <div class=""stimulus-container"">
                    <img src=""semantic_sequence_notimeline/household_objects_semantic/household_objects_semantic_8.png"" class=""exp-image"">
                    <div class=""question-area"">
                        <p style=""font-size: 20px; font-weight: bold; margin: 0;"">Is there a person in this image?</p>
                    </div>
                </div>","1","main_experiment_trial","8","household_objects_semantic","semantic_sequence_notimeline","chronological","","","","","","",""
"","","","","","html-keyboard-response","96","513282","0.0-96.0","D788729468F54B408DB3C24A1A54190A","019d6bab-7995-7a24-9dd5-f5e7f293eeae","019d6b6d-d11f-7233-9b95-7a424dbf389f","","null","
                <div class=""stimulus-container"">
                    <img src=""semantic_sequence_notimeline/household_objects_semantic/household_objects_semantic_9.png"" class=""exp-image"">
                    <div class=""question-area""></div> 
                </div>","null","","","","","","","","","","","",""
"","","","","","html-button-response","97","514304","0.0-97.0","D788729468F54B408DB3C24A1A54190A","019d6bab-7995-7a24-9dd5-f5e7f293eeae","019d6b6d-d11f-7233-9b95-7a424dbf389f","","1022","
                <div class=""stimulus-container"">
                    <img src=""semantic_sequence_notimeline/household_objects_semantic/household_objects_semantic_9.png"" class=""exp-image"">
                    <div class=""question-area"">
                        <p style=""font-size: 20px; font-weight: bold; margin: 0;"">Is there a person in this image?</p>
                    </div>
                </div>","1","main_experiment_trial","9","household_objects_semantic","semantic_sequence_notimeline","chronological","","","","","","",""
"","","","","","html-keyboard-response","98","519309","0.0-98.0","D788729468F54B408DB3C24A1A54190A","019d6bab-7995-7a24-9dd5-f5e7f293eeae","019d6b6d-d11f-7233-9b95-7a424dbf389f","","null","
                <div class=""stimulus-container"">
                    <img src=""semantic_sequence_notimeline/household_objects_semantic/household_objects_semantic_ten.png"" class=""exp-image"">
                    <div class=""question-area""></div> 
                </div>","null","","","","","","","","","","","",""
"","","","","","html-button-response","99","519775","0.0-99.0","D788729468F54B408DB3C24A1A54190A","019d6bab-7995-7a24-9dd5-f5e7f293eeae","019d6b6d-d11f-7233-9b95-7a424dbf389f","","465","
                <div class=""stimulus-container"">
                    <img src=""semantic_sequence_notimeline/household_objects_semantic/household_objects_semantic_ten.png"" class=""exp-image"">
                    <div class=""question-area"">
                        <p style=""font-size: 20px; font-weight: bold; margin: 0;"">Is there a person in this image?</p>
                    </div>
                </div>","1","main_experiment_trial","ten","household_objects_semantic","semantic_sequence_notimeline","chronological","","","","","","",""
"","","","","","html-keyboard-response","100","524790","0.0-100.0","D788729468F54B408DB3C24A1A54190A","019d6bab-7995-7a24-9dd5-f5e7f293eeae","019d6b6d-d11f-7233-9b95-7a424dbf389f","","null","<div style=""background-color: white; width: 100vw; height: 100vh;""></div>","null","","","","","","","","","","","",""
"","","","","","html-keyboard-response","101","529799","0.0-101.0","D788729468F54B408DB3C24A1A54190A","019d6bab-7995-7a24-9dd5-f5e7f293eeae","019d6b6d-d11f-7233-9b95-7a424dbf389f","","null","
                <div class=""stimulus-container"">
                    <img src=""semantic_sequence_notimeline/animals_semantic/animals_semantic_1.png"" class=""exp-image"">
                    <div class=""question-area""></div> 
                </div>","null","","","","","","","","","","","",""
"","","","","","html-button-response","102","530465","0.0-102.0","D788729468F54B408DB3C24A1A54190A","019d6bab-7995-7a24-9dd5-f5e7f293eeae","019d6b6d-d11f-7233-9b95-7a424dbf389f","","665","
                <div class=""stimulus-container"">
                    <img src=""semantic_sequence_notimeline/animals_semantic/animals_semantic_1.png"" class=""exp-image"">
                    <div class=""question-area"">
                        <p style=""font-size: 20px; font-weight: bold; margin: 0;"">Is there a person in this image?</p>
                    </div>
                </div>","1","main_experiment_trial","1","animals_semantic","semantic_sequence_notimeline","chronological","","","","","","",""
"","","","","","html-keyboard-response","103","535466","0.0-103.0","D788729468F54B408DB3C24A1A54190A","019d6bab-7995-7a24-9dd5-f5e7f293eeae","019d6b6d-d11f-7233-9b95-7a424dbf389f","","null","
                <div class=""stimulus-container"">
                    <img src=""semantic_sequence_notimeline/animals_semantic/animals_semantic_2.png"" class=""exp-image"">
                    <div class=""question-area""></div> 
                </div>","null","","","","","","","","","","","",""
"","","","","","html-button-response","104","537071","0.0-104.0","D788729468F54B408DB3C24A1A54190A","019d6bab-7995-7a24-9dd5-f5e7f293eeae","019d6b6d-d11f-7233-9b95-7a424dbf389f","","1604","
                <div class=""stimulus-container"">
                    <img src=""semantic_sequence_notimeline/animals_semantic/animals_semantic_2.png"" class=""exp-image"">
                    <div class=""question-area"">
                        <p style=""font-size: 20px; font-weight: bold; margin: 0;"">Is there a person in this image?</p>
                    </div>
                </div>","1","main_experiment_trial","2","animals_semantic","semantic_sequence_notimeline","chronological","","","","","","",""
"","","","","","html-keyboard-response","105","542085","0.0-105.0","D788729468F54B408DB3C24A1A54190A","019d6bab-7995-7a24-9dd5-f5e7f293eeae","019d6b6d-d11f-7233-9b95-7a424dbf389f","","null","
                <div class=""stimulus-container"">
                    <img src=""semantic_sequence_notimeline/animals_semantic/animals_semantic_3.png"" class=""exp-image"">
                    <div class=""question-area""></div> 
                </div>","null","","","","","","","","","","","",""
"","","","","","html-button-response","106","543303","0.0-106.0","D788729468F54B408DB3C24A1A54190A","019d6bab-7995-7a24-9dd5-f5e7f293eeae","019d6b6d-d11f-7233-9b95-7a424dbf389f","","1217","
                <div class=""stimulus-container"">
                    <img src=""semantic_sequence_notimeline/animals_semantic/animals_semantic_3.png"" class=""exp-image"">
                    <div class=""question-area"">
                        <p style=""font-size: 20px; font-weight: bold; margin: 0;"">Is there a person in this image?</p>
                    </div>
                </div>","1","main_experiment_trial","3","animals_semantic","semantic_sequence_notimeline","chronological","","","","","","",""
"","","","","","html-keyboard-response","107","548309","0.0-107.0","D788729468F54B408DB3C24A1A54190A","019d6bab-7995-7a24-9dd5-f5e7f293eeae","019d6b6d-d11f-7233-9b95-7a424dbf389f","","null","
                <div class=""stimulus-container"">
                    <img src=""semantic_sequence_notimeline/animals_semantic/animals_semantic_4.png"" class=""exp-image"">
                    <div class=""question-area""></div> 
                </div>","null","","","","","","","","","","","",""
"","","","","","html-button-response","108","549277","0.0-108.0","D788729468F54B408DB3C24A1A54190A","019d6bab-7995-7a24-9dd5-f5e7f293eeae","019d6b6d-d11f-7233-9b95-7a424dbf389f","","967","
                <div class=""stimulus-container"">
                    <img src=""semantic_sequence_notimeline/animals_semantic/animals_semantic_4.png"" class=""exp-image"">
                    <div class=""question-area"">
                        <p style=""font-size: 20px; font-weight: bold; margin: 0;"">Is there a person in this image?</p>
                    </div>
                </div>","1","main_experiment_trial","4","animals_semantic","semantic_sequence_notimeline","chronological","","","","","","",""
"","","","","","html-keyboard-response","109","554292","0.0-109.0","D788729468F54B408DB3C24A1A54190A","019d6bab-7995-7a24-9dd5-f5e7f293eeae","019d6b6d-d11f-7233-9b95-7a424dbf389f","","null","
                <div class=""stimulus-container"">
                    <img src=""semantic_sequence_notimeline/animals_semantic/animals_semantic_5.png"" class=""exp-image"">
                    <div class=""question-area""></div> 
                </div>","null","","","","","","","","","","","",""
"","","","","","html-button-response","110","555637","0.0-110.0","D788729468F54B408DB3C24A1A54190A","019d6bab-7995-7a24-9dd5-f5e7f293eeae","019d6b6d-d11f-7233-9b95-7a424dbf389f","","1344","
                <div class=""stimulus-container"">
                    <img src=""semantic_sequence_notimeline/animals_semantic/animals_semantic_5.png"" class=""exp-image"">
                    <div class=""question-area"">
                        <p style=""font-size: 20px; font-weight: bold; margin: 0;"">Is there a person in this image?</p>
                    </div>
                </div>","1","main_experiment_trial","5","animals_semantic","semantic_sequence_notimeline","chronological","","","","","","",""
"","","","","","html-keyboard-response","111","560653","0.0-111.0","D788729468F54B408DB3C24A1A54190A","019d6bab-7995-7a24-9dd5-f5e7f293eeae","019d6b6d-d11f-7233-9b95-7a424dbf389f","","null","
                <div class=""stimulus-container"">
                    <img src=""semantic_sequence_notimeline/animals_semantic/animals_semantic_6.png"" class=""exp-image"">
                    <div class=""question-area""></div> 
                </div>","null","","","","","","","","","","","",""
"","","","","","html-button-response","112","561318","0.0-112.0","D788729468F54B408DB3C24A1A54190A","019d6bab-7995-7a24-9dd5-f5e7f293eeae","019d6b6d-d11f-7233-9b95-7a424dbf389f","","664","
                <div class=""stimulus-container"">
                    <img src=""semantic_sequence_notimeline/animals_semantic/animals_semantic_6.png"" class=""exp-image"">
                    <div class=""question-area"">
                        <p style=""font-size: 20px; font-weight: bold; margin: 0;"">Is there a person in this image?</p>
                    </div>
                </div>","1","main_experiment_trial","6","animals_semantic","semantic_sequence_notimeline","chronological","","","","","","",""
"","","","","","html-keyboard-response","113","566326","0.0-113.0","D788729468F54B408DB3C24A1A54190A","019d6bab-7995-7a24-9dd5-f5e7f293eeae","019d6b6d-d11f-7233-9b95-7a424dbf389f","","null","
                <div class=""stimulus-container"">
                    <img src=""semantic_sequence_notimeline/animals_semantic/animals_semantic_7.png"" class=""exp-image"">
                    <div class=""question-area""></div> 
                </div>","null","","","","","","","","","","","",""
"","","","","","html-button-response","114","566899","0.0-114.0","D788729468F54B408DB3C24A1A54190A","019d6bab-7995-7a24-9dd5-f5e7f293eeae","019d6b6d-d11f-7233-9b95-7a424dbf389f","","572","
                <div class=""stimulus-container"">
                    <img src=""semantic_sequence_notimeline/animals_semantic/animals_semantic_7.png"" class=""exp-image"">
                    <div class=""question-area"">
                        <p style=""font-size: 20px; font-weight: bold; margin: 0;"">Is there a person in this image?</p>
                    </div>
                </div>","1","main_experiment_trial","7","animals_semantic","semantic_sequence_notimeline","chronological","","","","","","",""
"","","","","","html-keyboard-response","115","571900","0.0-115.0","D788729468F54B408DB3C24A1A54190A","019d6bab-7995-7a24-9dd5-f5e7f293eeae","019d6b6d-d11f-7233-9b95-7a424dbf389f","","null","
                <div class=""stimulus-container"">
                    <img src=""semantic_sequence_notimeline/animals_semantic/animals_semantic_8.png"" class=""exp-image"">
                    <div class=""question-area""></div> 
                </div>","null","","","","","","","","","","","",""
"","","","","","html-button-response","116","572403","0.0-116.0","D788729468F54B408DB3C24A1A54190A","019d6bab-7995-7a24-9dd5-f5e7f293eeae","019d6b6d-d11f-7233-9b95-7a424dbf389f","","502","
                <div class=""stimulus-container"">
                    <img src=""semantic_sequence_notimeline/animals_semantic/animals_semantic_8.png"" class=""exp-image"">
                    <div class=""question-area"">
                        <p style=""font-size: 20px; font-weight: bold; margin: 0;"">Is there a person in this image?</p>
                    </div>
                </div>","1","main_experiment_trial","8","animals_semantic","semantic_sequence_notimeline","chronological","","","","","","",""
"","","","","","html-keyboard-response","117","577414","0.0-117.0","D788729468F54B408DB3C24A1A54190A","019d6bab-7995-7a24-9dd5-f5e7f293eeae","019d6b6d-d11f-7233-9b95-7a424dbf389f","","null","
                <div class=""stimulus-container"">
                    <img src=""semantic_sequence_notimeline/animals_semantic/animals_semantic_9.png"" class=""exp-image"">
                    <div class=""question-area""></div> 
                </div>","null","","","","","","","","","","","",""
"","","","","","html-button-response","118","580418","0.0-118.0","D788729468F54B408DB3C24A1A54190A","019d6bab-7995-7a24-9dd5-f5e7f293eeae","019d6b6d-d11f-7233-9b95-7a424dbf389f","","null","
                <div class=""stimulus-container"">
                    <img src=""semantic_sequence_notimeline/animals_semantic/animals_semantic_9.png"" class=""exp-image"">
                    <div class=""question-area"">
                        <p style=""font-size: 20px; font-weight: bold; margin: 0;"">Is there a person in this image?</p>
                    </div>
                </div>","null","main_experiment_trial","9","animals_semantic","semantic_sequence_notimeline","chronological","","","","","","",""
"","","","","","html-keyboard-response","119","585426","0.0-119.0","D788729468F54B408DB3C24A1A54190A","019d6bab-7995-7a24-9dd5-f5e7f293eeae","019d6b6d-d11f-7233-9b95-7a424dbf389f","","null","
                <div class=""stimulus-container"">
                    <img src=""semantic_sequence_notimeline/animals_semantic/animals_semantic_ten.png"" class=""exp-image"">
                    <div class=""question-area""></div> 
                </div>","null","","","","","","","","","","","",""
"","","","","","html-button-response","120","586003","0.0-120.0","D788729468F54B408DB3C24A1A54190A","019d6bab-7995-7a24-9dd5-f5e7f293eeae","019d6b6d-d11f-7233-9b95-7a424dbf389f","","576","
                <div class=""stimulus-container"">
                    <img src=""semantic_sequence_notimeline/animals_semantic/animals_semantic_ten.png"" class=""exp-image"">
                    <div class=""question-area"">
                        <p style=""font-size: 20px; font-weight: bold; margin: 0;"">Is there a person in this image?</p>
                    </div>
                </div>","1","main_experiment_trial","ten","animals_semantic","semantic_sequence_notimeline","chronological","","","","","","",""
"","","","","","html-keyboard-response","121","591013","0.0-121.0","D788729468F54B408DB3C24A1A54190A","019d6bab-7995-7a24-9dd5-f5e7f293eeae","019d6b6d-d11f-7233-9b95-7a424dbf389f","","null","<div style=""background-color: white; width: 100vw; height: 100vh;""></div>","null","","","","","","","","","","","",""
"","","","","","html-keyboard-response","122","596027","0.0-122.0","D788729468F54B408DB3C24A1A54190A","019d6bab-7995-7a24-9dd5-f5e7f293eeae","019d6b6d-d11f-7233-9b95-7a424dbf389f","","null","
                <div class=""stimulus-container"">
                    <img src=""semantic_sequence_notimeline/transportation_semantic/transportation_semantic_1.png"" class=""exp-image"">
                    <div class=""question-area""></div> 
                </div>","null","","","","","","","","","","","",""
"","","","","","html-button-response","123","597935","0.0-123.0","D788729468F54B408DB3C24A1A54190A","019d6bab-7995-7a24-9dd5-f5e7f293eeae","019d6b6d-d11f-7233-9b95-7a424dbf389f","","1907","
                <div class=""stimulus-container"">
                    <img src=""semantic_sequence_notimeline/transportation_semantic/transportation_semantic_1.png"" class=""exp-image"">
                    <div class=""question-area"">
                        <p style=""font-size: 20px; font-weight: bold; margin: 0;"">Is there a person in this image?</p>
                    </div>
                </div>","1","main_experiment_trial","1","transportation_semantic","semantic_sequence_notimeline","chronological","","","","","","",""
"","","","","","html-keyboard-response","124","602949","0.0-124.0","D788729468F54B408DB3C24A1A54190A","019d6bab-7995-7a24-9dd5-f5e7f293eeae","019d6b6d-d11f-7233-9b95-7a424dbf389f","","null","
                <div class=""stimulus-container"">
                    <img src=""semantic_sequence_notimeline/transportation_semantic/transportation_semantic_2.png"" class=""exp-image"">
                    <div class=""question-area""></div> 
                </div>","null","","","","","","","","","","","",""
"","","","","","html-button-response","125","604177","0.0-125.0","D788729468F54B408DB3C24A1A54190A","019d6bab-7995-7a24-9dd5-f5e7f293eeae","019d6b6d-d11f-7233-9b95-7a424dbf389f","","1226","
                <div class=""stimulus-container"">
                    <img src=""semantic_sequence_notimeline/transportation_semantic/transportation_semantic_2.png"" class=""exp-image"">
                    <div class=""question-area"">
                        <p style=""font-size: 20px; font-weight: bold; margin: 0;"">Is there a person in this image?</p>
                    </div>
                </div>","1","main_experiment_trial","2","transportation_semantic","semantic_sequence_notimeline","chronological","","","","","","",""
"","","","","","html-keyboard-response","126","609180","0.0-126.0","D788729468F54B408DB3C24A1A54190A","019d6bab-7995-7a24-9dd5-f5e7f293eeae","019d6b6d-d11f-7233-9b95-7a424dbf389f","","null","
                <div class=""stimulus-container"">
                    <img src=""semantic_sequence_notimeline/transportation_semantic/transportation_semantic_3.png"" class=""exp-image"">
                    <div class=""question-area""></div> 
                </div>","null","","","","","","","","","","","",""
"","","","","","html-button-response","127","610142","0.0-127.0","D788729468F54B408DB3C24A1A54190A","019d6bab-7995-7a24-9dd5-f5e7f293eeae","019d6b6d-d11f-7233-9b95-7a424dbf389f","","962","
                <div class=""stimulus-container"">
                    <img src=""semantic_sequence_notimeline/transportation_semantic/transportation_semantic_3.png"" class=""exp-image"">
                    <div class=""question-area"">
                        <p style=""font-size: 20px; font-weight: bold; margin: 0;"">Is there a person in this image?</p>
                    </div>
                </div>","1","main_experiment_trial","3","transportation_semantic","semantic_sequence_notimeline","chronological","","","","","","",""
"","","","","","html-keyboard-response","128","615144","0.0-128.0","D788729468F54B408DB3C24A1A54190A","019d6bab-7995-7a24-9dd5-f5e7f293eeae","019d6b6d-d11f-7233-9b95-7a424dbf389f","","null","
                <div class=""stimulus-container"">
                    <img src=""semantic_sequence_notimeline/transportation_semantic/transportation_semantic_4.png"" class=""exp-image"">
                    <div class=""question-area""></div> 
                </div>","null","","","","","","","","","","","",""
"","","","","","html-button-response","129","615664","0.0-129.0","D788729468F54B408DB3C24A1A54190A","019d6bab-7995-7a24-9dd5-f5e7f293eeae","019d6b6d-d11f-7233-9b95-7a424dbf389f","","520","
                <div class=""stimulus-container"">
                    <img src=""semantic_sequence_notimeline/transportation_semantic/transportation_semantic_4.png"" class=""exp-image"">
                    <div class=""question-area"">
                        <p style=""font-size: 20px; font-weight: bold; margin: 0;"">Is there a person in this image?</p>
                    </div>
                </div>","1","main_experiment_trial","4","transportation_semantic","semantic_sequence_notimeline","chronological","","","","","","",""
"","","","","","html-keyboard-response","130","620675","0.0-130.0","D788729468F54B408DB3C24A1A54190A","019d6bab-7995-7a24-9dd5-f5e7f293eeae","019d6b6d-d11f-7233-9b95-7a424dbf389f","","null","
                <div class=""stimulus-container"">
                    <img src=""semantic_sequence_notimeline/transportation_semantic/transportation_semantic_5.png"" class=""exp-image"">
                    <div class=""question-area""></div> 
                </div>","null","","","","","","","","","","","",""
"","","","","","html-button-response","131","621730","0.0-131.0","D788729468F54B408DB3C24A1A54190A","019d6bab-7995-7a24-9dd5-f5e7f293eeae","019d6b6d-d11f-7233-9b95-7a424dbf389f","","1054","
                <div class=""stimulus-container"">
                    <img src=""semantic_sequence_notimeline/transportation_semantic/transportation_semantic_5.png"" class=""exp-image"">
                    <div class=""question-area"">
                        <p style=""font-size: 20px; font-weight: bold; margin: 0;"">Is there a person in this image?</p>
                    </div>
                </div>","1","main_experiment_trial","5","transportation_semantic","semantic_sequence_notimeline","chronological","","","","","","",""
"","","","","","html-keyboard-response","132","626744","0.0-132.0","D788729468F54B408DB3C24A1A54190A","019d6bab-7995-7a24-9dd5-f5e7f293eeae","019d6b6d-d11f-7233-9b95-7a424dbf389f","","null","
                <div class=""stimulus-container"">
                    <img src=""semantic_sequence_notimeline/transportation_semantic/transportation_semantic_6.png"" class=""exp-image"">
                    <div class=""question-area""></div> 
                </div>","null","","","","","","","","","","","",""
"","","","","","html-button-response","133","627396","0.0-133.0","D788729468F54B408DB3C24A1A54190A","019d6bab-7995-7a24-9dd5-f5e7f293eeae","019d6b6d-d11f-7233-9b95-7a424dbf389f","","650","
                <div class=""stimulus-container"">
                    <img src=""semantic_sequence_notimeline/transportation_semantic/transportation_semantic_6.png"" class=""exp-image"">
                    <div class=""question-area"">
                        <p style=""font-size: 20px; font-weight: bold; margin: 0;"">Is there a person in this image?</p>
                    </div>
                </div>","0","main_experiment_trial","6","transportation_semantic","semantic_sequence_notimeline","chronological","","","","","","",""
"","","","","","html-keyboard-response","134","632404","0.0-134.0","D788729468F54B408DB3C24A1A54190A","019d6bab-7995-7a24-9dd5-f5e7f293eeae","019d6b6d-d11f-7233-9b95-7a424dbf389f","","null","
                <div class=""stimulus-container"">
                    <img src=""semantic_sequence_notimeline/transportation_semantic/transportation_semantic_7.png"" class=""exp-image"">
                    <div class=""question-area""></div> 
                </div>","null","","","","","","","","","","","",""
"","","","","","html-button-response","135","633385","0.0-135.0","D788729468F54B408DB3C24A1A54190A","019d6bab-7995-7a24-9dd5-f5e7f293eeae","019d6b6d-d11f-7233-9b95-7a424dbf389f","","980","
                <div class=""stimulus-container"">
                    <img src=""semantic_sequence_notimeline/transportation_semantic/transportation_semantic_7.png"" class=""exp-image"">
                    <div class=""question-area"">
                        <p style=""font-size: 20px; font-weight: bold; margin: 0;"">Is there a person in this image?</p>
                    </div>
                </div>","1","main_experiment_trial","7","transportation_semantic","semantic_sequence_notimeline","chronological","","","","","","",""
"","","","","","html-keyboard-response","136","638390","0.0-136.0","D788729468F54B408DB3C24A1A54190A","019d6bab-7995-7a24-9dd5-f5e7f293eeae","019d6b6d-d11f-7233-9b95-7a424dbf389f","","null","
                <div class=""stimulus-container"">
                    <img src=""semantic_sequence_notimeline/transportation_semantic/transportation_semantic_8.png"" class=""exp-image"">
                    <div class=""question-area""></div> 
                </div>","null","","","","","","","","","","","",""
"","","","","","html-button-response","137","639092","0.0-137.0","D788729468F54B408DB3C24A1A54190A","019d6bab-7995-7a24-9dd5-f5e7f293eeae","019d6b6d-d11f-7233-9b95-7a424dbf389f","","701","
                <div class=""stimulus-container"">
                    <img src=""semantic_sequence_notimeline/transportation_semantic/transportation_semantic_8.png"" class=""exp-image"">
                    <div class=""question-area"">
                        <p style=""font-size: 20px; font-weight: bold; margin: 0;"">Is there a person in this image?</p>
                    </div>
                </div>","1","main_experiment_trial","8","transportation_semantic","semantic_sequence_notimeline","chronological","","","","","","",""
"","","","","","html-keyboard-response","138","644101","0.0-138.0","D788729468F54B408DB3C24A1A54190A","019d6bab-7995-7a24-9dd5-f5e7f293eeae","019d6b6d-d11f-7233-9b95-7a424dbf389f","","null","
                <div class=""stimulus-container"">
                    <img src=""semantic_sequence_notimeline/transportation_semantic/transportation_semantic_9.png"" class=""exp-image"">
                    <div class=""question-area""></div> 
                </div>","null","","","","","","","","","","","",""
"","","","","","html-button-response","139","645277","0.0-139.0","D788729468F54B408DB3C24A1A54190A","019d6bab-7995-7a24-9dd5-f5e7f293eeae","019d6b6d-d11f-7233-9b95-7a424dbf389f","","1175","
                <div class=""stimulus-container"">
                    <img src=""semantic_sequence_notimeline/transportation_semantic/transportation_semantic_9.png"" class=""exp-image"">
                    <div class=""question-area"">
                        <p style=""font-size: 20px; font-weight: bold; margin: 0;"">Is there a person in this image?</p>
                    </div>
                </div>","1","main_experiment_trial","9","transportation_semantic","semantic_sequence_notimeline","chronological","","","","","","",""
"","","","","","html-keyboard-response","140","650292","0.0-140.0","D788729468F54B408DB3C24A1A54190A","019d6bab-7995-7a24-9dd5-f5e7f293eeae","019d6b6d-d11f-7233-9b95-7a424dbf389f","","null","
                <div class=""stimulus-container"">
                    <img src=""semantic_sequence_notimeline/transportation_semantic/transportation_semantic_ten.png"" class=""exp-image"">
                    <div class=""question-area""></div> 
                </div>","null","","","","","","","","","","","",""
"","","","","","html-button-response","141","651756","0.0-141.0","D788729468F54B408DB3C24A1A54190A","019d6bab-7995-7a24-9dd5-f5e7f293eeae","019d6b6d-d11f-7233-9b95-7a424dbf389f","","1463","
                <div class=""stimulus-container"">
                    <img src=""semantic_sequence_notimeline/transportation_semantic/transportation_semantic_ten.png"" class=""exp-image"">
                    <div class=""question-area"">
                        <p style=""font-size: 20px; font-weight: bold; margin: 0;"">Is there a person in this image?</p>
                    </div>
                </div>","1","main_experiment_trial","ten","transportation_semantic","semantic_sequence_notimeline","chronological","","","","","","",""
"","","","","","html-keyboard-response","142","656763","0.0-142.0","D788729468F54B408DB3C24A1A54190A","019d6bab-7995-7a24-9dd5-f5e7f293eeae","019d6b6d-d11f-7233-9b95-7a424dbf389f","","null","<div style=""background-color: white; width: 100vw; height: 100vh;""></div>","null","","","","","","","","","","","",""
"","","","","","html-keyboard-response","143","661766","0.0-143.0","D788729468F54B408DB3C24A1A54190A","019d6bab-7995-7a24-9dd5-f5e7f293eeae","019d6b6d-d11f-7233-9b95-7a424dbf389f","","null","
                <div class=""stimulus-container"">
                    <img src=""images/causal_sequence/coin_causal/coin_causal_1.png"" class=""exp-image"">
                    <div class=""question-area""></div> 
                </div>","null","","","","","","","","","","","",""
"","","","","","html-button-response","144","662487","0.0-144.0","D788729468F54B408DB3C24A1A54190A","019d6bab-7995-7a24-9dd5-f5e7f293eeae","019d6b6d-d11f-7233-9b95-7a424dbf389f","","719","
                <div class=""stimulus-container"">
                    <img src=""images/causal_sequence/coin_causal/coin_causal_1.png"" class=""exp-image"">
                    <div class=""question-area"">
                        <p style=""font-size: 20px; font-weight: bold; margin: 0;"">Is there a person in this image?</p>
                    </div>
                </div>","0","main_experiment_trial","1","coin_causal","causal_sequence","chronological","","","","","","",""
"","","","","","html-keyboard-response","145","667496","0.0-145.0","D788729468F54B408DB3C24A1A54190A","019d6bab-7995-7a24-9dd5-f5e7f293eeae","019d6b6d-d11f-7233-9b95-7a424dbf389f","","null","
                <div class=""stimulus-container"">
                    <img src=""images/causal_sequence/coin_causal/coin_causal_2.png"" class=""exp-image"">
                    <div class=""question-area""></div> 
                </div>","null","","","","","","","","","","","",""
"","","","","","html-button-response","146","668636","0.0-146.0","D788729468F54B408DB3C24A1A54190A","019d6bab-7995-7a24-9dd5-f5e7f293eeae","019d6b6d-d11f-7233-9b95-7a424dbf389f","","1139","
                <div class=""stimulus-container"">
                    <img src=""images/causal_sequence/coin_causal/coin_causal_2.png"" class=""exp-image"">
                    <div class=""question-area"">
                        <p style=""font-size: 20px; font-weight: bold; margin: 0;"">Is there a person in this image?</p>
                    </div>
                </div>","0","main_experiment_trial","2","coin_causal","causal_sequence","chronological","","","","","","",""
"","","","","","html-keyboard-response","147","673643","0.0-147.0","D788729468F54B408DB3C24A1A54190A","019d6bab-7995-7a24-9dd5-f5e7f293eeae","019d6b6d-d11f-7233-9b95-7a424dbf389f","","null","
                <div class=""stimulus-container"">
                    <img src=""images/causal_sequence/coin_causal/coin_causal_3.png"" class=""exp-image"">
                    <div class=""question-area""></div> 
                </div>","null","","","","","","","","","","","",""
"","","","","","html-button-response","148","674803","0.0-148.0","D788729468F54B408DB3C24A1A54190A","019d6bab-7995-7a24-9dd5-f5e7f293eeae","019d6b6d-d11f-7233-9b95-7a424dbf389f","","1158","
                <div class=""stimulus-container"">
                    <img src=""images/causal_sequence/coin_causal/coin_causal_3.png"" class=""exp-image"">
                    <div class=""question-area"">
                        <p style=""font-size: 20px; font-weight: bold; margin: 0;"">Is there a person in this image?</p>
                    </div>
                </div>","0","main_experiment_trial","3","coin_causal","causal_sequence","chronological","","","","","","",""
"","","","","","html-keyboard-response","149","679805","0.0-149.0","D788729468F54B408DB3C24A1A54190A","019d6bab-7995-7a24-9dd5-f5e7f293eeae","019d6b6d-d11f-7233-9b95-7a424dbf389f","","null","
                <div class=""stimulus-container"">
                    <img src=""images/causal_sequence/coin_causal/coin_causal_4.png"" class=""exp-image"">
                    <div class=""question-area""></div> 
                </div>","null","","","","","","","","","","","",""
"","","","","","html-button-response","150","681030","0.0-150.0","D788729468F54B408DB3C24A1A54190A","019d6bab-7995-7a24-9dd5-f5e7f293eeae","019d6b6d-d11f-7233-9b95-7a424dbf389f","","1225","
                <div class=""stimulus-container"">
                    <img src=""images/causal_sequence/coin_causal/coin_causal_4.png"" class=""exp-image"">
                    <div class=""question-area"">
                        <p style=""font-size: 20px; font-weight: bold; margin: 0;"">Is there a person in this image?</p>
                    </div>
                </div>","0","main_experiment_trial","4","coin_causal","causal_sequence","chronological","","","","","","",""
"","","","","","html-keyboard-response","151","686038","0.0-151.0","D788729468F54B408DB3C24A1A54190A","019d6bab-7995-7a24-9dd5-f5e7f293eeae","019d6b6d-d11f-7233-9b95-7a424dbf389f","","null","
                <div class=""stimulus-container"">
                    <img src=""images/causal_sequence/coin_causal/coin_causal_5.png"" class=""exp-image"">
                    <div class=""question-area""></div> 
                </div>","null","","","","","","","","","","","",""
"","","","","","html-button-response","152","687162","0.0-152.0","D788729468F54B408DB3C24A1A54190A","019d6bab-7995-7a24-9dd5-f5e7f293eeae","019d6b6d-d11f-7233-9b95-7a424dbf389f","","1122","
                <div class=""stimulus-container"">
                    <img src=""images/causal_sequence/coin_causal/coin_causal_5.png"" class=""exp-image"">
                    <div class=""question-area"">
                        <p style=""font-size: 20px; font-weight: bold; margin: 0;"">Is there a person in this image?</p>
                    </div>
                </div>","0","main_experiment_trial","5","coin_causal","causal_sequence","chronological","","","","","","",""
"","","","","","html-keyboard-response","153","692167","0.0-153.0","D788729468F54B408DB3C24A1A54190A","019d6bab-7995-7a24-9dd5-f5e7f293eeae","019d6b6d-d11f-7233-9b95-7a424dbf389f","","null","
                <div class=""stimulus-container"">
                    <img src=""images/causal_sequence/coin_causal/coin_causal_6.png"" class=""exp-image"">
                    <div class=""question-area""></div> 
                </div>","null","","","","","","","","","","","",""
"","","","","","html-button-response","154","693068","0.0-154.0","D788729468F54B408DB3C24A1A54190A","019d6bab-7995-7a24-9dd5-f5e7f293eeae","019d6b6d-d11f-7233-9b95-7a424dbf389f","","899","
                <div class=""stimulus-container"">
                    <img src=""images/causal_sequence/coin_causal/coin_causal_6.png"" class=""exp-image"">
                    <div class=""question-area"">
                        <p style=""font-size: 20px; font-weight: bold; margin: 0;"">Is there a person in this image?</p>
                    </div>
                </div>","0","main_experiment_trial","6","coin_causal","causal_sequence","chronological","","","","","","",""
"","","","","","html-keyboard-response","155","698083","0.0-155.0","D788729468F54B408DB3C24A1A54190A","019d6bab-7995-7a24-9dd5-f5e7f293eeae","019d6b6d-d11f-7233-9b95-7a424dbf389f","","null","
                <div class=""stimulus-container"">
                    <img src=""images/causal_sequence/coin_causal/coin_causal_7.png"" class=""exp-image"">
                    <div class=""question-area""></div> 
                </div>","null","","","","","","","","","","","",""
"","","","","","html-button-response","156","699190","0.0-156.0","D788729468F54B408DB3C24A1A54190A","019d6bab-7995-7a24-9dd5-f5e7f293eeae","019d6b6d-d11f-7233-9b95-7a424dbf389f","","1106","
                <div class=""stimulus-container"">
                    <img src=""images/causal_sequence/coin_causal/coin_causal_7.png"" class=""exp-image"">
                    <div class=""question-area"">
                        <p style=""font-size: 20px; font-weight: bold; margin: 0;"">Is there a person in this image?</p>
                    </div>
                </div>","1","main_experiment_trial","7","coin_causal","causal_sequence","chronological","","","","","","",""
"","","","","","html-keyboard-response","157","704201","0.0-157.0","D788729468F54B408DB3C24A1A54190A","019d6bab-7995-7a24-9dd5-f5e7f293eeae","019d6b6d-d11f-7233-9b95-7a424dbf389f","","null","
                <div class=""stimulus-container"">
                    <img src=""images/causal_sequence/coin_causal/coin_causal_8.png"" class=""exp-image"">
                    <div class=""question-area""></div> 
                </div>","null","","","","","","","","","","","",""
"","","","","","html-button-response","158","705302","0.0-158.0","D788729468F54B408DB3C24A1A54190A","019d6bab-7995-7a24-9dd5-f5e7f293eeae","019d6b6d-d11f-7233-9b95-7a424dbf389f","","1099","
                <div class=""stimulus-container"">
                    <img src=""images/causal_sequence/coin_causal/coin_causal_8.png"" class=""exp-image"">
                    <div class=""question-area"">
                        <p style=""font-size: 20px; font-weight: bold; margin: 0;"">Is there a person in this image?</p>
                    </div>
                </div>","0","main_experiment_trial","8","coin_causal","causal_sequence","chronological","","","","","","",""
"","","","","","html-keyboard-response","159","710305","0.0-159.0","D788729468F54B408DB3C24A1A54190A","019d6bab-7995-7a24-9dd5-f5e7f293eeae","019d6b6d-d11f-7233-9b95-7a424dbf389f","","null","
                <div class=""stimulus-container"">
                    <img src=""images/causal_sequence/coin_causal/coin_causal_9.png"" class=""exp-image"">
                    <div class=""question-area""></div> 
                </div>","null","","","","","","","","","","","",""
"","","","","","html-button-response","160","711747","0.0-160.0","D788729468F54B408DB3C24A1A54190A","019d6bab-7995-7a24-9dd5-f5e7f293eeae","019d6b6d-d11f-7233-9b95-7a424dbf389f","","1441","
                <div class=""stimulus-container"">
                    <img src=""images/causal_sequence/coin_causal/coin_causal_9.png"" class=""exp-image"">
                    <div class=""question-area"">
                        <p style=""font-size: 20px; font-weight: bold; margin: 0;"">Is there a person in this image?</p>
                    </div>
                </div>","0","main_experiment_trial","9","coin_causal","causal_sequence","chronological","","","","","","",""
"","","","","","html-keyboard-response","161","716757","0.0-161.0","D788729468F54B408DB3C24A1A54190A","019d6bab-7995-7a24-9dd5-f5e7f293eeae","019d6b6d-d11f-7233-9b95-7a424dbf389f","","null","
                <div class=""stimulus-container"">
                    <img src=""images/causal_sequence/coin_causal/coin_causal_ten.png"" class=""exp-image"">
                    <div class=""question-area""></div> 
                </div>","null","","","","","","","","","","","",""
"","","","","","html-button-response","162","717940","0.0-162.0","D788729468F54B408DB3C24A1A54190A","019d6bab-7995-7a24-9dd5-f5e7f293eeae","019d6b6d-d11f-7233-9b95-7a424dbf389f","","1182","
                <div class=""stimulus-container"">
                    <img src=""images/causal_sequence/coin_causal/coin_causal_ten.png"" class=""exp-image"">
                    <div class=""question-area"">
                        <p style=""font-size: 20px; font-weight: bold; margin: 0;"">Is there a person in this image?</p>
                    </div>
                </div>","0","main_experiment_trial","ten","coin_causal","causal_sequence","chronological","","","","","","",""
"","","","","","html-keyboard-response","163","722946","0.0-163.0","D788729468F54B408DB3C24A1A54190A","019d6bab-7995-7a24-9dd5-f5e7f293eeae","019d6b6d-d11f-7233-9b95-7a424dbf389f","","null","<div style=""background-color: white; width: 100vw; height: 100vh;""></div>","null","","","","","","","","","","","",""
"","","","","","html-keyboard-response","164","727952","0.0-164.0","D788729468F54B408DB3C24A1A54190A","019d6bab-7995-7a24-9dd5-f5e7f293eeae","019d6b6d-d11f-7233-9b95-7a424dbf389f","","null","
                <div class=""stimulus-container"">
                    <img src=""semantic_sequence_notimeline/fruits_semantic/fruits_semantic_1.png"" class=""exp-image"">
                    <div class=""question-area""></div> 
                </div>","null","","","","","","","","","","","",""
"","","","","","html-button-response","165","729475","0.0-165.0","D788729468F54B408DB3C24A1A54190A","019d6bab-7995-7a24-9dd5-f5e7f293eeae","019d6b6d-d11f-7233-9b95-7a424dbf389f","","1522","
                <div class=""stimulus-container"">
                    <img src=""semantic_sequence_notimeline/fruits_semantic/fruits_semantic_1.png"" class=""exp-image"">
                    <div class=""question-area"">
                        <p style=""font-size: 20px; font-weight: bold; margin: 0;"">Is there a person in this image?</p>
                    </div>
                </div>","1","main_experiment_trial","1","fruits_semantic","semantic_sequence_notimeline","chronological","","","","","","",""
"","","","","","html-keyboard-response","166","734484","0.0-166.0","D788729468F54B408DB3C24A1A54190A","019d6bab-7995-7a24-9dd5-f5e7f293eeae","019d6b6d-d11f-7233-9b95-7a424dbf389f","","null","
                <div class=""stimulus-container"">
                    <img src=""semantic_sequence_notimeline/fruits_semantic/fruits_semantic_2.png"" class=""exp-image"">
                    <div class=""question-area""></div> 
                </div>","null","","","","","","","","","","","",""
"","","","","","html-button-response","167","735549","0.0-167.0","D788729468F54B408DB3C24A1A54190A","019d6bab-7995-7a24-9dd5-f5e7f293eeae","019d6b6d-d11f-7233-9b95-7a424dbf389f","","1064","
                <div class=""stimulus-container"">
                    <img src=""semantic_sequence_notimeline/fruits_semantic/fruits_semantic_2.png"" class=""exp-image"">
                    <div class=""question-area"">
                        <p style=""font-size: 20px; font-weight: bold; margin: 0;"">Is there a person in this image?</p>
                    </div>
                </div>","1","main_experiment_trial","2","fruits_semantic","semantic_sequence_notimeline","chronological","","","","","","",""
"","","","","","html-keyboard-response","168","740555","0.0-168.0","D788729468F54B408DB3C24A1A54190A","019d6bab-7995-7a24-9dd5-f5e7f293eeae","019d6b6d-d11f-7233-9b95-7a424dbf389f","","null","
                <div class=""stimulus-container"">
                    <img src=""semantic_sequence_notimeline/fruits_semantic/fruits_semantic_3.png"" class=""exp-image"">
                    <div class=""question-area""></div> 
                </div>","null","","","","","","","","","","","",""
"","","","","","html-button-response","169","741884","0.0-169.0","D788729468F54B408DB3C24A1A54190A","019d6bab-7995-7a24-9dd5-f5e7f293eeae","019d6b6d-d11f-7233-9b95-7a424dbf389f","","1327","
                <div class=""stimulus-container"">
                    <img src=""semantic_sequence_notimeline/fruits_semantic/fruits_semantic_3.png"" class=""exp-image"">
                    <div class=""question-area"">
                        <p style=""font-size: 20px; font-weight: bold; margin: 0;"">Is there a person in this image?</p>
                    </div>
                </div>","1","main_experiment_trial","3","fruits_semantic","semantic_sequence_notimeline","chronological","","","","","","",""
"","","","","","html-keyboard-response","170","746888","0.0-170.0","D788729468F54B408DB3C24A1A54190A","019d6bab-7995-7a24-9dd5-f5e7f293eeae","019d6b6d-d11f-7233-9b95-7a424dbf389f","","null","
                <div class=""stimulus-container"">
                    <img src=""semantic_sequence_notimeline/fruits_semantic/fruits_semantic_4.png"" class=""exp-image"">
                    <div class=""question-area""></div> 
                </div>","null","","","","","","","","","","","",""
"","","","","","html-button-response","171","747983","0.0-171.0","D788729468F54B408DB3C24A1A54190A","019d6bab-7995-7a24-9dd5-f5e7f293eeae","019d6b6d-d11f-7233-9b95-7a424dbf389f","","1094","
                <div class=""stimulus-container"">
                    <img src=""semantic_sequence_notimeline/fruits_semantic/fruits_semantic_4.png"" class=""exp-image"">
                    <div class=""question-area"">
                        <p style=""font-size: 20px; font-weight: bold; margin: 0;"">Is there a person in this image?</p>
                    </div>
                </div>","1","main_experiment_trial","4","fruits_semantic","semantic_sequence_notimeline","chronological","","","","","","",""
"","","","","","html-keyboard-response","172","752991","0.0-172.0","D788729468F54B408DB3C24A1A54190A","019d6bab-7995-7a24-9dd5-f5e7f293eeae","019d6b6d-d11f-7233-9b95-7a424dbf389f","","null","
                <div class=""stimulus-container"">
                    <img src=""semantic_sequence_notimeline/fruits_semantic/fruits_semantic_5.png"" class=""exp-image"">
                    <div class=""question-area""></div> 
                </div>","null","","","","","","","","","","","",""
"","","","","","html-button-response","173","755200","0.0-173.0","D788729468F54B408DB3C24A1A54190A","019d6bab-7995-7a24-9dd5-f5e7f293eeae","019d6b6d-d11f-7233-9b95-7a424dbf389f","","2208","
                <div class=""stimulus-container"">
                    <img src=""semantic_sequence_notimeline/fruits_semantic/fruits_semantic_5.png"" class=""exp-image"">
                    <div class=""question-area"">
                        <p style=""font-size: 20px; font-weight: bold; margin: 0;"">Is there a person in this image?</p>
                    </div>
                </div>","1","main_experiment_trial","5","fruits_semantic","semantic_sequence_notimeline","chronological","","","","","","",""
"","","","","","html-keyboard-response","174","760206","0.0-174.0","D788729468F54B408DB3C24A1A54190A","019d6bab-7995-7a24-9dd5-f5e7f293eeae","019d6b6d-d11f-7233-9b95-7a424dbf389f","","null","
                <div class=""stimulus-container"">
                    <img src=""semantic_sequence_notimeline/fruits_semantic/fruits_semantic_6.png"" class=""exp-image"">
                    <div class=""question-area""></div> 
                </div>","null","","","","","","","","","","","",""
"","","","","","html-button-response","175","761504","0.0-175.0","D788729468F54B408DB3C24A1A54190A","019d6bab-7995-7a24-9dd5-f5e7f293eeae","019d6b6d-d11f-7233-9b95-7a424dbf389f","","1297","
                <div class=""stimulus-container"">
                    <img src=""semantic_sequence_notimeline/fruits_semantic/fruits_semantic_6.png"" class=""exp-image"">
                    <div class=""question-area"">
                        <p style=""font-size: 20px; font-weight: bold; margin: 0;"">Is there a person in this image?</p>
                    </div>
                </div>","1","main_experiment_trial","6","fruits_semantic","semantic_sequence_notimeline","chronological","","","","","","",""
"","","","","","html-keyboard-response","176","766520","0.0-176.0","D788729468F54B408DB3C24A1A54190A","019d6bab-7995-7a24-9dd5-f5e7f293eeae","019d6b6d-d11f-7233-9b95-7a424dbf389f","","null","
                <div class=""stimulus-container"">
                    <img src=""semantic_sequence_notimeline/fruits_semantic/fruits_semantic_7.png"" class=""exp-image"">
                    <div class=""question-area""></div> 
                </div>","null","","","","","","","","","","","",""
"","","","","","html-button-response","177","767652","0.0-177.0","D788729468F54B408DB3C24A1A54190A","019d6bab-7995-7a24-9dd5-f5e7f293eeae","019d6b6d-d11f-7233-9b95-7a424dbf389f","","1131","
                <div class=""stimulus-container"">
