"success","timeout","failed_images","failed_audio","failed_video","trial_type","trial_index","time_elapsed","internal_node_id","subject_id","study_id","session_id","view_history","rt","stimulus","response","task","image_index","folder","sequence_type","valuable_image_index","reward_type","chosen_image_index","target_X","correct_choice"
"true","false","[]","[]","[]","preload","0","2849","0.0-0.0","33356773480B472981A705450E1C96DE","019cf7c7-0902-73a7-bde5-7a55b1c7628f","019cf7bd-52b9-7f96-9138-a5960b400b31","","","","","","","","","","","","",""
"","","","","","instructions","1","11474","0.0-1.0","33356773480B472981A705450E1C96DE","019cf7c7-0902-73a7-bde5-7a55b1c7628f","019cf7bd-52b9-7f96-9138-a5960b400b31","[{""page_index"":0,""viewing_time"":8624}]","8624","","","","","","","","","","",""
"","","","","","instructions","2","18085","0.0-2.0","33356773480B472981A705450E1C96DE","019cf7c7-0902-73a7-bde5-7a55b1c7628f","019cf7bd-52b9-7f96-9138-a5960b400b31","[{""page_index"":0,""viewing_time"":6611}]","6611","","","","","","","","","","",""
"true","","","","","fullscreen","3","35229","0.0-3.0","33356773480B472981A705450E1C96DE","019cf7c7-0902-73a7-bde5-7a55b1c7628f","019cf7bd-52b9-7f96-9138-a5960b400b31","","16126","","","","","","","","","","",""
"","","","","","instructions","4","64154","0.0-4.0","33356773480B472981A705450E1C96DE","019cf7c7-0902-73a7-bde5-7a55b1c7628f","019cf7bd-52b9-7f96-9138-a5960b400b31","[{""page_index"":0,""viewing_time"":28925}]","28925","","","","","","","","","","",""
"","","","","","instructions","5","66883","0.0-5.0","33356773480B472981A705450E1C96DE","019cf7c7-0902-73a7-bde5-7a55b1c7628f","019cf7bd-52b9-7f96-9138-a5960b400b31","[{""page_index"":0,""viewing_time"":2729}]","2729","","","","","","","","","","",""
"","","","","","html-keyboard-response","6","70888","0.0-6.0","33356773480B472981A705450E1C96DE","019cf7c7-0902-73a7-bde5-7a55b1c7628f","019cf7bd-52b9-7f96-9138-a5960b400b31","","null","
                <div class=""stimulus-container"">
                    <img src=""images/instructions/movie_1.png"" class=""exp-image"">
                    <div class=""question-area""></div> 
                </div>","null","","","","","","","","",""
"","","","","","html-button-response","7","73899","0.0-7.0","33356773480B472981A705450E1C96DE","019cf7c7-0902-73a7-bde5-7a55b1c7628f","019cf7bd-52b9-7f96-9138-a5960b400b31","","null","
                <div class=""stimulus-container"">
                    <img src=""images/instructions/movie_1.png"" class=""exp-image"">
                    <div class=""question-area"">
                        <p style=""font-size: 20px; font-weight: bold; margin: 0;"">Was there a person in this image?</p>
                    </div>
                </div>","null","example_question","1","","","","","","",""
"","","","","","html-keyboard-response","8","77910","0.0-8.0","33356773480B472981A705450E1C96DE","019cf7c7-0902-73a7-bde5-7a55b1c7628f","019cf7bd-52b9-7f96-9138-a5960b400b31","","null","
                <div class=""stimulus-container"">
                    <img src=""images/instructions/movie_2.png"" class=""exp-image"">
                    <div class=""question-area""></div> 
                </div>","null","","","","","","","","",""
"","","","","","html-button-response","9","79173","0.0-9.0","33356773480B472981A705450E1C96DE","019cf7c7-0902-73a7-bde5-7a55b1c7628f","019cf7bd-52b9-7f96-9138-a5960b400b31","","1261","
                <div class=""stimulus-container"">
                    <img src=""images/instructions/movie_2.png"" class=""exp-image"">
                    <div class=""question-area"">
                        <p style=""font-size: 20px; font-weight: bold; margin: 0;"">Was there a person in this image?</p>
                    </div>
                </div>","0","example_question","2","","","","","","",""
"","","","","","html-keyboard-response","10","83182","0.0-10.0","33356773480B472981A705450E1C96DE","019cf7c7-0902-73a7-bde5-7a55b1c7628f","019cf7bd-52b9-7f96-9138-a5960b400b31","","null","
                <div class=""stimulus-container"">
                    <img src=""images/instructions/movie_3.png"" class=""exp-image"">
                    <div class=""question-area""></div> 
                </div>","null","","","","","","","","",""
"","","","","","html-button-response","11","84254","0.0-11.0","33356773480B472981A705450E1C96DE","019cf7c7-0902-73a7-bde5-7a55b1c7628f","019cf7bd-52b9-7f96-9138-a5960b400b31","","1070","
                <div class=""stimulus-container"">
                    <img src=""images/instructions/movie_3.png"" class=""exp-image"">
                    <div class=""question-area"">
                        <p style=""font-size: 20px; font-weight: bold; margin: 0;"">Was there a person in this image?</p>
                    </div>
                </div>","0","example_question","3","","","","","","",""
"","","","","","html-keyboard-response","12","88259","0.0-12.0","33356773480B472981A705450E1C96DE","019cf7c7-0902-73a7-bde5-7a55b1c7628f","019cf7bd-52b9-7f96-9138-a5960b400b31","","null","
                <div class=""stimulus-container"">
                    <img src=""images/instructions/movie_4.png"" class=""exp-image"">
                    <div class=""question-area""></div> 
                </div>","null","","","","","","","","",""
"","","","","","html-button-response","13","88887","0.0-13.0","33356773480B472981A705450E1C96DE","019cf7c7-0902-73a7-bde5-7a55b1c7628f","019cf7bd-52b9-7f96-9138-a5960b400b31","","626","
                <div class=""stimulus-container"">
                    <img src=""images/instructions/movie_4.png"" class=""exp-image"">
                    <div class=""question-area"">
                        <p style=""font-size: 20px; font-weight: bold; margin: 0;"">Was there a person in this image?</p>
                    </div>
                </div>","0","example_question","4","","","","","","",""
"","","","","","instructions","14","91816","0.0-14.0","33356773480B472981A705450E1C96DE","019cf7c7-0902-73a7-bde5-7a55b1c7628f","019cf7bd-52b9-7f96-9138-a5960b400b31","[{""page_index"":0,""viewing_time"":2928}]","2929","","","","","","","","","","",""
"","","","","","instructions","15","96250","0.0-15.0","33356773480B472981A705450E1C96DE","019cf7c7-0902-73a7-bde5-7a55b1c7628f","019cf7bd-52b9-7f96-9138-a5960b400b31","[{""page_index"":0,""viewing_time"":4433}]","4433","","","","","","","","","","",""
"","","","","","html-keyboard-response","16","97265","0.0-16.0","33356773480B472981A705450E1C96DE","019cf7c7-0902-73a7-bde5-7a55b1c7628f","019cf7bd-52b9-7f96-9138-a5960b400b31","","null","<div style=""background-color: white; width: 100vw; height: 100vh;""></div>","null","","","","","","","","",""
"","","","","","html-keyboard-response","17","102281","0.0-17.0","33356773480B472981A705450E1C96DE","019cf7c7-0902-73a7-bde5-7a55b1c7628f","019cf7bd-52b9-7f96-9138-a5960b400b31","","null","
                <div class=""stimulus-container"">
                    <img src=""images/semantic_sequence/cat_care_semantic/cat_care_semantic_1.png"" class=""exp-image"">
                    <div class=""question-area""></div> 
                </div>","null","","","","","","","","",""
"","","","","","html-button-response","18","103741","0.0-18.0","33356773480B472981A705450E1C96DE","019cf7c7-0902-73a7-bde5-7a55b1c7628f","019cf7bd-52b9-7f96-9138-a5960b400b31","","1458","
                <div class=""stimulus-container"">
                    <img src=""images/semantic_sequence/cat_care_semantic/cat_care_semantic_1.png"" class=""exp-image"">
                    <div class=""question-area"">
                        <p style=""font-size: 20px; font-weight: bold; margin: 0;"">Is there a person in this image?</p>
                    </div>
                </div>","0","main_experiment_trial","1","cat_care_semantic","semantic_sequence","","","","",""
"","","","","","html-keyboard-response","19","108744","0.0-19.0","33356773480B472981A705450E1C96DE","019cf7c7-0902-73a7-bde5-7a55b1c7628f","019cf7bd-52b9-7f96-9138-a5960b400b31","","null","
                <div class=""stimulus-container"">
                    <img src=""images/semantic_sequence/cat_care_semantic/cat_care_semantic_2.png"" class=""exp-image"">
                    <div class=""question-area""></div> 
                </div>","null","","","","","","","","",""
"","","","","","html-button-response","20","109391","0.0-20.0","33356773480B472981A705450E1C96DE","019cf7c7-0902-73a7-bde5-7a55b1c7628f","019cf7bd-52b9-7f96-9138-a5960b400b31","","646","
                <div class=""stimulus-container"">
                    <img src=""images/semantic_sequence/cat_care_semantic/cat_care_semantic_2.png"" class=""exp-image"">
                    <div class=""question-area"">
                        <p style=""font-size: 20px; font-weight: bold; margin: 0;"">Is there a person in this image?</p>
                    </div>
                </div>","0","main_experiment_trial","2","cat_care_semantic","semantic_sequence","","","","",""
"","","","","","html-keyboard-response","21","114408","0.0-21.0","33356773480B472981A705450E1C96DE","019cf7c7-0902-73a7-bde5-7a55b1c7628f","019cf7bd-52b9-7f96-9138-a5960b400b31","","null","
                <div class=""stimulus-container"">
                    <img src=""images/semantic_sequence/cat_care_semantic/cat_care_semantic_3.png"" class=""exp-image"">
                    <div class=""question-area""></div> 
                </div>","null","","","","","","","","",""
"","","","","","html-button-response","22","115159","0.0-22.0","33356773480B472981A705450E1C96DE","019cf7c7-0902-73a7-bde5-7a55b1c7628f","019cf7bd-52b9-7f96-9138-a5960b400b31","","750","
                <div class=""stimulus-container"">
                    <img src=""images/semantic_sequence/cat_care_semantic/cat_care_semantic_3.png"" class=""exp-image"">
                    <div class=""question-area"">
                        <p style=""font-size: 20px; font-weight: bold; margin: 0;"">Is there a person in this image?</p>
                    </div>
                </div>","0","main_experiment_trial","3","cat_care_semantic","semantic_sequence","","","","",""
"","","","","","html-keyboard-response","23","120173","0.0-23.0","33356773480B472981A705450E1C96DE","019cf7c7-0902-73a7-bde5-7a55b1c7628f","019cf7bd-52b9-7f96-9138-a5960b400b31","","null","
                <div class=""stimulus-container"">
                    <img src=""images/semantic_sequence/cat_care_semantic/cat_care_semantic_4.png"" class=""exp-image"">
                    <div class=""question-area""></div> 
                </div>","null","","","","","","","","",""
"","","","","","html-button-response","24","120727","0.0-24.0","33356773480B472981A705450E1C96DE","019cf7c7-0902-73a7-bde5-7a55b1c7628f","019cf7bd-52b9-7f96-9138-a5960b400b31","","553","
                <div class=""stimulus-container"">
                    <img src=""images/semantic_sequence/cat_care_semantic/cat_care_semantic_4.png"" class=""exp-image"">
                    <div class=""question-area"">
                        <p style=""font-size: 20px; font-weight: bold; margin: 0;"">Is there a person in this image?</p>
                    </div>
                </div>","0","main_experiment_trial","4","cat_care_semantic","semantic_sequence","","","","",""
"","","","","","html-keyboard-response","25","125742","0.0-25.0","33356773480B472981A705450E1C96DE","019cf7c7-0902-73a7-bde5-7a55b1c7628f","019cf7bd-52b9-7f96-9138-a5960b400b31","","null","
                <div class=""stimulus-container"">
                    <img src=""images/semantic_sequence/cat_care_semantic/cat_care_semantic_5.png"" class=""exp-image"">
                    <div class=""question-area""></div> 
                </div>","null","","","","","","","","",""
"","","","","","html-button-response","26","126356","0.0-26.0","33356773480B472981A705450E1C96DE","019cf7c7-0902-73a7-bde5-7a55b1c7628f","019cf7bd-52b9-7f96-9138-a5960b400b31","","613","
                <div class=""stimulus-container"">
                    <img src=""images/semantic_sequence/cat_care_semantic/cat_care_semantic_5.png"" class=""exp-image"">
                    <div class=""question-area"">
                        <p style=""font-size: 20px; font-weight: bold; margin: 0;"">Is there a person in this image?</p>
                    </div>
                </div>","0","main_experiment_trial","5","cat_care_semantic","semantic_sequence","","","","",""
"","","","","","html-keyboard-response","27","131368","0.0-27.0","33356773480B472981A705450E1C96DE","019cf7c7-0902-73a7-bde5-7a55b1c7628f","019cf7bd-52b9-7f96-9138-a5960b400b31","","null","
                <div class=""stimulus-container"">
                    <img src=""images/semantic_sequence/cat_care_semantic/cat_care_semantic_6.png"" class=""exp-image"">
                    <div class=""question-area""></div> 
                </div>","null","","","","","","","","",""
"","","","","","html-button-response","28","131902","0.0-28.0","33356773480B472981A705450E1C96DE","019cf7c7-0902-73a7-bde5-7a55b1c7628f","019cf7bd-52b9-7f96-9138-a5960b400b31","","532","
                <div class=""stimulus-container"">
                    <img src=""images/semantic_sequence/cat_care_semantic/cat_care_semantic_6.png"" class=""exp-image"">
                    <div class=""question-area"">
                        <p style=""font-size: 20px; font-weight: bold; margin: 0;"">Is there a person in this image?</p>
                    </div>
                </div>","0","main_experiment_trial","6","cat_care_semantic","semantic_sequence","","","","",""
"","","","","","html-keyboard-response","29","136911","0.0-29.0","33356773480B472981A705450E1C96DE","019cf7c7-0902-73a7-bde5-7a55b1c7628f","019cf7bd-52b9-7f96-9138-a5960b400b31","","null","
                <div class=""stimulus-container"">
                    <img src=""images/semantic_sequence/cat_care_semantic/cat_care_semantic_7.png"" class=""exp-image"">
                    <div class=""question-area""></div> 
                </div>","null","","","","","","","","",""
"","","","","","html-button-response","30","137411","0.0-30.0","33356773480B472981A705450E1C96DE","019cf7c7-0902-73a7-bde5-7a55b1c7628f","019cf7bd-52b9-7f96-9138-a5960b400b31","","499","
                <div class=""stimulus-container"">
                    <img src=""images/semantic_sequence/cat_care_semantic/cat_care_semantic_7.png"" class=""exp-image"">
                    <div class=""question-area"">
                        <p style=""font-size: 20px; font-weight: bold; margin: 0;"">Is there a person in this image?</p>
                    </div>
                </div>","0","main_experiment_trial","7","cat_care_semantic","semantic_sequence","","","","",""
"","","","","","html-keyboard-response","31","142421","0.0-31.0","33356773480B472981A705450E1C96DE","019cf7c7-0902-73a7-bde5-7a55b1c7628f","019cf7bd-52b9-7f96-9138-a5960b400b31","","null","
                <div class=""stimulus-container"">
                    <img src=""images/semantic_sequence/cat_care_semantic/cat_care_semantic_8.png"" class=""exp-image"">
                    <div class=""question-area""></div> 
                </div>","null","","","","","","","","",""
"","","","","","html-button-response","32","142860","0.0-32.0","33356773480B472981A705450E1C96DE","019cf7c7-0902-73a7-bde5-7a55b1c7628f","019cf7bd-52b9-7f96-9138-a5960b400b31","","437","
                <div class=""stimulus-container"">
                    <img src=""images/semantic_sequence/cat_care_semantic/cat_care_semantic_8.png"" class=""exp-image"">
                    <div class=""question-area"">
                        <p style=""font-size: 20px; font-weight: bold; margin: 0;"">Is there a person in this image?</p>
                    </div>
                </div>","0","main_experiment_trial","8","cat_care_semantic","semantic_sequence","","","","",""
"","","","","","html-keyboard-response","33","147870","0.0-33.0","33356773480B472981A705450E1C96DE","019cf7c7-0902-73a7-bde5-7a55b1c7628f","019cf7bd-52b9-7f96-9138-a5960b400b31","","null","
                <div class=""stimulus-container"">
                    <img src=""images/semantic_sequence/cat_care_semantic/cat_care_semantic_9.png"" class=""exp-image"">
                    <div class=""question-area""></div> 
                </div>","null","","","","","","","","",""
"","","","","","html-button-response","34","148303","0.0-34.0","33356773480B472981A705450E1C96DE","019cf7c7-0902-73a7-bde5-7a55b1c7628f","019cf7bd-52b9-7f96-9138-a5960b400b31","","432","
                <div class=""stimulus-container"">
                    <img src=""images/semantic_sequence/cat_care_semantic/cat_care_semantic_9.png"" class=""exp-image"">
                    <div class=""question-area"">
                        <p style=""font-size: 20px; font-weight: bold; margin: 0;"">Is there a person in this image?</p>
                    </div>
                </div>","0","main_experiment_trial","9","cat_care_semantic","semantic_sequence","","","","",""
"","","","","","html-keyboard-response","35","153316","0.0-35.0","33356773480B472981A705450E1C96DE","019cf7c7-0902-73a7-bde5-7a55b1c7628f","019cf7bd-52b9-7f96-9138-a5960b400b31","","null","
                <div class=""stimulus-container"">
                    <img src=""images/semantic_sequence/cat_care_semantic/cat_care_semantic_ten.png"" class=""exp-image"">
                    <div class=""question-area""></div> 
                </div>","null","","","","","","","","",""
"","","","","","html-button-response","36","154140","0.0-36.0","33356773480B472981A705450E1C96DE","019cf7c7-0902-73a7-bde5-7a55b1c7628f","019cf7bd-52b9-7f96-9138-a5960b400b31","","823","
                <div class=""stimulus-container"">
                    <img src=""images/semantic_sequence/cat_care_semantic/cat_care_semantic_ten.png"" class=""exp-image"">
                    <div class=""question-area"">
                        <p style=""font-size: 20px; font-weight: bold; margin: 0;"">Is there a person in this image?</p>
                    </div>
                </div>","1","main_experiment_trial","ten","cat_care_semantic","semantic_sequence","","","","",""
"","","","","","html-keyboard-response","37","155145","0.0-37.0","33356773480B472981A705450E1C96DE","019cf7c7-0902-73a7-bde5-7a55b1c7628f","019cf7bd-52b9-7f96-9138-a5960b400b31","","null","<div style=""background-color: white; width: 100vw; height: 100vh;""></div>","null","","","","","","","","",""
"","","","","","html-keyboard-response","38","160147","0.0-38.0","33356773480B472981A705450E1C96DE","019cf7c7-0902-73a7-bde5-7a55b1c7628f","019cf7bd-52b9-7f96-9138-a5960b400b31","","null","
                <div class=""stimulus-container"">
                    <img src=""images/schematic_sequence/supermarket_scheme/supermarket_scheme_1.png"" class=""exp-image"">
                    <div class=""question-area""></div> 
                </div>","null","","","","","","","","",""
"","","","","","html-button-response","39","161221","0.0-39.0","33356773480B472981A705450E1C96DE","019cf7c7-0902-73a7-bde5-7a55b1c7628f","019cf7bd-52b9-7f96-9138-a5960b400b31","","1072","
                <div class=""stimulus-container"">
                    <img src=""images/schematic_sequence/supermarket_scheme/supermarket_scheme_1.png"" class=""exp-image"">
                    <div class=""question-area"">
                        <p style=""font-size: 20px; font-weight: bold; margin: 0;"">Is there a person in this image?</p>
                    </div>
                </div>","1","main_experiment_trial","1","supermarket_scheme","schematic_sequence","","","","",""
"","","","","","html-keyboard-response","40","166230","0.0-40.0","33356773480B472981A705450E1C96DE","019cf7c7-0902-73a7-bde5-7a55b1c7628f","019cf7bd-52b9-7f96-9138-a5960b400b31","","null","
                <div class=""stimulus-container"">
                    <img src=""images/schematic_sequence/supermarket_scheme/supermarket_scheme_2.png"" class=""exp-image"">
                    <div class=""question-area""></div> 
                </div>","null","","","","","","","","",""
"","","","","","html-button-response","41","167166","0.0-41.0","33356773480B472981A705450E1C96DE","019cf7c7-0902-73a7-bde5-7a55b1c7628f","019cf7bd-52b9-7f96-9138-a5960b400b31","","934","
                <div class=""stimulus-container"">
                    <img src=""images/schematic_sequence/supermarket_scheme/supermarket_scheme_2.png"" class=""exp-image"">
                    <div class=""question-area"">
                        <p style=""font-size: 20px; font-weight: bold; margin: 0;"">Is there a person in this image?</p>
                    </div>
                </div>","1","main_experiment_trial","2","supermarket_scheme","schematic_sequence","","","","",""
"","","","","","html-keyboard-response","42","172172","0.0-42.0","33356773480B472981A705450E1C96DE","019cf7c7-0902-73a7-bde5-7a55b1c7628f","019cf7bd-52b9-7f96-9138-a5960b400b31","","null","
                <div class=""stimulus-container"">
                    <img src=""images/schematic_sequence/supermarket_scheme/supermarket_scheme_3.png"" class=""exp-image"">
                    <div class=""question-area""></div> 
                </div>","null","","","","","","","","",""
"","","","","","html-button-response","43","172603","0.0-43.0","33356773480B472981A705450E1C96DE","019cf7c7-0902-73a7-bde5-7a55b1c7628f","019cf7bd-52b9-7f96-9138-a5960b400b31","","430","
                <div class=""stimulus-container"">
                    <img src=""images/schematic_sequence/supermarket_scheme/supermarket_scheme_3.png"" class=""exp-image"">
                    <div class=""question-area"">
                        <p style=""font-size: 20px; font-weight: bold; margin: 0;"">Is there a person in this image?</p>
                    </div>
                </div>","1","main_experiment_trial","3","supermarket_scheme","schematic_sequence","","","","",""
"","","","","","html-keyboard-response","44","177609","0.0-44.0","33356773480B472981A705450E1C96DE","019cf7c7-0902-73a7-bde5-7a55b1c7628f","019cf7bd-52b9-7f96-9138-a5960b400b31","","null","
                <div class=""stimulus-container"">
                    <img src=""images/schematic_sequence/supermarket_scheme/supermarket_scheme_4.png"" class=""exp-image"">
                    <div class=""question-area""></div> 
                </div>","null","","","","","","","","",""
"","","","","","html-button-response","45","178717","0.0-45.0","33356773480B472981A705450E1C96DE","019cf7c7-0902-73a7-bde5-7a55b1c7628f","019cf7bd-52b9-7f96-9138-a5960b400b31","","1106","
                <div class=""stimulus-container"">
                    <img src=""images/schematic_sequence/supermarket_scheme/supermarket_scheme_4.png"" class=""exp-image"">
                    <div class=""question-area"">
                        <p style=""font-size: 20px; font-weight: bold; margin: 0;"">Is there a person in this image?</p>
                    </div>
                </div>","0","main_experiment_trial","4","supermarket_scheme","schematic_sequence","","","","",""
"","","","","","html-keyboard-response","46","183728","0.0-46.0","33356773480B472981A705450E1C96DE","019cf7c7-0902-73a7-bde5-7a55b1c7628f","019cf7bd-52b9-7f96-9138-a5960b400b31","","null","
                <div class=""stimulus-container"">
                    <img src=""images/schematic_sequence/supermarket_scheme/supermarket_scheme_5.png"" class=""exp-image"">
                    <div class=""question-area""></div> 
                </div>","null","","","","","","","","",""
"","","","","","html-button-response","47","184810","0.0-47.0","33356773480B472981A705450E1C96DE","019cf7c7-0902-73a7-bde5-7a55b1c7628f","019cf7bd-52b9-7f96-9138-a5960b400b31","","1081","
                <div class=""stimulus-container"">
                    <img src=""images/schematic_sequence/supermarket_scheme/supermarket_scheme_5.png"" class=""exp-image"">
                    <div class=""question-area"">
                        <p style=""font-size: 20px; font-weight: bold; margin: 0;"">Is there a person in this image?</p>
                    </div>
                </div>","1","main_experiment_trial","5","supermarket_scheme","schematic_sequence","","","","",""
"","","","","","html-keyboard-response","48","189812","0.0-48.0","33356773480B472981A705450E1C96DE","019cf7c7-0902-73a7-bde5-7a55b1c7628f","019cf7bd-52b9-7f96-9138-a5960b400b31","","null","
                <div class=""stimulus-container"">
                    <img src=""images/schematic_sequence/supermarket_scheme/supermarket_scheme_6.png"" class=""exp-image"">
                    <div class=""question-area""></div> 
                </div>","null","","","","","","","","",""
"","","","","","html-button-response","49","190573","0.0-49.0","33356773480B472981A705450E1C96DE","019cf7c7-0902-73a7-bde5-7a55b1c7628f","019cf7bd-52b9-7f96-9138-a5960b400b31","","759","
                <div class=""stimulus-container"">
                    <img src=""images/schematic_sequence/supermarket_scheme/supermarket_scheme_6.png"" class=""exp-image"">
                    <div class=""question-area"">
                        <p style=""font-size: 20px; font-weight: bold; margin: 0;"">Is there a person in this image?</p>
                    </div>
                </div>","0","main_experiment_trial","6","supermarket_scheme","schematic_sequence","","","","",""
"","","","","","html-keyboard-response","50","195583","0.0-50.0","33356773480B472981A705450E1C96DE","019cf7c7-0902-73a7-bde5-7a55b1c7628f","019cf7bd-52b9-7f96-9138-a5960b400b31","","null","
                <div class=""stimulus-container"">
                    <img src=""images/schematic_sequence/supermarket_scheme/supermarket_scheme_7.png"" class=""exp-image"">
                    <div class=""question-area""></div> 
                </div>","null","","","","","","","","",""
"","","","","","html-button-response","51","196006","0.0-51.0","33356773480B472981A705450E1C96DE","019cf7c7-0902-73a7-bde5-7a55b1c7628f","019cf7bd-52b9-7f96-9138-a5960b400b31","","422","
                <div class=""stimulus-container"">
                    <img src=""images/schematic_sequence/supermarket_scheme/supermarket_scheme_7.png"" class=""exp-image"">
                    <div class=""question-area"">
                        <p style=""font-size: 20px; font-weight: bold; margin: 0;"">Is there a person in this image?</p>
                    </div>
                </div>","0","main_experiment_trial","7","supermarket_scheme","schematic_sequence","","","","",""
"","","","","","html-keyboard-response","52","201009","0.0-52.0","33356773480B472981A705450E1C96DE","019cf7c7-0902-73a7-bde5-7a55b1c7628f","019cf7bd-52b9-7f96-9138-a5960b400b31","","null","
                <div class=""stimulus-container"">
                    <img src=""images/schematic_sequence/supermarket_scheme/supermarket_scheme_8.png"" class=""exp-image"">
                    <div class=""question-area""></div> 
                </div>","null","","","","","","","","",""
"","","","","","html-button-response","53","201512","0.0-53.0","33356773480B472981A705450E1C96DE","019cf7c7-0902-73a7-bde5-7a55b1c7628f","019cf7bd-52b9-7f96-9138-a5960b400b31","","501","
                <div class=""stimulus-container"">
                    <img src=""images/schematic_sequence/supermarket_scheme/supermarket_scheme_8.png"" class=""exp-image"">
                    <div class=""question-area"">
                        <p style=""font-size: 20px; font-weight: bold; margin: 0;"">Is there a person in this image?</p>
                    </div>
                </div>","0","main_experiment_trial","8","supermarket_scheme","schematic_sequence","","","","",""
"","","","","","html-keyboard-response","54","206524","0.0-54.0","33356773480B472981A705450E1C96DE","019cf7c7-0902-73a7-bde5-7a55b1c7628f","019cf7bd-52b9-7f96-9138-a5960b400b31","","null","
                <div class=""stimulus-container"">
                    <img src=""images/schematic_sequence/supermarket_scheme/supermarket_scheme_9.png"" class=""exp-image"">
                    <div class=""question-area""></div> 
                </div>","null","","","","","","","","",""
"","","","","","html-button-response","55","207174","0.0-55.0","33356773480B472981A705450E1C96DE","019cf7c7-0902-73a7-bde5-7a55b1c7628f","019cf7bd-52b9-7f96-9138-a5960b400b31","","648","
                <div class=""stimulus-container"">
                    <img src=""images/schematic_sequence/supermarket_scheme/supermarket_scheme_9.png"" class=""exp-image"">
                    <div class=""question-area"">
                        <p style=""font-size: 20px; font-weight: bold; margin: 0;"">Is there a person in this image?</p>
                    </div>
                </div>","0","main_experiment_trial","9","supermarket_scheme","schematic_sequence","","","","",""
"","","","","","html-keyboard-response","56","212186","0.0-56.0","33356773480B472981A705450E1C96DE","019cf7c7-0902-73a7-bde5-7a55b1c7628f","019cf7bd-52b9-7f96-9138-a5960b400b31","","null","
                <div class=""stimulus-container"">
                    <img src=""images/schematic_sequence/supermarket_scheme/supermarket_scheme_ten.png"" class=""exp-image"">
                    <div class=""question-area""></div> 
                </div>","null","","","","","","","","",""
"","","","","","html-button-response","57","212909","0.0-57.0","33356773480B472981A705450E1C96DE","019cf7c7-0902-73a7-bde5-7a55b1c7628f","019cf7bd-52b9-7f96-9138-a5960b400b31","","721","
                <div class=""stimulus-container"">
                    <img src=""images/schematic_sequence/supermarket_scheme/supermarket_scheme_ten.png"" class=""exp-image"">
                    <div class=""question-area"">
                        <p style=""font-size: 20px; font-weight: bold; margin: 0;"">Is there a person in this image?</p>
                    </div>
                </div>","1","main_experiment_trial","ten","supermarket_scheme","schematic_sequence","","","","",""
"","","","","","html-keyboard-response","58","213923","0.0-58.0","33356773480B472981A705450E1C96DE","019cf7c7-0902-73a7-bde5-7a55b1c7628f","019cf7bd-52b9-7f96-9138-a5960b400b31","","null","<div style=""background-color: white; width: 100vw; height: 100vh;""></div>","null","","","","","","","","",""
"","","","","","html-keyboard-response","59","218925","0.0-59.0","33356773480B472981A705450E1C96DE","019cf7c7-0902-73a7-bde5-7a55b1c7628f","019cf7bd-52b9-7f96-9138-a5960b400b31","","null","
                <div class=""stimulus-container"">
                    <img src=""images/schematic_sequence/restaurant_scheme/restaurant_scheme_1.png"" class=""exp-image"">
                    <div class=""question-area""></div> 
                </div>","null","","","","","","","","",""
"","","","","","html-button-response","60","219744","0.0-60.0","33356773480B472981A705450E1C96DE","019cf7c7-0902-73a7-bde5-7a55b1c7628f","019cf7bd-52b9-7f96-9138-a5960b400b31","","818","
                <div class=""stimulus-container"">
                    <img src=""images/schematic_sequence/restaurant_scheme/restaurant_scheme_1.png"" class=""exp-image"">
                    <div class=""question-area"">
                        <p style=""font-size: 20px; font-weight: bold; margin: 0;"">Is there a person in this image?</p>
                    </div>
                </div>","0","main_experiment_trial","1","restaurant_scheme","schematic_sequence","","","","",""
"","","","","","html-keyboard-response","61","224756","0.0-61.0","33356773480B472981A705450E1C96DE","019cf7c7-0902-73a7-bde5-7a55b1c7628f","019cf7bd-52b9-7f96-9138-a5960b400b31","","null","
                <div class=""stimulus-container"">
                    <img src=""images/schematic_sequence/restaurant_scheme/restaurant_scheme_2.png"" class=""exp-image"">
                    <div class=""question-area""></div> 
                </div>","null","","","","","","","","",""
"","","","","","html-button-response","62","225856","0.0-62.0","33356773480B472981A705450E1C96DE","019cf7c7-0902-73a7-bde5-7a55b1c7628f","019cf7bd-52b9-7f96-9138-a5960b400b31","","1099","
                <div class=""stimulus-container"">
                    <img src=""images/schematic_sequence/restaurant_scheme/restaurant_scheme_2.png"" class=""exp-image"">
                    <div class=""question-area"">
                        <p style=""font-size: 20px; font-weight: bold; margin: 0;"">Is there a person in this image?</p>
                    </div>
                </div>","1","main_experiment_trial","2","restaurant_scheme","schematic_sequence","","","","",""
"","","","","","html-keyboard-response","63","230872","0.0-63.0","33356773480B472981A705450E1C96DE","019cf7c7-0902-73a7-bde5-7a55b1c7628f","019cf7bd-52b9-7f96-9138-a5960b400b31","","null","
                <div class=""stimulus-container"">
                    <img src=""images/schematic_sequence/restaurant_scheme/restaurant_scheme_3.png"" class=""exp-image"">
                    <div class=""question-area""></div> 
                </div>","null","","","","","","","","",""
"","","","","","html-button-response","64","231306","0.0-64.0","33356773480B472981A705450E1C96DE","019cf7c7-0902-73a7-bde5-7a55b1c7628f","019cf7bd-52b9-7f96-9138-a5960b400b31","","432","
                <div class=""stimulus-container"">
                    <img src=""images/schematic_sequence/restaurant_scheme/restaurant_scheme_3.png"" class=""exp-image"">
                    <div class=""question-area"">
                        <p style=""font-size: 20px; font-weight: bold; margin: 0;"">Is there a person in this image?</p>
                    </div>
                </div>","1","main_experiment_trial","3","restaurant_scheme","schematic_sequence","","","","",""
"","","","","","html-keyboard-response","65","236312","0.0-65.0","33356773480B472981A705450E1C96DE","019cf7c7-0902-73a7-bde5-7a55b1c7628f","019cf7bd-52b9-7f96-9138-a5960b400b31","","null","
                <div class=""stimulus-container"">
                    <img src=""images/schematic_sequence/restaurant_scheme/restaurant_scheme_4.png"" class=""exp-image"">
                    <div class=""question-area""></div> 
                </div>","null","","","","","","","","",""
"","","","","","html-button-response","66","237905","0.0-66.0","33356773480B472981A705450E1C96DE","019cf7c7-0902-73a7-bde5-7a55b1c7628f","019cf7bd-52b9-7f96-9138-a5960b400b31","","1592","
                <div class=""stimulus-container"">
                    <img src=""images/schematic_sequence/restaurant_scheme/restaurant_scheme_4.png"" class=""exp-image"">
                    <div class=""question-area"">
                        <p style=""font-size: 20px; font-weight: bold; margin: 0;"">Is there a person in this image?</p>
                    </div>
                </div>","0","main_experiment_trial","4","restaurant_scheme","schematic_sequence","","","","",""
"","","","","","html-keyboard-response","67","242919","0.0-67.0","33356773480B472981A705450E1C96DE","019cf7c7-0902-73a7-bde5-7a55b1c7628f","019cf7bd-52b9-7f96-9138-a5960b400b31","","null","
                <div class=""stimulus-container"">
                    <img src=""images/schematic_sequence/restaurant_scheme/restaurant_scheme_5.png"" class=""exp-image"">
                    <div class=""question-area""></div> 
                </div>","null","","","","","","","","",""
"","","","","","html-button-response","68","243434","0.0-68.0","33356773480B472981A705450E1C96DE","019cf7c7-0902-73a7-bde5-7a55b1c7628f","019cf7bd-52b9-7f96-9138-a5960b400b31","","514","
                <div class=""stimulus-container"">
                    <img src=""images/schematic_sequence/restaurant_scheme/restaurant_scheme_5.png"" class=""exp-image"">
                    <div class=""question-area"">
                        <p style=""font-size: 20px; font-weight: bold; margin: 0;"">Is there a person in this image?</p>
                    </div>
                </div>","0","main_experiment_trial","5","restaurant_scheme","schematic_sequence","","","","",""
"","","","","","html-keyboard-response","69","248435","0.0-69.0","33356773480B472981A705450E1C96DE","019cf7c7-0902-73a7-bde5-7a55b1c7628f","019cf7bd-52b9-7f96-9138-a5960b400b31","","null","
                <div class=""stimulus-container"">
                    <img src=""images/schematic_sequence/restaurant_scheme/restaurant_scheme_6.png"" class=""exp-image"">
                    <div class=""question-area""></div> 
                </div>","null","","","","","","","","",""
"","","","","","html-button-response","70","249169","0.0-70.0","33356773480B472981A705450E1C96DE","019cf7c7-0902-73a7-bde5-7a55b1c7628f","019cf7bd-52b9-7f96-9138-a5960b400b31","","733","
                <div class=""stimulus-container"">
                    <img src=""images/schematic_sequence/restaurant_scheme/restaurant_scheme_6.png"" class=""exp-image"">
                    <div class=""question-area"">
                        <p style=""font-size: 20px; font-weight: bold; margin: 0;"">Is there a person in this image?</p>
                    </div>
                </div>","1","main_experiment_trial","6","restaurant_scheme","schematic_sequence","","","","",""
"","","","","","html-keyboard-response","71","254173","0.0-71.0","33356773480B472981A705450E1C96DE","019cf7c7-0902-73a7-bde5-7a55b1c7628f","019cf7bd-52b9-7f96-9138-a5960b400b31","","null","
                <div class=""stimulus-container"">
                    <img src=""images/schematic_sequence/restaurant_scheme/restaurant_scheme_7.png"" class=""exp-image"">
                    <div class=""question-area""></div> 
                </div>","null","","","","","","","","",""
"","","","","","html-button-response","72","254939","0.0-72.0","33356773480B472981A705450E1C96DE","019cf7c7-0902-73a7-bde5-7a55b1c7628f","019cf7bd-52b9-7f96-9138-a5960b400b31","","765","
                <div class=""stimulus-container"">
                    <img src=""images/schematic_sequence/restaurant_scheme/restaurant_scheme_7.png"" class=""exp-image"">
                    <div class=""question-area"">
                        <p style=""font-size: 20px; font-weight: bold; margin: 0;"">Is there a person in this image?</p>
                    </div>
                </div>","1","main_experiment_trial","7","restaurant_scheme","schematic_sequence","","","","",""
"","","","","","html-keyboard-response","73","259947","0.0-73.0","33356773480B472981A705450E1C96DE","019cf7c7-0902-73a7-bde5-7a55b1c7628f","019cf7bd-52b9-7f96-9138-a5960b400b31","","null","
                <div class=""stimulus-container"">
                    <img src=""images/schematic_sequence/restaurant_scheme/restaurant_scheme_8.png"" class=""exp-image"">
                    <div class=""question-area""></div> 
                </div>","null","","","","","","","","",""
"","","","","","html-button-response","74","260818","0.0-74.0","33356773480B472981A705450E1C96DE","019cf7c7-0902-73a7-bde5-7a55b1c7628f","019cf7bd-52b9-7f96-9138-a5960b400b31","","870","
                <div class=""stimulus-container"">
                    <img src=""images/schematic_sequence/restaurant_scheme/restaurant_scheme_8.png"" class=""exp-image"">
                    <div class=""question-area"">
                        <p style=""font-size: 20px; font-weight: bold; margin: 0;"">Is there a person in this image?</p>
                    </div>
                </div>","0","main_experiment_trial","8","restaurant_scheme","schematic_sequence","","","","",""
"","","","","","html-keyboard-response","75","265824","0.0-75.0","33356773480B472981A705450E1C96DE","019cf7c7-0902-73a7-bde5-7a55b1c7628f","019cf7bd-52b9-7f96-9138-a5960b400b31","","null","
                <div class=""stimulus-container"">
                    <img src=""images/schematic_sequence/restaurant_scheme/restaurant_scheme_9.png"" class=""exp-image"">
                    <div class=""question-area""></div> 
                </div>","null","","","","","","","","",""
"","","","","","html-button-response","76","266607","0.0-76.0","33356773480B472981A705450E1C96DE","019cf7c7-0902-73a7-bde5-7a55b1c7628f","019cf7bd-52b9-7f96-9138-a5960b400b31","","782","
                <div class=""stimulus-container"">
                    <img src=""images/schematic_sequence/restaurant_scheme/restaurant_scheme_9.png"" class=""exp-image"">
                    <div class=""question-area"">
                        <p style=""font-size: 20px; font-weight: bold; margin: 0;"">Is there a person in this image?</p>
                    </div>
                </div>","0","main_experiment_trial","9","restaurant_scheme","schematic_sequence","","","","",""
"","","","","","html-keyboard-response","77","271609","0.0-77.0","33356773480B472981A705450E1C96DE","019cf7c7-0902-73a7-bde5-7a55b1c7628f","019cf7bd-52b9-7f96-9138-a5960b400b31","","null","
                <div class=""stimulus-container"">
                    <img src=""images/schematic_sequence/restaurant_scheme/restaurant_scheme_ten.png"" class=""exp-image"">
                    <div class=""question-area""></div> 
                </div>","null","","","","","","","","",""
"","","","","","html-button-response","78","272065","0.0-78.0","33356773480B472981A705450E1C96DE","019cf7c7-0902-73a7-bde5-7a55b1c7628f","019cf7bd-52b9-7f96-9138-a5960b400b31","","455","
                <div class=""stimulus-container"">
                    <img src=""images/schematic_sequence/restaurant_scheme/restaurant_scheme_ten.png"" class=""exp-image"">
                    <div class=""question-area"">
                        <p style=""font-size: 20px; font-weight: bold; margin: 0;"">Is there a person in this image?</p>
                    </div>
                </div>","0","main_experiment_trial","ten","restaurant_scheme","schematic_sequence","","","","",""
"","","","","","html-keyboard-response","79","273076","0.0-79.0","33356773480B472981A705450E1C96DE","019cf7c7-0902-73a7-bde5-7a55b1c7628f","019cf7bd-52b9-7f96-9138-a5960b400b31","","null","<div style=""background-color: white; width: 100vw; height: 100vh;""></div>","null","","","","","","","","",""
"","","","","","html-keyboard-response","80","278082","0.0-80.0","33356773480B472981A705450E1C96DE","019cf7c7-0902-73a7-bde5-7a55b1c7628f","019cf7bd-52b9-7f96-9138-a5960b400b31","","null","
                <div class=""stimulus-container"">
                    <img src=""images/semantic_sequence/market_semantic/market_semantic_1.png"" class=""exp-image"">
                    <div class=""question-area""></div> 
                </div>","null","","","","","","","","",""
"","","","","","html-button-response","81","279679","0.0-81.0","33356773480B472981A705450E1C96DE","019cf7c7-0902-73a7-bde5-7a55b1c7628f","019cf7bd-52b9-7f96-9138-a5960b400b31","","1596","
                <div class=""stimulus-container"">
                    <img src=""images/semantic_sequence/market_semantic/market_semantic_1.png"" class=""exp-image"">
                    <div class=""question-area"">
                        <p style=""font-size: 20px; font-weight: bold; margin: 0;"">Is there a person in this image?</p>
                    </div>
                </div>","1","main_experiment_trial","1","market_semantic","semantic_sequence","","","","",""
"","","","","","html-keyboard-response","82","284681","0.0-82.0","33356773480B472981A705450E1C96DE","019cf7c7-0902-73a7-bde5-7a55b1c7628f","019cf7bd-52b9-7f96-9138-a5960b400b31","","null","
                <div class=""stimulus-container"">
                    <img src=""images/semantic_sequence/market_semantic/market_semantic_2.png"" class=""exp-image"">
                    <div class=""question-area""></div> 
                </div>","null","","","","","","","","",""
"","","","","","html-button-response","83","285198","0.0-83.0","33356773480B472981A705450E1C96DE","019cf7c7-0902-73a7-bde5-7a55b1c7628f","019cf7bd-52b9-7f96-9138-a5960b400b31","","516","
                <div class=""stimulus-container"">
                    <img src=""images/semantic_sequence/market_semantic/market_semantic_2.png"" class=""exp-image"">
                    <div class=""question-area"">
                        <p style=""font-size: 20px; font-weight: bold; margin: 0;"">Is there a person in this image?</p>
                    </div>
                </div>","1","main_experiment_trial","2","market_semantic","semantic_sequence","","","","",""
"","","","","","html-keyboard-response","84","290203","0.0-84.0","33356773480B472981A705450E1C96DE","019cf7c7-0902-73a7-bde5-7a55b1c7628f","019cf7bd-52b9-7f96-9138-a5960b400b31","","null","
                <div class=""stimulus-container"">
                    <img src=""images/semantic_sequence/market_semantic/market_semantic_3.png"" class=""exp-image"">
                    <div class=""question-area""></div> 
                </div>","null","","","","","","","","",""
"","","","","","html-button-response","85","290726","0.0-85.0","33356773480B472981A705450E1C96DE","019cf7c7-0902-73a7-bde5-7a55b1c7628f","019cf7bd-52b9-7f96-9138-a5960b400b31","","521","
                <div class=""stimulus-container"">
                    <img src=""images/semantic_sequence/market_semantic/market_semantic_3.png"" class=""exp-image"">
                    <div class=""question-area"">
                        <p style=""font-size: 20px; font-weight: bold; margin: 0;"">Is there a person in this image?</p>
                    </div>
                </div>","1","main_experiment_trial","3","market_semantic","semantic_sequence","","","","",""
"","","","","","html-keyboard-response","86","295739","0.0-86.0","33356773480B472981A705450E1C96DE","019cf7c7-0902-73a7-bde5-7a55b1c7628f","019cf7bd-52b9-7f96-9138-a5960b400b31","","null","
                <div class=""stimulus-container"">
                    <img src=""images/semantic_sequence/market_semantic/market_semantic_4.png"" class=""exp-image"">
                    <div class=""question-area""></div> 
                </div>","null","","","","","","","","",""
"","","","","","html-button-response","87","296457","0.0-87.0","33356773480B472981A705450E1C96DE","019cf7c7-0902-73a7-bde5-7a55b1c7628f","019cf7bd-52b9-7f96-9138-a5960b400b31","","716","
                <div class=""stimulus-container"">
                    <img src=""images/semantic_sequence/market_semantic/market_semantic_4.png"" class=""exp-image"">
                    <div class=""question-area"">
                        <p style=""font-size: 20px; font-weight: bold; margin: 0;"">Is there a person in this image?</p>
                    </div>
                </div>","0","main_experiment_trial","4","market_semantic","semantic_sequence","","","","",""
"","","","","","html-keyboard-response","88","301460","0.0-88.0","33356773480B472981A705450E1C96DE","019cf7c7-0902-73a7-bde5-7a55b1c7628f","019cf7bd-52b9-7f96-9138-a5960b400b31","","null","
                <div class=""stimulus-container"">
                    <img src=""images/semantic_sequence/market_semantic/market_semantic_5.png"" class=""exp-image"">
                    <div class=""question-area""></div> 
                </div>","null","","","","","","","","",""
"","","","","","html-button-response","89","302586","0.0-89.0","33356773480B472981A705450E1C96DE","019cf7c7-0902-73a7-bde5-7a55b1c7628f","019cf7bd-52b9-7f96-9138-a5960b400b31","","1124","
                <div class=""stimulus-container"">
                    <img src=""images/semantic_sequence/market_semantic/market_semantic_5.png"" class=""exp-image"">
                    <div class=""question-area"">
                        <p style=""font-size: 20px; font-weight: bold; margin: 0;"">Is there a person in this image?</p>
                    </div>
                </div>","1","main_experiment_trial","5","market_semantic","semantic_sequence","","","","",""
"","","","","","html-keyboard-response","90","307587","0.0-90.0","33356773480B472981A705450E1C96DE","019cf7c7-0902-73a7-bde5-7a55b1c7628f","019cf7bd-52b9-7f96-9138-a5960b400b31","","null","
                <div class=""stimulus-container"">
                    <img src=""images/semantic_sequence/market_semantic/market_semantic_6.png"" class=""exp-image"">
                    <div class=""question-area""></div> 
                </div>","null","","","","","","","","",""
"","","","","","html-button-response","91","308475","0.0-91.0","33356773480B472981A705450E1C96DE","019cf7c7-0902-73a7-bde5-7a55b1c7628f","019cf7bd-52b9-7f96-9138-a5960b400b31","","886","
                <div class=""stimulus-container"">
                    <img src=""images/semantic_sequence/market_semantic/market_semantic_6.png"" class=""exp-image"">
                    <div class=""question-area"">
                        <p style=""font-size: 20px; font-weight: bold; margin: 0;"">Is there a person in this image?</p>
                    </div>
                </div>","0","main_experiment_trial","6","market_semantic","semantic_sequence","","","","",""
"","","","","","html-keyboard-response","92","313482","0.0-92.0","33356773480B472981A705450E1C96DE","019cf7c7-0902-73a7-bde5-7a55b1c7628f","019cf7bd-52b9-7f96-9138-a5960b400b31","","null","
                <div class=""stimulus-container"">
                    <img src=""images/semantic_sequence/market_semantic/market_semantic_7.png"" class=""exp-image"">
                    <div class=""question-area""></div> 
                </div>","null","","","","","","","","",""
"","","","","","html-button-response","93","313902","0.0-93.0","33356773480B472981A705450E1C96DE","019cf7c7-0902-73a7-bde5-7a55b1c7628f","019cf7bd-52b9-7f96-9138-a5960b400b31","","419","
                <div class=""stimulus-container"">
                    <img src=""images/semantic_sequence/market_semantic/market_semantic_7.png"" class=""exp-image"">
                    <div class=""question-area"">
                        <p style=""font-size: 20px; font-weight: bold; margin: 0;"">Is there a person in this image?</p>
                    </div>
                </div>","0","main_experiment_trial","7","market_semantic","semantic_sequence","","","","",""
"","","","","","html-keyboard-response","94","318917","0.0-94.0","33356773480B472981A705450E1C96DE","019cf7c7-0902-73a7-bde5-7a55b1c7628f","019cf7bd-52b9-7f96-9138-a5960b400b31","","null","
                <div class=""stimulus-container"">
                    <img src=""images/semantic_sequence/market_semantic/market_semantic_8.png"" class=""exp-image"">
                    <div class=""question-area""></div> 
                </div>","null","","","","","","","","",""
"","","","","","html-button-response","95","319291","0.0-95.0","33356773480B472981A705450E1C96DE","019cf7c7-0902-73a7-bde5-7a55b1c7628f","019cf7bd-52b9-7f96-9138-a5960b400b31","","372","
                <div class=""stimulus-container"">
                    <img src=""images/semantic_sequence/market_semantic/market_semantic_8.png"" class=""exp-image"">
                    <div class=""question-area"">
                        <p style=""font-size: 20px; font-weight: bold; margin: 0;"">Is there a person in this image?</p>
                    </div>
                </div>","0","main_experiment_trial","8","market_semantic","semantic_sequence","","","","",""
"","","","","","html-keyboard-response","96","324299","0.0-96.0","33356773480B472981A705450E1C96DE","019cf7c7-0902-73a7-bde5-7a55b1c7628f","019cf7bd-52b9-7f96-9138-a5960b400b31","","null","
                <div class=""stimulus-container"">
                    <img src=""images/semantic_sequence/market_semantic/market_semantic_9.png"" class=""exp-image"">
                    <div class=""question-area""></div> 
                </div>","null","","","","","","","","",""
"","","","","","html-button-response","97","324749","0.0-97.0","33356773480B472981A705450E1C96DE","019cf7c7-0902-73a7-bde5-7a55b1c7628f","019cf7bd-52b9-7f96-9138-a5960b400b31","","448","
                <div class=""stimulus-container"">
                    <img src=""images/semantic_sequence/market_semantic/market_semantic_9.png"" class=""exp-image"">
                    <div class=""question-area"">
                        <p style=""font-size: 20px; font-weight: bold; margin: 0;"">Is there a person in this image?</p>
                    </div>
                </div>","0","main_experiment_trial","9","market_semantic","semantic_sequence","","","","",""
"","","","","","html-keyboard-response","98","329760","0.0-98.0","33356773480B472981A705450E1C96DE","019cf7c7-0902-73a7-bde5-7a55b1c7628f","019cf7bd-52b9-7f96-9138-a5960b400b31","","null","
                <div class=""stimulus-container"">
                    <img src=""images/semantic_sequence/market_semantic/market_semantic_ten.png"" class=""exp-image"">
                    <div class=""question-area""></div> 
                </div>","null","","","","","","","","",""
"","","","","","html-button-response","99","330497","0.0-99.0","33356773480B472981A705450E1C96DE","019cf7c7-0902-73a7-bde5-7a55b1c7628f","019cf7bd-52b9-7f96-9138-a5960b400b31","","736","
                <div class=""stimulus-container"">
                    <img src=""images/semantic_sequence/market_semantic/market_semantic_ten.png"" class=""exp-image"">
                    <div class=""question-area"">
                        <p style=""font-size: 20px; font-weight: bold; margin: 0;"">Is there a person in this image?</p>
                    </div>
                </div>","1","main_experiment_trial","ten","market_semantic","semantic_sequence","","","","",""
"","","","","","html-keyboard-response","100","331499","0.0-100.0","33356773480B472981A705450E1C96DE","019cf7c7-0902-73a7-bde5-7a55b1c7628f","019cf7bd-52b9-7f96-9138-a5960b400b31","","null","<div style=""background-color: white; width: 100vw; height: 100vh;""></div>","null","","","","","","","","",""
"","","","","","html-keyboard-response","101","336502","0.0-101.0","33356773480B472981A705450E1C96DE","019cf7c7-0902-73a7-bde5-7a55b1c7628f","019cf7bd-52b9-7f96-9138-a5960b400b31","","null","
                <div class=""stimulus-container"">
                    <img src=""images/semantic_sequence/exploring_nature_semantic/exploring_nature_semantic_1.png"" class=""exp-image"">
                    <div class=""question-area""></div> 
                </div>","null","","","","","","","","",""
"","","","","","html-button-response","102","337453","0.0-102.0","33356773480B472981A705450E1C96DE","019cf7c7-0902-73a7-bde5-7a55b1c7628f","019cf7bd-52b9-7f96-9138-a5960b400b31","","950","
                <div class=""stimulus-container"">
                    <img src=""images/semantic_sequence/exploring_nature_semantic/exploring_nature_semantic_1.png"" class=""exp-image"">
                    <div class=""question-area"">
                        <p style=""font-size: 20px; font-weight: bold; margin: 0;"">Is there a person in this image?</p>
                    </div>
                </div>","0","main_experiment_trial","1","exploring_nature_semantic","semantic_sequence","","","","",""
"","","","","","html-keyboard-response","103","342468","0.0-103.0","33356773480B472981A705450E1C96DE","019cf7c7-0902-73a7-bde5-7a55b1c7628f","019cf7bd-52b9-7f96-9138-a5960b400b31","","null","
                <div class=""stimulus-container"">
                    <img src=""images/semantic_sequence/exploring_nature_semantic/exploring_nature_semantic_2.png"" class=""exp-image"">
                    <div class=""question-area""></div> 
                </div>","null","","","","","","","","",""
"","","","","","html-button-response","104","342961","0.0-104.0","33356773480B472981A705450E1C96DE","019cf7c7-0902-73a7-bde5-7a55b1c7628f","019cf7bd-52b9-7f96-9138-a5960b400b31","","492","
                <div class=""stimulus-container"">
                    <img src=""images/semantic_sequence/exploring_nature_semantic/exploring_nature_semantic_2.png"" class=""exp-image"">
                    <div class=""question-area"">
                        <p style=""font-size: 20px; font-weight: bold; margin: 0;"">Is there a person in this image?</p>
                    </div>
                </div>","0","main_experiment_trial","2","exploring_nature_semantic","semantic_sequence","","","","",""
"","","","","","html-keyboard-response","105","347969","0.0-105.0","33356773480B472981A705450E1C96DE","019cf7c7-0902-73a7-bde5-7a55b1c7628f","019cf7bd-52b9-7f96-9138-a5960b400b31","","null","
                <div class=""stimulus-container"">
                    <img src=""images/semantic_sequence/exploring_nature_semantic/exploring_nature_semantic_3.png"" class=""exp-image"">
                    <div class=""question-area""></div> 
                </div>","null","","","","","","","","",""
"","","","","","html-button-response","106","348463","0.0-106.0","33356773480B472981A705450E1C96DE","019cf7c7-0902-73a7-bde5-7a55b1c7628f","019cf7bd-52b9-7f96-9138-a5960b400b31","","493","
                <div class=""stimulus-container"">
                    <img src=""images/semantic_sequence/exploring_nature_semantic/exploring_nature_semantic_3.png"" class=""exp-image"">
                    <div class=""question-area"">
                        <p style=""font-size: 20px; font-weight: bold; margin: 0;"">Is there a person in this image?</p>
                    </div>
                </div>","0","main_experiment_trial","3","exploring_nature_semantic","semantic_sequence","","","","",""
"","","","","","html-keyboard-response","107","353478","0.0-107.0","33356773480B472981A705450E1C96DE","019cf7c7-0902-73a7-bde5-7a55b1c7628f","019cf7bd-52b9-7f96-9138-a5960b400b31","","null","
                <div class=""stimulus-container"">
                    <img src=""images/semantic_sequence/exploring_nature_semantic/exploring_nature_semantic_4.png"" class=""exp-image"">
                    <div class=""question-area""></div> 
                </div>","null","","","","","","","","",""
"","","","","","html-button-response","108","353900","0.0-108.0","33356773480B472981A705450E1C96DE","019cf7c7-0902-73a7-bde5-7a55b1c7628f","019cf7bd-52b9-7f96-9138-a5960b400b31","","420","
                <div class=""stimulus-container"">
                    <img src=""images/semantic_sequence/exploring_nature_semantic/exploring_nature_semantic_4.png"" class=""exp-image"">
                    <div class=""question-area"">
                        <p style=""font-size: 20px; font-weight: bold; margin: 0;"">Is there a person in this image?</p>
                    </div>
                </div>","0","main_experiment_trial","4","exploring_nature_semantic","semantic_sequence","","","","",""
"","","","","","html-keyboard-response","109","358914","0.0-109.0","33356773480B472981A705450E1C96DE","019cf7c7-0902-73a7-bde5-7a55b1c7628f","019cf7bd-52b9-7f96-9138-a5960b400b31","","null","
                <div class=""stimulus-container"">
                    <img src=""images/semantic_sequence/exploring_nature_semantic/exploring_nature_semantic_5.png"" class=""exp-image"">
                    <div class=""question-area""></div> 
                </div>","null","","","","","","","","",""
"","","","","","html-button-response","110","359406","0.0-110.0","33356773480B472981A705450E1C96DE","019cf7c7-0902-73a7-bde5-7a55b1c7628f","019cf7bd-52b9-7f96-9138-a5960b400b31","","491","
                <div class=""stimulus-container"">
                    <img src=""images/semantic_sequence/exploring_nature_semantic/exploring_nature_semantic_5.png"" class=""exp-image"">
                    <div class=""question-area"">
                        <p style=""font-size: 20px; font-weight: bold; margin: 0;"">Is there a person in this image?</p>
                    </div>
                </div>","0","main_experiment_trial","5","exploring_nature_semantic","semantic_sequence","","","","",""
"","","","","","html-keyboard-response","111","364422","0.0-111.0","33356773480B472981A705450E1C96DE","019cf7c7-0902-73a7-bde5-7a55b1c7628f","019cf7bd-52b9-7f96-9138-a5960b400b31","","null","
                <div class=""stimulus-container"">
                    <img src=""images/semantic_sequence/exploring_nature_semantic/exploring_nature_semantic_6.png"" class=""exp-image"">
                    <div class=""question-area""></div> 
                </div>","null","","","","","","","","",""
"","","","","","html-button-response","112","364974","0.0-112.0","33356773480B472981A705450E1C96DE","019cf7c7-0902-73a7-bde5-7a55b1c7628f","019cf7bd-52b9-7f96-9138-a5960b400b31","","551","
                <div class=""stimulus-container"">
                    <img src=""images/semantic_sequence/exploring_nature_semantic/exploring_nature_semantic_6.png"" class=""exp-image"">
                    <div class=""question-area"">
                        <p style=""font-size: 20px; font-weight: bold; margin: 0;"">Is there a person in this image?</p>
                    </div>
                </div>","0","main_experiment_trial","6","exploring_nature_semantic","semantic_sequence","","","","",""
"","","","","","html-keyboard-response","113","369985","0.0-113.0","33356773480B472981A705450E1C96DE","019cf7c7-0902-73a7-bde5-7a55b1c7628f","019cf7bd-52b9-7f96-9138-a5960b400b31","","null","
                <div class=""stimulus-container"">
                    <img src=""images/semantic_sequence/exploring_nature_semantic/exploring_nature_semantic_7.png"" class=""exp-image"">
                    <div class=""question-area""></div> 
                </div>","null","","","","","","","","",""
"","","","","","html-button-response","114","370514","0.0-114.0","33356773480B472981A705450E1C96DE","019cf7c7-0902-73a7-bde5-7a55b1c7628f","019cf7bd-52b9-7f96-9138-a5960b400b31","","528","
                <div class=""stimulus-container"">
                    <img src=""images/semantic_sequence/exploring_nature_semantic/exploring_nature_semantic_7.png"" class=""exp-image"">
                    <div class=""question-area"">
                        <p style=""font-size: 20px; font-weight: bold; margin: 0;"">Is there a person in this image?</p>
                    </div>
                </div>","0","main_experiment_trial","7","exploring_nature_semantic","semantic_sequence","","","","",""
"","","","","","html-keyboard-response","115","375518","0.0-115.0","33356773480B472981A705450E1C96DE","019cf7c7-0902-73a7-bde5-7a55b1c7628f","019cf7bd-52b9-7f96-9138-a5960b400b31","","null","
                <div class=""stimulus-container"">
                    <img src=""images/semantic_sequence/exploring_nature_semantic/exploring_nature_semantic_8.png"" class=""exp-image"">
                    <div class=""question-area""></div> 
                </div>","null","","","","","","","","",""
"","","","","","html-button-response","116","375947","0.0-116.0","33356773480B472981A705450E1C96DE","019cf7c7-0902-73a7-bde5-7a55b1c7628f","019cf7bd-52b9-7f96-9138-a5960b400b31","","428","
                <div class=""stimulus-container"">
                    <img src=""images/semantic_sequence/exploring_nature_semantic/exploring_nature_semantic_8.png"" class=""exp-image"">
                    <div class=""question-area"">
                        <p style=""font-size: 20px; font-weight: bold; margin: 0;"">Is there a person in this image?</p>
                    </div>
                </div>","0","main_experiment_trial","8","exploring_nature_semantic","semantic_sequence","","","","",""
"","","","","","html-keyboard-response","117","380960","0.0-117.0","33356773480B472981A705450E1C96DE","019cf7c7-0902-73a7-bde5-7a55b1c7628f","019cf7bd-52b9-7f96-9138-a5960b400b31","","null","
                <div class=""stimulus-container"">
                    <img src=""images/semantic_sequence/exploring_nature_semantic/exploring_nature_semantic_9.png"" class=""exp-image"">
                    <div class=""question-area""></div> 
                </div>","null","","","","","","","","",""
"","","","","","html-button-response","118","381352","0.0-118.0","33356773480B472981A705450E1C96DE","019cf7c7-0902-73a7-bde5-7a55b1c7628f","019cf7bd-52b9-7f96-9138-a5960b400b31","","391","
                <div class=""stimulus-container"">
                    <img src=""images/semantic_sequence/exploring_nature_semantic/exploring_nature_semantic_9.png"" class=""exp-image"">
                    <div class=""question-area"">
                        <p style=""font-size: 20px; font-weight: bold; margin: 0;"">Is there a person in this image?</p>
                    </div>
                </div>","0","main_experiment_trial","9","exploring_nature_semantic","semantic_sequence","","","","",""
"","","","","","html-keyboard-response","119","386355","0.0-119.0","33356773480B472981A705450E1C96DE","019cf7c7-0902-73a7-bde5-7a55b1c7628f","019cf7bd-52b9-7f96-9138-a5960b400b31","","null","
                <div class=""stimulus-container"">
                    <img src=""images/semantic_sequence/exploring_nature_semantic/exploring_nature_semantic_ten.png"" class=""exp-image"">
                    <div class=""question-area""></div> 
                </div>","null","","","","","","","","",""
"","","","","","html-button-response","120","386837","0.0-120.0","33356773480B472981A705450E1C96DE","019cf7c7-0902-73a7-bde5-7a55b1c7628f","019cf7bd-52b9-7f96-9138-a5960b400b31","","481","
                <div class=""stimulus-container"">
                    <img src=""images/semantic_sequence/exploring_nature_semantic/exploring_nature_semantic_ten.png"" class=""exp-image"">
                    <div class=""question-area"">
                        <p style=""font-size: 20px; font-weight: bold; margin: 0;"">Is there a person in this image?</p>
                    </div>
                </div>","0","main_experiment_trial","ten","exploring_nature_semantic","semantic_sequence","","","","",""
"","","","","","html-keyboard-response","121","387845","0.0-121.0","33356773480B472981A705450E1C96DE","019cf7c7-0902-73a7-bde5-7a55b1c7628f","019cf7bd-52b9-7f96-9138-a5960b400b31","","null","<div style=""background-color: white; width: 100vw; height: 100vh;""></div>","null","","","","","","","","",""
"","","","","","html-keyboard-response","122","392862","0.0-122.0","33356773480B472981A705450E1C96DE","019cf7c7-0902-73a7-bde5-7a55b1c7628f","019cf7bd-52b9-7f96-9138-a5960b400b31","","null","
                <div class=""stimulus-container"">
                    <img src=""images/semantic_sequence/visiting_cities_semantic/visiting_cities_semantic_1.png"" class=""exp-image"">
                    <div class=""question-area""></div> 
                </div>","null","","","","","","","","",""
"","","","","","html-button-response","123","393309","0.0-123.0","33356773480B472981A705450E1C96DE","019cf7c7-0902-73a7-bde5-7a55b1c7628f","019cf7bd-52b9-7f96-9138-a5960b400b31","","446","
                <div class=""stimulus-container"">
                    <img src=""images/semantic_sequence/visiting_cities_semantic/visiting_cities_semantic_1.png"" class=""exp-image"">
                    <div class=""question-area"">
                        <p style=""font-size: 20px; font-weight: bold; margin: 0;"">Is there a person in this image?</p>
                    </div>
                </div>","0","main_experiment_trial","1","visiting_cities_semantic","semantic_sequence","","","","",""
"","","","","","html-keyboard-response","124","398317","0.0-124.0","33356773480B472981A705450E1C96DE","019cf7c7-0902-73a7-bde5-7a55b1c7628f","019cf7bd-52b9-7f96-9138-a5960b400b31","","null","
                <div class=""stimulus-container"">
                    <img src=""images/semantic_sequence/visiting_cities_semantic/visiting_cities_semantic_2.png"" class=""exp-image"">
                    <div class=""question-area""></div> 
                </div>","null","","","","","","","","",""
"","","","","","html-button-response","125","399115","0.0-125.0","33356773480B472981A705450E1C96DE","019cf7c7-0902-73a7-bde5-7a55b1c7628f","019cf7bd-52b9-7f96-9138-a5960b400b31","","797","
                <div class=""stimulus-container"">
                    <img src=""images/semantic_sequence/visiting_cities_semantic/visiting_cities_semantic_2.png"" class=""exp-image"">
                    <div class=""question-area"">
                        <p style=""font-size: 20px; font-weight: bold; margin: 0;"">Is there a person in this image?</p>
                    </div>
                </div>","1","main_experiment_trial","2","visiting_cities_semantic","semantic_sequence","","","","",""
"","","","","","html-keyboard-response","126","404128","0.0-126.0","33356773480B472981A705450E1C96DE","019cf7c7-0902-73a7-bde5-7a55b1c7628f","019cf7bd-52b9-7f96-9138-a5960b400b31","","null","
                <div class=""stimulus-container"">
                    <img src=""images/semantic_sequence/visiting_cities_semantic/visiting_cities_semantic_3.png"" class=""exp-image"">
                    <div class=""question-area""></div> 
                </div>","null","","","","","","","","",""
"","","","","","html-button-response","127","404650","0.0-127.0","33356773480B472981A705450E1C96DE","019cf7c7-0902-73a7-bde5-7a55b1c7628f","019cf7bd-52b9-7f96-9138-a5960b400b31","","521","
                <div class=""stimulus-container"">
                    <img src=""images/semantic_sequence/visiting_cities_semantic/visiting_cities_semantic_3.png"" class=""exp-image"">
                    <div class=""question-area"">
                        <p style=""font-size: 20px; font-weight: bold; margin: 0;"">Is there a person in this image?</p>
                    </div>
                </div>","1","main_experiment_trial","3","visiting_cities_semantic","semantic_sequence","","","","",""
"","","","","","html-keyboard-response","128","409660","0.0-128.0","33356773480B472981A705450E1C96DE","019cf7c7-0902-73a7-bde5-7a55b1c7628f","019cf7bd-52b9-7f96-9138-a5960b400b31","","null","
                <div class=""stimulus-container"">
                    <img src=""images/semantic_sequence/visiting_cities_semantic/visiting_cities_semantic_4.png"" class=""exp-image"">
                    <div class=""question-area""></div> 
                </div>","null","","","","","","","","",""
"","","","","","html-button-response","129","410151","0.0-129.0","33356773480B472981A705450E1C96DE","019cf7c7-0902-73a7-bde5-7a55b1c7628f","019cf7bd-52b9-7f96-9138-a5960b400b31","","489","
                <div class=""stimulus-container"">
                    <img src=""images/semantic_sequence/visiting_cities_semantic/visiting_cities_semantic_4.png"" class=""exp-image"">
                    <div class=""question-area"">
                        <p style=""font-size: 20px; font-weight: bold; margin: 0;"">Is there a person in this image?</p>
                    </div>
                </div>","1","main_experiment_trial","4","visiting_cities_semantic","semantic_sequence","","","","",""
"","","","","","html-keyboard-response","130","415166","0.0-130.0","33356773480B472981A705450E1C96DE","019cf7c7-0902-73a7-bde5-7a55b1c7628f","019cf7bd-52b9-7f96-9138-a5960b400b31","","null","
                <div class=""stimulus-container"">
                    <img src=""images/semantic_sequence/visiting_cities_semantic/visiting_cities_semantic_5.png"" class=""exp-image"">
                    <div class=""question-area""></div> 
                </div>","null","","","","","","","","",""
"","","","","","html-button-response","131","415601","0.0-131.0","33356773480B472981A705450E1C96DE","019cf7c7-0902-73a7-bde5-7a55b1c7628f","019cf7bd-52b9-7f96-9138-a5960b400b31","","434","
                <div class=""stimulus-container"">
                    <img src=""images/semantic_sequence/visiting_cities_semantic/visiting_cities_semantic_5.png"" class=""exp-image"">
                    <div class=""question-area"">
                        <p style=""font-size: 20px; font-weight: bold; margin: 0;"">Is there a person in this image?</p>
                    </div>
                </div>","1","main_experiment_trial","5","visiting_cities_semantic","semantic_sequence","","","","",""
"","","","","","html-keyboard-response","132","420602","0.0-132.0","33356773480B472981A705450E1C96DE","019cf7c7-0902-73a7-bde5-7a55b1c7628f","019cf7bd-52b9-7f96-9138-a5960b400b31","","null","
                <div class=""stimulus-container"">
                    <img src=""images/semantic_sequence/visiting_cities_semantic/visiting_cities_semantic_6.png"" class=""exp-image"">
                    <div class=""question-area""></div> 
                </div>","null","","","","","","","","",""
"","","","","","html-button-response","133","421263","0.0-133.0","33356773480B472981A705450E1C96DE","019cf7c7-0902-73a7-bde5-7a55b1c7628f","019cf7bd-52b9-7f96-9138-a5960b400b31","","659","
                <div class=""stimulus-container"">
                    <img src=""images/semantic_sequence/visiting_cities_semantic/visiting_cities_semantic_6.png"" class=""exp-image"">
                    <div class=""question-area"">
                        <p style=""font-size: 20px; font-weight: bold; margin: 0;"">Is there a person in this image?</p>
                    </div>
                </div>","1","main_experiment_trial","6","visiting_cities_semantic","semantic_sequence","","","","",""
"","","","","","html-keyboard-response","134","426279","0.0-134.0","33356773480B472981A705450E1C96DE","019cf7c7-0902-73a7-bde5-7a55b1c7628f","019cf7bd-52b9-7f96-9138-a5960b400b31","","null","
                <div class=""stimulus-container"">
                    <img src=""images/semantic_sequence/visiting_cities_semantic/visiting_cities_semantic_7.png"" class=""exp-image"">
                    <div class=""question-area""></div> 
                </div>","null","","","","","","","","",""
"","","","","","html-button-response","135","427158","0.0-135.0","33356773480B472981A705450E1C96DE","019cf7c7-0902-73a7-bde5-7a55b1c7628f","019cf7bd-52b9-7f96-9138-a5960b400b31","","878","
                <div class=""stimulus-container"">
                    <img src=""images/semantic_sequence/visiting_cities_semantic/visiting_cities_semantic_7.png"" class=""exp-image"">
                    <div class=""question-area"">
                        <p style=""font-size: 20px; font-weight: bold; margin: 0;"">Is there a person in this image?</p>
                    </div>
                </div>","0","main_experiment_trial","7","visiting_cities_semantic","semantic_sequence","","","","",""
"","","","","","html-keyboard-response","136","432171","0.0-136.0","33356773480B472981A705450E1C96DE","019cf7c7-0902-73a7-bde5-7a55b1c7628f","019cf7bd-52b9-7f96-9138-a5960b400b31","","null","
                <div class=""stimulus-container"">
                    <img src=""images/semantic_sequence/visiting_cities_semantic/visiting_cities_semantic_8.png"" class=""exp-image"">
                    <div class=""question-area""></div> 
                </div>","null","","","","","","","","",""
"","","","","","html-button-response","137","432772","0.0-137.0","33356773480B472981A705450E1C96DE","019cf7c7-0902-73a7-bde5-7a55b1c7628f","019cf7bd-52b9-7f96-9138-a5960b400b31","","600","
                <div class=""stimulus-container"">
                    <img src=""images/semantic_sequence/visiting_cities_semantic/visiting_cities_semantic_8.png"" class=""exp-image"">
                    <div class=""question-area"">
                        <p style=""font-size: 20px; font-weight: bold; margin: 0;"">Is there a person in this image?</p>
                    </div>
                </div>","0","main_experiment_trial","8","visiting_cities_semantic","semantic_sequence","","","","",""
"","","","","","html-keyboard-response","138","437778","0.0-138.0","33356773480B472981A705450E1C96DE","019cf7c7-0902-73a7-bde5-7a55b1c7628f","019cf7bd-52b9-7f96-9138-a5960b400b31","","null","
                <div class=""stimulus-container"">
                    <img src=""images/semantic_sequence/visiting_cities_semantic/visiting_cities_semantic_9.png"" class=""exp-image"">
                    <div class=""question-area""></div> 
                </div>","null","","","","","","","","",""
"","","","","","html-button-response","139","438199","0.0-139.0","33356773480B472981A705450E1C96DE","019cf7c7-0902-73a7-bde5-7a55b1c7628f","019cf7bd-52b9-7f96-9138-a5960b400b31","","420","
                <div class=""stimulus-container"">
                    <img src=""images/semantic_sequence/visiting_cities_semantic/visiting_cities_semantic_9.png"" class=""exp-image"">
                    <div class=""question-area"">
                        <p style=""font-size: 20px; font-weight: bold; margin: 0;"">Is there a person in this image?</p>
                    </div>
                </div>","0","main_experiment_trial","9","visiting_cities_semantic","semantic_sequence","","","","",""
"","","","","","html-keyboard-response","140","443200","0.0-140.0","33356773480B472981A705450E1C96DE","019cf7c7-0902-73a7-bde5-7a55b1c7628f","019cf7bd-52b9-7f96-9138-a5960b400b31","","null","
                <div class=""stimulus-container"">
                    <img src=""images/semantic_sequence/visiting_cities_semantic/visiting_cities_semantic_ten.png"" class=""exp-image"">
                    <div class=""question-area""></div> 
                </div>","null","","","","","","","","",""
"","","","","","html-button-response","141","444354","0.0-141.0","33356773480B472981A705450E1C96DE","019cf7c7-0902-73a7-bde5-7a55b1c7628f","019cf7bd-52b9-7f96-9138-a5960b400b31","","1153","
                <div class=""stimulus-container"">
                    <img src=""images/semantic_sequence/visiting_cities_semantic/visiting_cities_semantic_ten.png"" class=""exp-image"">
                    <div class=""question-area"">
                        <p style=""font-size: 20px; font-weight: bold; margin: 0;"">Is there a person in this image?</p>
                    </div>
                </div>","1","main_experiment_trial","ten","visiting_cities_semantic","semantic_sequence","","","","",""
"","","","","","html-keyboard-response","142","445368","0.0-142.0","33356773480B472981A705450E1C96DE","019cf7c7-0902-73a7-bde5-7a55b1c7628f","019cf7bd-52b9-7f96-9138-a5960b400b31","","null","<div style=""background-color: white; width: 100vw; height: 100vh;""></div>","null","","","","","","","","",""
"","","","","","html-keyboard-response","143","450369","0.0-143.0","33356773480B472981A705450E1C96DE","019cf7c7-0902-73a7-bde5-7a55b1c7628f","019cf7bd-52b9-7f96-9138-a5960b400b31","","null","
                <div class=""stimulus-container"">
                    <img src=""images/schematic_sequence/dinner_party_scheme/dinner_party_scheme_1.png"" class=""exp-image"">
                    <div class=""question-area""></div> 
                </div>","null","","","","","","","","",""
"","","","","","html-button-response","144","451518","0.0-144.0","33356773480B472981A705450E1C96DE","019cf7c7-0902-73a7-bde5-7a55b1c7628f","019cf7bd-52b9-7f96-9138-a5960b400b31","","1147","
                <div class=""stimulus-container"">
                    <img src=""images/schematic_sequence/dinner_party_scheme/dinner_party_scheme_1.png"" class=""exp-image"">
                    <div class=""question-area"">
                        <p style=""font-size: 20px; font-weight: bold; margin: 0;"">Is there a person in this image?</p>
                    </div>
                </div>","0","main_experiment_trial","1","dinner_party_scheme","schematic_sequence","","","","",""
"","","","","","html-keyboard-response","145","456529","0.0-145.0","33356773480B472981A705450E1C96DE","019cf7c7-0902-73a7-bde5-7a55b1c7628f","019cf7bd-52b9-7f96-9138-a5960b400b31","","null","
                <div class=""stimulus-container"">
                    <img src=""images/schematic_sequence/dinner_party_scheme/dinner_party_scheme_2.png"" class=""exp-image"">
                    <div class=""question-area""></div> 
                </div>","null","","","","","","","","",""
"","","","","","html-button-response","146","457033","0.0-146.0","33356773480B472981A705450E1C96DE","019cf7c7-0902-73a7-bde5-7a55b1c7628f","019cf7bd-52b9-7f96-9138-a5960b400b31","","503","
                <div class=""stimulus-container"">
                    <img src=""images/schematic_sequence/dinner_party_scheme/dinner_party_scheme_2.png"" class=""exp-image"">
                    <div class=""question-area"">
                        <p style=""font-size: 20px; font-weight: bold; margin: 0;"">Is there a person in this image?</p>
                    </div>
                </div>","0","main_experiment_trial","2","dinner_party_scheme","schematic_sequence","","","","",""
"","","","","","html-keyboard-response","147","462041","0.0-147.0","33356773480B472981A705450E1C96DE","019cf7c7-0902-73a7-bde5-7a55b1c7628f","019cf7bd-52b9-7f96-9138-a5960b400b31","","null","
                <div class=""stimulus-container"">
                    <img src=""images/schematic_sequence/dinner_party_scheme/dinner_party_scheme_3.png"" class=""exp-image"">
                    <div class=""question-area""></div> 
                </div>","null","","","","","","","","",""
"","","","","","html-button-response","148","462639","0.0-148.0","33356773480B472981A705450E1C96DE","019cf7c7-0902-73a7-bde5-7a55b1c7628f","019cf7bd-52b9-7f96-9138-a5960b400b31","","597","
                <div class=""stimulus-container"">
                    <img src=""images/schematic_sequence/dinner_party_scheme/dinner_party_scheme_3.png"" class=""exp-image"">
                    <div class=""question-area"">
                        <p style=""font-size: 20px; font-weight: bold; margin: 0;"">Is there a person in this image?</p>
                    </div>
                </div>","0","main_experiment_trial","3","dinner_party_scheme","schematic_sequence","","","","",""
"","","","","","html-keyboard-response","149","467644","0.0-149.0","33356773480B472981A705450E1C96DE","019cf7c7-0902-73a7-bde5-7a55b1c7628f","019cf7bd-52b9-7f96-9138-a5960b400b31","","null","
                <div class=""stimulus-container"">
                    <img src=""images/schematic_sequence/dinner_party_scheme/dinner_party_scheme_4.png"" class=""exp-image"">
                    <div class=""question-area""></div> 
                </div>","null","","","","","","","","",""
"","","","","","html-button-response","150","468223","0.0-150.0","33356773480B472981A705450E1C96DE","019cf7c7-0902-73a7-bde5-7a55b1c7628f","019cf7bd-52b9-7f96-9138-a5960b400b31","","578","
                <div class=""stimulus-container"">
                    <img src=""images/schematic_sequence/dinner_party_scheme/dinner_party_scheme_4.png"" class=""exp-image"">
                    <div class=""question-area"">
                        <p style=""font-size: 20px; font-weight: bold; margin: 0;"">Is there a person in this image?</p>
                    </div>
                </div>","0","main_experiment_trial","4","dinner_party_scheme","schematic_sequence","","","","",""
"","","","","","html-keyboard-response","151","473238","0.0-151.0","33356773480B472981A705450E1C96DE","019cf7c7-0902-73a7-bde5-7a55b1c7628f","019cf7bd-52b9-7f96-9138-a5960b400b31","","null","
                <div class=""stimulus-container"">
                    <img src=""images/schematic_sequence/dinner_party_scheme/dinner_party_scheme_5.png"" class=""exp-image"">
                    <div class=""question-area""></div> 
                </div>","null","","","","","","","","",""
"","","","","","html-button-response","152","473768","0.0-152.0","33356773480B472981A705450E1C96DE","019cf7c7-0902-73a7-bde5-7a55b1c7628f","019cf7bd-52b9-7f96-9138-a5960b400b31","","528","
                <div class=""stimulus-container"">
                    <img src=""images/schematic_sequence/dinner_party_scheme/dinner_party_scheme_5.png"" class=""exp-image"">
                    <div class=""question-area"">
                        <p style=""font-size: 20px; font-weight: bold; margin: 0;"">Is there a person in this image?</p>
                    </div>
                </div>","0","main_experiment_trial","5","dinner_party_scheme","schematic_sequence","","","","",""
"","","","","","html-keyboard-response","153","478769","0.0-153.0","33356773480B472981A705450E1C96DE","019cf7c7-0902-73a7-bde5-7a55b1c7628f","019cf7bd-52b9-7f96-9138-a5960b400b31","","null","
                <div class=""stimulus-container"">
                    <img src=""images/schematic_sequence/dinner_party_scheme/dinner_party_scheme_6.png"" class=""exp-image"">
                    <div class=""question-area""></div> 
                </div>","null","","","","","","","","",""
"","","","","","html-button-response","154","479322","0.0-154.0","33356773480B472981A705450E1C96DE","019cf7c7-0902-73a7-bde5-7a55b1c7628f","019cf7bd-52b9-7f96-9138-a5960b400b31","","551","
                <div class=""stimulus-container"">
                    <img src=""images/schematic_sequence/dinner_party_scheme/dinner_party_scheme_6.png"" class=""exp-image"">
                    <div class=""question-area"">
                        <p style=""font-size: 20px; font-weight: bold; margin: 0;"">Is there a person in this image?</p>
                    </div>
                </div>","0","main_experiment_trial","6","dinner_party_scheme","schematic_sequence","","","","",""
"","","","","","html-keyboard-response","155","484331","0.0-155.0","33356773480B472981A705450E1C96DE","019cf7c7-0902-73a7-bde5-7a55b1c7628f","019cf7bd-52b9-7f96-9138-a5960b400b31","","null","
                <div class=""stimulus-container"">
                    <img src=""images/schematic_sequence/dinner_party_scheme/dinner_party_scheme_7.png"" class=""exp-image"">
                    <div class=""question-area""></div> 
                </div>","null","","","","","","","","",""
"","","","","","html-button-response","156","484955","0.0-156.0","33356773480B472981A705450E1C96DE","019cf7c7-0902-73a7-bde5-7a55b1c7628f","019cf7bd-52b9-7f96-9138-a5960b400b31","","622","
                <div class=""stimulus-container"">
                    <img src=""images/schematic_sequence/dinner_party_scheme/dinner_party_scheme_7.png"" class=""exp-image"">
                    <div class=""question-area"">
                        <p style=""font-size: 20px; font-weight: bold; margin: 0;"">Is there a person in this image?</p>
                    </div>
                </div>","0","main_experiment_trial","7","dinner_party_scheme","schematic_sequence","","","","",""
"","","","","","html-keyboard-response","157","489956","0.0-157.0","33356773480B472981A705450E1C96DE","019cf7c7-0902-73a7-bde5-7a55b1c7628f","019cf7bd-52b9-7f96-9138-a5960b400b31","","null","
                <div class=""stimulus-container"">
                    <img src=""images/schematic_sequence/dinner_party_scheme/dinner_party_scheme_8.png"" class=""exp-image"">
                    <div class=""question-area""></div> 
                </div>","null","","","","","","","","",""
"","","","","","html-button-response","158","490645","0.0-158.0","33356773480B472981A705450E1C96DE","019cf7c7-0902-73a7-bde5-7a55b1c7628f","019cf7bd-52b9-7f96-9138-a5960b400b31","","688","
                <div class=""stimulus-container"">
                    <img src=""images/schematic_sequence/dinner_party_scheme/dinner_party_scheme_8.png"" class=""exp-image"">
                    <div class=""question-area"">
                        <p style=""font-size: 20px; font-weight: bold; margin: 0;"">Is there a person in this image?</p>
                    </div>
                </div>","0","main_experiment_trial","8","dinner_party_scheme","schematic_sequence","","","","",""
"","","","","","html-keyboard-response","159","495660","0.0-159.0","33356773480B472981A705450E1C96DE","019cf7c7-0902-73a7-bde5-7a55b1c7628f","019cf7bd-52b9-7f96-9138-a5960b400b31","","null","
                <div class=""stimulus-container"">
                    <img src=""images/schematic_sequence/dinner_party_scheme/dinner_party_scheme_9.png"" class=""exp-image"">
                    <div class=""question-area""></div> 
                </div>","null","","","","","","","","",""
"","","","","","html-button-response","160","496418","0.0-160.0","33356773480B472981A705450E1C96DE","019cf7c7-0902-73a7-bde5-7a55b1c7628f","019cf7bd-52b9-7f96-9138-a5960b400b31","","757","
                <div class=""stimulus-container"">
                    <img src=""images/schematic_sequence/dinner_party_scheme/dinner_party_scheme_9.png"" class=""exp-image"">
                    <div class=""question-area"">
                        <p style=""font-size: 20px; font-weight: bold; margin: 0;"">Is there a person in this image?</p>
                    </div>
                </div>","0","main_experiment_trial","9","dinner_party_scheme","schematic_sequence","","","","",""
"","","","","","html-keyboard-response","161","501433","0.0-161.0","33356773480B472981A705450E1C96DE","019cf7c7-0902-73a7-bde5-7a55b1c7628f","019cf7bd-52b9-7f96-9138-a5960b400b31","","null","
                <div class=""stimulus-container"">
                    <img src=""images/schematic_sequence/dinner_party_scheme/dinner_party_scheme_ten.png"" class=""exp-image"">
                    <div class=""question-area""></div> 
                </div>","null","","","","","","","","",""
"","","","","","html-button-response","162","501970","0.0-162.0","33356773480B472981A705450E1C96DE","019cf7c7-0902-73a7-bde5-7a55b1c7628f","019cf7bd-52b9-7f96-9138-a5960b400b31","","536","
                <div class=""stimulus-container"">
                    <img src=""images/schematic_sequence/dinner_party_scheme/dinner_party_scheme_ten.png"" class=""exp-image"">
                    <div class=""question-area"">
                        <p style=""font-size: 20px; font-weight: bold; margin: 0;"">Is there a person in this image?</p>
                    </div>
                </div>","0","main_experiment_trial","ten","dinner_party_scheme","schematic_sequence","","","","",""
"","","","","","html-keyboard-response","163","502972","0.0-163.0","33356773480B472981A705450E1C96DE","019cf7c7-0902-73a7-bde5-7a55b1c7628f","019cf7bd-52b9-7f96-9138-a5960b400b31","","null","<div style=""background-color: white; width: 100vw; height: 100vh;""></div>","null","","","","","","","","",""
"","","","","","html-keyboard-response","164","507974","0.0-164.0","33356773480B472981A705450E1C96DE","019cf7c7-0902-73a7-bde5-7a55b1c7628f","019cf7bd-52b9-7f96-9138-a5960b400b31","","null","
                <div class=""stimulus-container"">
                    <img src=""images/schematic_sequence/interview_scheme/interview_scheme_1.png"" class=""exp-image"">
                    <div class=""question-area""></div> 
                </div>","null","","","","","","","","",""
"","","","","","html-button-response","165","508865","0.0-165.0","33356773480B472981A705450E1C96DE","019cf7c7-0902-73a7-bde5-7a55b1c7628f","019cf7bd-52b9-7f96-9138-a5960b400b31","","889","
                <div class=""stimulus-container"">
                    <img src=""images/schematic_sequence/interview_scheme/interview_scheme_1.png"" class=""exp-image"">
                    <div class=""question-area"">
                        <p style=""font-size: 20px; font-weight: bold; margin: 0;"">Is there a person in this image?</p>
                    </div>
                </div>","1","main_experiment_trial","1","interview_scheme","schematic_sequence","","","","",""
"","","","","","html-keyboard-response","166","513880","0.0-166.0","33356773480B472981A705450E1C96DE","019cf7c7-0902-73a7-bde5-7a55b1c7628f","019cf7bd-52b9-7f96-9138-a5960b400b31","","null","
                <div class=""stimulus-container"">
                    <img src=""images/schematic_sequence/interview_scheme/interview_scheme_2.png"" class=""exp-image"">
                    <div class=""question-area""></div> 
                </div>","null","","","","","","","","",""
"","","","","","html-button-response","167","514769","0.0-167.0","33356773480B472981A705450E1C96DE","019cf7c7-0902-73a7-bde5-7a55b1c7628f","019cf7bd-52b9-7f96-9138-a5960b400b31","","887","
                <div class=""stimulus-container"">
                    <img src=""images/schematic_sequence/interview_scheme/interview_scheme_2.png"" class=""exp-image"">
                    <div class=""question-area"">
                        <p style=""font-size: 20px; font-weight: bold; margin: 0;"">Is there a person in this image?</p>
                    </div>
                </div>","0","main_experiment_trial","2","interview_scheme","schematic_sequence","","","","",""
"","","","","","html-keyboard-response","168","519778","0.0-168.0","33356773480B472981A705450E1C96DE","019cf7c7-0902-73a7-bde5-7a55b1c7628f","019cf7bd-52b9-7f96-9138-a5960b400b31","","null","
                <div class=""stimulus-container"">
                    <img src=""images/schematic_sequence/interview_scheme/interview_scheme_3.png"" class=""exp-image"">
                    <div class=""question-area""></div> 
                </div>","null","","","","","","","","",""
"","","","","","html-button-response","169","520568","0.0-169.0","33356773480B472981A705450E1C96DE","019cf7c7-0902-73a7-bde5-7a55b1c7628f","019cf7bd-52b9-7f96-9138-a5960b400b31","","788","
                <div class=""stimulus-container"">
                    <img src=""images/schematic_sequence/interview_scheme/interview_scheme_3.png"" class=""exp-image"">
                    <div class=""question-area"">
                        <p style=""font-size: 20px; font-weight: bold; margin: 0;"">Is there a person in this image?</p>
                    </div>
                </div>","1","main_experiment_trial","3","interview_scheme","schematic_sequence","","","","",""
"","","","","","html-keyboard-response","170","525577","0.0-170.0","33356773480B472981A705450E1C96DE","019cf7c7-0902-73a7-bde5-7a55b1c7628f","019cf7bd-52b9-7f96-9138-a5960b400b31","","null","
                <div class=""stimulus-container"">
                    <img src=""images/schematic_sequence/interview_scheme/interview_scheme_4.png"" class=""exp-image"">
                    <div class=""question-area""></div> 
                </div>","null","","","","","","","","",""
"","","","","","html-button-response","171","526661","0.0-171.0","33356773480B472981A705450E1C96DE","019cf7c7-0902-73a7-bde5-7a55b1c7628f","019cf7bd-52b9-7f96-9138-a5960b400b31","","1082","
                <div class=""stimulus-container"">
                    <img src=""images/schematic_sequence/interview_scheme/interview_scheme_4.png"" class=""exp-image"">
                    <div class=""question-area"">
                        <p style=""font-size: 20px; font-weight: bold; margin: 0;"">Is there a person in this image?</p>
                    </div>
                </div>","1","main_experiment_trial","4","interview_scheme","schematic_sequence","","","","",""
"","","","","","html-keyboard-response","172","531664","0.0-172.0","33356773480B472981A705450E1C96DE","019cf7c7-0902-73a7-bde5-7a55b1c7628f","019cf7bd-52b9-7f96-9138-a5960b400b31","","null","
                <div class=""stimulus-container"">
                    <img src=""images/schematic_sequence/interview_scheme/interview_scheme_5.png"" class=""exp-image"">
                    <div class=""question-area""></div> 
                </div>","null","","","","","","","","",""
"","","","","","html-button-response","173","533536","0.0-173.0","33356773480B472981A705450E1C96DE","019cf7c7-0902-73a7-bde5-7a55b1c7628f","019cf7bd-52b9-7f96-9138-a5960b400b31","","1871","
                <div class=""stimulus-container"">
                    <img src=""images/schematic_sequence/interview_scheme/interview_scheme_5.png"" class=""exp-image"">
                    <div class=""question-area"">
                        <p style=""font-size: 20px; font-weight: bold; margin: 0;"">Is there a person in this image?</p>
                    </div>
                </div>","0","main_experiment_trial","5","interview_scheme","schematic_sequence","","","","",""
"","","","","","html-keyboard-response","174","538550","0.0-174.0","33356773480B472981A705450E1C96DE","019cf7c7-0902-73a7-bde5-7a55b1c7628f","019cf7bd-52b9-7f96-9138-a5960b400b31","","null","
                <div class=""stimulus-container"">
                    <img src=""images/schematic_sequence/interview_scheme/interview_scheme_6.png"" class=""exp-image"">
                    <div class=""question-area""></div> 
                </div>","null","","","","","","","","",""
"","","","","","html-button-response","175","539062","0.0-175.0","33356773480B472981A705450E1C96DE","019cf7c7-0902-73a7-bde5-7a55b1c7628f","019cf7bd-52b9-7f96-9138-a5960b400b31","","511","
                <div class=""stimulus-container"">
                    <img src=""images/schematic_sequence/interview_scheme/interview_scheme_6.png"" class=""exp-image"">
                    <div class=""question-area"">
                        <p style=""font-size: 20px; font-weight: bold; margin: 0;"">Is there a person in this image?</p>
                    </div>
                </div>","0","main_experiment_trial","6","interview_scheme","schematic_sequence","","","","",""
"","","","","","html-keyboard-response","176","544079","0.0-176.0","33356773480B472981A705450E1C96DE","019cf7c7-0902-73a7-bde5-7a55b1c7628f","019cf7bd-52b9-7f96-9138-a5960b400b31","","null","
                <div class=""stimulus-container"">
                    <img src=""images/schematic_sequence/interview_scheme/interview_scheme_7.png"" class=""exp-image"">
                    <div class=""question-area""></div> 
                </div>","null","","","","","","","","",""
"","","","","","html-button-response","177","545661","0.0-177.0","33356773480B472981A705450E1C96DE","019cf7c7-0902-73a7-bde5-7a55b1c7628f","019cf7bd-52b9-7f96-9138-a5960b400b31","","1581","
                <div class=""stimulus-container"">
                    <img src=""images/schematic_sequence/interview_scheme/interview_scheme_7.png"" class=""exp-image"">
                    <div class=""question-area"">
                        <p style=""font-size: 20px; font-weight: bold; margin: 0;"">Is there a person in this image?</p>
                    </div>
                </div>","0","main_experiment_trial","7","interview_scheme","schematic_sequence","","","","",""
"","","","","","html-keyboard-response","178","550675","0.0-178.0","33356773480B472981A705450E1C96DE","019cf7c7-0902-73a7-bde5-7a55b1c7628f","019cf7bd-52b9-7f96-9138-a5960b400b31","","null","
                <div class=""stimulus-container"">
                    <img src=""images/schematic_sequence/interview_scheme/interview_scheme_8.png"" class=""exp-image"">
                    <div class=""question-area""></div> 
                </div>","null","","","","","","","","",""
"","","","","","html-button-response","179","551201","0.0-179.0","33356773480B472981A705450E1C96DE","019cf7c7-0902-73a7-bde5-7a55b1c7628f","019cf7bd-52b9-7f96-9138-a5960b400b31","","524","
                <div class=""stimulus-container"">
                    <img src=""images/schematic_sequence/interview_scheme/interview_scheme_8.png"" class=""exp-image"">
                    <div class=""question-area"">
                        <p style=""font-size: 20px; font-weight: bold; margin: 0;"">Is there a person in this image?</p>
                    </div>
                </div>","0","main_experiment_trial","8","interview_scheme","schematic_sequence","","","","",""
"","","","","","html-keyboard-response","180","556216","0.0-180.0","33356773480B472981A705450E1C96DE","019cf7c7-0902-73a7-bde5-7a55b1c7628f","019cf7bd-52b9-7f96-9138-a5960b400b31","","null","
                <div class=""stimulus-container"">
                    <img src=""images/schematic_sequence/interview_scheme/interview_scheme_9.png"" class=""exp-image"">
                    <div class=""question-area""></div> 
                </div>","null","","","","","","","","",""
