"success","timeout","failed_images","failed_audio","failed_video","trial_type","trial_index","time_elapsed","internal_node_id","subject_id","study_id","session_id","view_history","rt","stimulus","response","task","image_index","folder","sequence_type","valuable_image_index","reward_type","correct_choice","chosen_image_index","target_X"
"true","false","[]","[]","[]","preload","0","3089","0.0-0.0","07A245D38D7D46B9946DC8FB96805FF9","019cf7be-e26b-7ba4-8f45-50b31eb447ff","019cf7bd-52b9-7f96-9138-a5960b400b31","","","","","","","","","","","","",""
"","","","","","instructions","1","5593","0.0-1.0","07A245D38D7D46B9946DC8FB96805FF9","019cf7be-e26b-7ba4-8f45-50b31eb447ff","019cf7bd-52b9-7f96-9138-a5960b400b31","[{""page_index"":0,""viewing_time"":2504}]","2504","","","","","","","","","","",""
"","","","","","instructions","2","9649","0.0-2.0","07A245D38D7D46B9946DC8FB96805FF9","019cf7be-e26b-7ba4-8f45-50b31eb447ff","019cf7bd-52b9-7f96-9138-a5960b400b31","[{""page_index"":0,""viewing_time"":4055}]","4055","","","","","","","","","","",""
"true","","","","","fullscreen","3","12936","0.0-3.0","07A245D38D7D46B9946DC8FB96805FF9","019cf7be-e26b-7ba4-8f45-50b31eb447ff","019cf7bd-52b9-7f96-9138-a5960b400b31","","2285","","","","","","","","","","",""
"","","","","","instructions","4","25819","0.0-4.0","07A245D38D7D46B9946DC8FB96805FF9","019cf7be-e26b-7ba4-8f45-50b31eb447ff","019cf7bd-52b9-7f96-9138-a5960b400b31","[{""page_index"":0,""viewing_time"":12882}]","12882","","","","","","","","","","",""
"","","","","","instructions","5","30475","0.0-5.0","07A245D38D7D46B9946DC8FB96805FF9","019cf7be-e26b-7ba4-8f45-50b31eb447ff","019cf7bd-52b9-7f96-9138-a5960b400b31","[{""page_index"":0,""viewing_time"":4656}]","4656","","","","","","","","","","",""
"","","","","","html-keyboard-response","6","34482","0.0-6.0","07A245D38D7D46B9946DC8FB96805FF9","019cf7be-e26b-7ba4-8f45-50b31eb447ff","019cf7bd-52b9-7f96-9138-a5960b400b31","","null","
                <div class=""stimulus-container"">
                    <img src=""images/instructions/movie_1.png"" class=""exp-image"">
                    <div class=""question-area""></div> 
                </div>","null","","","","","","","","",""
"","","","","","html-button-response","7","35595","0.0-7.0","07A245D38D7D46B9946DC8FB96805FF9","019cf7be-e26b-7ba4-8f45-50b31eb447ff","019cf7bd-52b9-7f96-9138-a5960b400b31","","1112","
                <div class=""stimulus-container"">
                    <img src=""images/instructions/movie_1.png"" class=""exp-image"">
                    <div class=""question-area"">
                        <p style=""font-size: 20px; font-weight: bold; margin: 0;"">Was there a person in this image?</p>
                    </div>
                </div>","0","example_question","1","","","","","","",""
"","","","","","html-keyboard-response","8","39601","0.0-8.0","07A245D38D7D46B9946DC8FB96805FF9","019cf7be-e26b-7ba4-8f45-50b31eb447ff","019cf7bd-52b9-7f96-9138-a5960b400b31","","null","
                <div class=""stimulus-container"">
                    <img src=""images/instructions/movie_2.png"" class=""exp-image"">
                    <div class=""question-area""></div> 
                </div>","null","","","","","","","","",""
"","","","","","html-button-response","9","40013","0.0-9.0","07A245D38D7D46B9946DC8FB96805FF9","019cf7be-e26b-7ba4-8f45-50b31eb447ff","019cf7bd-52b9-7f96-9138-a5960b400b31","","412","
                <div class=""stimulus-container"">
                    <img src=""images/instructions/movie_2.png"" class=""exp-image"">
                    <div class=""question-area"">
                        <p style=""font-size: 20px; font-weight: bold; margin: 0;"">Was there a person in this image?</p>
                    </div>
                </div>","0","example_question","2","","","","","","",""
"","","","","","html-keyboard-response","10","44027","0.0-10.0","07A245D38D7D46B9946DC8FB96805FF9","019cf7be-e26b-7ba4-8f45-50b31eb447ff","019cf7bd-52b9-7f96-9138-a5960b400b31","","null","
                <div class=""stimulus-container"">
                    <img src=""images/instructions/movie_3.png"" class=""exp-image"">
                    <div class=""question-area""></div> 
                </div>","null","","","","","","","","",""
"","","","","","html-button-response","11","44485","0.0-11.0","07A245D38D7D46B9946DC8FB96805FF9","019cf7be-e26b-7ba4-8f45-50b31eb447ff","019cf7bd-52b9-7f96-9138-a5960b400b31","","458","
                <div class=""stimulus-container"">
                    <img src=""images/instructions/movie_3.png"" class=""exp-image"">
                    <div class=""question-area"">
                        <p style=""font-size: 20px; font-weight: bold; margin: 0;"">Was there a person in this image?</p>
                    </div>
                </div>","0","example_question","3","","","","","","",""
"","","","","","html-keyboard-response","12","48486","0.0-12.0","07A245D38D7D46B9946DC8FB96805FF9","019cf7be-e26b-7ba4-8f45-50b31eb447ff","019cf7bd-52b9-7f96-9138-a5960b400b31","","null","
                <div class=""stimulus-container"">
                    <img src=""images/instructions/movie_4.png"" class=""exp-image"">
                    <div class=""question-area""></div> 
                </div>","null","","","","","","","","",""
"","","","","","html-button-response","13","49227","0.0-13.0","07A245D38D7D46B9946DC8FB96805FF9","019cf7be-e26b-7ba4-8f45-50b31eb447ff","019cf7bd-52b9-7f96-9138-a5960b400b31","","740","
                <div class=""stimulus-container"">
                    <img src=""images/instructions/movie_4.png"" class=""exp-image"">
                    <div class=""question-area"">
                        <p style=""font-size: 20px; font-weight: bold; margin: 0;"">Was there a person in this image?</p>
                    </div>
                </div>","0","example_question","4","","","","","","",""
"","","","","","instructions","14","50519","0.0-14.0","07A245D38D7D46B9946DC8FB96805FF9","019cf7be-e26b-7ba4-8f45-50b31eb447ff","019cf7bd-52b9-7f96-9138-a5960b400b31","[{""page_index"":0,""viewing_time"":1292}]","1292","","","","","","","","","","",""
"","","","","","instructions","15","52429","0.0-15.0","07A245D38D7D46B9946DC8FB96805FF9","019cf7be-e26b-7ba4-8f45-50b31eb447ff","019cf7bd-52b9-7f96-9138-a5960b400b31","[{""page_index"":0,""viewing_time"":1910}]","1910","","","","","","","","","","",""
"","","","","","html-keyboard-response","16","53430","0.0-16.0","07A245D38D7D46B9946DC8FB96805FF9","019cf7be-e26b-7ba4-8f45-50b31eb447ff","019cf7bd-52b9-7f96-9138-a5960b400b31","","null","<div style=""background-color: white; width: 100vw; height: 100vh;""></div>","null","","","","","","","","",""
"","","","","","html-keyboard-response","17","58435","0.0-17.0","07A245D38D7D46B9946DC8FB96805FF9","019cf7be-e26b-7ba4-8f45-50b31eb447ff","019cf7bd-52b9-7f96-9138-a5960b400b31","","null","
                <div class=""stimulus-container"">
                    <img src=""images/schematic_sequence/interview_scheme/interview_scheme_1.png"" class=""exp-image"">
                    <div class=""question-area""></div> 
                </div>","null","","","","","","","","",""
"","","","","","html-button-response","18","59319","0.0-18.0","07A245D38D7D46B9946DC8FB96805FF9","019cf7be-e26b-7ba4-8f45-50b31eb447ff","019cf7bd-52b9-7f96-9138-a5960b400b31","","883","
                <div class=""stimulus-container"">
                    <img src=""images/schematic_sequence/interview_scheme/interview_scheme_1.png"" class=""exp-image"">
                    <div class=""question-area"">
                        <p style=""font-size: 20px; font-weight: bold; margin: 0;"">Is there a person in this image?</p>
                    </div>
                </div>","1","main_experiment_trial","1","interview_scheme","schematic_sequence","","","","",""
"","","","","","html-keyboard-response","19","64332","0.0-19.0","07A245D38D7D46B9946DC8FB96805FF9","019cf7be-e26b-7ba4-8f45-50b31eb447ff","019cf7bd-52b9-7f96-9138-a5960b400b31","","null","
                <div class=""stimulus-container"">
                    <img src=""images/schematic_sequence/interview_scheme/interview_scheme_2.png"" class=""exp-image"">
                    <div class=""question-area""></div> 
                </div>","null","","","","","","","","",""
"","","","","","html-button-response","20","64915","0.0-20.0","07A245D38D7D46B9946DC8FB96805FF9","019cf7be-e26b-7ba4-8f45-50b31eb447ff","019cf7bd-52b9-7f96-9138-a5960b400b31","","582","
                <div class=""stimulus-container"">
                    <img src=""images/schematic_sequence/interview_scheme/interview_scheme_2.png"" class=""exp-image"">
                    <div class=""question-area"">
                        <p style=""font-size: 20px; font-weight: bold; margin: 0;"">Is there a person in this image?</p>
                    </div>
                </div>","0","main_experiment_trial","2","interview_scheme","schematic_sequence","","","","",""
"","","","","","html-keyboard-response","21","69919","0.0-21.0","07A245D38D7D46B9946DC8FB96805FF9","019cf7be-e26b-7ba4-8f45-50b31eb447ff","019cf7bd-52b9-7f96-9138-a5960b400b31","","null","
                <div class=""stimulus-container"">
                    <img src=""images/schematic_sequence/interview_scheme/interview_scheme_3.png"" class=""exp-image"">
                    <div class=""question-area""></div> 
                </div>","null","","","","","","","","",""
"","","","","","html-button-response","22","70365","0.0-22.0","07A245D38D7D46B9946DC8FB96805FF9","019cf7be-e26b-7ba4-8f45-50b31eb447ff","019cf7bd-52b9-7f96-9138-a5960b400b31","","445","
                <div class=""stimulus-container"">
                    <img src=""images/schematic_sequence/interview_scheme/interview_scheme_3.png"" class=""exp-image"">
                    <div class=""question-area"">
                        <p style=""font-size: 20px; font-weight: bold; margin: 0;"">Is there a person in this image?</p>
                    </div>
                </div>","1","main_experiment_trial","3","interview_scheme","schematic_sequence","","","","",""
"","","","","","html-keyboard-response","23","75366","0.0-23.0","07A245D38D7D46B9946DC8FB96805FF9","019cf7be-e26b-7ba4-8f45-50b31eb447ff","019cf7bd-52b9-7f96-9138-a5960b400b31","","null","
                <div class=""stimulus-container"">
                    <img src=""images/schematic_sequence/interview_scheme/interview_scheme_4.png"" class=""exp-image"">
                    <div class=""question-area""></div> 
                </div>","null","","","","","","","","",""
"","","","","","html-button-response","24","75761","0.0-24.0","07A245D38D7D46B9946DC8FB96805FF9","019cf7be-e26b-7ba4-8f45-50b31eb447ff","019cf7bd-52b9-7f96-9138-a5960b400b31","","394","
                <div class=""stimulus-container"">
                    <img src=""images/schematic_sequence/interview_scheme/interview_scheme_4.png"" class=""exp-image"">
                    <div class=""question-area"">
                        <p style=""font-size: 20px; font-weight: bold; margin: 0;"">Is there a person in this image?</p>
                    </div>
                </div>","1","main_experiment_trial","4","interview_scheme","schematic_sequence","","","","",""
"","","","","","html-keyboard-response","25","80776","0.0-25.0","07A245D38D7D46B9946DC8FB96805FF9","019cf7be-e26b-7ba4-8f45-50b31eb447ff","019cf7bd-52b9-7f96-9138-a5960b400b31","","null","
                <div class=""stimulus-container"">
                    <img src=""images/schematic_sequence/interview_scheme/interview_scheme_5.png"" class=""exp-image"">
                    <div class=""question-area""></div> 
                </div>","null","","","","","","","","",""
"","","","","","html-button-response","26","81165","0.0-26.0","07A245D38D7D46B9946DC8FB96805FF9","019cf7be-e26b-7ba4-8f45-50b31eb447ff","019cf7bd-52b9-7f96-9138-a5960b400b31","","388","
                <div class=""stimulus-container"">
                    <img src=""images/schematic_sequence/interview_scheme/interview_scheme_5.png"" class=""exp-image"">
                    <div class=""question-area"">
                        <p style=""font-size: 20px; font-weight: bold; margin: 0;"">Is there a person in this image?</p>
                    </div>
                </div>","0","main_experiment_trial","5","interview_scheme","schematic_sequence","","","","",""
"","","","","","html-keyboard-response","27","86167","0.0-27.0","07A245D38D7D46B9946DC8FB96805FF9","019cf7be-e26b-7ba4-8f45-50b31eb447ff","019cf7bd-52b9-7f96-9138-a5960b400b31","","null","
                <div class=""stimulus-container"">
                    <img src=""images/schematic_sequence/interview_scheme/interview_scheme_6.png"" class=""exp-image"">
                    <div class=""question-area""></div> 
                </div>","null","","","","","","","","",""
"","","","","","html-button-response","28","86547","0.0-28.0","07A245D38D7D46B9946DC8FB96805FF9","019cf7be-e26b-7ba4-8f45-50b31eb447ff","019cf7bd-52b9-7f96-9138-a5960b400b31","","379","
                <div class=""stimulus-container"">
                    <img src=""images/schematic_sequence/interview_scheme/interview_scheme_6.png"" class=""exp-image"">
                    <div class=""question-area"">
                        <p style=""font-size: 20px; font-weight: bold; margin: 0;"">Is there a person in this image?</p>
                    </div>
                </div>","0","main_experiment_trial","6","interview_scheme","schematic_sequence","","","","",""
"","","","","","html-keyboard-response","29","91558","0.0-29.0","07A245D38D7D46B9946DC8FB96805FF9","019cf7be-e26b-7ba4-8f45-50b31eb447ff","019cf7bd-52b9-7f96-9138-a5960b400b31","","null","
                <div class=""stimulus-container"">
                    <img src=""images/schematic_sequence/interview_scheme/interview_scheme_7.png"" class=""exp-image"">
                    <div class=""question-area""></div> 
                </div>","null","","","","","","","","",""
"","","","","","html-button-response","30","92075","0.0-30.0","07A245D38D7D46B9946DC8FB96805FF9","019cf7be-e26b-7ba4-8f45-50b31eb447ff","019cf7bd-52b9-7f96-9138-a5960b400b31","","516","
                <div class=""stimulus-container"">
                    <img src=""images/schematic_sequence/interview_scheme/interview_scheme_7.png"" class=""exp-image"">
                    <div class=""question-area"">
                        <p style=""font-size: 20px; font-weight: bold; margin: 0;"">Is there a person in this image?</p>
                    </div>
                </div>","0","main_experiment_trial","7","interview_scheme","schematic_sequence","","","","",""
"","","","","","html-keyboard-response","31","97084","0.0-31.0","07A245D38D7D46B9946DC8FB96805FF9","019cf7be-e26b-7ba4-8f45-50b31eb447ff","019cf7bd-52b9-7f96-9138-a5960b400b31","","null","
                <div class=""stimulus-container"">
                    <img src=""images/schematic_sequence/interview_scheme/interview_scheme_8.png"" class=""exp-image"">
                    <div class=""question-area""></div> 
                </div>","null","","","","","","","","",""
"","","","","","html-button-response","32","97571","0.0-32.0","07A245D38D7D46B9946DC8FB96805FF9","019cf7be-e26b-7ba4-8f45-50b31eb447ff","019cf7bd-52b9-7f96-9138-a5960b400b31","","486","
                <div class=""stimulus-container"">
                    <img src=""images/schematic_sequence/interview_scheme/interview_scheme_8.png"" class=""exp-image"">
                    <div class=""question-area"">
                        <p style=""font-size: 20px; font-weight: bold; margin: 0;"">Is there a person in this image?</p>
                    </div>
                </div>","0","main_experiment_trial","8","interview_scheme","schematic_sequence","","","","",""
"","","","","","html-keyboard-response","33","102572","0.0-33.0","07A245D38D7D46B9946DC8FB96805FF9","019cf7be-e26b-7ba4-8f45-50b31eb447ff","019cf7bd-52b9-7f96-9138-a5960b400b31","","null","
                <div class=""stimulus-container"">
                    <img src=""images/schematic_sequence/interview_scheme/interview_scheme_9.png"" class=""exp-image"">
                    <div class=""question-area""></div> 
                </div>","null","","","","","","","","",""
"","","","","","html-button-response","34","102945","0.0-34.0","07A245D38D7D46B9946DC8FB96805FF9","019cf7be-e26b-7ba4-8f45-50b31eb447ff","019cf7bd-52b9-7f96-9138-a5960b400b31","","372","
                <div class=""stimulus-container"">
                    <img src=""images/schematic_sequence/interview_scheme/interview_scheme_9.png"" class=""exp-image"">
                    <div class=""question-area"">
                        <p style=""font-size: 20px; font-weight: bold; margin: 0;"">Is there a person in this image?</p>
                    </div>
                </div>","0","main_experiment_trial","9","interview_scheme","schematic_sequence","","","","",""
"","","","","","html-keyboard-response","35","107960","0.0-35.0","07A245D38D7D46B9946DC8FB96805FF9","019cf7be-e26b-7ba4-8f45-50b31eb447ff","019cf7bd-52b9-7f96-9138-a5960b400b31","","null","
                <div class=""stimulus-container"">
                    <img src=""images/schematic_sequence/interview_scheme/interview_scheme_ten.png"" class=""exp-image"">
                    <div class=""question-area""></div> 
                </div>","null","","","","","","","","",""
"","","","","","html-button-response","36","108320","0.0-36.0","07A245D38D7D46B9946DC8FB96805FF9","019cf7be-e26b-7ba4-8f45-50b31eb447ff","019cf7bd-52b9-7f96-9138-a5960b400b31","","360","
                <div class=""stimulus-container"">
                    <img src=""images/schematic_sequence/interview_scheme/interview_scheme_ten.png"" class=""exp-image"">
                    <div class=""question-area"">
                        <p style=""font-size: 20px; font-weight: bold; margin: 0;"">Is there a person in this image?</p>
                    </div>
                </div>","0","main_experiment_trial","ten","interview_scheme","schematic_sequence","","","","",""
"","","","","","html-keyboard-response","37","109327","0.0-37.0","07A245D38D7D46B9946DC8FB96805FF9","019cf7be-e26b-7ba4-8f45-50b31eb447ff","019cf7bd-52b9-7f96-9138-a5960b400b31","","null","<div style=""background-color: white; width: 100vw; height: 100vh;""></div>","null","","","","","","","","",""
"","","","","","html-keyboard-response","38","114331","0.0-38.0","07A245D38D7D46B9946DC8FB96805FF9","019cf7be-e26b-7ba4-8f45-50b31eb447ff","019cf7bd-52b9-7f96-9138-a5960b400b31","","null","
                <div class=""stimulus-container"">
                    <img src=""images/semantic_sequence/cat_care_semantic/cat_care_semantic_1.png"" class=""exp-image"">
                    <div class=""question-area""></div> 
                </div>","null","","","","","","","","",""
"","","","","","html-button-response","39","114711","0.0-39.0","07A245D38D7D46B9946DC8FB96805FF9","019cf7be-e26b-7ba4-8f45-50b31eb447ff","019cf7bd-52b9-7f96-9138-a5960b400b31","","379","
                <div class=""stimulus-container"">
                    <img src=""images/semantic_sequence/cat_care_semantic/cat_care_semantic_1.png"" class=""exp-image"">
                    <div class=""question-area"">
                        <p style=""font-size: 20px; font-weight: bold; margin: 0;"">Is there a person in this image?</p>
                    </div>
                </div>","0","main_experiment_trial","1","cat_care_semantic","semantic_sequence","","","","",""
"","","","","","html-keyboard-response","40","119712","0.0-40.0","07A245D38D7D46B9946DC8FB96805FF9","019cf7be-e26b-7ba4-8f45-50b31eb447ff","019cf7bd-52b9-7f96-9138-a5960b400b31","","null","
                <div class=""stimulus-container"">
                    <img src=""images/semantic_sequence/cat_care_semantic/cat_care_semantic_2.png"" class=""exp-image"">
                    <div class=""question-area""></div> 
                </div>","null","","","","","","","","",""
"","","","","","html-button-response","41","120053","0.0-41.0","07A245D38D7D46B9946DC8FB96805FF9","019cf7be-e26b-7ba4-8f45-50b31eb447ff","019cf7bd-52b9-7f96-9138-a5960b400b31","","341","
                <div class=""stimulus-container"">
                    <img src=""images/semantic_sequence/cat_care_semantic/cat_care_semantic_2.png"" class=""exp-image"">
                    <div class=""question-area"">
                        <p style=""font-size: 20px; font-weight: bold; margin: 0;"">Is there a person in this image?</p>
                    </div>
                </div>","0","main_experiment_trial","2","cat_care_semantic","semantic_sequence","","","","",""
"","","","","","html-keyboard-response","42","125068","0.0-42.0","07A245D38D7D46B9946DC8FB96805FF9","019cf7be-e26b-7ba4-8f45-50b31eb447ff","019cf7bd-52b9-7f96-9138-a5960b400b31","","null","
                <div class=""stimulus-container"">
                    <img src=""images/semantic_sequence/cat_care_semantic/cat_care_semantic_3.png"" class=""exp-image"">
                    <div class=""question-area""></div> 
                </div>","null","","","","","","","","",""
"","","","","","html-button-response","43","125435","0.0-43.0","07A245D38D7D46B9946DC8FB96805FF9","019cf7be-e26b-7ba4-8f45-50b31eb447ff","019cf7bd-52b9-7f96-9138-a5960b400b31","","366","
                <div class=""stimulus-container"">
                    <img src=""images/semantic_sequence/cat_care_semantic/cat_care_semantic_3.png"" class=""exp-image"">
                    <div class=""question-area"">
                        <p style=""font-size: 20px; font-weight: bold; margin: 0;"">Is there a person in this image?</p>
                    </div>
                </div>","0","main_experiment_trial","3","cat_care_semantic","semantic_sequence","","","","",""
"","","","","","html-keyboard-response","44","130435","0.0-44.0","07A245D38D7D46B9946DC8FB96805FF9","019cf7be-e26b-7ba4-8f45-50b31eb447ff","019cf7bd-52b9-7f96-9138-a5960b400b31","","null","
                <div class=""stimulus-container"">
                    <img src=""images/semantic_sequence/cat_care_semantic/cat_care_semantic_4.png"" class=""exp-image"">
                    <div class=""question-area""></div> 
                </div>","null","","","","","","","","",""
"","","","","","html-button-response","45","130885","0.0-45.0","07A245D38D7D46B9946DC8FB96805FF9","019cf7be-e26b-7ba4-8f45-50b31eb447ff","019cf7bd-52b9-7f96-9138-a5960b400b31","","449","
                <div class=""stimulus-container"">
                    <img src=""images/semantic_sequence/cat_care_semantic/cat_care_semantic_4.png"" class=""exp-image"">
                    <div class=""question-area"">
                        <p style=""font-size: 20px; font-weight: bold; margin: 0;"">Is there a person in this image?</p>
                    </div>
                </div>","0","main_experiment_trial","4","cat_care_semantic","semantic_sequence","","","","",""
"","","","","","html-keyboard-response","46","135896","0.0-46.0","07A245D38D7D46B9946DC8FB96805FF9","019cf7be-e26b-7ba4-8f45-50b31eb447ff","019cf7bd-52b9-7f96-9138-a5960b400b31","","null","
                <div class=""stimulus-container"">
                    <img src=""images/semantic_sequence/cat_care_semantic/cat_care_semantic_5.png"" class=""exp-image"">
                    <div class=""question-area""></div> 
                </div>","null","","","","","","","","",""
"","","","","","html-button-response","47","136269","0.0-47.0","07A245D38D7D46B9946DC8FB96805FF9","019cf7be-e26b-7ba4-8f45-50b31eb447ff","019cf7bd-52b9-7f96-9138-a5960b400b31","","372","
                <div class=""stimulus-container"">
                    <img src=""images/semantic_sequence/cat_care_semantic/cat_care_semantic_5.png"" class=""exp-image"">
                    <div class=""question-area"">
                        <p style=""font-size: 20px; font-weight: bold; margin: 0;"">Is there a person in this image?</p>
                    </div>
                </div>","0","main_experiment_trial","5","cat_care_semantic","semantic_sequence","","","","",""
"","","","","","html-keyboard-response","48","141270","0.0-48.0","07A245D38D7D46B9946DC8FB96805FF9","019cf7be-e26b-7ba4-8f45-50b31eb447ff","019cf7bd-52b9-7f96-9138-a5960b400b31","","null","
                <div class=""stimulus-container"">
                    <img src=""images/semantic_sequence/cat_care_semantic/cat_care_semantic_6.png"" class=""exp-image"">
                    <div class=""question-area""></div> 
                </div>","null","","","","","","","","",""
"","","","","","html-button-response","49","141680","0.0-49.0","07A245D38D7D46B9946DC8FB96805FF9","019cf7be-e26b-7ba4-8f45-50b31eb447ff","019cf7bd-52b9-7f96-9138-a5960b400b31","","410","
                <div class=""stimulus-container"">
                    <img src=""images/semantic_sequence/cat_care_semantic/cat_care_semantic_6.png"" class=""exp-image"">
                    <div class=""question-area"">
                        <p style=""font-size: 20px; font-weight: bold; margin: 0;"">Is there a person in this image?</p>
                    </div>
                </div>","0","main_experiment_trial","6","cat_care_semantic","semantic_sequence","","","","",""
"","","","","","html-keyboard-response","50","146683","0.0-50.0","07A245D38D7D46B9946DC8FB96805FF9","019cf7be-e26b-7ba4-8f45-50b31eb447ff","019cf7bd-52b9-7f96-9138-a5960b400b31","","null","
                <div class=""stimulus-container"">
                    <img src=""images/semantic_sequence/cat_care_semantic/cat_care_semantic_7.png"" class=""exp-image"">
                    <div class=""question-area""></div> 
                </div>","null","","","","","","","","",""
"","","","","","html-button-response","51","147107","0.0-51.0","07A245D38D7D46B9946DC8FB96805FF9","019cf7be-e26b-7ba4-8f45-50b31eb447ff","019cf7bd-52b9-7f96-9138-a5960b400b31","","423","
                <div class=""stimulus-container"">
                    <img src=""images/semantic_sequence/cat_care_semantic/cat_care_semantic_7.png"" class=""exp-image"">
                    <div class=""question-area"">
                        <p style=""font-size: 20px; font-weight: bold; margin: 0;"">Is there a person in this image?</p>
                    </div>
                </div>","0","main_experiment_trial","7","cat_care_semantic","semantic_sequence","","","","",""
"","","","","","html-keyboard-response","52","152108","0.0-52.0","07A245D38D7D46B9946DC8FB96805FF9","019cf7be-e26b-7ba4-8f45-50b31eb447ff","019cf7bd-52b9-7f96-9138-a5960b400b31","","null","
                <div class=""stimulus-container"">
                    <img src=""images/semantic_sequence/cat_care_semantic/cat_care_semantic_8.png"" class=""exp-image"">
                    <div class=""question-area""></div> 
                </div>","null","","","","","","","","",""
"","","","","","html-button-response","53","152472","0.0-53.0","07A245D38D7D46B9946DC8FB96805FF9","019cf7be-e26b-7ba4-8f45-50b31eb447ff","019cf7bd-52b9-7f96-9138-a5960b400b31","","364","
                <div class=""stimulus-container"">
                    <img src=""images/semantic_sequence/cat_care_semantic/cat_care_semantic_8.png"" class=""exp-image"">
                    <div class=""question-area"">
                        <p style=""font-size: 20px; font-weight: bold; margin: 0;"">Is there a person in this image?</p>
                    </div>
                </div>","0","main_experiment_trial","8","cat_care_semantic","semantic_sequence","","","","",""
"","","","","","html-keyboard-response","54","157477","0.0-54.0","07A245D38D7D46B9946DC8FB96805FF9","019cf7be-e26b-7ba4-8f45-50b31eb447ff","019cf7bd-52b9-7f96-9138-a5960b400b31","","null","
                <div class=""stimulus-container"">
                    <img src=""images/semantic_sequence/cat_care_semantic/cat_care_semantic_9.png"" class=""exp-image"">
                    <div class=""question-area""></div> 
                </div>","null","","","","","","","","",""
"","","","","","html-button-response","55","157883","0.0-55.0","07A245D38D7D46B9946DC8FB96805FF9","019cf7be-e26b-7ba4-8f45-50b31eb447ff","019cf7bd-52b9-7f96-9138-a5960b400b31","","405","
                <div class=""stimulus-container"">
                    <img src=""images/semantic_sequence/cat_care_semantic/cat_care_semantic_9.png"" class=""exp-image"">
                    <div class=""question-area"">
                        <p style=""font-size: 20px; font-weight: bold; margin: 0;"">Is there a person in this image?</p>
                    </div>
                </div>","0","main_experiment_trial","9","cat_care_semantic","semantic_sequence","","","","",""
"","","","","","html-keyboard-response","56","162892","0.0-56.0","07A245D38D7D46B9946DC8FB96805FF9","019cf7be-e26b-7ba4-8f45-50b31eb447ff","019cf7bd-52b9-7f96-9138-a5960b400b31","","null","
                <div class=""stimulus-container"">
                    <img src=""images/semantic_sequence/cat_care_semantic/cat_care_semantic_ten.png"" class=""exp-image"">
                    <div class=""question-area""></div> 
                </div>","null","","","","","","","","",""
"","","","","","html-button-response","57","163586","0.0-57.0","07A245D38D7D46B9946DC8FB96805FF9","019cf7be-e26b-7ba4-8f45-50b31eb447ff","019cf7bd-52b9-7f96-9138-a5960b400b31","","694","
                <div class=""stimulus-container"">
                    <img src=""images/semantic_sequence/cat_care_semantic/cat_care_semantic_ten.png"" class=""exp-image"">
                    <div class=""question-area"">
                        <p style=""font-size: 20px; font-weight: bold; margin: 0;"">Is there a person in this image?</p>
                    </div>
                </div>","1","main_experiment_trial","ten","cat_care_semantic","semantic_sequence","","","","",""
"","","","","","html-keyboard-response","58","164589","0.0-58.0","07A245D38D7D46B9946DC8FB96805FF9","019cf7be-e26b-7ba4-8f45-50b31eb447ff","019cf7bd-52b9-7f96-9138-a5960b400b31","","null","<div style=""background-color: white; width: 100vw; height: 100vh;""></div>","null","","","","","","","","",""
"","","","","","html-keyboard-response","59","169604","0.0-59.0","07A245D38D7D46B9946DC8FB96805FF9","019cf7be-e26b-7ba4-8f45-50b31eb447ff","019cf7bd-52b9-7f96-9138-a5960b400b31","","null","
                <div class=""stimulus-container"">
                    <img src=""images/semantic_sequence/market_semantic/market_semantic_1.png"" class=""exp-image"">
                    <div class=""question-area""></div> 
                </div>","null","","","","","","","","",""
"","","","","","html-button-response","60","170313","0.0-60.0","07A245D38D7D46B9946DC8FB96805FF9","019cf7be-e26b-7ba4-8f45-50b31eb447ff","019cf7bd-52b9-7f96-9138-a5960b400b31","","708","
                <div class=""stimulus-container"">
                    <img src=""images/semantic_sequence/market_semantic/market_semantic_1.png"" class=""exp-image"">
                    <div class=""question-area"">
                        <p style=""font-size: 20px; font-weight: bold; margin: 0;"">Is there a person in this image?</p>
                    </div>
                </div>","1","main_experiment_trial","1","market_semantic","semantic_sequence","","","","",""
"","","","","","html-keyboard-response","61","175314","0.0-61.0","07A245D38D7D46B9946DC8FB96805FF9","019cf7be-e26b-7ba4-8f45-50b31eb447ff","019cf7bd-52b9-7f96-9138-a5960b400b31","","null","
                <div class=""stimulus-container"">
                    <img src=""images/semantic_sequence/market_semantic/market_semantic_2.png"" class=""exp-image"">
                    <div class=""question-area""></div> 
                </div>","null","","","","","","","","",""
"","","","","","html-button-response","62","175770","0.0-62.0","07A245D38D7D46B9946DC8FB96805FF9","019cf7be-e26b-7ba4-8f45-50b31eb447ff","019cf7bd-52b9-7f96-9138-a5960b400b31","","456","
                <div class=""stimulus-container"">
                    <img src=""images/semantic_sequence/market_semantic/market_semantic_2.png"" class=""exp-image"">
                    <div class=""question-area"">
                        <p style=""font-size: 20px; font-weight: bold; margin: 0;"">Is there a person in this image?</p>
                    </div>
                </div>","1","main_experiment_trial","2","market_semantic","semantic_sequence","","","","",""
"","","","","","html-keyboard-response","63","180786","0.0-63.0","07A245D38D7D46B9946DC8FB96805FF9","019cf7be-e26b-7ba4-8f45-50b31eb447ff","019cf7bd-52b9-7f96-9138-a5960b400b31","","null","
                <div class=""stimulus-container"">
                    <img src=""images/semantic_sequence/market_semantic/market_semantic_3.png"" class=""exp-image"">
                    <div class=""question-area""></div> 
                </div>","null","","","","","","","","",""
"","","","","","html-button-response","64","181213","0.0-64.0","07A245D38D7D46B9946DC8FB96805FF9","019cf7be-e26b-7ba4-8f45-50b31eb447ff","019cf7bd-52b9-7f96-9138-a5960b400b31","","426","
                <div class=""stimulus-container"">
                    <img src=""images/semantic_sequence/market_semantic/market_semantic_3.png"" class=""exp-image"">
                    <div class=""question-area"">
                        <p style=""font-size: 20px; font-weight: bold; margin: 0;"">Is there a person in this image?</p>
                    </div>
                </div>","1","main_experiment_trial","3","market_semantic","semantic_sequence","","","","",""
"","","","","","html-keyboard-response","65","186213","0.0-65.0","07A245D38D7D46B9946DC8FB96805FF9","019cf7be-e26b-7ba4-8f45-50b31eb447ff","019cf7bd-52b9-7f96-9138-a5960b400b31","","null","
                <div class=""stimulus-container"">
                    <img src=""images/semantic_sequence/market_semantic/market_semantic_4.png"" class=""exp-image"">
                    <div class=""question-area""></div> 
                </div>","null","","","","","","","","",""
"","","","","","html-button-response","66","187138","0.0-66.0","07A245D38D7D46B9946DC8FB96805FF9","019cf7be-e26b-7ba4-8f45-50b31eb447ff","019cf7bd-52b9-7f96-9138-a5960b400b31","","925","
                <div class=""stimulus-container"">
                    <img src=""images/semantic_sequence/market_semantic/market_semantic_4.png"" class=""exp-image"">
                    <div class=""question-area"">
                        <p style=""font-size: 20px; font-weight: bold; margin: 0;"">Is there a person in this image?</p>
                    </div>
                </div>","0","main_experiment_trial","4","market_semantic","semantic_sequence","","","","",""
"","","","","","html-keyboard-response","67","192140","0.0-67.0","07A245D38D7D46B9946DC8FB96805FF9","019cf7be-e26b-7ba4-8f45-50b31eb447ff","019cf7bd-52b9-7f96-9138-a5960b400b31","","null","
                <div class=""stimulus-container"">
                    <img src=""images/semantic_sequence/market_semantic/market_semantic_5.png"" class=""exp-image"">
                    <div class=""question-area""></div> 
                </div>","null","","","","","","","","",""
"","","","","","html-button-response","68","195142","0.0-68.0","07A245D38D7D46B9946DC8FB96805FF9","019cf7be-e26b-7ba4-8f45-50b31eb447ff","019cf7bd-52b9-7f96-9138-a5960b400b31","","null","
                <div class=""stimulus-container"">
                    <img src=""images/semantic_sequence/market_semantic/market_semantic_5.png"" class=""exp-image"">
                    <div class=""question-area"">
                        <p style=""font-size: 20px; font-weight: bold; margin: 0;"">Is there a person in this image?</p>
                    </div>
                </div>","null","main_experiment_trial","5","market_semantic","semantic_sequence","","","","",""
"","","","","","html-keyboard-response","69","200148","0.0-69.0","07A245D38D7D46B9946DC8FB96805FF9","019cf7be-e26b-7ba4-8f45-50b31eb447ff","019cf7bd-52b9-7f96-9138-a5960b400b31","","null","
                <div class=""stimulus-container"">
                    <img src=""images/semantic_sequence/market_semantic/market_semantic_6.png"" class=""exp-image"">
                    <div class=""question-area""></div> 
                </div>","null","","","","","","","","",""
"","","","","","html-button-response","70","200794","0.0-70.0","07A245D38D7D46B9946DC8FB96805FF9","019cf7be-e26b-7ba4-8f45-50b31eb447ff","019cf7bd-52b9-7f96-9138-a5960b400b31","","646","
                <div class=""stimulus-container"">
                    <img src=""images/semantic_sequence/market_semantic/market_semantic_6.png"" class=""exp-image"">
                    <div class=""question-area"">
                        <p style=""font-size: 20px; font-weight: bold; margin: 0;"">Is there a person in this image?</p>
                    </div>
                </div>","0","main_experiment_trial","6","market_semantic","semantic_sequence","","","","",""
"","","","","","html-keyboard-response","71","205801","0.0-71.0","07A245D38D7D46B9946DC8FB96805FF9","019cf7be-e26b-7ba4-8f45-50b31eb447ff","019cf7bd-52b9-7f96-9138-a5960b400b31","","null","
                <div class=""stimulus-container"">
                    <img src=""images/semantic_sequence/market_semantic/market_semantic_7.png"" class=""exp-image"">
                    <div class=""question-area""></div> 
                </div>","null","","","","","","","","",""
"","","","","","html-button-response","72","206213","0.0-72.0","07A245D38D7D46B9946DC8FB96805FF9","019cf7be-e26b-7ba4-8f45-50b31eb447ff","019cf7bd-52b9-7f96-9138-a5960b400b31","","411","
                <div class=""stimulus-container"">
                    <img src=""images/semantic_sequence/market_semantic/market_semantic_7.png"" class=""exp-image"">
                    <div class=""question-area"">
                        <p style=""font-size: 20px; font-weight: bold; margin: 0;"">Is there a person in this image?</p>
                    </div>
                </div>","0","main_experiment_trial","7","market_semantic","semantic_sequence","","","","",""
"","","","","","html-keyboard-response","73","211213","0.0-73.0","07A245D38D7D46B9946DC8FB96805FF9","019cf7be-e26b-7ba4-8f45-50b31eb447ff","019cf7bd-52b9-7f96-9138-a5960b400b31","","null","
                <div class=""stimulus-container"">
                    <img src=""images/semantic_sequence/market_semantic/market_semantic_8.png"" class=""exp-image"">
                    <div class=""question-area""></div> 
                </div>","null","","","","","","","","",""
"","","","","","html-button-response","74","211894","0.0-74.0","07A245D38D7D46B9946DC8FB96805FF9","019cf7be-e26b-7ba4-8f45-50b31eb447ff","019cf7bd-52b9-7f96-9138-a5960b400b31","","681","
                <div class=""stimulus-container"">
                    <img src=""images/semantic_sequence/market_semantic/market_semantic_8.png"" class=""exp-image"">
                    <div class=""question-area"">
                        <p style=""font-size: 20px; font-weight: bold; margin: 0;"">Is there a person in this image?</p>
                    </div>
                </div>","1","main_experiment_trial","8","market_semantic","semantic_sequence","","","","",""
"","","","","","html-keyboard-response","75","216895","0.0-75.0","07A245D38D7D46B9946DC8FB96805FF9","019cf7be-e26b-7ba4-8f45-50b31eb447ff","019cf7bd-52b9-7f96-9138-a5960b400b31","","null","
                <div class=""stimulus-container"">
                    <img src=""images/semantic_sequence/market_semantic/market_semantic_9.png"" class=""exp-image"">
                    <div class=""question-area""></div> 
                </div>","null","","","","","","","","",""
"","","","","","html-button-response","76","218090","0.0-76.0","07A245D38D7D46B9946DC8FB96805FF9","019cf7be-e26b-7ba4-8f45-50b31eb447ff","019cf7bd-52b9-7f96-9138-a5960b400b31","","1194","
                <div class=""stimulus-container"">
                    <img src=""images/semantic_sequence/market_semantic/market_semantic_9.png"" class=""exp-image"">
                    <div class=""question-area"">
                        <p style=""font-size: 20px; font-weight: bold; margin: 0;"">Is there a person in this image?</p>
                    </div>
                </div>","0","main_experiment_trial","9","market_semantic","semantic_sequence","","","","",""
"","","","","","html-keyboard-response","77","223091","0.0-77.0","07A245D38D7D46B9946DC8FB96805FF9","019cf7be-e26b-7ba4-8f45-50b31eb447ff","019cf7bd-52b9-7f96-9138-a5960b400b31","","null","
                <div class=""stimulus-container"">
                    <img src=""images/semantic_sequence/market_semantic/market_semantic_ten.png"" class=""exp-image"">
                    <div class=""question-area""></div> 
                </div>","null","","","","","","","","",""
"","","","","","html-button-response","78","223786","0.0-78.0","07A245D38D7D46B9946DC8FB96805FF9","019cf7be-e26b-7ba4-8f45-50b31eb447ff","019cf7bd-52b9-7f96-9138-a5960b400b31","","695","
                <div class=""stimulus-container"">
                    <img src=""images/semantic_sequence/market_semantic/market_semantic_ten.png"" class=""exp-image"">
                    <div class=""question-area"">
                        <p style=""font-size: 20px; font-weight: bold; margin: 0;"">Is there a person in this image?</p>
                    </div>
                </div>","1","main_experiment_trial","ten","market_semantic","semantic_sequence","","","","",""
"","","","","","html-keyboard-response","79","224797","0.0-79.0","07A245D38D7D46B9946DC8FB96805FF9","019cf7be-e26b-7ba4-8f45-50b31eb447ff","019cf7bd-52b9-7f96-9138-a5960b400b31","","null","<div style=""background-color: white; width: 100vw; height: 100vh;""></div>","null","","","","","","","","",""
"","","","","","html-keyboard-response","80","229799","0.0-80.0","07A245D38D7D46B9946DC8FB96805FF9","019cf7be-e26b-7ba4-8f45-50b31eb447ff","019cf7bd-52b9-7f96-9138-a5960b400b31","","null","
                <div class=""stimulus-container"">
                    <img src=""images/semantic_sequence/maintaining_a_car_semantic/maintaining_a_car_semantic_1.png"" class=""exp-image"">
                    <div class=""question-area""></div> 
                </div>","null","","","","","","","","",""
"","","","","","html-button-response","81","230468","0.0-81.0","07A245D38D7D46B9946DC8FB96805FF9","019cf7be-e26b-7ba4-8f45-50b31eb447ff","019cf7bd-52b9-7f96-9138-a5960b400b31","","669","
                <div class=""stimulus-container"">
                    <img src=""images/semantic_sequence/maintaining_a_car_semantic/maintaining_a_car_semantic_1.png"" class=""exp-image"">
                    <div class=""question-area"">
                        <p style=""font-size: 20px; font-weight: bold; margin: 0;"">Is there a person in this image?</p>
                    </div>
                </div>","0","main_experiment_trial","1","maintaining_a_car_semantic","semantic_sequence","","","","",""
"","","","","","html-keyboard-response","82","235480","0.0-82.0","07A245D38D7D46B9946DC8FB96805FF9","019cf7be-e26b-7ba4-8f45-50b31eb447ff","019cf7bd-52b9-7f96-9138-a5960b400b31","","null","
                <div class=""stimulus-container"">
                    <img src=""images/semantic_sequence/maintaining_a_car_semantic/maintaining_a_car_semantic_2.png"" class=""exp-image"">
                    <div class=""question-area""></div> 
                </div>","null","","","","","","","","",""
"","","","","","html-button-response","83","235832","0.0-83.0","07A245D38D7D46B9946DC8FB96805FF9","019cf7be-e26b-7ba4-8f45-50b31eb447ff","019cf7bd-52b9-7f96-9138-a5960b400b31","","352","
                <div class=""stimulus-container"">
                    <img src=""images/semantic_sequence/maintaining_a_car_semantic/maintaining_a_car_semantic_2.png"" class=""exp-image"">
                    <div class=""question-area"">
                        <p style=""font-size: 20px; font-weight: bold; margin: 0;"">Is there a person in this image?</p>
                    </div>
                </div>","0","main_experiment_trial","2","maintaining_a_car_semantic","semantic_sequence","","","","",""
"","","","","","html-keyboard-response","84","240839","0.0-84.0","07A245D38D7D46B9946DC8FB96805FF9","019cf7be-e26b-7ba4-8f45-50b31eb447ff","019cf7bd-52b9-7f96-9138-a5960b400b31","","null","
                <div class=""stimulus-container"">
                    <img src=""images/semantic_sequence/maintaining_a_car_semantic/maintaining_a_car_semantic_3.png"" class=""exp-image"">
                    <div class=""question-area""></div> 
                </div>","null","","","","","","","","",""
"","","","","","html-button-response","85","241299","0.0-85.0","07A245D38D7D46B9946DC8FB96805FF9","019cf7be-e26b-7ba4-8f45-50b31eb447ff","019cf7bd-52b9-7f96-9138-a5960b400b31","","459","
                <div class=""stimulus-container"">
                    <img src=""images/semantic_sequence/maintaining_a_car_semantic/maintaining_a_car_semantic_3.png"" class=""exp-image"">
                    <div class=""question-area"">
                        <p style=""font-size: 20px; font-weight: bold; margin: 0;"">Is there a person in this image?</p>
                    </div>
                </div>","0","main_experiment_trial","3","maintaining_a_car_semantic","semantic_sequence","","","","",""
"","","","","","html-keyboard-response","86","246301","0.0-86.0","07A245D38D7D46B9946DC8FB96805FF9","019cf7be-e26b-7ba4-8f45-50b31eb447ff","019cf7bd-52b9-7f96-9138-a5960b400b31","","null","
                <div class=""stimulus-container"">
                    <img src=""images/semantic_sequence/maintaining_a_car_semantic/maintaining_a_car_semantic_4.png"" class=""exp-image"">
                    <div class=""question-area""></div> 
                </div>","null","","","","","","","","",""
"","","","","","html-button-response","87","246756","0.0-87.0","07A245D38D7D46B9946DC8FB96805FF9","019cf7be-e26b-7ba4-8f45-50b31eb447ff","019cf7bd-52b9-7f96-9138-a5960b400b31","","454","
                <div class=""stimulus-container"">
                    <img src=""images/semantic_sequence/maintaining_a_car_semantic/maintaining_a_car_semantic_4.png"" class=""exp-image"">
                    <div class=""question-area"">
                        <p style=""font-size: 20px; font-weight: bold; margin: 0;"">Is there a person in this image?</p>
                    </div>
                </div>","0","main_experiment_trial","4","maintaining_a_car_semantic","semantic_sequence","","","","",""
"","","","","","html-keyboard-response","88","251771","0.0-88.0","07A245D38D7D46B9946DC8FB96805FF9","019cf7be-e26b-7ba4-8f45-50b31eb447ff","019cf7bd-52b9-7f96-9138-a5960b400b31","","null","
                <div class=""stimulus-container"">
                    <img src=""images/semantic_sequence/maintaining_a_car_semantic/maintaining_a_car_semantic_5.png"" class=""exp-image"">
                    <div class=""question-area""></div> 
                </div>","null","","","","","","","","",""
"","","","","","html-button-response","89","252198","0.0-89.0","07A245D38D7D46B9946DC8FB96805FF9","019cf7be-e26b-7ba4-8f45-50b31eb447ff","019cf7bd-52b9-7f96-9138-a5960b400b31","","427","
                <div class=""stimulus-container"">
                    <img src=""images/semantic_sequence/maintaining_a_car_semantic/maintaining_a_car_semantic_5.png"" class=""exp-image"">
                    <div class=""question-area"">
                        <p style=""font-size: 20px; font-weight: bold; margin: 0;"">Is there a person in this image?</p>
                    </div>
                </div>","0","main_experiment_trial","5","maintaining_a_car_semantic","semantic_sequence","","","","",""
"","","","","","html-keyboard-response","90","257207","0.0-90.0","07A245D38D7D46B9946DC8FB96805FF9","019cf7be-e26b-7ba4-8f45-50b31eb447ff","019cf7bd-52b9-7f96-9138-a5960b400b31","","null","
                <div class=""stimulus-container"">
                    <img src=""images/semantic_sequence/maintaining_a_car_semantic/maintaining_a_car_semantic_6.png"" class=""exp-image"">
                    <div class=""question-area""></div> 
                </div>","null","","","","","","","","",""
"","","","","","html-button-response","91","257602","0.0-91.0","07A245D38D7D46B9946DC8FB96805FF9","019cf7be-e26b-7ba4-8f45-50b31eb447ff","019cf7bd-52b9-7f96-9138-a5960b400b31","","395","
                <div class=""stimulus-container"">
                    <img src=""images/semantic_sequence/maintaining_a_car_semantic/maintaining_a_car_semantic_6.png"" class=""exp-image"">
                    <div class=""question-area"">
                        <p style=""font-size: 20px; font-weight: bold; margin: 0;"">Is there a person in this image?</p>
                    </div>
                </div>","0","main_experiment_trial","6","maintaining_a_car_semantic","semantic_sequence","","","","",""
"","","","","","html-keyboard-response","92","262603","0.0-92.0","07A245D38D7D46B9946DC8FB96805FF9","019cf7be-e26b-7ba4-8f45-50b31eb447ff","019cf7bd-52b9-7f96-9138-a5960b400b31","","null","
                <div class=""stimulus-container"">
                    <img src=""images/semantic_sequence/maintaining_a_car_semantic/maintaining_a_car_semantic_7.png"" class=""exp-image"">
                    <div class=""question-area""></div> 
                </div>","null","","","","","","","","",""
"","","","","","html-button-response","93","262962","0.0-93.0","07A245D38D7D46B9946DC8FB96805FF9","019cf7be-e26b-7ba4-8f45-50b31eb447ff","019cf7bd-52b9-7f96-9138-a5960b400b31","","359","
                <div class=""stimulus-container"">
                    <img src=""images/semantic_sequence/maintaining_a_car_semantic/maintaining_a_car_semantic_7.png"" class=""exp-image"">
                    <div class=""question-area"">
                        <p style=""font-size: 20px; font-weight: bold; margin: 0;"">Is there a person in this image?</p>
                    </div>
                </div>","0","main_experiment_trial","7","maintaining_a_car_semantic","semantic_sequence","","","","",""
"","","","","","html-keyboard-response","94","267972","0.0-94.0","07A245D38D7D46B9946DC8FB96805FF9","019cf7be-e26b-7ba4-8f45-50b31eb447ff","019cf7bd-52b9-7f96-9138-a5960b400b31","","null","
                <div class=""stimulus-container"">
                    <img src=""images/semantic_sequence/maintaining_a_car_semantic/maintaining_a_car_semantic_8.png"" class=""exp-image"">
                    <div class=""question-area""></div> 
                </div>","null","","","","","","","","",""
"","","","","","html-button-response","95","268464","0.0-95.0","07A245D38D7D46B9946DC8FB96805FF9","019cf7be-e26b-7ba4-8f45-50b31eb447ff","019cf7bd-52b9-7f96-9138-a5960b400b31","","492","
                <div class=""stimulus-container"">
                    <img src=""images/semantic_sequence/maintaining_a_car_semantic/maintaining_a_car_semantic_8.png"" class=""exp-image"">
                    <div class=""question-area"">
                        <p style=""font-size: 20px; font-weight: bold; margin: 0;"">Is there a person in this image?</p>
                    </div>
                </div>","0","main_experiment_trial","8","maintaining_a_car_semantic","semantic_sequence","","","","",""
"","","","","","html-keyboard-response","96","273480","0.0-96.0","07A245D38D7D46B9946DC8FB96805FF9","019cf7be-e26b-7ba4-8f45-50b31eb447ff","019cf7bd-52b9-7f96-9138-a5960b400b31","","null","
                <div class=""stimulus-container"">
                    <img src=""images/semantic_sequence/maintaining_a_car_semantic/maintaining_a_car_semantic_9.png"" class=""exp-image"">
                    <div class=""question-area""></div> 
                </div>","null","","","","","","","","",""
"","","","","","html-button-response","97","273902","0.0-97.0","07A245D38D7D46B9946DC8FB96805FF9","019cf7be-e26b-7ba4-8f45-50b31eb447ff","019cf7bd-52b9-7f96-9138-a5960b400b31","","422","
                <div class=""stimulus-container"">
                    <img src=""images/semantic_sequence/maintaining_a_car_semantic/maintaining_a_car_semantic_9.png"" class=""exp-image"">
                    <div class=""question-area"">
                        <p style=""font-size: 20px; font-weight: bold; margin: 0;"">Is there a person in this image?</p>
                    </div>
                </div>","0","main_experiment_trial","9","maintaining_a_car_semantic","semantic_sequence","","","","",""
"","","","","","html-keyboard-response","98","278914","0.0-98.0","07A245D38D7D46B9946DC8FB96805FF9","019cf7be-e26b-7ba4-8f45-50b31eb447ff","019cf7bd-52b9-7f96-9138-a5960b400b31","","null","
                <div class=""stimulus-container"">
                    <img src=""images/semantic_sequence/maintaining_a_car_semantic/maintaining_a_car_semantic_ten.png"" class=""exp-image"">
                    <div class=""question-area""></div> 
                </div>","null","","","","","","","","",""
"","","","","","html-button-response","99","279322","0.0-99.0","07A245D38D7D46B9946DC8FB96805FF9","019cf7be-e26b-7ba4-8f45-50b31eb447ff","019cf7bd-52b9-7f96-9138-a5960b400b31","","408","
                <div class=""stimulus-container"">
                    <img src=""images/semantic_sequence/maintaining_a_car_semantic/maintaining_a_car_semantic_ten.png"" class=""exp-image"">
                    <div class=""question-area"">
                        <p style=""font-size: 20px; font-weight: bold; margin: 0;"">Is there a person in this image?</p>
                    </div>
                </div>","0","main_experiment_trial","ten","maintaining_a_car_semantic","semantic_sequence","","","","",""
"","","","","","html-keyboard-response","100","280323","0.0-100.0","07A245D38D7D46B9946DC8FB96805FF9","019cf7be-e26b-7ba4-8f45-50b31eb447ff","019cf7bd-52b9-7f96-9138-a5960b400b31","","null","<div style=""background-color: white; width: 100vw; height: 100vh;""></div>","null","","","","","","","","",""
"","","","","","html-keyboard-response","101","285337","0.0-101.0","07A245D38D7D46B9946DC8FB96805FF9","019cf7be-e26b-7ba4-8f45-50b31eb447ff","019cf7bd-52b9-7f96-9138-a5960b400b31","","null","
                <div class=""stimulus-container"">
                    <img src=""images/schematic_sequence/supermarket_scheme/supermarket_scheme_1.png"" class=""exp-image"">
                    <div class=""question-area""></div> 
                </div>","null","","","","","","","","",""
"","","","","","html-button-response","102","286256","0.0-102.0","07A245D38D7D46B9946DC8FB96805FF9","019cf7be-e26b-7ba4-8f45-50b31eb447ff","019cf7bd-52b9-7f96-9138-a5960b400b31","","919","
                <div class=""stimulus-container"">
                    <img src=""images/schematic_sequence/supermarket_scheme/supermarket_scheme_1.png"" class=""exp-image"">
                    <div class=""question-area"">
                        <p style=""font-size: 20px; font-weight: bold; margin: 0;"">Is there a person in this image?</p>
                    </div>
                </div>","1","main_experiment_trial","1","supermarket_scheme","schematic_sequence","","","","",""
"","","","","","html-keyboard-response","103","291270","0.0-103.0","07A245D38D7D46B9946DC8FB96805FF9","019cf7be-e26b-7ba4-8f45-50b31eb447ff","019cf7bd-52b9-7f96-9138-a5960b400b31","","null","
                <div class=""stimulus-container"">
                    <img src=""images/schematic_sequence/supermarket_scheme/supermarket_scheme_2.png"" class=""exp-image"">
                    <div class=""question-area""></div> 
                </div>","null","","","","","","","","",""
"","","","","","html-button-response","104","291658","0.0-104.0","07A245D38D7D46B9946DC8FB96805FF9","019cf7be-e26b-7ba4-8f45-50b31eb447ff","019cf7bd-52b9-7f96-9138-a5960b400b31","","388","
                <div class=""stimulus-container"">
                    <img src=""images/schematic_sequence/supermarket_scheme/supermarket_scheme_2.png"" class=""exp-image"">
                    <div class=""question-area"">
                        <p style=""font-size: 20px; font-weight: bold; margin: 0;"">Is there a person in this image?</p>
                    </div>
                </div>","1","main_experiment_trial","2","supermarket_scheme","schematic_sequence","","","","",""
"","","","","","html-keyboard-response","105","296660","0.0-105.0","07A245D38D7D46B9946DC8FB96805FF9","019cf7be-e26b-7ba4-8f45-50b31eb447ff","019cf7bd-52b9-7f96-9138-a5960b400b31","","null","
                <div class=""stimulus-container"">
                    <img src=""images/schematic_sequence/supermarket_scheme/supermarket_scheme_3.png"" class=""exp-image"">
                    <div class=""question-area""></div> 
                </div>","null","","","","","","","","",""
"","","","","","html-button-response","106","297000","0.0-106.0","07A245D38D7D46B9946DC8FB96805FF9","019cf7be-e26b-7ba4-8f45-50b31eb447ff","019cf7bd-52b9-7f96-9138-a5960b400b31","","340","
                <div class=""stimulus-container"">
                    <img src=""images/schematic_sequence/supermarket_scheme/supermarket_scheme_3.png"" class=""exp-image"">
                    <div class=""question-area"">
                        <p style=""font-size: 20px; font-weight: bold; margin: 0;"">Is there a person in this image?</p>
                    </div>
                </div>","1","main_experiment_trial","3","supermarket_scheme","schematic_sequence","","","","",""
"","","","","","html-keyboard-response","107","302001","0.0-107.0","07A245D38D7D46B9946DC8FB96805FF9","019cf7be-e26b-7ba4-8f45-50b31eb447ff","019cf7bd-52b9-7f96-9138-a5960b400b31","","null","
                <div class=""stimulus-container"">
                    <img src=""images/schematic_sequence/supermarket_scheme/supermarket_scheme_4.png"" class=""exp-image"">
                    <div class=""question-area""></div> 
                </div>","null","","","","","","","","",""
"","","","","","html-button-response","108","302656","0.0-108.0","07A245D38D7D46B9946DC8FB96805FF9","019cf7be-e26b-7ba4-8f45-50b31eb447ff","019cf7bd-52b9-7f96-9138-a5960b400b31","","654","
                <div class=""stimulus-container"">
                    <img src=""images/schematic_sequence/supermarket_scheme/supermarket_scheme_4.png"" class=""exp-image"">
                    <div class=""question-area"">
                        <p style=""font-size: 20px; font-weight: bold; margin: 0;"">Is there a person in this image?</p>
                    </div>
                </div>","0","main_experiment_trial","4","supermarket_scheme","schematic_sequence","","","","",""
"","","","","","html-keyboard-response","109","307671","0.0-109.0","07A245D38D7D46B9946DC8FB96805FF9","019cf7be-e26b-7ba4-8f45-50b31eb447ff","019cf7bd-52b9-7f96-9138-a5960b400b31","","null","
                <div class=""stimulus-container"">
                    <img src=""images/schematic_sequence/supermarket_scheme/supermarket_scheme_5.png"" class=""exp-image"">
                    <div class=""question-area""></div> 
                </div>","null","","","","","","","","",""
"","","","","","html-button-response","110","308399","0.0-110.0","07A245D38D7D46B9946DC8FB96805FF9","019cf7be-e26b-7ba4-8f45-50b31eb447ff","019cf7bd-52b9-7f96-9138-a5960b400b31","","727","
                <div class=""stimulus-container"">
                    <img src=""images/schematic_sequence/supermarket_scheme/supermarket_scheme_5.png"" class=""exp-image"">
                    <div class=""question-area"">
                        <p style=""font-size: 20px; font-weight: bold; margin: 0;"">Is there a person in this image?</p>
                    </div>
                </div>","1","main_experiment_trial","5","supermarket_scheme","schematic_sequence","","","","",""
"","","","","","html-keyboard-response","111","313411","0.0-111.0","07A245D38D7D46B9946DC8FB96805FF9","019cf7be-e26b-7ba4-8f45-50b31eb447ff","019cf7bd-52b9-7f96-9138-a5960b400b31","","null","
                <div class=""stimulus-container"">
                    <img src=""images/schematic_sequence/supermarket_scheme/supermarket_scheme_6.png"" class=""exp-image"">
                    <div class=""question-area""></div> 
                </div>","null","","","","","","","","",""
"","","","","","html-button-response","112","314202","0.0-112.0","07A245D38D7D46B9946DC8FB96805FF9","019cf7be-e26b-7ba4-8f45-50b31eb447ff","019cf7bd-52b9-7f96-9138-a5960b400b31","","791","
                <div class=""stimulus-container"">
                    <img src=""images/schematic_sequence/supermarket_scheme/supermarket_scheme_6.png"" class=""exp-image"">
                    <div class=""question-area"">
                        <p style=""font-size: 20px; font-weight: bold; margin: 0;"">Is there a person in this image?</p>
                    </div>
                </div>","0","main_experiment_trial","6","supermarket_scheme","schematic_sequence","","","","",""
"","","","","","html-keyboard-response","113","319204","0.0-113.0","07A245D38D7D46B9946DC8FB96805FF9","019cf7be-e26b-7ba4-8f45-50b31eb447ff","019cf7bd-52b9-7f96-9138-a5960b400b31","","null","
                <div class=""stimulus-container"">
                    <img src=""images/schematic_sequence/supermarket_scheme/supermarket_scheme_7.png"" class=""exp-image"">
                    <div class=""question-area""></div> 
                </div>","null","","","","","","","","",""
"","","","","","html-button-response","114","319676","0.0-114.0","07A245D38D7D46B9946DC8FB96805FF9","019cf7be-e26b-7ba4-8f45-50b31eb447ff","019cf7bd-52b9-7f96-9138-a5960b400b31","","472","
                <div class=""stimulus-container"">
                    <img src=""images/schematic_sequence/supermarket_scheme/supermarket_scheme_7.png"" class=""exp-image"">
                    <div class=""question-area"">
                        <p style=""font-size: 20px; font-weight: bold; margin: 0;"">Is there a person in this image?</p>
                    </div>
                </div>","0","main_experiment_trial","7","supermarket_scheme","schematic_sequence","","","","",""
"","","","","","html-keyboard-response","115","324678","0.0-115.0","07A245D38D7D46B9946DC8FB96805FF9","019cf7be-e26b-7ba4-8f45-50b31eb447ff","019cf7bd-52b9-7f96-9138-a5960b400b31","","null","
                <div class=""stimulus-container"">
                    <img src=""images/schematic_sequence/supermarket_scheme/supermarket_scheme_8.png"" class=""exp-image"">
                    <div class=""question-area""></div> 
                </div>","null","","","","","","","","",""
"","","","","","html-button-response","116","325080","0.0-116.0","07A245D38D7D46B9946DC8FB96805FF9","019cf7be-e26b-7ba4-8f45-50b31eb447ff","019cf7bd-52b9-7f96-9138-a5960b400b31","","402","
                <div class=""stimulus-container"">
                    <img src=""images/schematic_sequence/supermarket_scheme/supermarket_scheme_8.png"" class=""exp-image"">
                    <div class=""question-area"">
                        <p style=""font-size: 20px; font-weight: bold; margin: 0;"">Is there a person in this image?</p>
                    </div>
                </div>","0","main_experiment_trial","8","supermarket_scheme","schematic_sequence","","","","",""
"","","","","","html-keyboard-response","117","330089","0.0-117.0","07A245D38D7D46B9946DC8FB96805FF9","019cf7be-e26b-7ba4-8f45-50b31eb447ff","019cf7bd-52b9-7f96-9138-a5960b400b31","","null","
                <div class=""stimulus-container"">
                    <img src=""images/schematic_sequence/supermarket_scheme/supermarket_scheme_9.png"" class=""exp-image"">
                    <div class=""question-area""></div> 
                </div>","null","","","","","","","","",""
"","","","","","html-button-response","118","330476","0.0-118.0","07A245D38D7D46B9946DC8FB96805FF9","019cf7be-e26b-7ba4-8f45-50b31eb447ff","019cf7bd-52b9-7f96-9138-a5960b400b31","","387","
                <div class=""stimulus-container"">
                    <img src=""images/schematic_sequence/supermarket_scheme/supermarket_scheme_9.png"" class=""exp-image"">
                    <div class=""question-area"">
                        <p style=""font-size: 20px; font-weight: bold; margin: 0;"">Is there a person in this image?</p>
                    </div>
                </div>","0","main_experiment_trial","9","supermarket_scheme","schematic_sequence","","","","",""
"","","","","","html-keyboard-response","119","335478","0.0-119.0","07A245D38D7D46B9946DC8FB96805FF9","019cf7be-e26b-7ba4-8f45-50b31eb447ff","019cf7bd-52b9-7f96-9138-a5960b400b31","","null","
                <div class=""stimulus-container"">
                    <img src=""images/schematic_sequence/supermarket_scheme/supermarket_scheme_ten.png"" class=""exp-image"">
                    <div class=""question-area""></div> 
                </div>","null","","","","","","","","",""
"","","","","","html-button-response","120","335856","0.0-120.0","07A245D38D7D46B9946DC8FB96805FF9","019cf7be-e26b-7ba4-8f45-50b31eb447ff","019cf7bd-52b9-7f96-9138-a5960b400b31","","377","
                <div class=""stimulus-container"">
                    <img src=""images/schematic_sequence/supermarket_scheme/supermarket_scheme_ten.png"" class=""exp-image"">
                    <div class=""question-area"">
                        <p style=""font-size: 20px; font-weight: bold; margin: 0;"">Is there a person in this image?</p>
                    </div>
                </div>","1","main_experiment_trial","ten","supermarket_scheme","schematic_sequence","","","","",""
"","","","","","html-keyboard-response","121","336865","0.0-121.0","07A245D38D7D46B9946DC8FB96805FF9","019cf7be-e26b-7ba4-8f45-50b31eb447ff","019cf7bd-52b9-7f96-9138-a5960b400b31","","null","<div style=""background-color: white; width: 100vw; height: 100vh;""></div>","null","","","","","","","","",""
"","","","","","html-keyboard-response","122","341881","0.0-122.0","07A245D38D7D46B9946DC8FB96805FF9","019cf7be-e26b-7ba4-8f45-50b31eb447ff","019cf7bd-52b9-7f96-9138-a5960b400b31","","null","
                <div class=""stimulus-container"">
                    <img src=""images/semantic_sequence/redecorating_a_house_semantic/redecorating_a_house_semantic_1.png"" class=""exp-image"">
                    <div class=""question-area""></div> 
                </div>","null","","","","","","","","",""
"","","","","","html-button-response","123","342792","0.0-123.0","07A245D38D7D46B9946DC8FB96805FF9","019cf7be-e26b-7ba4-8f45-50b31eb447ff","019cf7bd-52b9-7f96-9138-a5960b400b31","","911","
                <div class=""stimulus-container"">
                    <img src=""images/semantic_sequence/redecorating_a_house_semantic/redecorating_a_house_semantic_1.png"" class=""exp-image"">
                    <div class=""question-area"">
                        <p style=""font-size: 20px; font-weight: bold; margin: 0;"">Is there a person in this image?</p>
                    </div>
                </div>","0","main_experiment_trial","1","redecorating_a_house_semantic","semantic_sequence","","","","",""
"","","","","","html-keyboard-response","124","347793","0.0-124.0","07A245D38D7D46B9946DC8FB96805FF9","019cf7be-e26b-7ba4-8f45-50b31eb447ff","019cf7bd-52b9-7f96-9138-a5960b400b31","","null","
                <div class=""stimulus-container"">
                    <img src=""images/semantic_sequence/redecorating_a_house_semantic/redecorating_a_house_semantic_2.png"" class=""exp-image"">
                    <div class=""question-area""></div> 
                </div>","null","","","","","","","","",""
"","","","","","html-button-response","125","348666","0.0-125.0","07A245D38D7D46B9946DC8FB96805FF9","019cf7be-e26b-7ba4-8f45-50b31eb447ff","019cf7bd-52b9-7f96-9138-a5960b400b31","","873","
                <div class=""stimulus-container"">
                    <img src=""images/semantic_sequence/redecorating_a_house_semantic/redecorating_a_house_semantic_2.png"" class=""exp-image"">
                    <div class=""question-area"">
                        <p style=""font-size: 20px; font-weight: bold; margin: 0;"">Is there a person in this image?</p>
                    </div>
                </div>","0","main_experiment_trial","2","redecorating_a_house_semantic","semantic_sequence","","","","",""
"","","","","","html-keyboard-response","126","353679","0.0-126.0","07A245D38D7D46B9946DC8FB96805FF9","019cf7be-e26b-7ba4-8f45-50b31eb447ff","019cf7bd-52b9-7f96-9138-a5960b400b31","","null","
                <div class=""stimulus-container"">
                    <img src=""images/semantic_sequence/redecorating_a_house_semantic/redecorating_a_house_semantic_3.png"" class=""exp-image"">
                    <div class=""question-area""></div> 
                </div>","null","","","","","","","","",""
"","","","","","html-button-response","127","354108","0.0-127.0","07A245D38D7D46B9946DC8FB96805FF9","019cf7be-e26b-7ba4-8f45-50b31eb447ff","019cf7bd-52b9-7f96-9138-a5960b400b31","","429","
                <div class=""stimulus-container"">
                    <img src=""images/semantic_sequence/redecorating_a_house_semantic/redecorating_a_house_semantic_3.png"" class=""exp-image"">
                    <div class=""question-area"">
                        <p style=""font-size: 20px; font-weight: bold; margin: 0;"">Is there a person in this image?</p>
                    </div>
                </div>","0","main_experiment_trial","3","redecorating_a_house_semantic","semantic_sequence","","","","",""
"","","","","","html-keyboard-response","128","359109","0.0-128.0","07A245D38D7D46B9946DC8FB96805FF9","019cf7be-e26b-7ba4-8f45-50b31eb447ff","019cf7bd-52b9-7f96-9138-a5960b400b31","","null","
                <div class=""stimulus-container"">
                    <img src=""images/semantic_sequence/redecorating_a_house_semantic/redecorating_a_house_semantic_4.png"" class=""exp-image"">
                    <div class=""question-area""></div> 
                </div>","null","","","","","","","","",""
"","","","","","html-button-response","129","359774","0.0-129.0","07A245D38D7D46B9946DC8FB96805FF9","019cf7be-e26b-7ba4-8f45-50b31eb447ff","019cf7bd-52b9-7f96-9138-a5960b400b31","","664","
                <div class=""stimulus-container"">
                    <img src=""images/semantic_sequence/redecorating_a_house_semantic/redecorating_a_house_semantic_4.png"" class=""exp-image"">
                    <div class=""question-area"">
                        <p style=""font-size: 20px; font-weight: bold; margin: 0;"">Is there a person in this image?</p>
                    </div>
                </div>","0","main_experiment_trial","4","redecorating_a_house_semantic","semantic_sequence","","","","",""
"","","","","","html-keyboard-response","130","364790","0.0-130.0","07A245D38D7D46B9946DC8FB96805FF9","019cf7be-e26b-7ba4-8f45-50b31eb447ff","019cf7bd-52b9-7f96-9138-a5960b400b31","","null","
                <div class=""stimulus-container"">
                    <img src=""images/semantic_sequence/redecorating_a_house_semantic/redecorating_a_house_semantic_5.png"" class=""exp-image"">
                    <div class=""question-area""></div> 
                </div>","null","","","","","","","","",""
"","","","","","html-button-response","131","365394","0.0-131.0","07A245D38D7D46B9946DC8FB96805FF9","019cf7be-e26b-7ba4-8f45-50b31eb447ff","019cf7bd-52b9-7f96-9138-a5960b400b31","","604","
                <div class=""stimulus-container"">
                    <img src=""images/semantic_sequence/redecorating_a_house_semantic/redecorating_a_house_semantic_5.png"" class=""exp-image"">
                    <div class=""question-area"">
                        <p style=""font-size: 20px; font-weight: bold; margin: 0;"">Is there a person in this image?</p>
                    </div>
                </div>","0","main_experiment_trial","5","redecorating_a_house_semantic","semantic_sequence","","","","",""
"","","","","","html-keyboard-response","132","370403","0.0-132.0","07A245D38D7D46B9946DC8FB96805FF9","019cf7be-e26b-7ba4-8f45-50b31eb447ff","019cf7bd-52b9-7f96-9138-a5960b400b31","","null","
                <div class=""stimulus-container"">
                    <img src=""images/semantic_sequence/redecorating_a_house_semantic/redecorating_a_house_semantic_6.png"" class=""exp-image"">
                    <div class=""question-area""></div> 
                </div>","null","","","","","","","","",""
"","","","","","html-button-response","133","370846","0.0-133.0","07A245D38D7D46B9946DC8FB96805FF9","019cf7be-e26b-7ba4-8f45-50b31eb447ff","019cf7bd-52b9-7f96-9138-a5960b400b31","","443","
                <div class=""stimulus-container"">
                    <img src=""images/semantic_sequence/redecorating_a_house_semantic/redecorating_a_house_semantic_6.png"" class=""exp-image"">
                    <div class=""question-area"">
                        <p style=""font-size: 20px; font-weight: bold; margin: 0;"">Is there a person in this image?</p>
                    </div>
                </div>","0","main_experiment_trial","6","redecorating_a_house_semantic","semantic_sequence","","","","",""
"","","","","","html-keyboard-response","134","375847","0.0-134.0","07A245D38D7D46B9946DC8FB96805FF9","019cf7be-e26b-7ba4-8f45-50b31eb447ff","019cf7bd-52b9-7f96-9138-a5960b400b31","","null","
                <div class=""stimulus-container"">
                    <img src=""images/semantic_sequence/redecorating_a_house_semantic/redecorating_a_house_semantic_7.png"" class=""exp-image"">
                    <div class=""question-area""></div> 
                </div>","null","","","","","","","","",""
"","","","","","html-button-response","135","376334","0.0-135.0","07A245D38D7D46B9946DC8FB96805FF9","019cf7be-e26b-7ba4-8f45-50b31eb447ff","019cf7bd-52b9-7f96-9138-a5960b400b31","","486","
                <div class=""stimulus-container"">
                    <img src=""images/semantic_sequence/redecorating_a_house_semantic/redecorating_a_house_semantic_7.png"" class=""exp-image"">
                    <div class=""question-area"">
                        <p style=""font-size: 20px; font-weight: bold; margin: 0;"">Is there a person in this image?</p>
                    </div>
                </div>","0","main_experiment_trial","7","redecorating_a_house_semantic","semantic_sequence","","","","",""
"","","","","","html-keyboard-response","136","381336","0.0-136.0","07A245D38D7D46B9946DC8FB96805FF9","019cf7be-e26b-7ba4-8f45-50b31eb447ff","019cf7bd-52b9-7f96-9138-a5960b400b31","","null","
                <div class=""stimulus-container"">
                    <img src=""images/semantic_sequence/redecorating_a_house_semantic/redecorating_a_house_semantic_8.png"" class=""exp-image"">
                    <div class=""question-area""></div> 
                </div>","null","","","","","","","","",""
"","","","","","html-button-response","137","381722","0.0-137.0","07A245D38D7D46B9946DC8FB96805FF9","019cf7be-e26b-7ba4-8f45-50b31eb447ff","019cf7bd-52b9-7f96-9138-a5960b400b31","","386","
                <div class=""stimulus-container"">
                    <img src=""images/semantic_sequence/redecorating_a_house_semantic/redecorating_a_house_semantic_8.png"" class=""exp-image"">
                    <div class=""question-area"">
                        <p style=""font-size: 20px; font-weight: bold; margin: 0;"">Is there a person in this image?</p>
                    </div>
                </div>","0","main_experiment_trial","8","redecorating_a_house_semantic","semantic_sequence","","","","",""
"","","","","","html-keyboard-response","138","386723","0.0-138.0","07A245D38D7D46B9946DC8FB96805FF9","019cf7be-e26b-7ba4-8f45-50b31eb447ff","019cf7bd-52b9-7f96-9138-a5960b400b31","","null","
                <div class=""stimulus-container"">
                    <img src=""images/semantic_sequence/redecorating_a_house_semantic/redecorating_a_house_semantic_9.png"" class=""exp-image"">
                    <div class=""question-area""></div> 
                </div>","null","","","","","","","","",""
"","","","","","html-button-response","139","387132","0.0-139.0","07A245D38D7D46B9946DC8FB96805FF9","019cf7be-e26b-7ba4-8f45-50b31eb447ff","019cf7bd-52b9-7f96-9138-a5960b400b31","","409","
                <div class=""stimulus-container"">
                    <img src=""images/semantic_sequence/redecorating_a_house_semantic/redecorating_a_house_semantic_9.png"" class=""exp-image"">
                    <div class=""question-area"">
                        <p style=""font-size: 20px; font-weight: bold; margin: 0;"">Is there a person in this image?</p>
                    </div>
                </div>","0","main_experiment_trial","9","redecorating_a_house_semantic","semantic_sequence","","","","",""
"","","","","","html-keyboard-response","140","392148","0.0-140.0","07A245D38D7D46B9946DC8FB96805FF9","019cf7be-e26b-7ba4-8f45-50b31eb447ff","019cf7bd-52b9-7f96-9138-a5960b400b31","","null","
                <div class=""stimulus-container"">
                    <img src=""images/semantic_sequence/redecorating_a_house_semantic/redecorating_a_house_semantic_ten.png"" class=""exp-image"">
                    <div class=""question-area""></div> 
                </div>","null","","","","","","","","",""
"","","","","","html-button-response","141","392532","0.0-141.0","07A245D38D7D46B9946DC8FB96805FF9","019cf7be-e26b-7ba4-8f45-50b31eb447ff","019cf7bd-52b9-7f96-9138-a5960b400b31","","384","
                <div class=""stimulus-container"">
                    <img src=""images/semantic_sequence/redecorating_a_house_semantic/redecorating_a_house_semantic_ten.png"" class=""exp-image"">
                    <div class=""question-area"">
                        <p style=""font-size: 20px; font-weight: bold; margin: 0;"">Is there a person in this image?</p>
                    </div>
                </div>","0","main_experiment_trial","ten","redecorating_a_house_semantic","semantic_sequence","","","","",""
"","","","","","html-keyboard-response","142","393542","0.0-142.0","07A245D38D7D46B9946DC8FB96805FF9","019cf7be-e26b-7ba4-8f45-50b31eb447ff","019cf7bd-52b9-7f96-9138-a5960b400b31","","null","<div style=""background-color: white; width: 100vw; height: 100vh;""></div>","null","","","","","","","","",""
"","","","","","html-keyboard-response","143","398558","0.0-143.0","07A245D38D7D46B9946DC8FB96805FF9","019cf7be-e26b-7ba4-8f45-50b31eb447ff","019cf7bd-52b9-7f96-9138-a5960b400b31","","null","
                <div class=""stimulus-container"">
                    <img src=""images/schematic_sequence/hotel_scheme/hotel_scheme_1.png"" class=""exp-image"">
                    <div class=""question-area""></div> 
                </div>","null","","","","","","","","",""
"","","","","","html-button-response","144","399314","0.0-144.0","07A245D38D7D46B9946DC8FB96805FF9","019cf7be-e26b-7ba4-8f45-50b31eb447ff","019cf7bd-52b9-7f96-9138-a5960b400b31","","755","
                <div class=""stimulus-container"">
                    <img src=""images/schematic_sequence/hotel_scheme/hotel_scheme_1.png"" class=""exp-image"">
                    <div class=""question-area"">
                        <p style=""font-size: 20px; font-weight: bold; margin: 0;"">Is there a person in this image?</p>
                    </div>
                </div>","1","main_experiment_trial","1","hotel_scheme","schematic_sequence","","","","",""
"","","","","","html-keyboard-response","145","404316","0.0-145.0","07A245D38D7D46B9946DC8FB96805FF9","019cf7be-e26b-7ba4-8f45-50b31eb447ff","019cf7bd-52b9-7f96-9138-a5960b400b31","","null","
                <div class=""stimulus-container"">
                    <img src=""images/schematic_sequence/hotel_scheme/hotel_scheme_2.png"" class=""exp-image"">
                    <div class=""question-area""></div> 
                </div>","null","","","","","","","","",""
"","","","","","html-button-response","146","404878","0.0-146.0","07A245D38D7D46B9946DC8FB96805FF9","019cf7be-e26b-7ba4-8f45-50b31eb447ff","019cf7bd-52b9-7f96-9138-a5960b400b31","","562","
                <div class=""stimulus-container"">
                    <img src=""images/schematic_sequence/hotel_scheme/hotel_scheme_2.png"" class=""exp-image"">
                    <div class=""question-area"">
                        <p style=""font-size: 20px; font-weight: bold; margin: 0;"">Is there a person in this image?</p>
                    </div>
                </div>","0","main_experiment_trial","2","hotel_scheme","schematic_sequence","","","","",""
"","","","","","html-keyboard-response","147","409884","0.0-147.0","07A245D38D7D46B9946DC8FB96805FF9","019cf7be-e26b-7ba4-8f45-50b31eb447ff","019cf7bd-52b9-7f96-9138-a5960b400b31","","null","
                <div class=""stimulus-container"">
                    <img src=""images/schematic_sequence/hotel_scheme/hotel_scheme_3.png"" class=""exp-image"">
                    <div class=""question-area""></div> 
                </div>","null","","","","","","","","",""
"","","","","","html-button-response","148","410460","0.0-148.0","07A245D38D7D46B9946DC8FB96805FF9","019cf7be-e26b-7ba4-8f45-50b31eb447ff","019cf7bd-52b9-7f96-9138-a5960b400b31","","576","
                <div class=""stimulus-container"">
                    <img src=""images/schematic_sequence/hotel_scheme/hotel_scheme_3.png"" class=""exp-image"">
                    <div class=""question-area"">
                        <p style=""font-size: 20px; font-weight: bold; margin: 0;"">Is there a person in this image?</p>
                    </div>
                </div>","0","main_experiment_trial","3","hotel_scheme","schematic_sequence","","","","",""
"","","","","","html-keyboard-response","149","415464","0.0-149.0","07A245D38D7D46B9946DC8FB96805FF9","019cf7be-e26b-7ba4-8f45-50b31eb447ff","019cf7bd-52b9-7f96-9138-a5960b400b31","","null","
                <div class=""stimulus-container"">
                    <img src=""images/schematic_sequence/hotel_scheme/hotel_scheme_4.png"" class=""exp-image"">
                    <div class=""question-area""></div> 
                </div>","null","","","","","","","","",""
"","","","","","html-button-response","150","416126","0.0-150.0","07A245D38D7D46B9946DC8FB96805FF9","019cf7be-e26b-7ba4-8f45-50b31eb447ff","019cf7bd-52b9-7f96-9138-a5960b400b31","","662","
                <div class=""stimulus-container"">
                    <img src=""images/schematic_sequence/hotel_scheme/hotel_scheme_4.png"" class=""exp-image"">
                    <div class=""question-area"">
                        <p style=""font-size: 20px; font-weight: bold; margin: 0;"">Is there a person in this image?</p>
                    </div>
                </div>","1","main_experiment_trial","4","hotel_scheme","schematic_sequence","","","","",""
"","","","","","html-keyboard-response","151","421127","0.0-151.0","07A245D38D7D46B9946DC8FB96805FF9","019cf7be-e26b-7ba4-8f45-50b31eb447ff","019cf7bd-52b9-7f96-9138-a5960b400b31","","null","
                <div class=""stimulus-container"">
                    <img src=""images/schematic_sequence/hotel_scheme/hotel_scheme_5.png"" class=""exp-image"">
                    <div class=""question-area""></div> 
                </div>","null","","","","","","","","",""
"","","","","","html-button-response","152","421498","0.0-152.0","07A245D38D7D46B9946DC8FB96805FF9","019cf7be-e26b-7ba4-8f45-50b31eb447ff","019cf7bd-52b9-7f96-9138-a5960b400b31","","370","
                <div class=""stimulus-container"">
                    <img src=""images/schematic_sequence/hotel_scheme/hotel_scheme_5.png"" class=""exp-image"">
                    <div class=""question-area"">
                        <p style=""font-size: 20px; font-weight: bold; margin: 0;"">Is there a person in this image?</p>
                    </div>
                </div>","0","main_experiment_trial","5","hotel_scheme","schematic_sequence","","","","",""
"","","","","","html-keyboard-response","153","426511","0.0-153.0","07A245D38D7D46B9946DC8FB96805FF9","019cf7be-e26b-7ba4-8f45-50b31eb447ff","019cf7bd-52b9-7f96-9138-a5960b400b31","","null","
                <div class=""stimulus-container"">
                    <img src=""images/schematic_sequence/hotel_scheme/hotel_scheme_6.png"" class=""exp-image"">
                    <div class=""question-area""></div> 
                </div>","null","","","","","","","","",""
"","","","","","html-button-response","154","426966","0.0-154.0","07A245D38D7D46B9946DC8FB96805FF9","019cf7be-e26b-7ba4-8f45-50b31eb447ff","019cf7bd-52b9-7f96-9138-a5960b400b31","","455","
                <div class=""stimulus-container"">
                    <img src=""images/schematic_sequence/hotel_scheme/hotel_scheme_6.png"" class=""exp-image"">
                    <div class=""question-area"">
                        <p style=""font-size: 20px; font-weight: bold; margin: 0;"">Is there a person in this image?</p>
                    </div>
                </div>","0","main_experiment_trial","6","hotel_scheme","schematic_sequence","","","","",""
"","","","","","html-keyboard-response","155","431967","0.0-155.0","07A245D38D7D46B9946DC8FB96805FF9","019cf7be-e26b-7ba4-8f45-50b31eb447ff","019cf7bd-52b9-7f96-9138-a5960b400b31","","null","
                <div class=""stimulus-container"">
                    <img src=""images/schematic_sequence/hotel_scheme/hotel_scheme_7.png"" class=""exp-image"">
                    <div class=""question-area""></div> 
                </div>","null","","","","","","","","",""
"","","","","","html-button-response","156","432356","0.0-156.0","07A245D38D7D46B9946DC8FB96805FF9","019cf7be-e26b-7ba4-8f45-50b31eb447ff","019cf7bd-52b9-7f96-9138-a5960b400b31","","388","
                <div class=""stimulus-container"">
                    <img src=""images/schematic_sequence/hotel_scheme/hotel_scheme_7.png"" class=""exp-image"">
                    <div class=""question-area"">
                        <p style=""font-size: 20px; font-weight: bold; margin: 0;"">Is there a person in this image?</p>
                    </div>
                </div>","0","main_experiment_trial","7","hotel_scheme","schematic_sequence","","","","",""
"","","","","","html-keyboard-response","157","437360","0.0-157.0","07A245D38D7D46B9946DC8FB96805FF9","019cf7be-e26b-7ba4-8f45-50b31eb447ff","019cf7bd-52b9-7f96-9138-a5960b400b31","","null","
                <div class=""stimulus-container"">
                    <img src=""images/schematic_sequence/hotel_scheme/hotel_scheme_8.png"" class=""exp-image"">
                    <div class=""question-area""></div> 
                </div>","null","","","","","","","","",""
"","","","","","html-button-response","158","437738","0.0-158.0","07A245D38D7D46B9946DC8FB96805FF9","019cf7be-e26b-7ba4-8f45-50b31eb447ff","019cf7bd-52b9-7f96-9138-a5960b400b31","","377","
                <div class=""stimulus-container"">
                    <img src=""images/schematic_sequence/hotel_scheme/hotel_scheme_8.png"" class=""exp-image"">
                    <div class=""question-area"">
                        <p style=""font-size: 20px; font-weight: bold; margin: 0;"">Is there a person in this image?</p>
                    </div>
                </div>","0","main_experiment_trial","8","hotel_scheme","schematic_sequence","","","","",""
"","","","","","html-keyboard-response","159","442752","0.0-159.0","07A245D38D7D46B9946DC8FB96805FF9","019cf7be-e26b-7ba4-8f45-50b31eb447ff","019cf7bd-52b9-7f96-9138-a5960b400b31","","null","
                <div class=""stimulus-container"">
                    <img src=""images/schematic_sequence/hotel_scheme/hotel_scheme_9.png"" class=""exp-image"">
                    <div class=""question-area""></div> 
                </div>","null","","","","","","","","",""
"","","","","","html-button-response","160","443300","0.0-160.0","07A245D38D7D46B9946DC8FB96805FF9","019cf7be-e26b-7ba4-8f45-50b31eb447ff","019cf7bd-52b9-7f96-9138-a5960b400b31","","548","
                <div class=""stimulus-container"">
                    <img src=""images/schematic_sequence/hotel_scheme/hotel_scheme_9.png"" class=""exp-image"">
                    <div class=""question-area"">
                        <p style=""font-size: 20px; font-weight: bold; margin: 0;"">Is there a person in this image?</p>
                    </div>
                </div>","0","main_experiment_trial","9","hotel_scheme","schematic_sequence","","","","",""
"","","","","","html-keyboard-response","161","448315","0.0-161.0","07A245D38D7D46B9946DC8FB96805FF9","019cf7be-e26b-7ba4-8f45-50b31eb447ff","019cf7bd-52b9-7f96-9138-a5960b400b31","","null","
                <div class=""stimulus-container"">
                    <img src=""images/schematic_sequence/hotel_scheme/hotel_scheme_ten.png"" class=""exp-image"">
                    <div class=""question-area""></div> 
                </div>","null","","","","","","","","",""
"","","","","","html-button-response","162","448848","0.0-162.0","07A245D38D7D46B9946DC8FB96805FF9","019cf7be-e26b-7ba4-8f45-50b31eb447ff","019cf7bd-52b9-7f96-9138-a5960b400b31","","532","
                <div class=""stimulus-container"">
                    <img src=""images/schematic_sequence/hotel_scheme/hotel_scheme_ten.png"" class=""exp-image"">
                    <div class=""question-area"">
                        <p style=""font-size: 20px; font-weight: bold; margin: 0;"">Is there a person in this image?</p>
                    </div>
                </div>","0","main_experiment_trial","ten","hotel_scheme","schematic_sequence","","","","",""
"","","","","","html-keyboard-response","163","449859","0.0-163.0","07A245D38D7D46B9946DC8FB96805FF9","019cf7be-e26b-7ba4-8f45-50b31eb447ff","019cf7bd-52b9-7f96-9138-a5960b400b31","","null","<div style=""background-color: white; width: 100vw; height: 100vh;""></div>","null","","","","","","","","",""
"","","","","","html-keyboard-response","164","454869","0.0-164.0","07A245D38D7D46B9946DC8FB96805FF9","019cf7be-e26b-7ba4-8f45-50b31eb447ff","019cf7bd-52b9-7f96-9138-a5960b400b31","","null","
                <div class=""stimulus-container"">
                    <img src=""images/schematic_sequence/dinner_party_scheme/dinner_party_scheme_1.png"" class=""exp-image"">
                    <div class=""question-area""></div> 
                </div>","null","","","","","","","","",""
"","","","","","html-button-response","165","455406","0.0-165.0","07A245D38D7D46B9946DC8FB96805FF9","019cf7be-e26b-7ba4-8f45-50b31eb447ff","019cf7bd-52b9-7f96-9138-a5960b400b31","","536","
                <div class=""stimulus-container"">
                    <img src=""images/schematic_sequence/dinner_party_scheme/dinner_party_scheme_1.png"" class=""exp-image"">
                    <div class=""question-area"">
                        <p style=""font-size: 20px; font-weight: bold; margin: 0;"">Is there a person in this image?</p>
                    </div>
                </div>","0","main_experiment_trial","1","dinner_party_scheme","schematic_sequence","","","","",""
"","","","","","html-keyboard-response","166","460407","0.0-166.0","07A245D38D7D46B9946DC8FB96805FF9","019cf7be-e26b-7ba4-8f45-50b31eb447ff","019cf7bd-52b9-7f96-9138-a5960b400b31","","null","
                <div class=""stimulus-container"">
                    <img src=""images/schematic_sequence/dinner_party_scheme/dinner_party_scheme_2.png"" class=""exp-image"">
                    <div class=""question-area""></div> 
                </div>","null","","","","","","","","",""
"","","","","","html-button-response","167","460872","0.0-167.0","07A245D38D7D46B9946DC8FB96805FF9","019cf7be-e26b-7ba4-8f45-50b31eb447ff","019cf7bd-52b9-7f96-9138-a5960b400b31","","464","
                <div class=""stimulus-container"">
                    <img src=""images/schematic_sequence/dinner_party_scheme/dinner_party_scheme_2.png"" class=""exp-image"">
                    <div class=""question-area"">
                        <p style=""font-size: 20px; font-weight: bold; margin: 0;"">Is there a person in this image?</p>
                    </div>
                </div>","0","main_experiment_trial","2","dinner_party_scheme","schematic_sequence","","","","",""
"","","","","","html-keyboard-response","168","465873","0.0-168.0","07A245D38D7D46B9946DC8FB96805FF9","019cf7be-e26b-7ba4-8f45-50b31eb447ff","019cf7bd-52b9-7f96-9138-a5960b400b31","","null","
                <div class=""stimulus-container"">
                    <img src=""images/schematic_sequence/dinner_party_scheme/dinner_party_scheme_3.png"" class=""exp-image"">
                    <div class=""question-area""></div> 
                </div>","null","","","","","","","","",""
"","","","","","html-button-response","169","466292","0.0-169.0","07A245D38D7D46B9946DC8FB96805FF9","019cf7be-e26b-7ba4-8f45-50b31eb447ff","019cf7bd-52b9-7f96-9138-a5960b400b31","","419","
                <div class=""stimulus-container"">
                    <img src=""images/schematic_sequence/dinner_party_scheme/dinner_party_scheme_3.png"" class=""exp-image"">
                    <div class=""question-area"">
                        <p style=""font-size: 20px; font-weight: bold; margin: 0;"">Is there a person in this image?</p>
                    </div>
                </div>","0","main_experiment_trial","3","dinner_party_scheme","schematic_sequence","","","","",""
"","","","","","html-keyboard-response","170","471293","0.0-170.0","07A245D38D7D46B9946DC8FB96805FF9","019cf7be-e26b-7ba4-8f45-50b31eb447ff","019cf7bd-52b9-7f96-9138-a5960b400b31","","null","
                <div class=""stimulus-container"">
                    <img src=""images/schematic_sequence/dinner_party_scheme/dinner_party_scheme_4.png"" class=""exp-image"">
                    <div class=""question-area""></div> 
                </div>","null","","","","","","","","",""
"","","","","","html-button-response","171","471634","0.0-171.0","07A245D38D7D46B9946DC8FB96805FF9","019cf7be-e26b-7ba4-8f45-50b31eb447ff","019cf7bd-52b9-7f96-9138-a5960b400b31","","341","
                <div class=""stimulus-container"">
                    <img src=""images/schematic_sequence/dinner_party_scheme/dinner_party_scheme_4.png"" class=""exp-image"">
                    <div class=""question-area"">
                        <p style=""font-size: 20px; font-weight: bold; margin: 0;"">Is there a person in this image?</p>
                    </div>
                </div>","0","main_experiment_trial","4","dinner_party_scheme","schematic_sequence","","","","",""
"","","","","","html-keyboard-response","172","476639","0.0-172.0","07A245D38D7D46B9946DC8FB96805FF9","019cf7be-e26b-7ba4-8f45-50b31eb447ff","019cf7bd-52b9-7f96-9138-a5960b400b31","","null","
                <div class=""stimulus-container"">
                    <img src=""images/schematic_sequence/dinner_party_scheme/dinner_party_scheme_5.png"" class=""exp-image"">
                    <div class=""question-area""></div> 
                </div>","null","","","","","","","","",""
"","","","","","html-button-response","173","477028","0.0-173.0","07A245D38D7D46B9946DC8FB96805FF9","019cf7be-e26b-7ba4-8f45-50b31eb447ff","019cf7bd-52b9-7f96-9138-a5960b400b31","","388","
                <div class=""stimulus-container"">
                    <img src=""images/schematic_sequence/dinner_party_scheme/dinner_party_scheme_5.png"" class=""exp-image"">
                    <div class=""question-area"">
                        <p style=""font-size: 20px; font-weight: bold; margin: 0;"">Is there a person in this image?</p>
                    </div>
                </div>","0","main_experiment_trial","5","dinner_party_scheme","schematic_sequence","","","","",""
"","","","","","html-keyboard-response","174","482029","0.0-174.0","07A245D38D7D46B9946DC8FB96805FF9","019cf7be-e26b-7ba4-8f45-50b31eb447ff","019cf7bd-52b9-7f96-9138-a5960b400b31","","null","
                <div class=""stimulus-container"">
                    <img src=""images/schematic_sequence/dinner_party_scheme/dinner_party_scheme_6.png"" class=""exp-image"">
                    <div class=""question-area""></div> 
                </div>","null","","","","","","","","",""
"","","","","","html-button-response","175","482432","0.0-175.0","07A245D38D7D46B9946DC8FB96805FF9","019cf7be-e26b-7ba4-8f45-50b31eb447ff","019cf7bd-52b9-7f96-9138-a5960b400b31","","403","
                <div class=""stimulus-container"">
                    <img src=""images/schematic_sequence/dinner_party_scheme/dinner_party_scheme_6.png"" class=""exp-image"">
                    <div class=""question-area"">
                        <p style=""font-size: 20px; font-weight: bold; margin: 0;"">Is there a person in this image?</p>
                    </div>
                </div>","0","main_experiment_trial","6","dinner_party_scheme","schematic_sequence","","","","",""
"","","","","","html-keyboard-response","176","487443","0.0-176.0","07A245D38D7D46B9946DC8FB96805FF9","019cf7be-e26b-7ba4-8f45-50b31eb447ff","019cf7bd-52b9-7f96-9138-a5960b400b31","","null","
                <div class=""stimulus-container"">
                    <img src=""images/schematic_sequence/dinner_party_scheme/dinner_party_scheme_7.png"" class=""exp-image"">
                    <div class=""question-area""></div> 
                </div>","null","","","","","","","","",""
"","","","","","html-button-response","177","487884","0.0-177.0","07A245D38D7D46B9946DC8FB96805FF9","019cf7be-e26b-7ba4-8f45-50b31eb447ff","019cf7bd-52b9-7f96-9138-a5960b400b31","","440","
                <div class=""stimulus-container"">
                    <img src=""images/schematic_sequence/dinner_party_scheme/dinner_party_scheme_7.png"" class=""exp-image"">
                    <div class=""question-area"">
                        <p style=""font-size: 20px; font-weight: bold; margin: 0;"">Is there a person in this image?</p>
                    </div>
                </div>","0","main_experiment_trial","7","dinner_party_scheme","schematic_sequence","","","","",""
"","","","","","html-keyboard-response","178","492887","0.0-178.0","07A245D38D7D46B9946DC8FB96805FF9","019cf7be-e26b-7ba4-8f45-50b31eb447ff","019cf7bd-52b9-7f96-9138-a5960b400b31","","null","
                <div class=""stimulus-container"">
                    <img src=""images/schematic_sequence/dinner_party_scheme/dinner_party_scheme_8.png"" class=""exp-image"">
                    <div class=""question-area""></div> 
                </div>","null","","","","","","","","",""
"","","","","","html-button-response","179","493312","0.0-179.0","07A245D38D7D46B9946DC8FB96805FF9","019cf7be-e26b-7ba4-8f45-50b31eb447ff","019cf7bd-52b9-7f96-9138-a5960b400b31","","424","
                <div class=""stimulus-container"">
                    <img src=""images/schematic_sequence/dinner_party_scheme/dinner_party_scheme_8.png"" class=""exp-image"">
                    <div class=""question-area"">
                        <p style=""font-size: 20px; font-weight: bold; margin: 0;"">Is there a person in this image?</p>
                    </div>
                </div>","0","main_experiment_trial","8","dinner_party_scheme","schematic_sequence","","","","",""
"","","","","","html-keyboard-response","180","498318","0.0-180.0","07A245D38D7D46B9946DC8FB96805FF9","019cf7be-e26b-7ba4-8f45-50b31eb447ff","019cf7bd-52b9-7f96-9138-a5960b400b31","","null","
                <div class=""stimulus-container"">
                    <img src=""images/schematic_sequence/dinner_party_scheme/dinner_party_scheme_9.png"" class=""exp-image"">
                    <div class=""question-area""></div> 
                </div>","null","","","","","","","","",""
