"success","timeout","failed_images","failed_audio","failed_video","trial_type","trial_index","time_elapsed","internal_node_id","subject_id","study_id","session_id","view_history","rt","stimulus","response","task","image_index","folder","sequence_type","presentation_order","valuable_image_index","reward_type","distance_from_x","target_X","chosen_image_index","is_x_plus_dist","correct_choice"
"true","false","[]","[]","[]","preload","0","4937","0.0-0.0","511E95B6D36945A59A7AB9A78BB55C66","019d0644-f9e1-7df7-b77b-d23e50855d68","019d0640-0a2d-7740-a972-9c73365b2dcb","","","","","","","","","","","","","","","",""
"","","","","","instructions","1","13946","0.0-1.0","511E95B6D36945A59A7AB9A78BB55C66","019d0644-f9e1-7df7-b77b-d23e50855d68","019d0640-0a2d-7740-a972-9c73365b2dcb","[{""page_index"":0,""viewing_time"":9005}]","9005","","","","","","","","","","","","","",""
"","","","","","instructions","2","21980","0.0-2.0","511E95B6D36945A59A7AB9A78BB55C66","019d0644-f9e1-7df7-b77b-d23e50855d68","019d0640-0a2d-7740-a972-9c73365b2dcb","[{""page_index"":0,""viewing_time"":8033}]","8033","","","","","","","","","","","","","",""
"true","","","","","fullscreen","3","31101","0.0-3.0","511E95B6D36945A59A7AB9A78BB55C66","019d0644-f9e1-7df7-b77b-d23e50855d68","019d0640-0a2d-7740-a972-9c73365b2dcb","","8116","","","","","","","","","","","","","",""
"","","","","","instructions","4","47751","0.0-4.0","511E95B6D36945A59A7AB9A78BB55C66","019d0644-f9e1-7df7-b77b-d23e50855d68","019d0640-0a2d-7740-a972-9c73365b2dcb","[{""page_index"":0,""viewing_time"":16649}]","16649","","","","","","","","","","","","","",""
"","","","","","instructions","5","50751","0.0-5.0","511E95B6D36945A59A7AB9A78BB55C66","019d0644-f9e1-7df7-b77b-d23e50855d68","019d0640-0a2d-7740-a972-9c73365b2dcb","[{""page_index"":0,""viewing_time"":3000}]","3000","","","","","","","","","","","","","",""
"","","","","","html-keyboard-response","6","54757","0.0-6.0","511E95B6D36945A59A7AB9A78BB55C66","019d0644-f9e1-7df7-b77b-d23e50855d68","019d0640-0a2d-7740-a972-9c73365b2dcb","","null","
                <div class=""stimulus-container"">
                    <img src=""images/instructions/movie_1.png"" class=""exp-image"">
                    <div class=""question-area""></div> 
                </div>","null","","","","","","","","","","","",""
"","","","","","html-button-response","7","57329","0.0-7.0","511E95B6D36945A59A7AB9A78BB55C66","019d0644-f9e1-7df7-b77b-d23e50855d68","019d0640-0a2d-7740-a972-9c73365b2dcb","","2571","
                <div class=""stimulus-container"">
                    <img src=""images/instructions/movie_1.png"" class=""exp-image"">
                    <div class=""question-area"">
                        <p style=""font-size: 20px; font-weight: bold; margin: 0;"">Was there a person in this image?</p>
                    </div>
                </div>","0","example_question","1","","","","","","","","","",""
"","","","","","html-keyboard-response","8","61336","0.0-8.0","511E95B6D36945A59A7AB9A78BB55C66","019d0644-f9e1-7df7-b77b-d23e50855d68","019d0640-0a2d-7740-a972-9c73365b2dcb","","null","
                <div class=""stimulus-container"">
                    <img src=""images/instructions/movie_2.png"" class=""exp-image"">
                    <div class=""question-area""></div> 
                </div>","null","","","","","","","","","","","",""
"","","","","","html-button-response","9","62825","0.0-9.0","511E95B6D36945A59A7AB9A78BB55C66","019d0644-f9e1-7df7-b77b-d23e50855d68","019d0640-0a2d-7740-a972-9c73365b2dcb","","1488","
                <div class=""stimulus-container"">
                    <img src=""images/instructions/movie_2.png"" class=""exp-image"">
                    <div class=""question-area"">
                        <p style=""font-size: 20px; font-weight: bold; margin: 0;"">Was there a person in this image?</p>
                    </div>
                </div>","0","example_question","2","","","","","","","","","",""
"","","","","","html-keyboard-response","10","66826","0.0-10.0","511E95B6D36945A59A7AB9A78BB55C66","019d0644-f9e1-7df7-b77b-d23e50855d68","019d0640-0a2d-7740-a972-9c73365b2dcb","","null","
                <div class=""stimulus-container"">
                    <img src=""images/instructions/movie_3.png"" class=""exp-image"">
                    <div class=""question-area""></div> 
                </div>","null","","","","","","","","","","","",""
"","","","","","html-button-response","11","69829","0.0-11.0","511E95B6D36945A59A7AB9A78BB55C66","019d0644-f9e1-7df7-b77b-d23e50855d68","019d0640-0a2d-7740-a972-9c73365b2dcb","","null","
                <div class=""stimulus-container"">
                    <img src=""images/instructions/movie_3.png"" class=""exp-image"">
                    <div class=""question-area"">
                        <p style=""font-size: 20px; font-weight: bold; margin: 0;"">Was there a person in this image?</p>
                    </div>
                </div>","null","example_question","3","","","","","","","","","",""
"","","","","","html-keyboard-response","12","73832","0.0-12.0","511E95B6D36945A59A7AB9A78BB55C66","019d0644-f9e1-7df7-b77b-d23e50855d68","019d0640-0a2d-7740-a972-9c73365b2dcb","","null","
                <div class=""stimulus-container"">
                    <img src=""images/instructions/movie_4.png"" class=""exp-image"">
                    <div class=""question-area""></div> 
                </div>","null","","","","","","","","","","","",""
"","","","","","html-button-response","13","74850","0.0-13.0","511E95B6D36945A59A7AB9A78BB55C66","019d0644-f9e1-7df7-b77b-d23e50855d68","019d0640-0a2d-7740-a972-9c73365b2dcb","","1017","
                <div class=""stimulus-container"">
                    <img src=""images/instructions/movie_4.png"" class=""exp-image"">
                    <div class=""question-area"">
                        <p style=""font-size: 20px; font-weight: bold; margin: 0;"">Was there a person in this image?</p>
                    </div>
                </div>","0","example_question","4","","","","","","","","","",""
"","","","","","instructions","14","267416","0.0-14.0","511E95B6D36945A59A7AB9A78BB55C66","019d0644-f9e1-7df7-b77b-d23e50855d68","019d0640-0a2d-7740-a972-9c73365b2dcb","[{""page_index"":0,""viewing_time"":192566}]","192566","","","","","","","","","","","","","",""
"","","","","","instructions","15","272017","0.0-15.0","511E95B6D36945A59A7AB9A78BB55C66","019d0644-f9e1-7df7-b77b-d23e50855d68","019d0640-0a2d-7740-a972-9c73365b2dcb","[{""page_index"":0,""viewing_time"":4601}]","4601","","","","","","","","","","","","","",""
"","","","","","html-keyboard-response","16","277022","0.0-16.0","511E95B6D36945A59A7AB9A78BB55C66","019d0644-f9e1-7df7-b77b-d23e50855d68","019d0640-0a2d-7740-a972-9c73365b2dcb","","null","<div style=""background-color: white; width: 100vw; height: 100vh;""></div>","null","","","","","","","","","","","",""
"","","","","","html-keyboard-response","17","282023","0.0-17.0","511E95B6D36945A59A7AB9A78BB55C66","019d0644-f9e1-7df7-b77b-d23e50855d68","019d0640-0a2d-7740-a972-9c73365b2dcb","","null","
                <div class=""stimulus-container"">
                    <img src=""images/semantic_sequence/visiting_cities_semantic/visiting_cities_semantic_1.png"" class=""exp-image"">
                    <div class=""question-area""></div> 
                </div>","null","","","","","","","","","","","",""
"","","","","","html-button-response","18","282674","0.0-18.0","511E95B6D36945A59A7AB9A78BB55C66","019d0644-f9e1-7df7-b77b-d23e50855d68","019d0640-0a2d-7740-a972-9c73365b2dcb","","650","
                <div class=""stimulus-container"">
                    <img src=""images/semantic_sequence/visiting_cities_semantic/visiting_cities_semantic_1.png"" class=""exp-image"">
                    <div class=""question-area"">
                        <p style=""font-size: 20px; font-weight: bold; margin: 0;"">Is there a person in this image?</p>
                    </div>
                </div>","0","main_experiment_trial","1","visiting_cities_semantic","semantic_sequence","chronological","","","","","","",""
"","","","","","html-keyboard-response","19","287678","0.0-19.0","511E95B6D36945A59A7AB9A78BB55C66","019d0644-f9e1-7df7-b77b-d23e50855d68","019d0640-0a2d-7740-a972-9c73365b2dcb","","null","
                <div class=""stimulus-container"">
                    <img src=""images/semantic_sequence/visiting_cities_semantic/visiting_cities_semantic_2.png"" class=""exp-image"">
                    <div class=""question-area""></div> 
                </div>","null","","","","","","","","","","","",""
"","","","","","html-button-response","20","288329","0.0-20.0","511E95B6D36945A59A7AB9A78BB55C66","019d0644-f9e1-7df7-b77b-d23e50855d68","019d0640-0a2d-7740-a972-9c73365b2dcb","","650","
                <div class=""stimulus-container"">
                    <img src=""images/semantic_sequence/visiting_cities_semantic/visiting_cities_semantic_2.png"" class=""exp-image"">
                    <div class=""question-area"">
                        <p style=""font-size: 20px; font-weight: bold; margin: 0;"">Is there a person in this image?</p>
                    </div>
                </div>","1","main_experiment_trial","2","visiting_cities_semantic","semantic_sequence","chronological","","","","","","",""
"","","","","","html-keyboard-response","21","293333","0.0-21.0","511E95B6D36945A59A7AB9A78BB55C66","019d0644-f9e1-7df7-b77b-d23e50855d68","019d0640-0a2d-7740-a972-9c73365b2dcb","","null","
                <div class=""stimulus-container"">
                    <img src=""images/semantic_sequence/visiting_cities_semantic/visiting_cities_semantic_3.png"" class=""exp-image"">
                    <div class=""question-area""></div> 
                </div>","null","","","","","","","","","","","",""
"","","","","","html-button-response","22","293992","0.0-22.0","511E95B6D36945A59A7AB9A78BB55C66","019d0644-f9e1-7df7-b77b-d23e50855d68","019d0640-0a2d-7740-a972-9c73365b2dcb","","658","
                <div class=""stimulus-container"">
                    <img src=""images/semantic_sequence/visiting_cities_semantic/visiting_cities_semantic_3.png"" class=""exp-image"">
                    <div class=""question-area"">
                        <p style=""font-size: 20px; font-weight: bold; margin: 0;"">Is there a person in this image?</p>
                    </div>
                </div>","1","main_experiment_trial","3","visiting_cities_semantic","semantic_sequence","chronological","","","","","","",""
"","","","","","html-keyboard-response","23","299000","0.0-23.0","511E95B6D36945A59A7AB9A78BB55C66","019d0644-f9e1-7df7-b77b-d23e50855d68","019d0640-0a2d-7740-a972-9c73365b2dcb","","null","
                <div class=""stimulus-container"">
                    <img src=""images/semantic_sequence/visiting_cities_semantic/visiting_cities_semantic_4.png"" class=""exp-image"">
                    <div class=""question-area""></div> 
                </div>","null","","","","","","","","","","","",""
"","","","","","html-button-response","24","300059","0.0-24.0","511E95B6D36945A59A7AB9A78BB55C66","019d0644-f9e1-7df7-b77b-d23e50855d68","019d0640-0a2d-7740-a972-9c73365b2dcb","","1058","
                <div class=""stimulus-container"">
                    <img src=""images/semantic_sequence/visiting_cities_semantic/visiting_cities_semantic_4.png"" class=""exp-image"">
                    <div class=""question-area"">
                        <p style=""font-size: 20px; font-weight: bold; margin: 0;"">Is there a person in this image?</p>
                    </div>
                </div>","1","main_experiment_trial","4","visiting_cities_semantic","semantic_sequence","chronological","","","","","","",""
"","","","","","html-keyboard-response","25","305060","0.0-25.0","511E95B6D36945A59A7AB9A78BB55C66","019d0644-f9e1-7df7-b77b-d23e50855d68","019d0640-0a2d-7740-a972-9c73365b2dcb","","null","
                <div class=""stimulus-container"">
                    <img src=""images/semantic_sequence/visiting_cities_semantic/visiting_cities_semantic_5.png"" class=""exp-image"">
                    <div class=""question-area""></div> 
                </div>","null","","","","","","","","","","","",""
"","","","","","html-button-response","26","305531","0.0-26.0","511E95B6D36945A59A7AB9A78BB55C66","019d0644-f9e1-7df7-b77b-d23e50855d68","019d0640-0a2d-7740-a972-9c73365b2dcb","","470","
                <div class=""stimulus-container"">
                    <img src=""images/semantic_sequence/visiting_cities_semantic/visiting_cities_semantic_5.png"" class=""exp-image"">
                    <div class=""question-area"">
                        <p style=""font-size: 20px; font-weight: bold; margin: 0;"">Is there a person in this image?</p>
                    </div>
                </div>","1","main_experiment_trial","5","visiting_cities_semantic","semantic_sequence","chronological","","","","","","",""
"","","","","","html-keyboard-response","27","310537","0.0-27.0","511E95B6D36945A59A7AB9A78BB55C66","019d0644-f9e1-7df7-b77b-d23e50855d68","019d0640-0a2d-7740-a972-9c73365b2dcb","","null","
                <div class=""stimulus-container"">
                    <img src=""images/semantic_sequence/visiting_cities_semantic/visiting_cities_semantic_6.png"" class=""exp-image"">
                    <div class=""question-area""></div> 
                </div>","null","","","","","","","","","","","",""
"","","","","","html-button-response","28","312694","0.0-28.0","511E95B6D36945A59A7AB9A78BB55C66","019d0644-f9e1-7df7-b77b-d23e50855d68","019d0640-0a2d-7740-a972-9c73365b2dcb","","2156","
                <div class=""stimulus-container"">
                    <img src=""images/semantic_sequence/visiting_cities_semantic/visiting_cities_semantic_6.png"" class=""exp-image"">
                    <div class=""question-area"">
                        <p style=""font-size: 20px; font-weight: bold; margin: 0;"">Is there a person in this image?</p>
                    </div>
                </div>","1","main_experiment_trial","6","visiting_cities_semantic","semantic_sequence","chronological","","","","","","",""
"","","","","","html-keyboard-response","29","317696","0.0-29.0","511E95B6D36945A59A7AB9A78BB55C66","019d0644-f9e1-7df7-b77b-d23e50855d68","019d0640-0a2d-7740-a972-9c73365b2dcb","","null","
                <div class=""stimulus-container"">
                    <img src=""images/semantic_sequence/visiting_cities_semantic/visiting_cities_semantic_7.png"" class=""exp-image"">
                    <div class=""question-area""></div> 
                </div>","null","","","","","","","","","","","",""
"","","","","","html-button-response","30","318525","0.0-30.0","511E95B6D36945A59A7AB9A78BB55C66","019d0644-f9e1-7df7-b77b-d23e50855d68","019d0640-0a2d-7740-a972-9c73365b2dcb","","827","
                <div class=""stimulus-container"">
                    <img src=""images/semantic_sequence/visiting_cities_semantic/visiting_cities_semantic_7.png"" class=""exp-image"">
                    <div class=""question-area"">
                        <p style=""font-size: 20px; font-weight: bold; margin: 0;"">Is there a person in this image?</p>
                    </div>
                </div>","0","main_experiment_trial","7","visiting_cities_semantic","semantic_sequence","chronological","","","","","","",""
"","","","","","html-keyboard-response","31","323529","0.0-31.0","511E95B6D36945A59A7AB9A78BB55C66","019d0644-f9e1-7df7-b77b-d23e50855d68","019d0640-0a2d-7740-a972-9c73365b2dcb","","null","
                <div class=""stimulus-container"">
                    <img src=""images/semantic_sequence/visiting_cities_semantic/visiting_cities_semantic_8.png"" class=""exp-image"">
                    <div class=""question-area""></div> 
                </div>","null","","","","","","","","","","","",""
"","","","","","html-button-response","32","324798","0.0-32.0","511E95B6D36945A59A7AB9A78BB55C66","019d0644-f9e1-7df7-b77b-d23e50855d68","019d0640-0a2d-7740-a972-9c73365b2dcb","","1267","
                <div class=""stimulus-container"">
                    <img src=""images/semantic_sequence/visiting_cities_semantic/visiting_cities_semantic_8.png"" class=""exp-image"">
                    <div class=""question-area"">
                        <p style=""font-size: 20px; font-weight: bold; margin: 0;"">Is there a person in this image?</p>
                    </div>
                </div>","0","main_experiment_trial","8","visiting_cities_semantic","semantic_sequence","chronological","","","","","","",""
"","","","","","html-keyboard-response","33","329809","0.0-33.0","511E95B6D36945A59A7AB9A78BB55C66","019d0644-f9e1-7df7-b77b-d23e50855d68","019d0640-0a2d-7740-a972-9c73365b2dcb","","null","
                <div class=""stimulus-container"">
                    <img src=""images/semantic_sequence/visiting_cities_semantic/visiting_cities_semantic_9.png"" class=""exp-image"">
                    <div class=""question-area""></div> 
                </div>","null","","","","","","","","","","","",""
"","","","","","html-button-response","34","330598","0.0-34.0","511E95B6D36945A59A7AB9A78BB55C66","019d0644-f9e1-7df7-b77b-d23e50855d68","019d0640-0a2d-7740-a972-9c73365b2dcb","","788","
                <div class=""stimulus-container"">
                    <img src=""images/semantic_sequence/visiting_cities_semantic/visiting_cities_semantic_9.png"" class=""exp-image"">
                    <div class=""question-area"">
                        <p style=""font-size: 20px; font-weight: bold; margin: 0;"">Is there a person in this image?</p>
                    </div>
                </div>","0","main_experiment_trial","9","visiting_cities_semantic","semantic_sequence","chronological","","","","","","",""
"","","","","","html-keyboard-response","35","335605","0.0-35.0","511E95B6D36945A59A7AB9A78BB55C66","019d0644-f9e1-7df7-b77b-d23e50855d68","019d0640-0a2d-7740-a972-9c73365b2dcb","","null","
                <div class=""stimulus-container"">
                    <img src=""images/semantic_sequence/visiting_cities_semantic/visiting_cities_semantic_ten.png"" class=""exp-image"">
                    <div class=""question-area""></div> 
                </div>","null","","","","","","","","","","","",""
"","","","","","html-button-response","36","336270","0.0-36.0","511E95B6D36945A59A7AB9A78BB55C66","019d0644-f9e1-7df7-b77b-d23e50855d68","019d0640-0a2d-7740-a972-9c73365b2dcb","","665","
                <div class=""stimulus-container"">
                    <img src=""images/semantic_sequence/visiting_cities_semantic/visiting_cities_semantic_ten.png"" class=""exp-image"">
                    <div class=""question-area"">
                        <p style=""font-size: 20px; font-weight: bold; margin: 0;"">Is there a person in this image?</p>
                    </div>
                </div>","0","main_experiment_trial","ten","visiting_cities_semantic","semantic_sequence","chronological","","","","","","",""
"","","","","","html-keyboard-response","37","341277","0.0-37.0","511E95B6D36945A59A7AB9A78BB55C66","019d0644-f9e1-7df7-b77b-d23e50855d68","019d0640-0a2d-7740-a972-9c73365b2dcb","","null","<div style=""background-color: white; width: 100vw; height: 100vh;""></div>","null","","","","","","","","","","","",""
"","","","","","html-keyboard-response","38","346282","0.0-38.0","511E95B6D36945A59A7AB9A78BB55C66","019d0644-f9e1-7df7-b77b-d23e50855d68","019d0640-0a2d-7740-a972-9c73365b2dcb","","null","
                <div class=""stimulus-container"">
                    <img src=""images/schematic_sequence/dinner_party_scheme/dinner_party_scheme_1.png"" class=""exp-image"">
                    <div class=""question-area""></div> 
                </div>","null","","","","","","","","","","","",""
"","","","","","html-button-response","39","347240","0.0-39.0","511E95B6D36945A59A7AB9A78BB55C66","019d0644-f9e1-7df7-b77b-d23e50855d68","019d0640-0a2d-7740-a972-9c73365b2dcb","","956","
                <div class=""stimulus-container"">
                    <img src=""images/schematic_sequence/dinner_party_scheme/dinner_party_scheme_1.png"" class=""exp-image"">
                    <div class=""question-area"">
                        <p style=""font-size: 20px; font-weight: bold; margin: 0;"">Is there a person in this image?</p>
                    </div>
                </div>","0","main_experiment_trial","1","dinner_party_scheme","schematic_sequence","chronological","","","","","","",""
"","","","","","html-keyboard-response","40","352242","0.0-40.0","511E95B6D36945A59A7AB9A78BB55C66","019d0644-f9e1-7df7-b77b-d23e50855d68","019d0640-0a2d-7740-a972-9c73365b2dcb","","null","
                <div class=""stimulus-container"">
                    <img src=""images/schematic_sequence/dinner_party_scheme/dinner_party_scheme_2.png"" class=""exp-image"">
                    <div class=""question-area""></div> 
                </div>","null","","","","","","","","","","","",""
"","","","","","html-button-response","41","353084","0.0-41.0","511E95B6D36945A59A7AB9A78BB55C66","019d0644-f9e1-7df7-b77b-d23e50855d68","019d0640-0a2d-7740-a972-9c73365b2dcb","","841","
                <div class=""stimulus-container"">
                    <img src=""images/schematic_sequence/dinner_party_scheme/dinner_party_scheme_2.png"" class=""exp-image"">
                    <div class=""question-area"">
                        <p style=""font-size: 20px; font-weight: bold; margin: 0;"">Is there a person in this image?</p>
                    </div>
                </div>","0","main_experiment_trial","2","dinner_party_scheme","schematic_sequence","chronological","","","","","","",""
"","","","","","html-keyboard-response","42","358098","0.0-42.0","511E95B6D36945A59A7AB9A78BB55C66","019d0644-f9e1-7df7-b77b-d23e50855d68","019d0640-0a2d-7740-a972-9c73365b2dcb","","null","
                <div class=""stimulus-container"">
                    <img src=""images/schematic_sequence/dinner_party_scheme/dinner_party_scheme_3.png"" class=""exp-image"">
                    <div class=""question-area""></div> 
                </div>","null","","","","","","","","","","","",""
"","","","","","html-button-response","43","359292","0.0-43.0","511E95B6D36945A59A7AB9A78BB55C66","019d0644-f9e1-7df7-b77b-d23e50855d68","019d0640-0a2d-7740-a972-9c73365b2dcb","","1193","
                <div class=""stimulus-container"">
                    <img src=""images/schematic_sequence/dinner_party_scheme/dinner_party_scheme_3.png"" class=""exp-image"">
                    <div class=""question-area"">
                        <p style=""font-size: 20px; font-weight: bold; margin: 0;"">Is there a person in this image?</p>
                    </div>
                </div>","0","main_experiment_trial","3","dinner_party_scheme","schematic_sequence","chronological","","","","","","",""
"","","","","","html-keyboard-response","44","364296","0.0-44.0","511E95B6D36945A59A7AB9A78BB55C66","019d0644-f9e1-7df7-b77b-d23e50855d68","019d0640-0a2d-7740-a972-9c73365b2dcb","","null","
                <div class=""stimulus-container"">
                    <img src=""images/schematic_sequence/dinner_party_scheme/dinner_party_scheme_4.png"" class=""exp-image"">
                    <div class=""question-area""></div> 
                </div>","null","","","","","","","","","","","",""
"","","","","","html-button-response","45","364954","0.0-45.0","511E95B6D36945A59A7AB9A78BB55C66","019d0644-f9e1-7df7-b77b-d23e50855d68","019d0640-0a2d-7740-a972-9c73365b2dcb","","658","
                <div class=""stimulus-container"">
                    <img src=""images/schematic_sequence/dinner_party_scheme/dinner_party_scheme_4.png"" class=""exp-image"">
                    <div class=""question-area"">
                        <p style=""font-size: 20px; font-weight: bold; margin: 0;"">Is there a person in this image?</p>
                    </div>
                </div>","0","main_experiment_trial","4","dinner_party_scheme","schematic_sequence","chronological","","","","","","",""
"","","","","","html-keyboard-response","46","369959","0.0-46.0","511E95B6D36945A59A7AB9A78BB55C66","019d0644-f9e1-7df7-b77b-d23e50855d68","019d0640-0a2d-7740-a972-9c73365b2dcb","","null","
                <div class=""stimulus-container"">
                    <img src=""images/schematic_sequence/dinner_party_scheme/dinner_party_scheme_5.png"" class=""exp-image"">
                    <div class=""question-area""></div> 
                </div>","null","","","","","","","","","","","",""
"","","","","","html-button-response","47","371041","0.0-47.0","511E95B6D36945A59A7AB9A78BB55C66","019d0644-f9e1-7df7-b77b-d23e50855d68","019d0640-0a2d-7740-a972-9c73365b2dcb","","1081","
                <div class=""stimulus-container"">
                    <img src=""images/schematic_sequence/dinner_party_scheme/dinner_party_scheme_5.png"" class=""exp-image"">
                    <div class=""question-area"">
                        <p style=""font-size: 20px; font-weight: bold; margin: 0;"">Is there a person in this image?</p>
                    </div>
                </div>","0","main_experiment_trial","5","dinner_party_scheme","schematic_sequence","chronological","","","","","","",""
"","","","","","html-keyboard-response","48","376046","0.0-48.0","511E95B6D36945A59A7AB9A78BB55C66","019d0644-f9e1-7df7-b77b-d23e50855d68","019d0640-0a2d-7740-a972-9c73365b2dcb","","null","
                <div class=""stimulus-container"">
                    <img src=""images/schematic_sequence/dinner_party_scheme/dinner_party_scheme_6.png"" class=""exp-image"">
                    <div class=""question-area""></div> 
                </div>","null","","","","","","","","","","","",""
"","","","","","html-button-response","49","376698","0.0-49.0","511E95B6D36945A59A7AB9A78BB55C66","019d0644-f9e1-7df7-b77b-d23e50855d68","019d0640-0a2d-7740-a972-9c73365b2dcb","","651","
                <div class=""stimulus-container"">
                    <img src=""images/schematic_sequence/dinner_party_scheme/dinner_party_scheme_6.png"" class=""exp-image"">
                    <div class=""question-area"">
                        <p style=""font-size: 20px; font-weight: bold; margin: 0;"">Is there a person in this image?</p>
                    </div>
                </div>","0","main_experiment_trial","6","dinner_party_scheme","schematic_sequence","chronological","","","","","","",""
"","","","","","html-keyboard-response","50","381705","0.0-50.0","511E95B6D36945A59A7AB9A78BB55C66","019d0644-f9e1-7df7-b77b-d23e50855d68","019d0640-0a2d-7740-a972-9c73365b2dcb","","null","
                <div class=""stimulus-container"">
                    <img src=""images/schematic_sequence/dinner_party_scheme/dinner_party_scheme_7.png"" class=""exp-image"">
                    <div class=""question-area""></div> 
                </div>","null","","","","","","","","","","","",""
"","","","","","html-button-response","51","382824","0.0-51.0","511E95B6D36945A59A7AB9A78BB55C66","019d0644-f9e1-7df7-b77b-d23e50855d68","019d0640-0a2d-7740-a972-9c73365b2dcb","","1118","
                <div class=""stimulus-container"">
                    <img src=""images/schematic_sequence/dinner_party_scheme/dinner_party_scheme_7.png"" class=""exp-image"">
                    <div class=""question-area"">
                        <p style=""font-size: 20px; font-weight: bold; margin: 0;"">Is there a person in this image?</p>
                    </div>
                </div>","0","main_experiment_trial","7","dinner_party_scheme","schematic_sequence","chronological","","","","","","",""
"","","","","","html-keyboard-response","52","387830","0.0-52.0","511E95B6D36945A59A7AB9A78BB55C66","019d0644-f9e1-7df7-b77b-d23e50855d68","019d0640-0a2d-7740-a972-9c73365b2dcb","","null","
                <div class=""stimulus-container"">
                    <img src=""images/schematic_sequence/dinner_party_scheme/dinner_party_scheme_8.png"" class=""exp-image"">
                    <div class=""question-area""></div> 
                </div>","null","","","","","","","","","","","",""
"","","","","","html-button-response","53","389258","0.0-53.0","511E95B6D36945A59A7AB9A78BB55C66","019d0644-f9e1-7df7-b77b-d23e50855d68","019d0640-0a2d-7740-a972-9c73365b2dcb","","1427","
                <div class=""stimulus-container"">
                    <img src=""images/schematic_sequence/dinner_party_scheme/dinner_party_scheme_8.png"" class=""exp-image"">
                    <div class=""question-area"">
                        <p style=""font-size: 20px; font-weight: bold; margin: 0;"">Is there a person in this image?</p>
                    </div>
                </div>","0","main_experiment_trial","8","dinner_party_scheme","schematic_sequence","chronological","","","","","","",""
"","","","","","html-keyboard-response","54","394274","0.0-54.0","511E95B6D36945A59A7AB9A78BB55C66","019d0644-f9e1-7df7-b77b-d23e50855d68","019d0640-0a2d-7740-a972-9c73365b2dcb","","null","
                <div class=""stimulus-container"">
                    <img src=""images/schematic_sequence/dinner_party_scheme/dinner_party_scheme_9.png"" class=""exp-image"">
                    <div class=""question-area""></div> 
                </div>","null","","","","","","","","","","","",""
"","","","","","html-button-response","55","395908","0.0-55.0","511E95B6D36945A59A7AB9A78BB55C66","019d0644-f9e1-7df7-b77b-d23e50855d68","019d0640-0a2d-7740-a972-9c73365b2dcb","","1633","
                <div class=""stimulus-container"">
                    <img src=""images/schematic_sequence/dinner_party_scheme/dinner_party_scheme_9.png"" class=""exp-image"">
                    <div class=""question-area"">
                        <p style=""font-size: 20px; font-weight: bold; margin: 0;"">Is there a person in this image?</p>
                    </div>
                </div>","0","main_experiment_trial","9","dinner_party_scheme","schematic_sequence","chronological","","","","","","",""
"","","","","","html-keyboard-response","56","400924","0.0-56.0","511E95B6D36945A59A7AB9A78BB55C66","019d0644-f9e1-7df7-b77b-d23e50855d68","019d0640-0a2d-7740-a972-9c73365b2dcb","","null","
                <div class=""stimulus-container"">
                    <img src=""images/schematic_sequence/dinner_party_scheme/dinner_party_scheme_ten.png"" class=""exp-image"">
                    <div class=""question-area""></div> 
                </div>","null","","","","","","","","","","","",""
"","","","","","html-button-response","57","402210","0.0-57.0","511E95B6D36945A59A7AB9A78BB55C66","019d0644-f9e1-7df7-b77b-d23e50855d68","019d0640-0a2d-7740-a972-9c73365b2dcb","","1285","
                <div class=""stimulus-container"">
                    <img src=""images/schematic_sequence/dinner_party_scheme/dinner_party_scheme_ten.png"" class=""exp-image"">
                    <div class=""question-area"">
                        <p style=""font-size: 20px; font-weight: bold; margin: 0;"">Is there a person in this image?</p>
                    </div>
                </div>","0","main_experiment_trial","ten","dinner_party_scheme","schematic_sequence","chronological","","","","","","",""
"","","","","","html-keyboard-response","58","407215","0.0-58.0","511E95B6D36945A59A7AB9A78BB55C66","019d0644-f9e1-7df7-b77b-d23e50855d68","019d0640-0a2d-7740-a972-9c73365b2dcb","","null","<div style=""background-color: white; width: 100vw; height: 100vh;""></div>","null","","","","","","","","","","","",""
"","","","","","html-keyboard-response","59","412219","0.0-59.0","511E95B6D36945A59A7AB9A78BB55C66","019d0644-f9e1-7df7-b77b-d23e50855d68","019d0640-0a2d-7740-a972-9c73365b2dcb","","null","
                <div class=""stimulus-container"">
                    <img src=""images/causal_sequence/coin_causal/coin_causal_1.png"" class=""exp-image"">
                    <div class=""question-area""></div> 
                </div>","null","","","","","","","","","","","",""
"","","","","","html-button-response","60","412946","0.0-60.0","511E95B6D36945A59A7AB9A78BB55C66","019d0644-f9e1-7df7-b77b-d23e50855d68","019d0640-0a2d-7740-a972-9c73365b2dcb","","726","
                <div class=""stimulus-container"">
                    <img src=""images/causal_sequence/coin_causal/coin_causal_1.png"" class=""exp-image"">
                    <div class=""question-area"">
                        <p style=""font-size: 20px; font-weight: bold; margin: 0;"">Is there a person in this image?</p>
                    </div>
                </div>","0","main_experiment_trial","1","coin_causal","causal_sequence","chronological","","","","","","",""
"","","","","","html-keyboard-response","61","417959","0.0-61.0","511E95B6D36945A59A7AB9A78BB55C66","019d0644-f9e1-7df7-b77b-d23e50855d68","019d0640-0a2d-7740-a972-9c73365b2dcb","","null","
                <div class=""stimulus-container"">
                    <img src=""images/causal_sequence/coin_causal/coin_causal_2.png"" class=""exp-image"">
                    <div class=""question-area""></div> 
                </div>","null","","","","","","","","","","","",""
"","","","","","html-button-response","62","418974","0.0-62.0","511E95B6D36945A59A7AB9A78BB55C66","019d0644-f9e1-7df7-b77b-d23e50855d68","019d0640-0a2d-7740-a972-9c73365b2dcb","","1014","
                <div class=""stimulus-container"">
                    <img src=""images/causal_sequence/coin_causal/coin_causal_2.png"" class=""exp-image"">
                    <div class=""question-area"">
                        <p style=""font-size: 20px; font-weight: bold; margin: 0;"">Is there a person in this image?</p>
                    </div>
                </div>","0","main_experiment_trial","2","coin_causal","causal_sequence","chronological","","","","","","",""
"","","","","","html-keyboard-response","63","423979","0.0-63.0","511E95B6D36945A59A7AB9A78BB55C66","019d0644-f9e1-7df7-b77b-d23e50855d68","019d0640-0a2d-7740-a972-9c73365b2dcb","","null","
                <div class=""stimulus-container"">
                    <img src=""images/causal_sequence/coin_causal/coin_causal_3.png"" class=""exp-image"">
                    <div class=""question-area""></div> 
                </div>","null","","","","","","","","","","","",""
"","","","","","html-button-response","64","424625","0.0-64.0","511E95B6D36945A59A7AB9A78BB55C66","019d0644-f9e1-7df7-b77b-d23e50855d68","019d0640-0a2d-7740-a972-9c73365b2dcb","","645","
                <div class=""stimulus-container"">
                    <img src=""images/causal_sequence/coin_causal/coin_causal_3.png"" class=""exp-image"">
                    <div class=""question-area"">
                        <p style=""font-size: 20px; font-weight: bold; margin: 0;"">Is there a person in this image?</p>
                    </div>
                </div>","0","main_experiment_trial","3","coin_causal","causal_sequence","chronological","","","","","","",""
"","","","","","html-keyboard-response","65","429641","0.0-65.0","511E95B6D36945A59A7AB9A78BB55C66","019d0644-f9e1-7df7-b77b-d23e50855d68","019d0640-0a2d-7740-a972-9c73365b2dcb","","null","
                <div class=""stimulus-container"">
                    <img src=""images/causal_sequence/coin_causal/coin_causal_4.png"" class=""exp-image"">
                    <div class=""question-area""></div> 
                </div>","null","","","","","","","","","","","",""
"","","","","","html-button-response","66","430968","0.0-66.0","511E95B6D36945A59A7AB9A78BB55C66","019d0644-f9e1-7df7-b77b-d23e50855d68","019d0640-0a2d-7740-a972-9c73365b2dcb","","1326","
                <div class=""stimulus-container"">
                    <img src=""images/causal_sequence/coin_causal/coin_causal_4.png"" class=""exp-image"">
                    <div class=""question-area"">
                        <p style=""font-size: 20px; font-weight: bold; margin: 0;"">Is there a person in this image?</p>
                    </div>
                </div>","0","main_experiment_trial","4","coin_causal","causal_sequence","chronological","","","","","","",""
"","","","","","html-keyboard-response","67","435981","0.0-67.0","511E95B6D36945A59A7AB9A78BB55C66","019d0644-f9e1-7df7-b77b-d23e50855d68","019d0640-0a2d-7740-a972-9c73365b2dcb","","null","
                <div class=""stimulus-container"">
                    <img src=""images/causal_sequence/coin_causal/coin_causal_5.png"" class=""exp-image"">
                    <div class=""question-area""></div> 
                </div>","null","","","","","","","","","","","",""
"","","","","","html-button-response","68","438881","0.0-68.0","511E95B6D36945A59A7AB9A78BB55C66","019d0644-f9e1-7df7-b77b-d23e50855d68","019d0640-0a2d-7740-a972-9c73365b2dcb","","2899","
                <div class=""stimulus-container"">
                    <img src=""images/causal_sequence/coin_causal/coin_causal_5.png"" class=""exp-image"">
                    <div class=""question-area"">
                        <p style=""font-size: 20px; font-weight: bold; margin: 0;"">Is there a person in this image?</p>
                    </div>
                </div>","0","main_experiment_trial","5","coin_causal","causal_sequence","chronological","","","","","","",""
"","","","","","html-keyboard-response","69","443894","0.0-69.0","511E95B6D36945A59A7AB9A78BB55C66","019d0644-f9e1-7df7-b77b-d23e50855d68","019d0640-0a2d-7740-a972-9c73365b2dcb","","null","
                <div class=""stimulus-container"">
                    <img src=""images/causal_sequence/coin_causal/coin_causal_6.png"" class=""exp-image"">
                    <div class=""question-area""></div> 
                </div>","null","","","","","","","","","","","",""
"","","","","","html-button-response","70","445808","0.0-70.0","511E95B6D36945A59A7AB9A78BB55C66","019d0644-f9e1-7df7-b77b-d23e50855d68","019d0640-0a2d-7740-a972-9c73365b2dcb","","1913","
                <div class=""stimulus-container"">
                    <img src=""images/causal_sequence/coin_causal/coin_causal_6.png"" class=""exp-image"">
                    <div class=""question-area"">
                        <p style=""font-size: 20px; font-weight: bold; margin: 0;"">Is there a person in this image?</p>
                    </div>
                </div>","0","main_experiment_trial","6","coin_causal","causal_sequence","chronological","","","","","","",""
"","","","","","html-keyboard-response","71","450813","0.0-71.0","511E95B6D36945A59A7AB9A78BB55C66","019d0644-f9e1-7df7-b77b-d23e50855d68","019d0640-0a2d-7740-a972-9c73365b2dcb","","null","
                <div class=""stimulus-container"">
                    <img src=""images/causal_sequence/coin_causal/coin_causal_7.png"" class=""exp-image"">
                    <div class=""question-area""></div> 
                </div>","null","","","","","","","","","","","",""
"","","","","","html-button-response","72","451853","0.0-72.0","511E95B6D36945A59A7AB9A78BB55C66","019d0644-f9e1-7df7-b77b-d23e50855d68","019d0640-0a2d-7740-a972-9c73365b2dcb","","1039","
                <div class=""stimulus-container"">
                    <img src=""images/causal_sequence/coin_causal/coin_causal_7.png"" class=""exp-image"">
                    <div class=""question-area"">
                        <p style=""font-size: 20px; font-weight: bold; margin: 0;"">Is there a person in this image?</p>
                    </div>
                </div>","1","main_experiment_trial","7","coin_causal","causal_sequence","chronological","","","","","","",""
"","","","","","html-keyboard-response","73","456868","0.0-73.0","511E95B6D36945A59A7AB9A78BB55C66","019d0644-f9e1-7df7-b77b-d23e50855d68","019d0640-0a2d-7740-a972-9c73365b2dcb","","null","
                <div class=""stimulus-container"">
                    <img src=""images/causal_sequence/coin_causal/coin_causal_8.png"" class=""exp-image"">
                    <div class=""question-area""></div> 
                </div>","null","","","","","","","","","","","",""
"","","","","","html-button-response","74","458956","0.0-74.0","511E95B6D36945A59A7AB9A78BB55C66","019d0644-f9e1-7df7-b77b-d23e50855d68","019d0640-0a2d-7740-a972-9c73365b2dcb","","2087","
                <div class=""stimulus-container"">
                    <img src=""images/causal_sequence/coin_causal/coin_causal_8.png"" class=""exp-image"">
                    <div class=""question-area"">
                        <p style=""font-size: 20px; font-weight: bold; margin: 0;"">Is there a person in this image?</p>
                    </div>
                </div>","0","main_experiment_trial","8","coin_causal","causal_sequence","chronological","","","","","","",""
"","","","","","html-keyboard-response","75","463965","0.0-75.0","511E95B6D36945A59A7AB9A78BB55C66","019d0644-f9e1-7df7-b77b-d23e50855d68","019d0640-0a2d-7740-a972-9c73365b2dcb","","null","
                <div class=""stimulus-container"">
                    <img src=""images/causal_sequence/coin_causal/coin_causal_9.png"" class=""exp-image"">
                    <div class=""question-area""></div> 
                </div>","null","","","","","","","","","","","",""
"","","","","","html-button-response","76","465611","0.0-76.0","511E95B6D36945A59A7AB9A78BB55C66","019d0644-f9e1-7df7-b77b-d23e50855d68","019d0640-0a2d-7740-a972-9c73365b2dcb","","1644","
                <div class=""stimulus-container"">
                    <img src=""images/causal_sequence/coin_causal/coin_causal_9.png"" class=""exp-image"">
                    <div class=""question-area"">
                        <p style=""font-size: 20px; font-weight: bold; margin: 0;"">Is there a person in this image?</p>
                    </div>
                </div>","0","main_experiment_trial","9","coin_causal","causal_sequence","chronological","","","","","","",""
"","","","","","html-keyboard-response","77","470620","0.0-77.0","511E95B6D36945A59A7AB9A78BB55C66","019d0644-f9e1-7df7-b77b-d23e50855d68","019d0640-0a2d-7740-a972-9c73365b2dcb","","null","
                <div class=""stimulus-container"">
                    <img src=""images/causal_sequence/coin_causal/coin_causal_ten.png"" class=""exp-image"">
                    <div class=""question-area""></div> 
                </div>","null","","","","","","","","","","","",""
"","","","","","html-button-response","78","472476","0.0-78.0","511E95B6D36945A59A7AB9A78BB55C66","019d0644-f9e1-7df7-b77b-d23e50855d68","019d0640-0a2d-7740-a972-9c73365b2dcb","","1855","
                <div class=""stimulus-container"">
                    <img src=""images/causal_sequence/coin_causal/coin_causal_ten.png"" class=""exp-image"">
                    <div class=""question-area"">
                        <p style=""font-size: 20px; font-weight: bold; margin: 0;"">Is there a person in this image?</p>
                    </div>
                </div>","0","main_experiment_trial","ten","coin_causal","causal_sequence","chronological","","","","","","",""
"","","","","","html-keyboard-response","79","477494","0.0-79.0","511E95B6D36945A59A7AB9A78BB55C66","019d0644-f9e1-7df7-b77b-d23e50855d68","019d0640-0a2d-7740-a972-9c73365b2dcb","","null","<div style=""background-color: white; width: 100vw; height: 100vh;""></div>","null","","","","","","","","","","","",""
"","","","","","html-keyboard-response","80","482498","0.0-80.0","511E95B6D36945A59A7AB9A78BB55C66","019d0644-f9e1-7df7-b77b-d23e50855d68","019d0640-0a2d-7740-a972-9c73365b2dcb","","null","
                <div class=""stimulus-container"">
                    <img src=""images/semantic_sequence/housework_semantic/housework_semantic_1.png"" class=""exp-image"">
                    <div class=""question-area""></div> 
                </div>","null","","","","","","","","","","","",""
"","","","","","html-button-response","81","483300","0.0-81.0","511E95B6D36945A59A7AB9A78BB55C66","019d0644-f9e1-7df7-b77b-d23e50855d68","019d0640-0a2d-7740-a972-9c73365b2dcb","","801","
                <div class=""stimulus-container"">
                    <img src=""images/semantic_sequence/housework_semantic/housework_semantic_1.png"" class=""exp-image"">
                    <div class=""question-area"">
                        <p style=""font-size: 20px; font-weight: bold; margin: 0;"">Is there a person in this image?</p>
                    </div>
                </div>","0","main_experiment_trial","1","housework_semantic","semantic_sequence","chronological","","","","","","",""
"","","","","","html-keyboard-response","82","488306","0.0-82.0","511E95B6D36945A59A7AB9A78BB55C66","019d0644-f9e1-7df7-b77b-d23e50855d68","019d0640-0a2d-7740-a972-9c73365b2dcb","","null","
                <div class=""stimulus-container"">
                    <img src=""images/semantic_sequence/housework_semantic/housework_semantic_2.png"" class=""exp-image"">
                    <div class=""question-area""></div> 
                </div>","null","","","","","","","","","","","",""
"","","","","","html-button-response","83","490084","0.0-83.0","511E95B6D36945A59A7AB9A78BB55C66","019d0644-f9e1-7df7-b77b-d23e50855d68","019d0640-0a2d-7740-a972-9c73365b2dcb","","1777","
                <div class=""stimulus-container"">
                    <img src=""images/semantic_sequence/housework_semantic/housework_semantic_2.png"" class=""exp-image"">
                    <div class=""question-area"">
                        <p style=""font-size: 20px; font-weight: bold; margin: 0;"">Is there a person in this image?</p>
                    </div>
                </div>","0","main_experiment_trial","2","housework_semantic","semantic_sequence","chronological","","","","","","",""
"","","","","","html-keyboard-response","84","495096","0.0-84.0","511E95B6D36945A59A7AB9A78BB55C66","019d0644-f9e1-7df7-b77b-d23e50855d68","019d0640-0a2d-7740-a972-9c73365b2dcb","","null","
                <div class=""stimulus-container"">
                    <img src=""images/semantic_sequence/housework_semantic/housework_semantic_3.png"" class=""exp-image"">
                    <div class=""question-area""></div> 
                </div>","null","","","","","","","","","","","",""
"","","","","","html-button-response","85","497162","0.0-85.0","511E95B6D36945A59A7AB9A78BB55C66","019d0644-f9e1-7df7-b77b-d23e50855d68","019d0640-0a2d-7740-a972-9c73365b2dcb","","2065","
                <div class=""stimulus-container"">
                    <img src=""images/semantic_sequence/housework_semantic/housework_semantic_3.png"" class=""exp-image"">
                    <div class=""question-area"">
                        <p style=""font-size: 20px; font-weight: bold; margin: 0;"">Is there a person in this image?</p>
                    </div>
                </div>","0","main_experiment_trial","3","housework_semantic","semantic_sequence","chronological","","","","","","",""
"","","","","","html-keyboard-response","86","502171","0.0-86.0","511E95B6D36945A59A7AB9A78BB55C66","019d0644-f9e1-7df7-b77b-d23e50855d68","019d0640-0a2d-7740-a972-9c73365b2dcb","","null","
                <div class=""stimulus-container"">
                    <img src=""images/semantic_sequence/housework_semantic/housework_semantic_4.png"" class=""exp-image"">
                    <div class=""question-area""></div> 
                </div>","null","","","","","","","","","","","",""
"","","","","","html-button-response","87","503314","0.0-87.0","511E95B6D36945A59A7AB9A78BB55C66","019d0644-f9e1-7df7-b77b-d23e50855d68","019d0640-0a2d-7740-a972-9c73365b2dcb","","1142","
                <div class=""stimulus-container"">
                    <img src=""images/semantic_sequence/housework_semantic/housework_semantic_4.png"" class=""exp-image"">
                    <div class=""question-area"">
                        <p style=""font-size: 20px; font-weight: bold; margin: 0;"">Is there a person in this image?</p>
                    </div>
                </div>","0","main_experiment_trial","4","housework_semantic","semantic_sequence","chronological","","","","","","",""
"","","","","","html-keyboard-response","88","508329","0.0-88.0","511E95B6D36945A59A7AB9A78BB55C66","019d0644-f9e1-7df7-b77b-d23e50855d68","019d0640-0a2d-7740-a972-9c73365b2dcb","","null","
                <div class=""stimulus-container"">
                    <img src=""images/semantic_sequence/housework_semantic/housework_semantic_5.png"" class=""exp-image"">
                    <div class=""question-area""></div> 
                </div>","null","","","","","","","","","","","",""
"","","","","","html-button-response","89","508907","0.0-89.0","511E95B6D36945A59A7AB9A78BB55C66","019d0644-f9e1-7df7-b77b-d23e50855d68","019d0640-0a2d-7740-a972-9c73365b2dcb","","577","
                <div class=""stimulus-container"">
                    <img src=""images/semantic_sequence/housework_semantic/housework_semantic_5.png"" class=""exp-image"">
                    <div class=""question-area"">
                        <p style=""font-size: 20px; font-weight: bold; margin: 0;"">Is there a person in this image?</p>
                    </div>
                </div>","0","main_experiment_trial","5","housework_semantic","semantic_sequence","chronological","","","","","","",""
"","","","","","html-keyboard-response","90","513922","0.0-90.0","511E95B6D36945A59A7AB9A78BB55C66","019d0644-f9e1-7df7-b77b-d23e50855d68","019d0640-0a2d-7740-a972-9c73365b2dcb","","null","
                <div class=""stimulus-container"">
                    <img src=""images/semantic_sequence/housework_semantic/housework_semantic_6.png"" class=""exp-image"">
                    <div class=""question-area""></div> 
                </div>","null","","","","","","","","","","","",""
"","","","","","html-button-response","91","515029","0.0-91.0","511E95B6D36945A59A7AB9A78BB55C66","019d0644-f9e1-7df7-b77b-d23e50855d68","019d0640-0a2d-7740-a972-9c73365b2dcb","","1105","
                <div class=""stimulus-container"">
                    <img src=""images/semantic_sequence/housework_semantic/housework_semantic_6.png"" class=""exp-image"">
                    <div class=""question-area"">
                        <p style=""font-size: 20px; font-weight: bold; margin: 0;"">Is there a person in this image?</p>
                    </div>
                </div>","0","main_experiment_trial","6","housework_semantic","semantic_sequence","chronological","","","","","","",""
"","","","","","html-keyboard-response","92","520032","0.0-92.0","511E95B6D36945A59A7AB9A78BB55C66","019d0644-f9e1-7df7-b77b-d23e50855d68","019d0640-0a2d-7740-a972-9c73365b2dcb","","null","
                <div class=""stimulus-container"">
                    <img src=""images/semantic_sequence/housework_semantic/housework_semantic_7.png"" class=""exp-image"">
                    <div class=""question-area""></div> 
                </div>","null","","","","","","","","","","","",""
"","","","","","html-button-response","93","522727","0.0-93.0","511E95B6D36945A59A7AB9A78BB55C66","019d0644-f9e1-7df7-b77b-d23e50855d68","019d0640-0a2d-7740-a972-9c73365b2dcb","","2693","
                <div class=""stimulus-container"">
                    <img src=""images/semantic_sequence/housework_semantic/housework_semantic_7.png"" class=""exp-image"">
                    <div class=""question-area"">
                        <p style=""font-size: 20px; font-weight: bold; margin: 0;"">Is there a person in this image?</p>
                    </div>
                </div>","0","main_experiment_trial","7","housework_semantic","semantic_sequence","chronological","","","","","","",""
"","","","","","html-keyboard-response","94","527742","0.0-94.0","511E95B6D36945A59A7AB9A78BB55C66","019d0644-f9e1-7df7-b77b-d23e50855d68","019d0640-0a2d-7740-a972-9c73365b2dcb","","null","
                <div class=""stimulus-container"">
                    <img src=""images/semantic_sequence/housework_semantic/housework_semantic_8.png"" class=""exp-image"">
                    <div class=""question-area""></div> 
                </div>","null","","","","","","","","","","","",""
"","","","","","html-button-response","95","530408","0.0-95.0","511E95B6D36945A59A7AB9A78BB55C66","019d0644-f9e1-7df7-b77b-d23e50855d68","019d0640-0a2d-7740-a972-9c73365b2dcb","","2665","
                <div class=""stimulus-container"">
                    <img src=""images/semantic_sequence/housework_semantic/housework_semantic_8.png"" class=""exp-image"">
                    <div class=""question-area"">
                        <p style=""font-size: 20px; font-weight: bold; margin: 0;"">Is there a person in this image?</p>
                    </div>
                </div>","0","main_experiment_trial","8","housework_semantic","semantic_sequence","chronological","","","","","","",""
"","","","","","html-keyboard-response","96","535414","0.0-96.0","511E95B6D36945A59A7AB9A78BB55C66","019d0644-f9e1-7df7-b77b-d23e50855d68","019d0640-0a2d-7740-a972-9c73365b2dcb","","null","
                <div class=""stimulus-container"">
                    <img src=""images/semantic_sequence/housework_semantic/housework_semantic_9.png"" class=""exp-image"">
                    <div class=""question-area""></div> 
                </div>","null","","","","","","","","","","","",""
"","","","","","html-button-response","97","538431","0.0-97.0","511E95B6D36945A59A7AB9A78BB55C66","019d0644-f9e1-7df7-b77b-d23e50855d68","019d0640-0a2d-7740-a972-9c73365b2dcb","","null","
                <div class=""stimulus-container"">
                    <img src=""images/semantic_sequence/housework_semantic/housework_semantic_9.png"" class=""exp-image"">
                    <div class=""question-area"">
                        <p style=""font-size: 20px; font-weight: bold; margin: 0;"">Is there a person in this image?</p>
                    </div>
                </div>","null","main_experiment_trial","9","housework_semantic","semantic_sequence","chronological","","","","","","",""
"","","","","","html-keyboard-response","98","543432","0.0-98.0","511E95B6D36945A59A7AB9A78BB55C66","019d0644-f9e1-7df7-b77b-d23e50855d68","019d0640-0a2d-7740-a972-9c73365b2dcb","","null","
                <div class=""stimulus-container"">
                    <img src=""images/semantic_sequence/housework_semantic/housework_semantic_ten.png"" class=""exp-image"">
                    <div class=""question-area""></div> 
                </div>","null","","","","","","","","","","","",""
"","","","","","html-button-response","99","544104","0.0-99.0","511E95B6D36945A59A7AB9A78BB55C66","019d0644-f9e1-7df7-b77b-d23e50855d68","019d0640-0a2d-7740-a972-9c73365b2dcb","","672","
                <div class=""stimulus-container"">
                    <img src=""images/semantic_sequence/housework_semantic/housework_semantic_ten.png"" class=""exp-image"">
                    <div class=""question-area"">
                        <p style=""font-size: 20px; font-weight: bold; margin: 0;"">Is there a person in this image?</p>
                    </div>
                </div>","0","main_experiment_trial","ten","housework_semantic","semantic_sequence","chronological","","","","","","",""
"","","","","","html-keyboard-response","100","549120","0.0-100.0","511E95B6D36945A59A7AB9A78BB55C66","019d0644-f9e1-7df7-b77b-d23e50855d68","019d0640-0a2d-7740-a972-9c73365b2dcb","","null","<div style=""background-color: white; width: 100vw; height: 100vh;""></div>","null","","","","","","","","","","","",""
"","","","","","html-keyboard-response","101","554131","0.0-101.0","511E95B6D36945A59A7AB9A78BB55C66","019d0644-f9e1-7df7-b77b-d23e50855d68","019d0640-0a2d-7740-a972-9c73365b2dcb","","null","
                <div class=""stimulus-container"">
                    <img src=""images/semantic_sequence/self_care_activities_semantic/self_care_activities_semantic_1.png"" class=""exp-image"">
                    <div class=""question-area""></div> 
                </div>","null","","","","","","","","","","","",""
"","","","","","html-button-response","102","555208","0.0-102.0","511E95B6D36945A59A7AB9A78BB55C66","019d0644-f9e1-7df7-b77b-d23e50855d68","019d0640-0a2d-7740-a972-9c73365b2dcb","","1076","
                <div class=""stimulus-container"">
                    <img src=""images/semantic_sequence/self_care_activities_semantic/self_care_activities_semantic_1.png"" class=""exp-image"">
                    <div class=""question-area"">
                        <p style=""font-size: 20px; font-weight: bold; margin: 0;"">Is there a person in this image?</p>
                    </div>
                </div>","0","main_experiment_trial","1","self_care_activities_semantic","semantic_sequence","chronological","","","","","","",""
"","","","","","html-keyboard-response","103","560214","0.0-103.0","511E95B6D36945A59A7AB9A78BB55C66","019d0644-f9e1-7df7-b77b-d23e50855d68","019d0640-0a2d-7740-a972-9c73365b2dcb","","null","
                <div class=""stimulus-container"">
                    <img src=""images/semantic_sequence/self_care_activities_semantic/self_care_activities_semantic_2.png"" class=""exp-image"">
                    <div class=""question-area""></div> 
                </div>","null","","","","","","","","","","","",""
"","","","","","html-button-response","104","561028","0.0-104.0","511E95B6D36945A59A7AB9A78BB55C66","019d0644-f9e1-7df7-b77b-d23e50855d68","019d0640-0a2d-7740-a972-9c73365b2dcb","","813","
                <div class=""stimulus-container"">
                    <img src=""images/semantic_sequence/self_care_activities_semantic/self_care_activities_semantic_2.png"" class=""exp-image"">
                    <div class=""question-area"">
                        <p style=""font-size: 20px; font-weight: bold; margin: 0;"">Is there a person in this image?</p>
                    </div>
                </div>","0","main_experiment_trial","2","self_care_activities_semantic","semantic_sequence","chronological","","","","","","",""
"","","","","","html-keyboard-response","105","566046","0.0-105.0","511E95B6D36945A59A7AB9A78BB55C66","019d0644-f9e1-7df7-b77b-d23e50855d68","019d0640-0a2d-7740-a972-9c73365b2dcb","","null","
                <div class=""stimulus-container"">
                    <img src=""images/semantic_sequence/self_care_activities_semantic/self_care_activities_semantic_3.png"" class=""exp-image"">
                    <div class=""question-area""></div> 
                </div>","null","","","","","","","","","","","",""
"","","","","","html-button-response","106","567294","0.0-106.0","511E95B6D36945A59A7AB9A78BB55C66","019d0644-f9e1-7df7-b77b-d23e50855d68","019d0640-0a2d-7740-a972-9c73365b2dcb","","1247","
                <div class=""stimulus-container"">
                    <img src=""images/semantic_sequence/self_care_activities_semantic/self_care_activities_semantic_3.png"" class=""exp-image"">
                    <div class=""question-area"">
                        <p style=""font-size: 20px; font-weight: bold; margin: 0;"">Is there a person in this image?</p>
                    </div>
                </div>","0","main_experiment_trial","3","self_care_activities_semantic","semantic_sequence","chronological","","","","","","",""
"","","","","","html-keyboard-response","107","572309","0.0-107.0","511E95B6D36945A59A7AB9A78BB55C66","019d0644-f9e1-7df7-b77b-d23e50855d68","019d0640-0a2d-7740-a972-9c73365b2dcb","","null","
                <div class=""stimulus-container"">
                    <img src=""images/semantic_sequence/self_care_activities_semantic/self_care_activities_semantic_4.png"" class=""exp-image"">
                    <div class=""question-area""></div> 
                </div>","null","","","","","","","","","","","",""
"","","","","","html-button-response","108","573512","0.0-108.0","511E95B6D36945A59A7AB9A78BB55C66","019d0644-f9e1-7df7-b77b-d23e50855d68","019d0640-0a2d-7740-a972-9c73365b2dcb","","1202","
                <div class=""stimulus-container"">
                    <img src=""images/semantic_sequence/self_care_activities_semantic/self_care_activities_semantic_4.png"" class=""exp-image"">
                    <div class=""question-area"">
                        <p style=""font-size: 20px; font-weight: bold; margin: 0;"">Is there a person in this image?</p>
                    </div>
                </div>","0","main_experiment_trial","4","self_care_activities_semantic","semantic_sequence","chronological","","","","","","",""
"","","","","","html-keyboard-response","109","578530","0.0-109.0","511E95B6D36945A59A7AB9A78BB55C66","019d0644-f9e1-7df7-b77b-d23e50855d68","019d0640-0a2d-7740-a972-9c73365b2dcb","","null","
                <div class=""stimulus-container"">
                    <img src=""images/semantic_sequence/self_care_activities_semantic/self_care_activities_semantic_5.png"" class=""exp-image"">
                    <div class=""question-area""></div> 
                </div>","null","","","","","","","","","","","",""
"","","","","","html-button-response","110","580258","0.0-110.0","511E95B6D36945A59A7AB9A78BB55C66","019d0644-f9e1-7df7-b77b-d23e50855d68","019d0640-0a2d-7740-a972-9c73365b2dcb","","1727","
                <div class=""stimulus-container"">
                    <img src=""images/semantic_sequence/self_care_activities_semantic/self_care_activities_semantic_5.png"" class=""exp-image"">
                    <div class=""question-area"">
                        <p style=""font-size: 20px; font-weight: bold; margin: 0;"">Is there a person in this image?</p>
                    </div>
                </div>","0","main_experiment_trial","5","self_care_activities_semantic","semantic_sequence","chronological","","","","","","",""
"","","","","","html-keyboard-response","111","585265","0.0-111.0","511E95B6D36945A59A7AB9A78BB55C66","019d0644-f9e1-7df7-b77b-d23e50855d68","019d0640-0a2d-7740-a972-9c73365b2dcb","","null","
                <div class=""stimulus-container"">
                    <img src=""images/semantic_sequence/self_care_activities_semantic/self_care_activities_semantic_6.png"" class=""exp-image"">
                    <div class=""question-area""></div> 
                </div>","null","","","","","","","","","","","",""
"","","","","","html-button-response","112","586008","0.0-112.0","511E95B6D36945A59A7AB9A78BB55C66","019d0644-f9e1-7df7-b77b-d23e50855d68","019d0640-0a2d-7740-a972-9c73365b2dcb","","742","
                <div class=""stimulus-container"">
                    <img src=""images/semantic_sequence/self_care_activities_semantic/self_care_activities_semantic_6.png"" class=""exp-image"">
                    <div class=""question-area"">
                        <p style=""font-size: 20px; font-weight: bold; margin: 0;"">Is there a person in this image?</p>
                    </div>
                </div>","1","main_experiment_trial","6","self_care_activities_semantic","semantic_sequence","chronological","","","","","","",""
"","","","","","html-keyboard-response","113","591020","0.0-113.0","511E95B6D36945A59A7AB9A78BB55C66","019d0644-f9e1-7df7-b77b-d23e50855d68","019d0640-0a2d-7740-a972-9c73365b2dcb","","null","
                <div class=""stimulus-container"">
                    <img src=""images/semantic_sequence/self_care_activities_semantic/self_care_activities_semantic_7.png"" class=""exp-image"">
                    <div class=""question-area""></div> 
                </div>","null","","","","","","","","","","","",""
"","","","","","html-button-response","114","592403","0.0-114.0","511E95B6D36945A59A7AB9A78BB55C66","019d0644-f9e1-7df7-b77b-d23e50855d68","019d0640-0a2d-7740-a972-9c73365b2dcb","","1382","
                <div class=""stimulus-container"">
                    <img src=""images/semantic_sequence/self_care_activities_semantic/self_care_activities_semantic_7.png"" class=""exp-image"">
                    <div class=""question-area"">
                        <p style=""font-size: 20px; font-weight: bold; margin: 0;"">Is there a person in this image?</p>
                    </div>
                </div>","0","main_experiment_trial","7","self_care_activities_semantic","semantic_sequence","chronological","","","","","","",""
"","","","","","html-keyboard-response","115","597416","0.0-115.0","511E95B6D36945A59A7AB9A78BB55C66","019d0644-f9e1-7df7-b77b-d23e50855d68","019d0640-0a2d-7740-a972-9c73365b2dcb","","null","
                <div class=""stimulus-container"">
                    <img src=""images/semantic_sequence/self_care_activities_semantic/self_care_activities_semantic_8.png"" class=""exp-image"">
                    <div class=""question-area""></div> 
                </div>","null","","","","","","","","","","","",""
"","","","","","html-button-response","116","598303","0.0-116.0","511E95B6D36945A59A7AB9A78BB55C66","019d0644-f9e1-7df7-b77b-d23e50855d68","019d0640-0a2d-7740-a972-9c73365b2dcb","","886","
                <div class=""stimulus-container"">
                    <img src=""images/semantic_sequence/self_care_activities_semantic/self_care_activities_semantic_8.png"" class=""exp-image"">
                    <div class=""question-area"">
                        <p style=""font-size: 20px; font-weight: bold; margin: 0;"">Is there a person in this image?</p>
                    </div>
                </div>","0","main_experiment_trial","8","self_care_activities_semantic","semantic_sequence","chronological","","","","","","",""
"","","","","","html-keyboard-response","117","603319","0.0-117.0","511E95B6D36945A59A7AB9A78BB55C66","019d0644-f9e1-7df7-b77b-d23e50855d68","019d0640-0a2d-7740-a972-9c73365b2dcb","","null","
                <div class=""stimulus-container"">
                    <img src=""images/semantic_sequence/self_care_activities_semantic/self_care_activities_semantic_9.png"" class=""exp-image"">
                    <div class=""question-area""></div> 
                </div>","null","","","","","","","","","","","",""
"","","","","","html-button-response","118","604114","0.0-118.0","511E95B6D36945A59A7AB9A78BB55C66","019d0644-f9e1-7df7-b77b-d23e50855d68","019d0640-0a2d-7740-a972-9c73365b2dcb","","793","
                <div class=""stimulus-container"">
                    <img src=""images/semantic_sequence/self_care_activities_semantic/self_care_activities_semantic_9.png"" class=""exp-image"">
                    <div class=""question-area"">
                        <p style=""font-size: 20px; font-weight: bold; margin: 0;"">Is there a person in this image?</p>
                    </div>
                </div>","0","main_experiment_trial","9","self_care_activities_semantic","semantic_sequence","chronological","","","","","","",""
"","","","","","html-keyboard-response","119","609117","0.0-119.0","511E95B6D36945A59A7AB9A78BB55C66","019d0644-f9e1-7df7-b77b-d23e50855d68","019d0640-0a2d-7740-a972-9c73365b2dcb","","null","
                <div class=""stimulus-container"">
                    <img src=""images/semantic_sequence/self_care_activities_semantic/self_care_activities_semantic_ten.png"" class=""exp-image"">
                    <div class=""question-area""></div> 
                </div>","null","","","","","","","","","","","",""
"","","","","","html-button-response","120","609764","0.0-120.0","511E95B6D36945A59A7AB9A78BB55C66","019d0644-f9e1-7df7-b77b-d23e50855d68","019d0640-0a2d-7740-a972-9c73365b2dcb","","646","
                <div class=""stimulus-container"">
                    <img src=""images/semantic_sequence/self_care_activities_semantic/self_care_activities_semantic_ten.png"" class=""exp-image"">
                    <div class=""question-area"">
                        <p style=""font-size: 20px; font-weight: bold; margin: 0;"">Is there a person in this image?</p>
                    </div>
                </div>","0","main_experiment_trial","ten","self_care_activities_semantic","semantic_sequence","chronological","","","","","","",""
"","","","","","html-keyboard-response","121","614776","0.0-121.0","511E95B6D36945A59A7AB9A78BB55C66","019d0644-f9e1-7df7-b77b-d23e50855d68","019d0640-0a2d-7740-a972-9c73365b2dcb","","null","<div style=""background-color: white; width: 100vw; height: 100vh;""></div>","null","","","","","","","","","","","",""
"","","","","","html-keyboard-response","122","619784","0.0-122.0","511E95B6D36945A59A7AB9A78BB55C66","019d0644-f9e1-7df7-b77b-d23e50855d68","019d0640-0a2d-7740-a972-9c73365b2dcb","","null","
                <div class=""stimulus-container"">
                    <img src=""images/schematic_sequence/flight_scheme/flight_scheme_1.png"" class=""exp-image"">
                    <div class=""question-area""></div> 
                </div>","null","","","","","","","","","","","",""
"","","","","","html-button-response","123","621362","0.0-123.0","511E95B6D36945A59A7AB9A78BB55C66","019d0644-f9e1-7df7-b77b-d23e50855d68","019d0640-0a2d-7740-a972-9c73365b2dcb","","1577","
                <div class=""stimulus-container"">
                    <img src=""images/schematic_sequence/flight_scheme/flight_scheme_1.png"" class=""exp-image"">
                    <div class=""question-area"">
                        <p style=""font-size: 20px; font-weight: bold; margin: 0;"">Is there a person in this image?</p>
                    </div>
                </div>","0","main_experiment_trial","1","flight_scheme","schematic_sequence","chronological","","","","","","",""
"","","","","","html-keyboard-response","124","626369","0.0-124.0","511E95B6D36945A59A7AB9A78BB55C66","019d0644-f9e1-7df7-b77b-d23e50855d68","019d0640-0a2d-7740-a972-9c73365b2dcb","","null","
                <div class=""stimulus-container"">
                    <img src=""images/schematic_sequence/flight_scheme/flight_scheme_2.png"" class=""exp-image"">
                    <div class=""question-area""></div> 
                </div>","null","","","","","","","","","","","",""
"","","","","","html-button-response","125","627522","0.0-125.0","511E95B6D36945A59A7AB9A78BB55C66","019d0644-f9e1-7df7-b77b-d23e50855d68","019d0640-0a2d-7740-a972-9c73365b2dcb","","1152","
                <div class=""stimulus-container"">
                    <img src=""images/schematic_sequence/flight_scheme/flight_scheme_2.png"" class=""exp-image"">
                    <div class=""question-area"">
                        <p style=""font-size: 20px; font-weight: bold; margin: 0;"">Is there a person in this image?</p>
                    </div>
                </div>","1","main_experiment_trial","2","flight_scheme","schematic_sequence","chronological","","","","","","",""
"","","","","","html-keyboard-response","126","632530","0.0-126.0","511E95B6D36945A59A7AB9A78BB55C66","019d0644-f9e1-7df7-b77b-d23e50855d68","019d0640-0a2d-7740-a972-9c73365b2dcb","","null","
                <div class=""stimulus-container"">
                    <img src=""images/schematic_sequence/flight_scheme/flight_scheme_3.png"" class=""exp-image"">
                    <div class=""question-area""></div> 
                </div>","null","","","","","","","","","","","",""
"","","","","","html-button-response","127","633267","0.0-127.0","511E95B6D36945A59A7AB9A78BB55C66","019d0644-f9e1-7df7-b77b-d23e50855d68","019d0640-0a2d-7740-a972-9c73365b2dcb","","737","
                <div class=""stimulus-container"">
                    <img src=""images/schematic_sequence/flight_scheme/flight_scheme_3.png"" class=""exp-image"">
                    <div class=""question-area"">
                        <p style=""font-size: 20px; font-weight: bold; margin: 0;"">Is there a person in this image?</p>
                    </div>
                </div>","0","main_experiment_trial","3","flight_scheme","schematic_sequence","chronological","","","","","","",""
"","","","","","html-keyboard-response","128","638272","0.0-128.0","511E95B6D36945A59A7AB9A78BB55C66","019d0644-f9e1-7df7-b77b-d23e50855d68","019d0640-0a2d-7740-a972-9c73365b2dcb","","null","
                <div class=""stimulus-container"">
                    <img src=""images/schematic_sequence/flight_scheme/flight_scheme_4.png"" class=""exp-image"">
                    <div class=""question-area""></div> 
                </div>","null","","","","","","","","","","","",""
"","","","","","html-button-response","129","639512","0.0-129.0","511E95B6D36945A59A7AB9A78BB55C66","019d0644-f9e1-7df7-b77b-d23e50855d68","019d0640-0a2d-7740-a972-9c73365b2dcb","","1239","
                <div class=""stimulus-container"">
                    <img src=""images/schematic_sequence/flight_scheme/flight_scheme_4.png"" class=""exp-image"">
                    <div class=""question-area"">
                        <p style=""font-size: 20px; font-weight: bold; margin: 0;"">Is there a person in this image?</p>
                    </div>
                </div>","0","main_experiment_trial","4","flight_scheme","schematic_sequence","chronological","","","","","","",""
"","","","","","html-keyboard-response","130","644517","0.0-130.0","511E95B6D36945A59A7AB9A78BB55C66","019d0644-f9e1-7df7-b77b-d23e50855d68","019d0640-0a2d-7740-a972-9c73365b2dcb","","null","
                <div class=""stimulus-container"">
                    <img src=""images/schematic_sequence/flight_scheme/flight_scheme_5.png"" class=""exp-image"">
                    <div class=""question-area""></div> 
                </div>","null","","","","","","","","","","","",""
"","","","","","html-button-response","131","646114","0.0-131.0","511E95B6D36945A59A7AB9A78BB55C66","019d0644-f9e1-7df7-b77b-d23e50855d68","019d0640-0a2d-7740-a972-9c73365b2dcb","","1596","
                <div class=""stimulus-container"">
                    <img src=""images/schematic_sequence/flight_scheme/flight_scheme_5.png"" class=""exp-image"">
                    <div class=""question-area"">
                        <p style=""font-size: 20px; font-weight: bold; margin: 0;"">Is there a person in this image?</p>
                    </div>
                </div>","0","main_experiment_trial","5","flight_scheme","schematic_sequence","chronological","","","","","","",""
"","","","","","html-keyboard-response","132","651116","0.0-132.0","511E95B6D36945A59A7AB9A78BB55C66","019d0644-f9e1-7df7-b77b-d23e50855d68","019d0640-0a2d-7740-a972-9c73365b2dcb","","null","
                <div class=""stimulus-container"">
                    <img src=""images/schematic_sequence/flight_scheme/flight_scheme_6.png"" class=""exp-image"">
                    <div class=""question-area""></div> 
                </div>","null","","","","","","","","","","","",""
"","","","","","html-button-response","133","654112","0.0-133.0","511E95B6D36945A59A7AB9A78BB55C66","019d0644-f9e1-7df7-b77b-d23e50855d68","019d0640-0a2d-7740-a972-9c73365b2dcb","","2996","
                <div class=""stimulus-container"">
                    <img src=""images/schematic_sequence/flight_scheme/flight_scheme_6.png"" class=""exp-image"">
                    <div class=""question-area"">
                        <p style=""font-size: 20px; font-weight: bold; margin: 0;"">Is there a person in this image?</p>
                    </div>
                </div>","1","main_experiment_trial","6","flight_scheme","schematic_sequence","chronological","","","","","","",""
"","","","","","html-keyboard-response","134","659125","0.0-134.0","511E95B6D36945A59A7AB9A78BB55C66","019d0644-f9e1-7df7-b77b-d23e50855d68","019d0640-0a2d-7740-a972-9c73365b2dcb","","null","
                <div class=""stimulus-container"">
                    <img src=""images/schematic_sequence/flight_scheme/flight_scheme_7.png"" class=""exp-image"">
                    <div class=""question-area""></div> 
                </div>","null","","","","","","","","","","","",""
"","","","","","html-button-response","135","660560","0.0-135.0","511E95B6D36945A59A7AB9A78BB55C66","019d0644-f9e1-7df7-b77b-d23e50855d68","019d0640-0a2d-7740-a972-9c73365b2dcb","","1433","
                <div class=""stimulus-container"">
                    <img src=""images/schematic_sequence/flight_scheme/flight_scheme_7.png"" class=""exp-image"">
                    <div class=""question-area"">
                        <p style=""font-size: 20px; font-weight: bold; margin: 0;"">Is there a person in this image?</p>
                    </div>
                </div>","1","main_experiment_trial","7","flight_scheme","schematic_sequence","chronological","","","","","","",""
"","","","","","html-keyboard-response","136","665566","0.0-136.0","511E95B6D36945A59A7AB9A78BB55C66","019d0644-f9e1-7df7-b77b-d23e50855d68","019d0640-0a2d-7740-a972-9c73365b2dcb","","null","
                <div class=""stimulus-container"">
                    <img src=""images/schematic_sequence/flight_scheme/flight_scheme_8.png"" class=""exp-image"">
                    <div class=""question-area""></div> 
                </div>","null","","","","","","","","","","","",""
"","","","","","html-button-response","137","667837","0.0-137.0","511E95B6D36945A59A7AB9A78BB55C66","019d0644-f9e1-7df7-b77b-d23e50855d68","019d0640-0a2d-7740-a972-9c73365b2dcb","","2270","
                <div class=""stimulus-container"">
                    <img src=""images/schematic_sequence/flight_scheme/flight_scheme_8.png"" class=""exp-image"">
                    <div class=""question-area"">
                        <p style=""font-size: 20px; font-weight: bold; margin: 0;"">Is there a person in this image?</p>
                    </div>
                </div>","1","main_experiment_trial","8","flight_scheme","schematic_sequence","chronological","","","","","","",""
"","","","","","html-keyboard-response","138","672849","0.0-138.0","511E95B6D36945A59A7AB9A78BB55C66","019d0644-f9e1-7df7-b77b-d23e50855d68","019d0640-0a2d-7740-a972-9c73365b2dcb","","null","
                <div class=""stimulus-container"">
                    <img src=""images/schematic_sequence/flight_scheme/flight_scheme_9.png"" class=""exp-image"">
                    <div class=""question-area""></div> 
                </div>","null","","","","","","","","","","","",""
"","","","","","html-button-response","139","675130","0.0-139.0","511E95B6D36945A59A7AB9A78BB55C66","019d0644-f9e1-7df7-b77b-d23e50855d68","019d0640-0a2d-7740-a972-9c73365b2dcb","","2280","
                <div class=""stimulus-container"">
                    <img src=""images/schematic_sequence/flight_scheme/flight_scheme_9.png"" class=""exp-image"">
                    <div class=""question-area"">
                        <p style=""font-size: 20px; font-weight: bold; margin: 0;"">Is there a person in this image?</p>
                    </div>
                </div>","0","main_experiment_trial","9","flight_scheme","schematic_sequence","chronological","","","","","","",""
"","","","","","html-keyboard-response","140","680135","0.0-140.0","511E95B6D36945A59A7AB9A78BB55C66","019d0644-f9e1-7df7-b77b-d23e50855d68","019d0640-0a2d-7740-a972-9c73365b2dcb","","null","
                <div class=""stimulus-container"">
                    <img src=""images/schematic_sequence/flight_scheme/flight_scheme_ten.png"" class=""exp-image"">
                    <div class=""question-area""></div> 
                </div>","null","","","","","","","","","","","",""
"","","","","","html-button-response","141","682066","0.0-141.0","511E95B6D36945A59A7AB9A78BB55C66","019d0644-f9e1-7df7-b77b-d23e50855d68","019d0640-0a2d-7740-a972-9c73365b2dcb","","1930","
                <div class=""stimulus-container"">
                    <img src=""images/schematic_sequence/flight_scheme/flight_scheme_ten.png"" class=""exp-image"">
                    <div class=""question-area"">
                        <p style=""font-size: 20px; font-weight: bold; margin: 0;"">Is there a person in this image?</p>
                    </div>
                </div>","0","main_experiment_trial","ten","flight_scheme","schematic_sequence","chronological","","","","","","",""
"","","","","","html-keyboard-response","142","687080","0.0-142.0","511E95B6D36945A59A7AB9A78BB55C66","019d0644-f9e1-7df7-b77b-d23e50855d68","019d0640-0a2d-7740-a972-9c73365b2dcb","","null","<div style=""background-color: white; width: 100vw; height: 100vh;""></div>","null","","","","","","","","","","","",""
"","","","","","html-keyboard-response","143","692082","0.0-143.0","511E95B6D36945A59A7AB9A78BB55C66","019d0644-f9e1-7df7-b77b-d23e50855d68","019d0640-0a2d-7740-a972-9c73365b2dcb","","null","
                <div class=""stimulus-container"">
                    <img src=""images/schematic_sequence/supermarket_scheme/supermarket_scheme_1.png"" class=""exp-image"">
                    <div class=""question-area""></div> 
                </div>","null","","","","","","","","","","","",""
"","","","","","html-button-response","144","695086","0.0-144.0","511E95B6D36945A59A7AB9A78BB55C66","019d0644-f9e1-7df7-b77b-d23e50855d68","019d0640-0a2d-7740-a972-9c73365b2dcb","","null","
                <div class=""stimulus-container"">
                    <img src=""images/schematic_sequence/supermarket_scheme/supermarket_scheme_1.png"" class=""exp-image"">
                    <div class=""question-area"">
                        <p style=""font-size: 20px; font-weight: bold; margin: 0;"">Is there a person in this image?</p>
                    </div>
                </div>","null","main_experiment_trial","1","supermarket_scheme","schematic_sequence","chronological","","","","","","",""
"","","","","","html-keyboard-response","145","700096","0.0-145.0","511E95B6D36945A59A7AB9A78BB55C66","019d0644-f9e1-7df7-b77b-d23e50855d68","019d0640-0a2d-7740-a972-9c73365b2dcb","","null","
                <div class=""stimulus-container"">
                    <img src=""images/schematic_sequence/supermarket_scheme/supermarket_scheme_2.png"" class=""exp-image"">
                    <div class=""question-area""></div> 
                </div>","null","","","","","","","","","","","",""
"","","","","","html-button-response","146","701493","0.0-146.0","511E95B6D36945A59A7AB9A78BB55C66","019d0644-f9e1-7df7-b77b-d23e50855d68","019d0640-0a2d-7740-a972-9c73365b2dcb","","1396","
                <div class=""stimulus-container"">
                    <img src=""images/schematic_sequence/supermarket_scheme/supermarket_scheme_2.png"" class=""exp-image"">
                    <div class=""question-area"">
                        <p style=""font-size: 20px; font-weight: bold; margin: 0;"">Is there a person in this image?</p>
                    </div>
                </div>","1","main_experiment_trial","2","supermarket_scheme","schematic_sequence","chronological","","","","","","",""
"","","","","","html-keyboard-response","147","706502","0.0-147.0","511E95B6D36945A59A7AB9A78BB55C66","019d0644-f9e1-7df7-b77b-d23e50855d68","019d0640-0a2d-7740-a972-9c73365b2dcb","","null","
                <div class=""stimulus-container"">
                    <img src=""images/schematic_sequence/supermarket_scheme/supermarket_scheme_3.png"" class=""exp-image"">
                    <div class=""question-area""></div> 
                </div>","null","","","","","","","","","","","",""
"","","","","","html-button-response","148","708847","0.0-148.0","511E95B6D36945A59A7AB9A78BB55C66","019d0644-f9e1-7df7-b77b-d23e50855d68","019d0640-0a2d-7740-a972-9c73365b2dcb","","2344","
                <div class=""stimulus-container"">
                    <img src=""images/schematic_sequence/supermarket_scheme/supermarket_scheme_3.png"" class=""exp-image"">
                    <div class=""question-area"">
                        <p style=""font-size: 20px; font-weight: bold; margin: 0;"">Is there a person in this image?</p>
                    </div>
                </div>","1","main_experiment_trial","3","supermarket_scheme","schematic_sequence","chronological","","","","","","",""
"","","","","","html-keyboard-response","149","713860","0.0-149.0","511E95B6D36945A59A7AB9A78BB55C66","019d0644-f9e1-7df7-b77b-d23e50855d68","019d0640-0a2d-7740-a972-9c73365b2dcb","","null","
                <div class=""stimulus-container"">
                    <img src=""images/schematic_sequence/supermarket_scheme/supermarket_scheme_4.png"" class=""exp-image"">
                    <div class=""question-area""></div> 
                </div>","null","","","","","","","","","","","",""
"","","","","","html-button-response","150","715176","0.0-150.0","511E95B6D36945A59A7AB9A78BB55C66","019d0644-f9e1-7df7-b77b-d23e50855d68","019d0640-0a2d-7740-a972-9c73365b2dcb","","1315","
                <div class=""stimulus-container"">
                    <img src=""images/schematic_sequence/supermarket_scheme/supermarket_scheme_4.png"" class=""exp-image"">
                    <div class=""question-area"">
                        <p style=""font-size: 20px; font-weight: bold; margin: 0;"">Is there a person in this image?</p>
                    </div>
                </div>","0","main_experiment_trial","4","supermarket_scheme","schematic_sequence","chronological","","","","","","",""
"","","","","","html-keyboard-response","151","720185","0.0-151.0","511E95B6D36945A59A7AB9A78BB55C66","019d0644-f9e1-7df7-b77b-d23e50855d68","019d0640-0a2d-7740-a972-9c73365b2dcb","","null","
                <div class=""stimulus-container"">
                    <img src=""images/schematic_sequence/supermarket_scheme/supermarket_scheme_5.png"" class=""exp-image"">
                    <div class=""question-area""></div> 
                </div>","null","","","","","","","","","","","",""
"","","","","","html-button-response","152","721888","0.0-152.0","511E95B6D36945A59A7AB9A78BB55C66","019d0644-f9e1-7df7-b77b-d23e50855d68","019d0640-0a2d-7740-a972-9c73365b2dcb","","1702","
                <div class=""stimulus-container"">
                    <img src=""images/schematic_sequence/supermarket_scheme/supermarket_scheme_5.png"" class=""exp-image"">
                    <div class=""question-area"">
                        <p style=""font-size: 20px; font-weight: bold; margin: 0;"">Is there a person in this image?</p>
                    </div>
                </div>","1","main_experiment_trial","5","supermarket_scheme","schematic_sequence","chronological","","","","","","",""
"","","","","","html-keyboard-response","153","726890","0.0-153.0","511E95B6D36945A59A7AB9A78BB55C66","019d0644-f9e1-7df7-b77b-d23e50855d68","019d0640-0a2d-7740-a972-9c73365b2dcb","","null","
                <div class=""stimulus-container"">
                    <img src=""images/schematic_sequence/supermarket_scheme/supermarket_scheme_6.png"" class=""exp-image"">
                    <div class=""question-area""></div> 
                </div>","null","","","","","","","","","","","",""
"","","","","","html-button-response","154","727962","0.0-154.0","511E95B6D36945A59A7AB9A78BB55C66","019d0644-f9e1-7df7-b77b-d23e50855d68","019d0640-0a2d-7740-a972-9c73365b2dcb","","1070","
                <div class=""stimulus-container"">
                    <img src=""images/schematic_sequence/supermarket_scheme/supermarket_scheme_6.png"" class=""exp-image"">
                    <div class=""question-area"">
                        <p style=""font-size: 20px; font-weight: bold; margin: 0;"">Is there a person in this image?</p>
                    </div>
                </div>","0","main_experiment_trial","6","supermarket_scheme","schematic_sequence","chronological","","","","","","",""
"","","","","","html-keyboard-response","155","732965","0.0-155.0","511E95B6D36945A59A7AB9A78BB55C66","019d0644-f9e1-7df7-b77b-d23e50855d68","019d0640-0a2d-7740-a972-9c73365b2dcb","","null","
                <div class=""stimulus-container"">
                    <img src=""images/schematic_sequence/supermarket_scheme/supermarket_scheme_7.png"" class=""exp-image"">
                    <div class=""question-area""></div> 
                </div>","null","","","","","","","","","","","",""
"","","","","","html-button-response","156","733510","0.0-156.0","511E95B6D36945A59A7AB9A78BB55C66","019d0644-f9e1-7df7-b77b-d23e50855d68","019d0640-0a2d-7740-a972-9c73365b2dcb","","544","
                <div class=""stimulus-container"">
                    <img src=""images/schematic_sequence/supermarket_scheme/supermarket_scheme_7.png"" class=""exp-image"">
                    <div class=""question-area"">
                        <p style=""font-size: 20px; font-weight: bold; margin: 0;"">Is there a person in this image?</p>
                    </div>
                </div>","0","main_experiment_trial","7","supermarket_scheme","schematic_sequence","chronological","","","","","","",""
"","","","","","html-keyboard-response","157","738515","0.0-157.0","511E95B6D36945A59A7AB9A78BB55C66","019d0644-f9e1-7df7-b77b-d23e50855d68","019d0640-0a2d-7740-a972-9c73365b2dcb","","null","
                <div class=""stimulus-container"">
                    <img src=""images/schematic_sequence/supermarket_scheme/supermarket_scheme_8.png"" class=""exp-image"">
                    <div class=""question-area""></div> 
                </div>","null","","","","","","","","","","","",""
"","","","","","html-button-response","158","739330","0.0-158.0","511E95B6D36945A59A7AB9A78BB55C66","019d0644-f9e1-7df7-b77b-d23e50855d68","019d0640-0a2d-7740-a972-9c73365b2dcb","","814","
                <div class=""stimulus-container"">
                    <img src=""images/schematic_sequence/supermarket_scheme/supermarket_scheme_8.png"" class=""exp-image"">
                    <div class=""question-area"">
                        <p style=""font-size: 20px; font-weight: bold; margin: 0;"">Is there a person in this image?</p>
                    </div>
                </div>","0","main_experiment_trial","8","supermarket_scheme","schematic_sequence","chronological","","","","","","",""
"","","","","","html-keyboard-response","159","744337","0.0-159.0","511E95B6D36945A59A7AB9A78BB55C66","019d0644-f9e1-7df7-b77b-d23e50855d68","019d0640-0a2d-7740-a972-9c73365b2dcb","","null","
                <div class=""stimulus-container"">
                    <img src=""images/schematic_sequence/supermarket_scheme/supermarket_scheme_9.png"" class=""exp-image"">
                    <div class=""question-area""></div> 
                </div>","null","","","","","","","","","","","",""
"","","","","","html-button-response","160","744869","0.0-160.0","511E95B6D36945A59A7AB9A78BB55C66","019d0644-f9e1-7df7-b77b-d23e50855d68","019d0640-0a2d-7740-a972-9c73365b2dcb","","531","
                <div class=""stimulus-container"">
                    <img src=""images/schematic_sequence/supermarket_scheme/supermarket_scheme_9.png"" class=""exp-image"">
                    <div class=""question-area"">
                        <p style=""font-size: 20px; font-weight: bold; margin: 0;"">Is there a person in this image?</p>
                    </div>
                </div>","0","main_experiment_trial","9","supermarket_scheme","schematic_sequence","chronological","","","","","","",""
"","","","","","html-keyboard-response","161","749880","0.0-161.0","511E95B6D36945A59A7AB9A78BB55C66","019d0644-f9e1-7df7-b77b-d23e50855d68","019d0640-0a2d-7740-a972-9c73365b2dcb","","null","
                <div class=""stimulus-container"">
                    <img src=""images/schematic_sequence/supermarket_scheme/supermarket_scheme_ten.png"" class=""exp-image"">
                    <div class=""question-area""></div> 
                </div>","null","","","","","","","","","","","",""
"","","","","","html-button-response","162","750666","0.0-162.0","511E95B6D36945A59A7AB9A78BB55C66","019d0644-f9e1-7df7-b77b-d23e50855d68","019d0640-0a2d-7740-a972-9c73365b2dcb","","785","
                <div class=""stimulus-container"">
                    <img src=""images/schematic_sequence/supermarket_scheme/supermarket_scheme_ten.png"" class=""exp-image"">
                    <div class=""question-area"">
                        <p style=""font-size: 20px; font-weight: bold; margin: 0;"">Is there a person in this image?</p>
                    </div>
                </div>","1","main_experiment_trial","ten","supermarket_scheme","schematic_sequence","chronological","","","","","","",""
"","","","","","html-keyboard-response","163","755683","0.0-163.0","511E95B6D36945A59A7AB9A78BB55C66","019d0644-f9e1-7df7-b77b-d23e50855d68","019d0640-0a2d-7740-a972-9c73365b2dcb","","null","<div style=""background-color: white; width: 100vw; height: 100vh;""></div>","null","","","","","","","","","","","",""
"","","","","","html-keyboard-response","164","760694","0.0-164.0","511E95B6D36945A59A7AB9A78BB55C66","019d0644-f9e1-7df7-b77b-d23e50855d68","019d0640-0a2d-7740-a972-9c73365b2dcb","","null","
                <div class=""stimulus-container"">
                    <img src=""images/causal_sequence/the_performance_causal/the_performance_causal_1.png"" class=""exp-image"">
                    <div class=""question-area""></div> 
                </div>","null","","","","","","","","","","","",""
"","","","","","html-button-response","165","761565","0.0-165.0","511E95B6D36945A59A7AB9A78BB55C66","019d0644-f9e1-7df7-b77b-d23e50855d68","019d0640-0a2d-7740-a972-9c73365b2dcb","","870","
                <div class=""stimulus-container"">
                    <img src=""images/causal_sequence/the_performance_causal/the_performance_causal_1.png"" class=""exp-image"">
                    <div class=""question-area"">
                        <p style=""font-size: 20px; font-weight: bold; margin: 0;"">Is there a person in this image?</p>
                    </div>
                </div>","0","main_experiment_trial","1","the_performance_causal","causal_sequence","chronological","","","","","","",""
"","","","","","html-keyboard-response","166","766581","0.0-166.0","511E95B6D36945A59A7AB9A78BB55C66","019d0644-f9e1-7df7-b77b-d23e50855d68","019d0640-0a2d-7740-a972-9c73365b2dcb","","null","
                <div class=""stimulus-container"">
                    <img src=""images/causal_sequence/the_performance_causal/the_performance_causal_2.png"" class=""exp-image"">
                    <div class=""question-area""></div> 
                </div>","null","","","","","","","","","","","",""
"","","","","","html-button-response","167","767340","0.0-167.0","511E95B6D36945A59A7AB9A78BB55C66","019d0644-f9e1-7df7-b77b-d23e50855d68","019d0640-0a2d-7740-a972-9c73365b2dcb","","758","
                <div class=""stimulus-container"">
                    <img src=""images/causal_sequence/the_performance_causal/the_performance_causal_2.png"" class=""exp-image"">
                    <div class=""question-area"">
                        <p style=""font-size: 20px; font-weight: bold; margin: 0;"">Is there a person in this image?</p>
                    </div>
                </div>","0","main_experiment_trial","2","the_performance_causal","causal_sequence","chronological","","","","","","",""
"","","","","","html-keyboard-response","168","772352","0.0-168.0","511E95B6D36945A59A7AB9A78BB55C66","019d0644-f9e1-7df7-b77b-d23e50855d68","019d0640-0a2d-7740-a972-9c73365b2dcb","","null","
                <div class=""stimulus-container"">
                    <img src=""images/causal_sequence/the_performance_causal/the_performance_causal_3.png"" class=""exp-image"">
                    <div class=""question-area""></div> 
                </div>","null","","","","","","","","","","","",""
"","","","","","html-button-response","169","773077","0.0-169.0","511E95B6D36945A59A7AB9A78BB55C66","019d0644-f9e1-7df7-b77b-d23e50855d68","019d0640-0a2d-7740-a972-9c73365b2dcb","","723","
                <div class=""stimulus-container"">
                    <img src=""images/causal_sequence/the_performance_causal/the_performance_causal_3.png"" class=""exp-image"">
                    <div class=""question-area"">
                        <p style=""font-size: 20px; font-weight: bold; margin: 0;"">Is there a person in this image?</p>
                    </div>
                </div>","0","main_experiment_trial","3","the_performance_causal","causal_sequence","chronological","","","","","","",""
"","","","","","html-keyboard-response","170","778086","0.0-170.0","511E95B6D36945A59A7AB9A78BB55C66","019d0644-f9e1-7df7-b77b-d23e50855d68","019d0640-0a2d-7740-a972-9c73365b2dcb","","null","
                <div class=""stimulus-container"">
                    <img src=""images/causal_sequence/the_performance_causal/the_performance_causal_4.png"" class=""exp-image"">
                    <div class=""question-area""></div> 
                </div>","null","","","","","","","","","","","",""
"","","","","","html-button-response","171","779003","0.0-171.0","511E95B6D36945A59A7AB9A78BB55C66","019d0644-f9e1-7df7-b77b-d23e50855d68","019d0640-0a2d-7740-a972-9c73365b2dcb","","916","
                <div class=""stimulus-container"">
                    <img src=""images/causal_sequence/the_performance_causal/the_performance_causal_4.png"" class=""exp-image"">
                    <div class=""question-area"">
                        <p style=""font-size: 20px; font-weight: bold; margin: 0;"">Is there a person in this image?</p>
                    </div>
                </div>","0","main_experiment_trial","4","the_performance_causal","causal_sequence","chronological","","","","","","",""
"","","","","","html-keyboard-response","172","784010","0.0-172.0","511E95B6D36945A59A7AB9A78BB55C66","019d0644-f9e1-7df7-b77b-d23e50855d68","019d0640-0a2d-7740-a972-9c73365b2dcb","","null","
                <div class=""stimulus-container"">
                    <img src=""images/causal_sequence/the_performance_causal/the_performance_causal_5.png"" class=""exp-image"">
                    <div class=""question-area""></div> 
                </div>","null","","","","","","","","","","","",""
"","","","","","html-button-response","173","785216","0.0-173.0","511E95B6D36945A59A7AB9A78BB55C66","019d0644-f9e1-7df7-b77b-d23e50855d68","019d0640-0a2d-7740-a972-9c73365b2dcb","","1205","
                <div class=""stimulus-container"">
                    <img src=""images/causal_sequence/the_performance_causal/the_performance_causal_5.png"" class=""exp-image"">
                    <div class=""question-area"">
                        <p style=""font-size: 20px; font-weight: bold; margin: 0;"">Is there a person in this image?</p>
                    </div>
                </div>","0","main_experiment_trial","5","the_performance_causal","causal_sequence","chronological","","","","","","",""
"","","","","","html-keyboard-response","174","790221","0.0-174.0","511E95B6D36945A59A7AB9A78BB55C66","019d0644-f9e1-7df7-b77b-d23e50855d68","019d0640-0a2d-7740-a972-9c73365b2dcb","","null","
                <div class=""stimulus-container"">
                    <img src=""images/causal_sequence/the_performance_causal/the_performance_causal_6.png"" class=""exp-image"">
                    <div class=""question-area""></div> 
                </div>","null","","","","","","","","","","","",""
"","","","","","html-button-response","175","792650","0.0-175.0","511E95B6D36945A59A7AB9A78BB55C66","019d0644-f9e1-7df7-b77b-d23e50855d68","019d0640-0a2d-7740-a972-9c73365b2dcb","","2428","
                <div class=""stimulus-container"">
                    <img src=""images/causal_sequence/the_performance_causal/the_performance_causal_6.png"" class=""exp-image"">
                    <div class=""question-area"">
                        <p style=""font-size: 20px; font-weight: bold; margin: 0;"">Is there a person in this image?</p>
                    </div>
                </div>","0","main_experiment_trial","6","the_performance_causal","causal_sequence","chronological","","","","","","",""
"","","","","","html-keyboard-response","176","797665","0.0-176.0","511E95B6D36945A59A7AB9A78BB55C66","019d0644-f9e1-7df7-b77b-d23e50855d68","019d0640-0a2d-7740-a972-9c73365b2dcb","","null","
                <div class=""stimulus-container"">
