"success","timeout","failed_images","failed_audio","failed_video","trial_type","trial_index","time_elapsed","internal_node_id","subject_id","study_id","session_id","view_history","rt","stimulus","response","task","image_index","folder","sequence_type","presentation_order","valuable_image_index","reward_type","correct_choice","chosen_image_index","target_X"
"true","false","[]","[]","[]","preload","0","11075","0.0-0.0","F1A8AA92975D4B689D4AB13B7B8AC7DE","019cf9a5-924c-77bf-838a-29377d7221f8","019cf974-7aee-7bc9-8ea4-9f55741b365d","","","","","","","","","","","","","",""
"","","","","","instructions","1","13819","0.0-1.0","F1A8AA92975D4B689D4AB13B7B8AC7DE","019cf9a5-924c-77bf-838a-29377d7221f8","019cf974-7aee-7bc9-8ea4-9f55741b365d","[{""page_index"":0,""viewing_time"":2744}]","2744","","","","","","","","","","","",""
"","","","","","instructions","2","19150","0.0-2.0","F1A8AA92975D4B689D4AB13B7B8AC7DE","019cf9a5-924c-77bf-838a-29377d7221f8","019cf974-7aee-7bc9-8ea4-9f55741b365d","[{""page_index"":0,""viewing_time"":5320}]","5321","","","","","","","","","","","",""
"true","","","","","fullscreen","3","21428","0.0-3.0","F1A8AA92975D4B689D4AB13B7B8AC7DE","019cf9a5-924c-77bf-838a-29377d7221f8","019cf974-7aee-7bc9-8ea4-9f55741b365d","","1262","","","","","","","","","","","",""
"","","","","","instructions","4","35444","0.0-4.0","F1A8AA92975D4B689D4AB13B7B8AC7DE","019cf9a5-924c-77bf-838a-29377d7221f8","019cf974-7aee-7bc9-8ea4-9f55741b365d","[{""page_index"":0,""viewing_time"":14015}]","14015","","","","","","","","","","","",""
"","","","","","instructions","5","51052","0.0-5.0","F1A8AA92975D4B689D4AB13B7B8AC7DE","019cf9a5-924c-77bf-838a-29377d7221f8","019cf974-7aee-7bc9-8ea4-9f55741b365d","[{""page_index"":0,""viewing_time"":15606}]","15607","","","","","","","","","","","",""
"","","","","","html-keyboard-response","6","55055","0.0-6.0","F1A8AA92975D4B689D4AB13B7B8AC7DE","019cf9a5-924c-77bf-838a-29377d7221f8","019cf974-7aee-7bc9-8ea4-9f55741b365d","","null","
                <div class=""stimulus-container"">
                    <img src=""images/instructions/movie_1.png"" class=""exp-image"">
                    <div class=""question-area""></div> 
                </div>","null","","","","","","","","","",""
"","","","","","html-button-response","7","57997","0.0-7.0","F1A8AA92975D4B689D4AB13B7B8AC7DE","019cf9a5-924c-77bf-838a-29377d7221f8","019cf974-7aee-7bc9-8ea4-9f55741b365d","","2939","
                <div class=""stimulus-container"">
                    <img src=""images/instructions/movie_1.png"" class=""exp-image"">
                    <div class=""question-area"">
                        <p style=""font-size: 20px; font-weight: bold; margin: 0;"">Was there a person in this image?</p>
                    </div>
                </div>","0","example_question","1","","","","","","","",""
"","","","","","html-keyboard-response","8","62001","0.0-8.0","F1A8AA92975D4B689D4AB13B7B8AC7DE","019cf9a5-924c-77bf-838a-29377d7221f8","019cf974-7aee-7bc9-8ea4-9f55741b365d","","null","
                <div class=""stimulus-container"">
                    <img src=""images/instructions/movie_2.png"" class=""exp-image"">
                    <div class=""question-area""></div> 
                </div>","null","","","","","","","","","",""
"","","","","","html-button-response","9","63843","0.0-9.0","F1A8AA92975D4B689D4AB13B7B8AC7DE","019cf9a5-924c-77bf-838a-29377d7221f8","019cf974-7aee-7bc9-8ea4-9f55741b365d","","1841","
                <div class=""stimulus-container"">
                    <img src=""images/instructions/movie_2.png"" class=""exp-image"">
                    <div class=""question-area"">
                        <p style=""font-size: 20px; font-weight: bold; margin: 0;"">Was there a person in this image?</p>
                    </div>
                </div>","0","example_question","2","","","","","","","",""
"","","","","","html-keyboard-response","10","67846","0.0-10.0","F1A8AA92975D4B689D4AB13B7B8AC7DE","019cf9a5-924c-77bf-838a-29377d7221f8","019cf974-7aee-7bc9-8ea4-9f55741b365d","","null","
                <div class=""stimulus-container"">
                    <img src=""images/instructions/movie_3.png"" class=""exp-image"">
                    <div class=""question-area""></div> 
                </div>","null","","","","","","","","","",""
"","","","","","html-button-response","11","68472","0.0-11.0","F1A8AA92975D4B689D4AB13B7B8AC7DE","019cf9a5-924c-77bf-838a-29377d7221f8","019cf974-7aee-7bc9-8ea4-9f55741b365d","","624","
                <div class=""stimulus-container"">
                    <img src=""images/instructions/movie_3.png"" class=""exp-image"">
                    <div class=""question-area"">
                        <p style=""font-size: 20px; font-weight: bold; margin: 0;"">Was there a person in this image?</p>
                    </div>
                </div>","0","example_question","3","","","","","","","",""
"","","","","","html-keyboard-response","12","72475","0.0-12.0","F1A8AA92975D4B689D4AB13B7B8AC7DE","019cf9a5-924c-77bf-838a-29377d7221f8","019cf974-7aee-7bc9-8ea4-9f55741b365d","","null","
                <div class=""stimulus-container"">
                    <img src=""images/instructions/movie_4.png"" class=""exp-image"">
                    <div class=""question-area""></div> 
                </div>","null","","","","","","","","","",""
"","","","","","html-button-response","13","74717","0.0-13.0","F1A8AA92975D4B689D4AB13B7B8AC7DE","019cf9a5-924c-77bf-838a-29377d7221f8","019cf974-7aee-7bc9-8ea4-9f55741b365d","","2241","
                <div class=""stimulus-container"">
                    <img src=""images/instructions/movie_4.png"" class=""exp-image"">
                    <div class=""question-area"">
                        <p style=""font-size: 20px; font-weight: bold; margin: 0;"">Was there a person in this image?</p>
                    </div>
                </div>","0","example_question","4","","","","","","","",""
"","","","","","instructions","14","75967","0.0-14.0","F1A8AA92975D4B689D4AB13B7B8AC7DE","019cf9a5-924c-77bf-838a-29377d7221f8","019cf974-7aee-7bc9-8ea4-9f55741b365d","[{""page_index"":0,""viewing_time"":1249}]","1249","","","","","","","","","","","",""
"","","","","","instructions","15","78053","0.0-15.0","F1A8AA92975D4B689D4AB13B7B8AC7DE","019cf9a5-924c-77bf-838a-29377d7221f8","019cf974-7aee-7bc9-8ea4-9f55741b365d","[{""page_index"":0,""viewing_time"":2085}]","2086","","","","","","","","","","","",""
"","","","","","html-keyboard-response","16","83055","0.0-16.0","F1A8AA92975D4B689D4AB13B7B8AC7DE","019cf9a5-924c-77bf-838a-29377d7221f8","019cf974-7aee-7bc9-8ea4-9f55741b365d","","null","<div style=""background-color: white; width: 100vw; height: 100vh;""></div>","null","","","","","","","","","",""
"","","","","","html-keyboard-response","17","84071","0.0-17.0","F1A8AA92975D4B689D4AB13B7B8AC7DE","019cf9a5-924c-77bf-838a-29377d7221f8","019cf974-7aee-7bc9-8ea4-9f55741b365d","","null","
                <div class=""stimulus-container"">
                    <img src=""images/semantic_sequence/kitchen_operations_semantic/kitchen_operations_semantic_5.png"" class=""exp-image"">
                    <div class=""question-area""></div> 
                </div>","null","","","","","","","","","",""
"","","","","","html-button-response","18","85358","0.0-18.0","F1A8AA92975D4B689D4AB13B7B8AC7DE","019cf9a5-924c-77bf-838a-29377d7221f8","019cf974-7aee-7bc9-8ea4-9f55741b365d","","1286","
                <div class=""stimulus-container"">
                    <img src=""images/semantic_sequence/kitchen_operations_semantic/kitchen_operations_semantic_5.png"" class=""exp-image"">
                    <div class=""question-area"">
                        <p style=""font-size: 20px; font-weight: bold; margin: 0;"">Is there a person in this image?</p>
                    </div>
                </div>","0","main_experiment_trial","5","kitchen_operations_semantic","semantic_sequence","randomized","","","","",""
"","","","","","html-keyboard-response","19","86373","0.0-19.0","F1A8AA92975D4B689D4AB13B7B8AC7DE","019cf9a5-924c-77bf-838a-29377d7221f8","019cf974-7aee-7bc9-8ea4-9f55741b365d","","null","
                <div class=""stimulus-container"">
                    <img src=""images/semantic_sequence/kitchen_operations_semantic/kitchen_operations_semantic_ten.png"" class=""exp-image"">
                    <div class=""question-area""></div> 
                </div>","null","","","","","","","","","",""
"","","","","","html-button-response","20","88883","0.0-20.0","F1A8AA92975D4B689D4AB13B7B8AC7DE","019cf9a5-924c-77bf-838a-29377d7221f8","019cf974-7aee-7bc9-8ea4-9f55741b365d","","2509","
                <div class=""stimulus-container"">
                    <img src=""images/semantic_sequence/kitchen_operations_semantic/kitchen_operations_semantic_ten.png"" class=""exp-image"">
                    <div class=""question-area"">
                        <p style=""font-size: 20px; font-weight: bold; margin: 0;"">Is there a person in this image?</p>
                    </div>
                </div>","0","main_experiment_trial","ten","kitchen_operations_semantic","semantic_sequence","randomized","","","","",""
"","","","","","html-keyboard-response","21","89891","0.0-21.0","F1A8AA92975D4B689D4AB13B7B8AC7DE","019cf9a5-924c-77bf-838a-29377d7221f8","019cf974-7aee-7bc9-8ea4-9f55741b365d","","null","
                <div class=""stimulus-container"">
                    <img src=""images/semantic_sequence/kitchen_operations_semantic/kitchen_operations_semantic_6.png"" class=""exp-image"">
                    <div class=""question-area""></div> 
                </div>","null","","","","","","","","","",""
"","","","","","html-button-response","22","92141","0.0-22.0","F1A8AA92975D4B689D4AB13B7B8AC7DE","019cf9a5-924c-77bf-838a-29377d7221f8","019cf974-7aee-7bc9-8ea4-9f55741b365d","","2249","
                <div class=""stimulus-container"">
                    <img src=""images/semantic_sequence/kitchen_operations_semantic/kitchen_operations_semantic_6.png"" class=""exp-image"">
                    <div class=""question-area"">
                        <p style=""font-size: 20px; font-weight: bold; margin: 0;"">Is there a person in this image?</p>
                    </div>
                </div>","0","main_experiment_trial","6","kitchen_operations_semantic","semantic_sequence","randomized","","","","",""
"","","","","","html-keyboard-response","23","93157","0.0-23.0","F1A8AA92975D4B689D4AB13B7B8AC7DE","019cf9a5-924c-77bf-838a-29377d7221f8","019cf974-7aee-7bc9-8ea4-9f55741b365d","","null","
                <div class=""stimulus-container"">
                    <img src=""images/semantic_sequence/kitchen_operations_semantic/kitchen_operations_semantic_1.png"" class=""exp-image"">
                    <div class=""question-area""></div> 
                </div>","null","","","","","","","","","",""
"","","","","","html-button-response","24","95110","0.0-24.0","F1A8AA92975D4B689D4AB13B7B8AC7DE","019cf9a5-924c-77bf-838a-29377d7221f8","019cf974-7aee-7bc9-8ea4-9f55741b365d","","1952","
                <div class=""stimulus-container"">
                    <img src=""images/semantic_sequence/kitchen_operations_semantic/kitchen_operations_semantic_1.png"" class=""exp-image"">
                    <div class=""question-area"">
                        <p style=""font-size: 20px; font-weight: bold; margin: 0;"">Is there a person in this image?</p>
                    </div>
                </div>","0","main_experiment_trial","1","kitchen_operations_semantic","semantic_sequence","randomized","","","","",""
"","","","","","html-keyboard-response","25","96121","0.0-25.0","F1A8AA92975D4B689D4AB13B7B8AC7DE","019cf9a5-924c-77bf-838a-29377d7221f8","019cf974-7aee-7bc9-8ea4-9f55741b365d","","null","
                <div class=""stimulus-container"">
                    <img src=""images/semantic_sequence/kitchen_operations_semantic/kitchen_operations_semantic_7.png"" class=""exp-image"">
                    <div class=""question-area""></div> 
                </div>","null","","","","","","","","","",""
"","","","","","html-button-response","26","99137","0.0-26.0","F1A8AA92975D4B689D4AB13B7B8AC7DE","019cf9a5-924c-77bf-838a-29377d7221f8","019cf974-7aee-7bc9-8ea4-9f55741b365d","","null","
                <div class=""stimulus-container"">
                    <img src=""images/semantic_sequence/kitchen_operations_semantic/kitchen_operations_semantic_7.png"" class=""exp-image"">
                    <div class=""question-area"">
                        <p style=""font-size: 20px; font-weight: bold; margin: 0;"">Is there a person in this image?</p>
                    </div>
                </div>","null","main_experiment_trial","7","kitchen_operations_semantic","semantic_sequence","randomized","","","","",""
"","","","","","html-keyboard-response","27","100139","0.0-27.0","F1A8AA92975D4B689D4AB13B7B8AC7DE","019cf9a5-924c-77bf-838a-29377d7221f8","019cf974-7aee-7bc9-8ea4-9f55741b365d","","null","
                <div class=""stimulus-container"">
                    <img src=""images/semantic_sequence/kitchen_operations_semantic/kitchen_operations_semantic_4.png"" class=""exp-image"">
                    <div class=""question-area""></div> 
                </div>","null","","","","","","","","","",""
"","","","","","html-button-response","28","102131","0.0-28.0","F1A8AA92975D4B689D4AB13B7B8AC7DE","019cf9a5-924c-77bf-838a-29377d7221f8","019cf974-7aee-7bc9-8ea4-9f55741b365d","","1991","
                <div class=""stimulus-container"">
                    <img src=""images/semantic_sequence/kitchen_operations_semantic/kitchen_operations_semantic_4.png"" class=""exp-image"">
                    <div class=""question-area"">
                        <p style=""font-size: 20px; font-weight: bold; margin: 0;"">Is there a person in this image?</p>
                    </div>
                </div>","0","main_experiment_trial","4","kitchen_operations_semantic","semantic_sequence","randomized","","","","",""
"","","","","","html-keyboard-response","29","103140","0.0-29.0","F1A8AA92975D4B689D4AB13B7B8AC7DE","019cf9a5-924c-77bf-838a-29377d7221f8","019cf974-7aee-7bc9-8ea4-9f55741b365d","","null","
                <div class=""stimulus-container"">
                    <img src=""images/semantic_sequence/kitchen_operations_semantic/kitchen_operations_semantic_8.png"" class=""exp-image"">
                    <div class=""question-area""></div> 
                </div>","null","","","","","","","","","",""
"","","","","","html-button-response","30","104580","0.0-30.0","F1A8AA92975D4B689D4AB13B7B8AC7DE","019cf9a5-924c-77bf-838a-29377d7221f8","019cf974-7aee-7bc9-8ea4-9f55741b365d","","1439","
                <div class=""stimulus-container"">
                    <img src=""images/semantic_sequence/kitchen_operations_semantic/kitchen_operations_semantic_8.png"" class=""exp-image"">
                    <div class=""question-area"">
                        <p style=""font-size: 20px; font-weight: bold; margin: 0;"">Is there a person in this image?</p>
                    </div>
                </div>","0","main_experiment_trial","8","kitchen_operations_semantic","semantic_sequence","randomized","","","","",""
"","","","","","html-keyboard-response","31","105581","0.0-31.0","F1A8AA92975D4B689D4AB13B7B8AC7DE","019cf9a5-924c-77bf-838a-29377d7221f8","019cf974-7aee-7bc9-8ea4-9f55741b365d","","null","
                <div class=""stimulus-container"">
                    <img src=""images/semantic_sequence/kitchen_operations_semantic/kitchen_operations_semantic_3.png"" class=""exp-image"">
                    <div class=""question-area""></div> 
                </div>","null","","","","","","","","","",""
"","","","","","html-button-response","32","106725","0.0-32.0","F1A8AA92975D4B689D4AB13B7B8AC7DE","019cf9a5-924c-77bf-838a-29377d7221f8","019cf974-7aee-7bc9-8ea4-9f55741b365d","","1143","
                <div class=""stimulus-container"">
                    <img src=""images/semantic_sequence/kitchen_operations_semantic/kitchen_operations_semantic_3.png"" class=""exp-image"">
                    <div class=""question-area"">
                        <p style=""font-size: 20px; font-weight: bold; margin: 0;"">Is there a person in this image?</p>
                    </div>
                </div>","0","main_experiment_trial","3","kitchen_operations_semantic","semantic_sequence","randomized","","","","",""
"","","","","","html-keyboard-response","33","107726","0.0-33.0","F1A8AA92975D4B689D4AB13B7B8AC7DE","019cf9a5-924c-77bf-838a-29377d7221f8","019cf974-7aee-7bc9-8ea4-9f55741b365d","","null","
                <div class=""stimulus-container"">
                    <img src=""images/semantic_sequence/kitchen_operations_semantic/kitchen_operations_semantic_2.png"" class=""exp-image"">
                    <div class=""question-area""></div> 
                </div>","null","","","","","","","","","",""
"","","","","","html-button-response","34","108649","0.0-34.0","F1A8AA92975D4B689D4AB13B7B8AC7DE","019cf9a5-924c-77bf-838a-29377d7221f8","019cf974-7aee-7bc9-8ea4-9f55741b365d","","922","
                <div class=""stimulus-container"">
                    <img src=""images/semantic_sequence/kitchen_operations_semantic/kitchen_operations_semantic_2.png"" class=""exp-image"">
                    <div class=""question-area"">
                        <p style=""font-size: 20px; font-weight: bold; margin: 0;"">Is there a person in this image?</p>
                    </div>
                </div>","0","main_experiment_trial","2","kitchen_operations_semantic","semantic_sequence","randomized","","","","",""
"","","","","","html-keyboard-response","35","109653","0.0-35.0","F1A8AA92975D4B689D4AB13B7B8AC7DE","019cf9a5-924c-77bf-838a-29377d7221f8","019cf974-7aee-7bc9-8ea4-9f55741b365d","","null","
                <div class=""stimulus-container"">
                    <img src=""images/semantic_sequence/kitchen_operations_semantic/kitchen_operations_semantic_9.png"" class=""exp-image"">
                    <div class=""question-area""></div> 
                </div>","null","","","","","","","","","",""
"","","","","","html-button-response","36","110536","0.0-36.0","F1A8AA92975D4B689D4AB13B7B8AC7DE","019cf9a5-924c-77bf-838a-29377d7221f8","019cf974-7aee-7bc9-8ea4-9f55741b365d","","882","
                <div class=""stimulus-container"">
                    <img src=""images/semantic_sequence/kitchen_operations_semantic/kitchen_operations_semantic_9.png"" class=""exp-image"">
                    <div class=""question-area"">
                        <p style=""font-size: 20px; font-weight: bold; margin: 0;"">Is there a person in this image?</p>
                    </div>
                </div>","0","main_experiment_trial","9","kitchen_operations_semantic","semantic_sequence","randomized","","","","",""
"","","","","","html-keyboard-response","37","115541","0.0-37.0","F1A8AA92975D4B689D4AB13B7B8AC7DE","019cf9a5-924c-77bf-838a-29377d7221f8","019cf974-7aee-7bc9-8ea4-9f55741b365d","","null","<div style=""background-color: white; width: 100vw; height: 100vh;""></div>","null","","","","","","","","","",""
"","","","","","html-keyboard-response","38","116544","0.0-38.0","F1A8AA92975D4B689D4AB13B7B8AC7DE","019cf9a5-924c-77bf-838a-29377d7221f8","019cf974-7aee-7bc9-8ea4-9f55741b365d","","null","
                <div class=""stimulus-container"">
                    <img src=""images/semantic_sequence/cat_care_semantic/cat_care_semantic_ten.png"" class=""exp-image"">
                    <div class=""question-area""></div> 
                </div>","null","","","","","","","","","",""
"","","","","","html-button-response","39","118280","0.0-39.0","F1A8AA92975D4B689D4AB13B7B8AC7DE","019cf9a5-924c-77bf-838a-29377d7221f8","019cf974-7aee-7bc9-8ea4-9f55741b365d","","1735","
                <div class=""stimulus-container"">
                    <img src=""images/semantic_sequence/cat_care_semantic/cat_care_semantic_ten.png"" class=""exp-image"">
                    <div class=""question-area"">
                        <p style=""font-size: 20px; font-weight: bold; margin: 0;"">Is there a person in this image?</p>
                    </div>
                </div>","1","main_experiment_trial","ten","cat_care_semantic","semantic_sequence","randomized","","","","",""
"","","","","","html-keyboard-response","40","119281","0.0-40.0","F1A8AA92975D4B689D4AB13B7B8AC7DE","019cf9a5-924c-77bf-838a-29377d7221f8","019cf974-7aee-7bc9-8ea4-9f55741b365d","","null","
                <div class=""stimulus-container"">
                    <img src=""images/semantic_sequence/cat_care_semantic/cat_care_semantic_8.png"" class=""exp-image"">
                    <div class=""question-area""></div> 
                </div>","null","","","","","","","","","",""
"","","","","","html-button-response","41","120434","0.0-41.0","F1A8AA92975D4B689D4AB13B7B8AC7DE","019cf9a5-924c-77bf-838a-29377d7221f8","019cf974-7aee-7bc9-8ea4-9f55741b365d","","1152","
                <div class=""stimulus-container"">
                    <img src=""images/semantic_sequence/cat_care_semantic/cat_care_semantic_8.png"" class=""exp-image"">
                    <div class=""question-area"">
                        <p style=""font-size: 20px; font-weight: bold; margin: 0;"">Is there a person in this image?</p>
                    </div>
                </div>","0","main_experiment_trial","8","cat_care_semantic","semantic_sequence","randomized","","","","",""
"","","","","","html-keyboard-response","42","121437","0.0-42.0","F1A8AA92975D4B689D4AB13B7B8AC7DE","019cf9a5-924c-77bf-838a-29377d7221f8","019cf974-7aee-7bc9-8ea4-9f55741b365d","","null","
                <div class=""stimulus-container"">
                    <img src=""images/semantic_sequence/cat_care_semantic/cat_care_semantic_7.png"" class=""exp-image"">
                    <div class=""question-area""></div> 
                </div>","null","","","","","","","","","",""
"","","","","","html-button-response","43","122292","0.0-43.0","F1A8AA92975D4B689D4AB13B7B8AC7DE","019cf9a5-924c-77bf-838a-29377d7221f8","019cf974-7aee-7bc9-8ea4-9f55741b365d","","854","
                <div class=""stimulus-container"">
                    <img src=""images/semantic_sequence/cat_care_semantic/cat_care_semantic_7.png"" class=""exp-image"">
                    <div class=""question-area"">
                        <p style=""font-size: 20px; font-weight: bold; margin: 0;"">Is there a person in this image?</p>
                    </div>
                </div>","0","main_experiment_trial","7","cat_care_semantic","semantic_sequence","randomized","","","","",""
"","","","","","html-keyboard-response","44","123297","0.0-44.0","F1A8AA92975D4B689D4AB13B7B8AC7DE","019cf9a5-924c-77bf-838a-29377d7221f8","019cf974-7aee-7bc9-8ea4-9f55741b365d","","null","
                <div class=""stimulus-container"">
                    <img src=""images/semantic_sequence/cat_care_semantic/cat_care_semantic_4.png"" class=""exp-image"">
                    <div class=""question-area""></div> 
                </div>","null","","","","","","","","","",""
"","","","","","html-button-response","45","124228","0.0-45.0","F1A8AA92975D4B689D4AB13B7B8AC7DE","019cf9a5-924c-77bf-838a-29377d7221f8","019cf974-7aee-7bc9-8ea4-9f55741b365d","","930","
                <div class=""stimulus-container"">
                    <img src=""images/semantic_sequence/cat_care_semantic/cat_care_semantic_4.png"" class=""exp-image"">
                    <div class=""question-area"">
                        <p style=""font-size: 20px; font-weight: bold; margin: 0;"">Is there a person in this image?</p>
                    </div>
                </div>","0","main_experiment_trial","4","cat_care_semantic","semantic_sequence","randomized","","","","",""
"","","","","","html-keyboard-response","46","125232","0.0-46.0","F1A8AA92975D4B689D4AB13B7B8AC7DE","019cf9a5-924c-77bf-838a-29377d7221f8","019cf974-7aee-7bc9-8ea4-9f55741b365d","","null","
                <div class=""stimulus-container"">
                    <img src=""images/semantic_sequence/cat_care_semantic/cat_care_semantic_2.png"" class=""exp-image"">
                    <div class=""question-area""></div> 
                </div>","null","","","","","","","","","",""
"","","","","","html-button-response","47","126299","0.0-47.0","F1A8AA92975D4B689D4AB13B7B8AC7DE","019cf9a5-924c-77bf-838a-29377d7221f8","019cf974-7aee-7bc9-8ea4-9f55741b365d","","1066","
                <div class=""stimulus-container"">
                    <img src=""images/semantic_sequence/cat_care_semantic/cat_care_semantic_2.png"" class=""exp-image"">
                    <div class=""question-area"">
                        <p style=""font-size: 20px; font-weight: bold; margin: 0;"">Is there a person in this image?</p>
                    </div>
                </div>","0","main_experiment_trial","2","cat_care_semantic","semantic_sequence","randomized","","","","",""
"","","","","","html-keyboard-response","48","127314","0.0-48.0","F1A8AA92975D4B689D4AB13B7B8AC7DE","019cf9a5-924c-77bf-838a-29377d7221f8","019cf974-7aee-7bc9-8ea4-9f55741b365d","","null","
                <div class=""stimulus-container"">
                    <img src=""images/semantic_sequence/cat_care_semantic/cat_care_semantic_6.png"" class=""exp-image"">
                    <div class=""question-area""></div> 
                </div>","null","","","","","","","","","",""
"","","","","","html-button-response","49","128784","0.0-49.0","F1A8AA92975D4B689D4AB13B7B8AC7DE","019cf9a5-924c-77bf-838a-29377d7221f8","019cf974-7aee-7bc9-8ea4-9f55741b365d","","1469","
                <div class=""stimulus-container"">
                    <img src=""images/semantic_sequence/cat_care_semantic/cat_care_semantic_6.png"" class=""exp-image"">
                    <div class=""question-area"">
                        <p style=""font-size: 20px; font-weight: bold; margin: 0;"">Is there a person in this image?</p>
                    </div>
                </div>","0","main_experiment_trial","6","cat_care_semantic","semantic_sequence","randomized","","","","",""
"","","","","","html-keyboard-response","50","129785","0.0-50.0","F1A8AA92975D4B689D4AB13B7B8AC7DE","019cf9a5-924c-77bf-838a-29377d7221f8","019cf974-7aee-7bc9-8ea4-9f55741b365d","","null","
                <div class=""stimulus-container"">
                    <img src=""images/semantic_sequence/cat_care_semantic/cat_care_semantic_9.png"" class=""exp-image"">
                    <div class=""question-area""></div> 
                </div>","null","","","","","","","","","",""
"","","","","","html-button-response","51","130404","0.0-51.0","F1A8AA92975D4B689D4AB13B7B8AC7DE","019cf9a5-924c-77bf-838a-29377d7221f8","019cf974-7aee-7bc9-8ea4-9f55741b365d","","617","
                <div class=""stimulus-container"">
                    <img src=""images/semantic_sequence/cat_care_semantic/cat_care_semantic_9.png"" class=""exp-image"">
                    <div class=""question-area"">
                        <p style=""font-size: 20px; font-weight: bold; margin: 0;"">Is there a person in this image?</p>
                    </div>
                </div>","0","main_experiment_trial","9","cat_care_semantic","semantic_sequence","randomized","","","","",""
"","","","","","html-keyboard-response","52","131412","0.0-52.0","F1A8AA92975D4B689D4AB13B7B8AC7DE","019cf9a5-924c-77bf-838a-29377d7221f8","019cf974-7aee-7bc9-8ea4-9f55741b365d","","null","
                <div class=""stimulus-container"">
                    <img src=""images/semantic_sequence/cat_care_semantic/cat_care_semantic_3.png"" class=""exp-image"">
                    <div class=""question-area""></div> 
                </div>","null","","","","","","","","","",""
"","","","","","html-button-response","53","132874","0.0-53.0","F1A8AA92975D4B689D4AB13B7B8AC7DE","019cf9a5-924c-77bf-838a-29377d7221f8","019cf974-7aee-7bc9-8ea4-9f55741b365d","","1460","
                <div class=""stimulus-container"">
                    <img src=""images/semantic_sequence/cat_care_semantic/cat_care_semantic_3.png"" class=""exp-image"">
                    <div class=""question-area"">
                        <p style=""font-size: 20px; font-weight: bold; margin: 0;"">Is there a person in this image?</p>
                    </div>
                </div>","0","main_experiment_trial","3","cat_care_semantic","semantic_sequence","randomized","","","","",""
"","","","","","html-keyboard-response","54","133876","0.0-54.0","F1A8AA92975D4B689D4AB13B7B8AC7DE","019cf9a5-924c-77bf-838a-29377d7221f8","019cf974-7aee-7bc9-8ea4-9f55741b365d","","null","
                <div class=""stimulus-container"">
                    <img src=""images/semantic_sequence/cat_care_semantic/cat_care_semantic_1.png"" class=""exp-image"">
                    <div class=""question-area""></div> 
                </div>","null","","","","","","","","","",""
"","","","","","html-button-response","55","134671","0.0-55.0","F1A8AA92975D4B689D4AB13B7B8AC7DE","019cf9a5-924c-77bf-838a-29377d7221f8","019cf974-7aee-7bc9-8ea4-9f55741b365d","","794","
                <div class=""stimulus-container"">
                    <img src=""images/semantic_sequence/cat_care_semantic/cat_care_semantic_1.png"" class=""exp-image"">
                    <div class=""question-area"">
                        <p style=""font-size: 20px; font-weight: bold; margin: 0;"">Is there a person in this image?</p>
                    </div>
                </div>","0","main_experiment_trial","1","cat_care_semantic","semantic_sequence","randomized","","","","",""
"","","","","","html-keyboard-response","56","135683","0.0-56.0","F1A8AA92975D4B689D4AB13B7B8AC7DE","019cf9a5-924c-77bf-838a-29377d7221f8","019cf974-7aee-7bc9-8ea4-9f55741b365d","","null","
                <div class=""stimulus-container"">
                    <img src=""images/semantic_sequence/cat_care_semantic/cat_care_semantic_5.png"" class=""exp-image"">
                    <div class=""question-area""></div> 
                </div>","null","","","","","","","","","",""
"","","","","","html-button-response","57","136329","0.0-57.0","F1A8AA92975D4B689D4AB13B7B8AC7DE","019cf9a5-924c-77bf-838a-29377d7221f8","019cf974-7aee-7bc9-8ea4-9f55741b365d","","645","
                <div class=""stimulus-container"">
                    <img src=""images/semantic_sequence/cat_care_semantic/cat_care_semantic_5.png"" class=""exp-image"">
                    <div class=""question-area"">
                        <p style=""font-size: 20px; font-weight: bold; margin: 0;"">Is there a person in this image?</p>
                    </div>
                </div>","0","main_experiment_trial","5","cat_care_semantic","semantic_sequence","randomized","","","","",""
"","","","","","html-keyboard-response","58","141333","0.0-58.0","F1A8AA92975D4B689D4AB13B7B8AC7DE","019cf9a5-924c-77bf-838a-29377d7221f8","019cf974-7aee-7bc9-8ea4-9f55741b365d","","null","<div style=""background-color: white; width: 100vw; height: 100vh;""></div>","null","","","","","","","","","",""
"","","","","","html-keyboard-response","59","142348","0.0-59.0","F1A8AA92975D4B689D4AB13B7B8AC7DE","019cf9a5-924c-77bf-838a-29377d7221f8","019cf974-7aee-7bc9-8ea4-9f55741b365d","","null","
                <div class=""stimulus-container"">
                    <img src=""images/causal_sequence/the_performance_causal/the_performance_causal_1.png"" class=""exp-image"">
                    <div class=""question-area""></div> 
                </div>","null","","","","","","","","","",""
"","","","","","html-button-response","60","143478","0.0-60.0","F1A8AA92975D4B689D4AB13B7B8AC7DE","019cf9a5-924c-77bf-838a-29377d7221f8","019cf974-7aee-7bc9-8ea4-9f55741b365d","","1129","
                <div class=""stimulus-container"">
                    <img src=""images/causal_sequence/the_performance_causal/the_performance_causal_1.png"" class=""exp-image"">
                    <div class=""question-area"">
                        <p style=""font-size: 20px; font-weight: bold; margin: 0;"">Is there a person in this image?</p>
                    </div>
                </div>","0","main_experiment_trial","1","the_performance_causal","causal_sequence","randomized","","","","",""
"","","","","","html-keyboard-response","61","144480","0.0-61.0","F1A8AA92975D4B689D4AB13B7B8AC7DE","019cf9a5-924c-77bf-838a-29377d7221f8","019cf974-7aee-7bc9-8ea4-9f55741b365d","","null","
                <div class=""stimulus-container"">
                    <img src=""images/causal_sequence/the_performance_causal/the_performance_causal_6.png"" class=""exp-image"">
                    <div class=""question-area""></div> 
                </div>","null","","","","","","","","","",""
"","","","","","html-button-response","62","145425","0.0-62.0","F1A8AA92975D4B689D4AB13B7B8AC7DE","019cf9a5-924c-77bf-838a-29377d7221f8","019cf974-7aee-7bc9-8ea4-9f55741b365d","","943","
                <div class=""stimulus-container"">
                    <img src=""images/causal_sequence/the_performance_causal/the_performance_causal_6.png"" class=""exp-image"">
                    <div class=""question-area"">
                        <p style=""font-size: 20px; font-weight: bold; margin: 0;"">Is there a person in this image?</p>
                    </div>
                </div>","0","main_experiment_trial","6","the_performance_causal","causal_sequence","randomized","","","","",""
"","","","","","html-keyboard-response","63","146427","0.0-63.0","F1A8AA92975D4B689D4AB13B7B8AC7DE","019cf9a5-924c-77bf-838a-29377d7221f8","019cf974-7aee-7bc9-8ea4-9f55741b365d","","null","
                <div class=""stimulus-container"">
                    <img src=""images/causal_sequence/the_performance_causal/the_performance_causal_7.png"" class=""exp-image"">
                    <div class=""question-area""></div> 
                </div>","null","","","","","","","","","",""
"","","","","","html-button-response","64","148317","0.0-64.0","F1A8AA92975D4B689D4AB13B7B8AC7DE","019cf9a5-924c-77bf-838a-29377d7221f8","019cf974-7aee-7bc9-8ea4-9f55741b365d","","1888","
                <div class=""stimulus-container"">
                    <img src=""images/causal_sequence/the_performance_causal/the_performance_causal_7.png"" class=""exp-image"">
                    <div class=""question-area"">
                        <p style=""font-size: 20px; font-weight: bold; margin: 0;"">Is there a person in this image?</p>
                    </div>
                </div>","0","main_experiment_trial","7","the_performance_causal","causal_sequence","randomized","","","","",""
"","","","","","html-keyboard-response","65","149328","0.0-65.0","F1A8AA92975D4B689D4AB13B7B8AC7DE","019cf9a5-924c-77bf-838a-29377d7221f8","019cf974-7aee-7bc9-8ea4-9f55741b365d","","null","
                <div class=""stimulus-container"">
                    <img src=""images/causal_sequence/the_performance_causal/the_performance_causal_3.png"" class=""exp-image"">
                    <div class=""question-area""></div> 
                </div>","null","","","","","","","","","",""
"","","","","","html-button-response","66","149964","0.0-66.0","F1A8AA92975D4B689D4AB13B7B8AC7DE","019cf9a5-924c-77bf-838a-29377d7221f8","019cf974-7aee-7bc9-8ea4-9f55741b365d","","634","
                <div class=""stimulus-container"">
                    <img src=""images/causal_sequence/the_performance_causal/the_performance_causal_3.png"" class=""exp-image"">
                    <div class=""question-area"">
                        <p style=""font-size: 20px; font-weight: bold; margin: 0;"">Is there a person in this image?</p>
                    </div>
                </div>","0","main_experiment_trial","3","the_performance_causal","causal_sequence","randomized","","","","",""
"","","","","","html-keyboard-response","67","150974","0.0-67.0","F1A8AA92975D4B689D4AB13B7B8AC7DE","019cf9a5-924c-77bf-838a-29377d7221f8","019cf974-7aee-7bc9-8ea4-9f55741b365d","","null","
                <div class=""stimulus-container"">
                    <img src=""images/causal_sequence/the_performance_causal/the_performance_causal_4.png"" class=""exp-image"">
                    <div class=""question-area""></div> 
                </div>","null","","","","","","","","","",""
"","","","","","html-button-response","68","152809","0.0-68.0","F1A8AA92975D4B689D4AB13B7B8AC7DE","019cf9a5-924c-77bf-838a-29377d7221f8","019cf974-7aee-7bc9-8ea4-9f55741b365d","","1834","
                <div class=""stimulus-container"">
                    <img src=""images/causal_sequence/the_performance_causal/the_performance_causal_4.png"" class=""exp-image"">
                    <div class=""question-area"">
                        <p style=""font-size: 20px; font-weight: bold; margin: 0;"">Is there a person in this image?</p>
                    </div>
                </div>","0","main_experiment_trial","4","the_performance_causal","causal_sequence","randomized","","","","",""
"","","","","","html-keyboard-response","69","153812","0.0-69.0","F1A8AA92975D4B689D4AB13B7B8AC7DE","019cf9a5-924c-77bf-838a-29377d7221f8","019cf974-7aee-7bc9-8ea4-9f55741b365d","","null","
                <div class=""stimulus-container"">
                    <img src=""images/causal_sequence/the_performance_causal/the_performance_causal_9.png"" class=""exp-image"">
                    <div class=""question-area""></div> 
                </div>","null","","","","","","","","","",""
"","","","","","html-button-response","70","154827","0.0-70.0","F1A8AA92975D4B689D4AB13B7B8AC7DE","019cf9a5-924c-77bf-838a-29377d7221f8","019cf974-7aee-7bc9-8ea4-9f55741b365d","","1014","
                <div class=""stimulus-container"">
                    <img src=""images/causal_sequence/the_performance_causal/the_performance_causal_9.png"" class=""exp-image"">
                    <div class=""question-area"">
                        <p style=""font-size: 20px; font-weight: bold; margin: 0;"">Is there a person in this image?</p>
                    </div>
                </div>","0","main_experiment_trial","9","the_performance_causal","causal_sequence","randomized","","","","",""
"","","","","","html-keyboard-response","71","155830","0.0-71.0","F1A8AA92975D4B689D4AB13B7B8AC7DE","019cf9a5-924c-77bf-838a-29377d7221f8","019cf974-7aee-7bc9-8ea4-9f55741b365d","","null","
                <div class=""stimulus-container"">
                    <img src=""images/causal_sequence/the_performance_causal/the_performance_causal_2.png"" class=""exp-image"">
                    <div class=""question-area""></div> 
                </div>","null","","","","","","","","","",""
"","","","","","html-button-response","72","156970","0.0-72.0","F1A8AA92975D4B689D4AB13B7B8AC7DE","019cf9a5-924c-77bf-838a-29377d7221f8","019cf974-7aee-7bc9-8ea4-9f55741b365d","","1138","
                <div class=""stimulus-container"">
                    <img src=""images/causal_sequence/the_performance_causal/the_performance_causal_2.png"" class=""exp-image"">
                    <div class=""question-area"">
                        <p style=""font-size: 20px; font-weight: bold; margin: 0;"">Is there a person in this image?</p>
                    </div>
                </div>","0","main_experiment_trial","2","the_performance_causal","causal_sequence","randomized","","","","",""
"","","","","","html-keyboard-response","73","157975","0.0-73.0","F1A8AA92975D4B689D4AB13B7B8AC7DE","019cf9a5-924c-77bf-838a-29377d7221f8","019cf974-7aee-7bc9-8ea4-9f55741b365d","","null","
                <div class=""stimulus-container"">
                    <img src=""images/causal_sequence/the_performance_causal/the_performance_causal_8.png"" class=""exp-image"">
                    <div class=""question-area""></div> 
                </div>","null","","","","","","","","","",""
"","","","","","html-button-response","74","158987","0.0-74.0","F1A8AA92975D4B689D4AB13B7B8AC7DE","019cf9a5-924c-77bf-838a-29377d7221f8","019cf974-7aee-7bc9-8ea4-9f55741b365d","","1011","
                <div class=""stimulus-container"">
                    <img src=""images/causal_sequence/the_performance_causal/the_performance_causal_8.png"" class=""exp-image"">
                    <div class=""question-area"">
                        <p style=""font-size: 20px; font-weight: bold; margin: 0;"">Is there a person in this image?</p>
                    </div>
                </div>","0","main_experiment_trial","8","the_performance_causal","causal_sequence","randomized","","","","",""
"","","","","","html-keyboard-response","75","159990","0.0-75.0","F1A8AA92975D4B689D4AB13B7B8AC7DE","019cf9a5-924c-77bf-838a-29377d7221f8","019cf974-7aee-7bc9-8ea4-9f55741b365d","","null","
                <div class=""stimulus-container"">
                    <img src=""images/causal_sequence/the_performance_causal/the_performance_causal_5.png"" class=""exp-image"">
                    <div class=""question-area""></div> 
                </div>","null","","","","","","","","","",""
"","","","","","html-button-response","76","160547","0.0-76.0","F1A8AA92975D4B689D4AB13B7B8AC7DE","019cf9a5-924c-77bf-838a-29377d7221f8","019cf974-7aee-7bc9-8ea4-9f55741b365d","","555","
                <div class=""stimulus-container"">
                    <img src=""images/causal_sequence/the_performance_causal/the_performance_causal_5.png"" class=""exp-image"">
                    <div class=""question-area"">
                        <p style=""font-size: 20px; font-weight: bold; margin: 0;"">Is there a person in this image?</p>
                    </div>
                </div>","0","main_experiment_trial","5","the_performance_causal","causal_sequence","randomized","","","","",""
"","","","","","html-keyboard-response","77","161552","0.0-77.0","F1A8AA92975D4B689D4AB13B7B8AC7DE","019cf9a5-924c-77bf-838a-29377d7221f8","019cf974-7aee-7bc9-8ea4-9f55741b365d","","null","
                <div class=""stimulus-container"">
                    <img src=""images/causal_sequence/the_performance_causal/the_performance_causal_ten.png"" class=""exp-image"">
                    <div class=""question-area""></div> 
                </div>","null","","","","","","","","","",""
"","","","","","html-button-response","78","162291","0.0-78.0","F1A8AA92975D4B689D4AB13B7B8AC7DE","019cf9a5-924c-77bf-838a-29377d7221f8","019cf974-7aee-7bc9-8ea4-9f55741b365d","","738","
                <div class=""stimulus-container"">
                    <img src=""images/causal_sequence/the_performance_causal/the_performance_causal_ten.png"" class=""exp-image"">
                    <div class=""question-area"">
                        <p style=""font-size: 20px; font-weight: bold; margin: 0;"">Is there a person in this image?</p>
                    </div>
                </div>","0","main_experiment_trial","ten","the_performance_causal","causal_sequence","randomized","","","","",""
"","","","","","html-keyboard-response","79","167294","0.0-79.0","F1A8AA92975D4B689D4AB13B7B8AC7DE","019cf9a5-924c-77bf-838a-29377d7221f8","019cf974-7aee-7bc9-8ea4-9f55741b365d","","null","<div style=""background-color: white; width: 100vw; height: 100vh;""></div>","null","","","","","","","","","",""
"","","","","","html-keyboard-response","80","168300","0.0-80.0","F1A8AA92975D4B689D4AB13B7B8AC7DE","019cf9a5-924c-77bf-838a-29377d7221f8","019cf974-7aee-7bc9-8ea4-9f55741b365d","","null","
                <div class=""stimulus-container"">
                    <img src=""images/causal_sequence/dog_causal/dog_causal_2.png"" class=""exp-image"">
                    <div class=""question-area""></div> 
                </div>","null","","","","","","","","","",""
"","","","","","html-button-response","81","169599","0.0-81.0","F1A8AA92975D4B689D4AB13B7B8AC7DE","019cf9a5-924c-77bf-838a-29377d7221f8","019cf974-7aee-7bc9-8ea4-9f55741b365d","","1298","
                <div class=""stimulus-container"">
                    <img src=""images/causal_sequence/dog_causal/dog_causal_2.png"" class=""exp-image"">
                    <div class=""question-area"">
                        <p style=""font-size: 20px; font-weight: bold; margin: 0;"">Is there a person in this image?</p>
                    </div>
                </div>","0","main_experiment_trial","2","dog_causal","causal_sequence","randomized","","","","",""
"","","","","","html-keyboard-response","82","170600","0.0-82.0","F1A8AA92975D4B689D4AB13B7B8AC7DE","019cf9a5-924c-77bf-838a-29377d7221f8","019cf974-7aee-7bc9-8ea4-9f55741b365d","","null","
                <div class=""stimulus-container"">
                    <img src=""images/causal_sequence/dog_causal/dog_causal_5.png"" class=""exp-image"">
                    <div class=""question-area""></div> 
                </div>","null","","","","","","","","","",""
"","","","","","html-button-response","83","171553","0.0-83.0","F1A8AA92975D4B689D4AB13B7B8AC7DE","019cf9a5-924c-77bf-838a-29377d7221f8","019cf974-7aee-7bc9-8ea4-9f55741b365d","","952","
                <div class=""stimulus-container"">
                    <img src=""images/causal_sequence/dog_causal/dog_causal_5.png"" class=""exp-image"">
                    <div class=""question-area"">
                        <p style=""font-size: 20px; font-weight: bold; margin: 0;"">Is there a person in this image?</p>
                    </div>
                </div>","0","main_experiment_trial","5","dog_causal","causal_sequence","randomized","","","","",""
"","","","","","html-keyboard-response","84","172559","0.0-84.0","F1A8AA92975D4B689D4AB13B7B8AC7DE","019cf9a5-924c-77bf-838a-29377d7221f8","019cf974-7aee-7bc9-8ea4-9f55741b365d","","null","
                <div class=""stimulus-container"">
                    <img src=""images/causal_sequence/dog_causal/dog_causal_4.png"" class=""exp-image"">
                    <div class=""question-area""></div> 
                </div>","null","","","","","","","","","",""
"","","","","","html-button-response","85","173466","0.0-85.0","F1A8AA92975D4B689D4AB13B7B8AC7DE","019cf9a5-924c-77bf-838a-29377d7221f8","019cf974-7aee-7bc9-8ea4-9f55741b365d","","905","
                <div class=""stimulus-container"">
                    <img src=""images/causal_sequence/dog_causal/dog_causal_4.png"" class=""exp-image"">
                    <div class=""question-area"">
                        <p style=""font-size: 20px; font-weight: bold; margin: 0;"">Is there a person in this image?</p>
                    </div>
                </div>","0","main_experiment_trial","4","dog_causal","causal_sequence","randomized","","","","",""
"","","","","","html-keyboard-response","86","174473","0.0-86.0","F1A8AA92975D4B689D4AB13B7B8AC7DE","019cf9a5-924c-77bf-838a-29377d7221f8","019cf974-7aee-7bc9-8ea4-9f55741b365d","","null","
                <div class=""stimulus-container"">
                    <img src=""images/causal_sequence/dog_causal/dog_causal_6.png"" class=""exp-image"">
                    <div class=""question-area""></div> 
                </div>","null","","","","","","","","","",""
"","","","","","html-button-response","87","174980","0.0-87.0","F1A8AA92975D4B689D4AB13B7B8AC7DE","019cf9a5-924c-77bf-838a-29377d7221f8","019cf974-7aee-7bc9-8ea4-9f55741b365d","","505","
                <div class=""stimulus-container"">
                    <img src=""images/causal_sequence/dog_causal/dog_causal_6.png"" class=""exp-image"">
                    <div class=""question-area"">
                        <p style=""font-size: 20px; font-weight: bold; margin: 0;"">Is there a person in this image?</p>
                    </div>
                </div>","0","main_experiment_trial","6","dog_causal","causal_sequence","randomized","","","","",""
"","","","","","html-keyboard-response","88","175993","0.0-88.0","F1A8AA92975D4B689D4AB13B7B8AC7DE","019cf9a5-924c-77bf-838a-29377d7221f8","019cf974-7aee-7bc9-8ea4-9f55741b365d","","null","
                <div class=""stimulus-container"">
                    <img src=""images/causal_sequence/dog_causal/dog_causal_9.png"" class=""exp-image"">
                    <div class=""question-area""></div> 
                </div>","null","","","","","","","","","",""
"","","","","","html-button-response","89","176629","0.0-89.0","F1A8AA92975D4B689D4AB13B7B8AC7DE","019cf9a5-924c-77bf-838a-29377d7221f8","019cf974-7aee-7bc9-8ea4-9f55741b365d","","634","
                <div class=""stimulus-container"">
                    <img src=""images/causal_sequence/dog_causal/dog_causal_9.png"" class=""exp-image"">
                    <div class=""question-area"">
                        <p style=""font-size: 20px; font-weight: bold; margin: 0;"">Is there a person in this image?</p>
                    </div>
                </div>","0","main_experiment_trial","9","dog_causal","causal_sequence","randomized","","","","",""
"","","","","","html-keyboard-response","90","177633","0.0-90.0","F1A8AA92975D4B689D4AB13B7B8AC7DE","019cf9a5-924c-77bf-838a-29377d7221f8","019cf974-7aee-7bc9-8ea4-9f55741b365d","","null","
                <div class=""stimulus-container"">
                    <img src=""images/causal_sequence/dog_causal/dog_causal_7.png"" class=""exp-image"">
                    <div class=""question-area""></div> 
                </div>","null","","","","","","","","","",""
"","","","","","html-button-response","91","178349","0.0-91.0","F1A8AA92975D4B689D4AB13B7B8AC7DE","019cf9a5-924c-77bf-838a-29377d7221f8","019cf974-7aee-7bc9-8ea4-9f55741b365d","","715","
                <div class=""stimulus-container"">
                    <img src=""images/causal_sequence/dog_causal/dog_causal_7.png"" class=""exp-image"">
                    <div class=""question-area"">
                        <p style=""font-size: 20px; font-weight: bold; margin: 0;"">Is there a person in this image?</p>
                    </div>
                </div>","0","main_experiment_trial","7","dog_causal","causal_sequence","randomized","","","","",""
"","","","","","html-keyboard-response","92","179360","0.0-92.0","F1A8AA92975D4B689D4AB13B7B8AC7DE","019cf9a5-924c-77bf-838a-29377d7221f8","019cf974-7aee-7bc9-8ea4-9f55741b365d","","null","
                <div class=""stimulus-container"">
                    <img src=""images/causal_sequence/dog_causal/dog_causal_3.png"" class=""exp-image"">
                    <div class=""question-area""></div> 
                </div>","null","","","","","","","","","",""
"","","","","","html-button-response","93","180670","0.0-93.0","F1A8AA92975D4B689D4AB13B7B8AC7DE","019cf9a5-924c-77bf-838a-29377d7221f8","019cf974-7aee-7bc9-8ea4-9f55741b365d","","1308","
                <div class=""stimulus-container"">
                    <img src=""images/causal_sequence/dog_causal/dog_causal_3.png"" class=""exp-image"">
                    <div class=""question-area"">
                        <p style=""font-size: 20px; font-weight: bold; margin: 0;"">Is there a person in this image?</p>
                    </div>
                </div>","0","main_experiment_trial","3","dog_causal","causal_sequence","randomized","","","","",""
"","","","","","html-keyboard-response","94","181673","0.0-94.0","F1A8AA92975D4B689D4AB13B7B8AC7DE","019cf9a5-924c-77bf-838a-29377d7221f8","019cf974-7aee-7bc9-8ea4-9f55741b365d","","null","
                <div class=""stimulus-container"">
                    <img src=""images/causal_sequence/dog_causal/dog_causal_8.png"" class=""exp-image"">
                    <div class=""question-area""></div> 
                </div>","null","","","","","","","","","",""
"","","","","","html-button-response","95","182940","0.0-95.0","F1A8AA92975D4B689D4AB13B7B8AC7DE","019cf9a5-924c-77bf-838a-29377d7221f8","019cf974-7aee-7bc9-8ea4-9f55741b365d","","1266","
                <div class=""stimulus-container"">
                    <img src=""images/causal_sequence/dog_causal/dog_causal_8.png"" class=""exp-image"">
                    <div class=""question-area"">
                        <p style=""font-size: 20px; font-weight: bold; margin: 0;"">Is there a person in this image?</p>
                    </div>
                </div>","0","main_experiment_trial","8","dog_causal","causal_sequence","randomized","","","","",""
"","","","","","html-keyboard-response","96","183953","0.0-96.0","F1A8AA92975D4B689D4AB13B7B8AC7DE","019cf9a5-924c-77bf-838a-29377d7221f8","019cf974-7aee-7bc9-8ea4-9f55741b365d","","null","
                <div class=""stimulus-container"">
                    <img src=""images/causal_sequence/dog_causal/dog_causal_1.png"" class=""exp-image"">
                    <div class=""question-area""></div> 
                </div>","null","","","","","","","","","",""
"","","","","","html-button-response","97","184838","0.0-97.0","F1A8AA92975D4B689D4AB13B7B8AC7DE","019cf9a5-924c-77bf-838a-29377d7221f8","019cf974-7aee-7bc9-8ea4-9f55741b365d","","884","
                <div class=""stimulus-container"">
                    <img src=""images/causal_sequence/dog_causal/dog_causal_1.png"" class=""exp-image"">
                    <div class=""question-area"">
                        <p style=""font-size: 20px; font-weight: bold; margin: 0;"">Is there a person in this image?</p>
                    </div>
                </div>","0","main_experiment_trial","1","dog_causal","causal_sequence","randomized","","","","",""
"","","","","","html-keyboard-response","98","185841","0.0-98.0","F1A8AA92975D4B689D4AB13B7B8AC7DE","019cf9a5-924c-77bf-838a-29377d7221f8","019cf974-7aee-7bc9-8ea4-9f55741b365d","","null","
                <div class=""stimulus-container"">
                    <img src=""images/causal_sequence/dog_causal/dog_causal_ten.png"" class=""exp-image"">
                    <div class=""question-area""></div> 
                </div>","null","","","","","","","","","",""
"","","","","","html-button-response","99","186533","0.0-99.0","F1A8AA92975D4B689D4AB13B7B8AC7DE","019cf9a5-924c-77bf-838a-29377d7221f8","019cf974-7aee-7bc9-8ea4-9f55741b365d","","691","
                <div class=""stimulus-container"">
                    <img src=""images/causal_sequence/dog_causal/dog_causal_ten.png"" class=""exp-image"">
                    <div class=""question-area"">
                        <p style=""font-size: 20px; font-weight: bold; margin: 0;"">Is there a person in this image?</p>
                    </div>
                </div>","0","main_experiment_trial","ten","dog_causal","causal_sequence","randomized","","","","",""
"","","","","","html-keyboard-response","100","191540","0.0-100.0","F1A8AA92975D4B689D4AB13B7B8AC7DE","019cf9a5-924c-77bf-838a-29377d7221f8","019cf974-7aee-7bc9-8ea4-9f55741b365d","","null","<div style=""background-color: white; width: 100vw; height: 100vh;""></div>","null","","","","","","","","","",""
"","","","","","html-keyboard-response","101","192552","0.0-101.0","F1A8AA92975D4B689D4AB13B7B8AC7DE","019cf9a5-924c-77bf-838a-29377d7221f8","019cf974-7aee-7bc9-8ea4-9f55741b365d","","null","
                <div class=""stimulus-container"">
                    <img src=""images/causal_sequence/coin_causal/coin_causal_3.png"" class=""exp-image"">
                    <div class=""question-area""></div> 
                </div>","null","","","","","","","","","",""
"","","","","","html-button-response","102","194044","0.0-102.0","F1A8AA92975D4B689D4AB13B7B8AC7DE","019cf9a5-924c-77bf-838a-29377d7221f8","019cf974-7aee-7bc9-8ea4-9f55741b365d","","1491","
                <div class=""stimulus-container"">
                    <img src=""images/causal_sequence/coin_causal/coin_causal_3.png"" class=""exp-image"">
                    <div class=""question-area"">
                        <p style=""font-size: 20px; font-weight: bold; margin: 0;"">Is there a person in this image?</p>
                    </div>
                </div>","0","main_experiment_trial","3","coin_causal","causal_sequence","randomized","","","","",""
"","","","","","html-keyboard-response","103","195050","0.0-103.0","F1A8AA92975D4B689D4AB13B7B8AC7DE","019cf9a5-924c-77bf-838a-29377d7221f8","019cf974-7aee-7bc9-8ea4-9f55741b365d","","null","
                <div class=""stimulus-container"">
                    <img src=""images/causal_sequence/coin_causal/coin_causal_4.png"" class=""exp-image"">
                    <div class=""question-area""></div> 
                </div>","null","","","","","","","","","",""
"","","","","","html-button-response","104","195808","0.0-104.0","F1A8AA92975D4B689D4AB13B7B8AC7DE","019cf9a5-924c-77bf-838a-29377d7221f8","019cf974-7aee-7bc9-8ea4-9f55741b365d","","757","
                <div class=""stimulus-container"">
                    <img src=""images/causal_sequence/coin_causal/coin_causal_4.png"" class=""exp-image"">
                    <div class=""question-area"">
                        <p style=""font-size: 20px; font-weight: bold; margin: 0;"">Is there a person in this image?</p>
                    </div>
                </div>","0","main_experiment_trial","4","coin_causal","causal_sequence","randomized","","","","",""
"","","","","","html-keyboard-response","105","196810","0.0-105.0","F1A8AA92975D4B689D4AB13B7B8AC7DE","019cf9a5-924c-77bf-838a-29377d7221f8","019cf974-7aee-7bc9-8ea4-9f55741b365d","","null","
                <div class=""stimulus-container"">
                    <img src=""images/causal_sequence/coin_causal/coin_causal_7.png"" class=""exp-image"">
                    <div class=""question-area""></div> 
                </div>","null","","","","","","","","","",""
"","","","","","html-button-response","106","199061","0.0-106.0","F1A8AA92975D4B689D4AB13B7B8AC7DE","019cf9a5-924c-77bf-838a-29377d7221f8","019cf974-7aee-7bc9-8ea4-9f55741b365d","","2250","
                <div class=""stimulus-container"">
                    <img src=""images/causal_sequence/coin_causal/coin_causal_7.png"" class=""exp-image"">
                    <div class=""question-area"">
                        <p style=""font-size: 20px; font-weight: bold; margin: 0;"">Is there a person in this image?</p>
                    </div>
                </div>","1","main_experiment_trial","7","coin_causal","causal_sequence","randomized","","","","",""
"","","","","","html-keyboard-response","107","200069","0.0-107.0","F1A8AA92975D4B689D4AB13B7B8AC7DE","019cf9a5-924c-77bf-838a-29377d7221f8","019cf974-7aee-7bc9-8ea4-9f55741b365d","","null","
                <div class=""stimulus-container"">
                    <img src=""images/causal_sequence/coin_causal/coin_causal_2.png"" class=""exp-image"">
                    <div class=""question-area""></div> 
                </div>","null","","","","","","","","","",""
"","","","","","html-button-response","108","201289","0.0-108.0","F1A8AA92975D4B689D4AB13B7B8AC7DE","019cf9a5-924c-77bf-838a-29377d7221f8","019cf974-7aee-7bc9-8ea4-9f55741b365d","","1218","
                <div class=""stimulus-container"">
                    <img src=""images/causal_sequence/coin_causal/coin_causal_2.png"" class=""exp-image"">
                    <div class=""question-area"">
                        <p style=""font-size: 20px; font-weight: bold; margin: 0;"">Is there a person in this image?</p>
                    </div>
                </div>","0","main_experiment_trial","2","coin_causal","causal_sequence","randomized","","","","",""
"","","","","","html-keyboard-response","109","202295","0.0-109.0","F1A8AA92975D4B689D4AB13B7B8AC7DE","019cf9a5-924c-77bf-838a-29377d7221f8","019cf974-7aee-7bc9-8ea4-9f55741b365d","","null","
                <div class=""stimulus-container"">
                    <img src=""images/causal_sequence/coin_causal/coin_causal_9.png"" class=""exp-image"">
                    <div class=""question-area""></div> 
                </div>","null","","","","","","","","","",""
"","","","","","html-button-response","110","203545","0.0-110.0","F1A8AA92975D4B689D4AB13B7B8AC7DE","019cf9a5-924c-77bf-838a-29377d7221f8","019cf974-7aee-7bc9-8ea4-9f55741b365d","","1249","
                <div class=""stimulus-container"">
                    <img src=""images/causal_sequence/coin_causal/coin_causal_9.png"" class=""exp-image"">
                    <div class=""question-area"">
                        <p style=""font-size: 20px; font-weight: bold; margin: 0;"">Is there a person in this image?</p>
                    </div>
                </div>","0","main_experiment_trial","9","coin_causal","causal_sequence","randomized","","","","",""
"","","","","","html-keyboard-response","111","204546","0.0-111.0","F1A8AA92975D4B689D4AB13B7B8AC7DE","019cf9a5-924c-77bf-838a-29377d7221f8","019cf974-7aee-7bc9-8ea4-9f55741b365d","","null","
                <div class=""stimulus-container"">
                    <img src=""images/causal_sequence/coin_causal/coin_causal_ten.png"" class=""exp-image"">
                    <div class=""question-area""></div> 
                </div>","null","","","","","","","","","",""
"","","","","","html-button-response","112","207092","0.0-112.0","F1A8AA92975D4B689D4AB13B7B8AC7DE","019cf9a5-924c-77bf-838a-29377d7221f8","019cf974-7aee-7bc9-8ea4-9f55741b365d","","2545","
                <div class=""stimulus-container"">
                    <img src=""images/causal_sequence/coin_causal/coin_causal_ten.png"" class=""exp-image"">
                    <div class=""question-area"">
                        <p style=""font-size: 20px; font-weight: bold; margin: 0;"">Is there a person in this image?</p>
                    </div>
                </div>","0","main_experiment_trial","ten","coin_causal","causal_sequence","randomized","","","","",""
"","","","","","html-keyboard-response","113","208094","0.0-113.0","F1A8AA92975D4B689D4AB13B7B8AC7DE","019cf9a5-924c-77bf-838a-29377d7221f8","019cf974-7aee-7bc9-8ea4-9f55741b365d","","null","
                <div class=""stimulus-container"">
                    <img src=""images/causal_sequence/coin_causal/coin_causal_5.png"" class=""exp-image"">
                    <div class=""question-area""></div> 
                </div>","null","","","","","","","","","",""
"","","","","","html-button-response","114","208823","0.0-114.0","F1A8AA92975D4B689D4AB13B7B8AC7DE","019cf9a5-924c-77bf-838a-29377d7221f8","019cf974-7aee-7bc9-8ea4-9f55741b365d","","729","
                <div class=""stimulus-container"">
                    <img src=""images/causal_sequence/coin_causal/coin_causal_5.png"" class=""exp-image"">
                    <div class=""question-area"">
                        <p style=""font-size: 20px; font-weight: bold; margin: 0;"">Is there a person in this image?</p>
                    </div>
                </div>","0","main_experiment_trial","5","coin_causal","causal_sequence","randomized","","","","",""
"","","","","","html-keyboard-response","115","209824","0.0-115.0","F1A8AA92975D4B689D4AB13B7B8AC7DE","019cf9a5-924c-77bf-838a-29377d7221f8","019cf974-7aee-7bc9-8ea4-9f55741b365d","","null","
                <div class=""stimulus-container"">
                    <img src=""images/causal_sequence/coin_causal/coin_causal_6.png"" class=""exp-image"">
                    <div class=""question-area""></div> 
                </div>","null","","","","","","","","","",""
"","","","","","html-button-response","116","211761","0.0-116.0","F1A8AA92975D4B689D4AB13B7B8AC7DE","019cf9a5-924c-77bf-838a-29377d7221f8","019cf974-7aee-7bc9-8ea4-9f55741b365d","","1936","
                <div class=""stimulus-container"">
                    <img src=""images/causal_sequence/coin_causal/coin_causal_6.png"" class=""exp-image"">
                    <div class=""question-area"">
                        <p style=""font-size: 20px; font-weight: bold; margin: 0;"">Is there a person in this image?</p>
                    </div>
                </div>","0","main_experiment_trial","6","coin_causal","causal_sequence","randomized","","","","",""
"","","","","","html-keyboard-response","117","212777","0.0-117.0","F1A8AA92975D4B689D4AB13B7B8AC7DE","019cf9a5-924c-77bf-838a-29377d7221f8","019cf974-7aee-7bc9-8ea4-9f55741b365d","","null","
                <div class=""stimulus-container"">
                    <img src=""images/causal_sequence/coin_causal/coin_causal_8.png"" class=""exp-image"">
                    <div class=""question-area""></div> 
                </div>","null","","","","","","","","","",""
"","","","","","html-button-response","118","214036","0.0-118.0","F1A8AA92975D4B689D4AB13B7B8AC7DE","019cf9a5-924c-77bf-838a-29377d7221f8","019cf974-7aee-7bc9-8ea4-9f55741b365d","","1257","
                <div class=""stimulus-container"">
                    <img src=""images/causal_sequence/coin_causal/coin_causal_8.png"" class=""exp-image"">
                    <div class=""question-area"">
                        <p style=""font-size: 20px; font-weight: bold; margin: 0;"">Is there a person in this image?</p>
                    </div>
                </div>","0","main_experiment_trial","8","coin_causal","causal_sequence","randomized","","","","",""
"","","","","","html-keyboard-response","119","215037","0.0-119.0","F1A8AA92975D4B689D4AB13B7B8AC7DE","019cf9a5-924c-77bf-838a-29377d7221f8","019cf974-7aee-7bc9-8ea4-9f55741b365d","","null","
                <div class=""stimulus-container"">
                    <img src=""images/causal_sequence/coin_causal/coin_causal_1.png"" class=""exp-image"">
                    <div class=""question-area""></div> 
                </div>","null","","","","","","","","","",""
"","","","","","html-button-response","120","215740","0.0-120.0","F1A8AA92975D4B689D4AB13B7B8AC7DE","019cf9a5-924c-77bf-838a-29377d7221f8","019cf974-7aee-7bc9-8ea4-9f55741b365d","","703","
                <div class=""stimulus-container"">
                    <img src=""images/causal_sequence/coin_causal/coin_causal_1.png"" class=""exp-image"">
                    <div class=""question-area"">
                        <p style=""font-size: 20px; font-weight: bold; margin: 0;"">Is there a person in this image?</p>
                    </div>
                </div>","0","main_experiment_trial","1","coin_causal","causal_sequence","randomized","","","","",""
"","","","","","html-keyboard-response","121","220745","0.0-121.0","F1A8AA92975D4B689D4AB13B7B8AC7DE","019cf9a5-924c-77bf-838a-29377d7221f8","019cf974-7aee-7bc9-8ea4-9f55741b365d","","null","<div style=""background-color: white; width: 100vw; height: 100vh;""></div>","null","","","","","","","","","",""
"","","","","","html-keyboard-response","122","221756","0.0-122.0","F1A8AA92975D4B689D4AB13B7B8AC7DE","019cf9a5-924c-77bf-838a-29377d7221f8","019cf974-7aee-7bc9-8ea4-9f55741b365d","","null","
                <div class=""stimulus-container"">
                    <img src=""images/causal_sequence/museum_causal/museum_causal_6.png"" class=""exp-image"">
                    <div class=""question-area""></div> 
                </div>","null","","","","","","","","","",""
"","","","","","html-button-response","123","222431","0.0-123.0","F1A8AA92975D4B689D4AB13B7B8AC7DE","019cf9a5-924c-77bf-838a-29377d7221f8","019cf974-7aee-7bc9-8ea4-9f55741b365d","","675","
                <div class=""stimulus-container"">
                    <img src=""images/causal_sequence/museum_causal/museum_causal_6.png"" class=""exp-image"">
                    <div class=""question-area"">
                        <p style=""font-size: 20px; font-weight: bold; margin: 0;"">Is there a person in this image?</p>
                    </div>
                </div>","0","main_experiment_trial","6","museum_causal","causal_sequence","randomized","","","","",""
"","","","","","html-keyboard-response","124","223445","0.0-124.0","F1A8AA92975D4B689D4AB13B7B8AC7DE","019cf9a5-924c-77bf-838a-29377d7221f8","019cf974-7aee-7bc9-8ea4-9f55741b365d","","null","
                <div class=""stimulus-container"">
                    <img src=""images/causal_sequence/museum_causal/museum_causal_7.png"" class=""exp-image"">
                    <div class=""question-area""></div> 
                </div>","null","","","","","","","","","",""
"","","","","","html-button-response","125","224307","0.0-125.0","F1A8AA92975D4B689D4AB13B7B8AC7DE","019cf9a5-924c-77bf-838a-29377d7221f8","019cf974-7aee-7bc9-8ea4-9f55741b365d","","860","
                <div class=""stimulus-container"">
                    <img src=""images/causal_sequence/museum_causal/museum_causal_7.png"" class=""exp-image"">
                    <div class=""question-area"">
                        <p style=""font-size: 20px; font-weight: bold; margin: 0;"">Is there a person in this image?</p>
                    </div>
                </div>","1","main_experiment_trial","7","museum_causal","causal_sequence","randomized","","","","",""
"","","","","","html-keyboard-response","126","225310","0.0-126.0","F1A8AA92975D4B689D4AB13B7B8AC7DE","019cf9a5-924c-77bf-838a-29377d7221f8","019cf974-7aee-7bc9-8ea4-9f55741b365d","","null","
                <div class=""stimulus-container"">
                    <img src=""images/causal_sequence/museum_causal/museum_causal_2.png"" class=""exp-image"">
                    <div class=""question-area""></div> 
                </div>","null","","","","","","","","","",""
"","","","","","html-button-response","127","226791","0.0-127.0","F1A8AA92975D4B689D4AB13B7B8AC7DE","019cf9a5-924c-77bf-838a-29377d7221f8","019cf974-7aee-7bc9-8ea4-9f55741b365d","","1481","
                <div class=""stimulus-container"">
                    <img src=""images/causal_sequence/museum_causal/museum_causal_2.png"" class=""exp-image"">
                    <div class=""question-area"">
                        <p style=""font-size: 20px; font-weight: bold; margin: 0;"">Is there a person in this image?</p>
                    </div>
                </div>","1","main_experiment_trial","2","museum_causal","causal_sequence","randomized","","","","",""
"","","","","","html-keyboard-response","128","227794","0.0-128.0","F1A8AA92975D4B689D4AB13B7B8AC7DE","019cf9a5-924c-77bf-838a-29377d7221f8","019cf974-7aee-7bc9-8ea4-9f55741b365d","","null","
                <div class=""stimulus-container"">
                    <img src=""images/causal_sequence/museum_causal/museum_causal_3.png"" class=""exp-image"">
                    <div class=""question-area""></div> 
                </div>","null","","","","","","","","","",""
"","","","","","html-button-response","129","228658","0.0-129.0","F1A8AA92975D4B689D4AB13B7B8AC7DE","019cf9a5-924c-77bf-838a-29377d7221f8","019cf974-7aee-7bc9-8ea4-9f55741b365d","","863","
                <div class=""stimulus-container"">
                    <img src=""images/causal_sequence/museum_causal/museum_causal_3.png"" class=""exp-image"">
                    <div class=""question-area"">
                        <p style=""font-size: 20px; font-weight: bold; margin: 0;"">Is there a person in this image?</p>
                    </div>
                </div>","0","main_experiment_trial","3","museum_causal","causal_sequence","randomized","","","","",""
"","","","","","html-keyboard-response","130","229664","0.0-130.0","F1A8AA92975D4B689D4AB13B7B8AC7DE","019cf9a5-924c-77bf-838a-29377d7221f8","019cf974-7aee-7bc9-8ea4-9f55741b365d","","null","
                <div class=""stimulus-container"">
                    <img src=""images/causal_sequence/museum_causal/museum_causal_8.png"" class=""exp-image"">
                    <div class=""question-area""></div> 
                </div>","null","","","","","","","","","",""
"","","","","","html-button-response","131","230470","0.0-131.0","F1A8AA92975D4B689D4AB13B7B8AC7DE","019cf9a5-924c-77bf-838a-29377d7221f8","019cf974-7aee-7bc9-8ea4-9f55741b365d","","805","
                <div class=""stimulus-container"">
                    <img src=""images/causal_sequence/museum_causal/museum_causal_8.png"" class=""exp-image"">
                    <div class=""question-area"">
                        <p style=""font-size: 20px; font-weight: bold; margin: 0;"">Is there a person in this image?</p>
                    </div>
                </div>","0","main_experiment_trial","8","museum_causal","causal_sequence","randomized","","","","",""
"","","","","","html-keyboard-response","132","231483","0.0-132.0","F1A8AA92975D4B689D4AB13B7B8AC7DE","019cf9a5-924c-77bf-838a-29377d7221f8","019cf974-7aee-7bc9-8ea4-9f55741b365d","","null","
                <div class=""stimulus-container"">
                    <img src=""images/causal_sequence/museum_causal/museum_causal_1.png"" class=""exp-image"">
                    <div class=""question-area""></div> 
                </div>","null","","","","","","","","","",""
"","","","","","html-button-response","133","232296","0.0-133.0","F1A8AA92975D4B689D4AB13B7B8AC7DE","019cf9a5-924c-77bf-838a-29377d7221f8","019cf974-7aee-7bc9-8ea4-9f55741b365d","","812","
                <div class=""stimulus-container"">
                    <img src=""images/causal_sequence/museum_causal/museum_causal_1.png"" class=""exp-image"">
                    <div class=""question-area"">
                        <p style=""font-size: 20px; font-weight: bold; margin: 0;"">Is there a person in this image?</p>
                    </div>
                </div>","0","main_experiment_trial","1","museum_causal","causal_sequence","randomized","","","","",""
"","","","","","html-keyboard-response","134","233299","0.0-134.0","F1A8AA92975D4B689D4AB13B7B8AC7DE","019cf9a5-924c-77bf-838a-29377d7221f8","019cf974-7aee-7bc9-8ea4-9f55741b365d","","null","
                <div class=""stimulus-container"">
                    <img src=""images/causal_sequence/museum_causal/museum_causal_4.png"" class=""exp-image"">
                    <div class=""question-area""></div> 
                </div>","null","","","","","","","","","",""
"","","","","","html-button-response","135","233934","0.0-135.0","F1A8AA92975D4B689D4AB13B7B8AC7DE","019cf9a5-924c-77bf-838a-29377d7221f8","019cf974-7aee-7bc9-8ea4-9f55741b365d","","634","
                <div class=""stimulus-container"">
                    <img src=""images/causal_sequence/museum_causal/museum_causal_4.png"" class=""exp-image"">
                    <div class=""question-area"">
                        <p style=""font-size: 20px; font-weight: bold; margin: 0;"">Is there a person in this image?</p>
                    </div>
                </div>","1","main_experiment_trial","4","museum_causal","causal_sequence","randomized","","","","",""
"","","","","","html-keyboard-response","136","234935","0.0-136.0","F1A8AA92975D4B689D4AB13B7B8AC7DE","019cf9a5-924c-77bf-838a-29377d7221f8","019cf974-7aee-7bc9-8ea4-9f55741b365d","","null","
                <div class=""stimulus-container"">
                    <img src=""images/causal_sequence/museum_causal/museum_causal_9.png"" class=""exp-image"">
                    <div class=""question-area""></div> 
                </div>","null","","","","","","","","","",""
"","","","","","html-button-response","137","235454","0.0-137.0","F1A8AA92975D4B689D4AB13B7B8AC7DE","019cf9a5-924c-77bf-838a-29377d7221f8","019cf974-7aee-7bc9-8ea4-9f55741b365d","","519","
                <div class=""stimulus-container"">
                    <img src=""images/causal_sequence/museum_causal/museum_causal_9.png"" class=""exp-image"">
                    <div class=""question-area"">
                        <p style=""font-size: 20px; font-weight: bold; margin: 0;"">Is there a person in this image?</p>
                    </div>
                </div>","1","main_experiment_trial","9","museum_causal","causal_sequence","randomized","","","","",""
"","","","","","html-keyboard-response","138","236455","0.0-138.0","F1A8AA92975D4B689D4AB13B7B8AC7DE","019cf9a5-924c-77bf-838a-29377d7221f8","019cf974-7aee-7bc9-8ea4-9f55741b365d","","null","
                <div class=""stimulus-container"">
                    <img src=""images/causal_sequence/museum_causal/museum_causal_ten.png"" class=""exp-image"">
                    <div class=""question-area""></div> 
                </div>","null","","","","","","","","","",""
"","","","","","html-button-response","139","236822","0.0-139.0","F1A8AA92975D4B689D4AB13B7B8AC7DE","019cf9a5-924c-77bf-838a-29377d7221f8","019cf974-7aee-7bc9-8ea4-9f55741b365d","","366","
                <div class=""stimulus-container"">
                    <img src=""images/causal_sequence/museum_causal/museum_causal_ten.png"" class=""exp-image"">
                    <div class=""question-area"">
                        <p style=""font-size: 20px; font-weight: bold; margin: 0;"">Is there a person in this image?</p>
                    </div>
                </div>","0","main_experiment_trial","ten","museum_causal","causal_sequence","randomized","","","","",""
"","","","","","html-keyboard-response","140","237838","0.0-140.0","F1A8AA92975D4B689D4AB13B7B8AC7DE","019cf9a5-924c-77bf-838a-29377d7221f8","019cf974-7aee-7bc9-8ea4-9f55741b365d","","null","
                <div class=""stimulus-container"">
                    <img src=""images/causal_sequence/museum_causal/museum_causal_5.png"" class=""exp-image"">
                    <div class=""question-area""></div> 
                </div>","null","","","","","","","","","",""
"","","","","","html-button-response","141","238530","0.0-141.0","F1A8AA92975D4B689D4AB13B7B8AC7DE","019cf9a5-924c-77bf-838a-29377d7221f8","019cf974-7aee-7bc9-8ea4-9f55741b365d","","691","
                <div class=""stimulus-container"">
                    <img src=""images/causal_sequence/museum_causal/museum_causal_5.png"" class=""exp-image"">
                    <div class=""question-area"">
                        <p style=""font-size: 20px; font-weight: bold; margin: 0;"">Is there a person in this image?</p>
                    </div>
                </div>","0","main_experiment_trial","5","museum_causal","causal_sequence","randomized","","","","",""
"","","","","","html-keyboard-response","142","243534","0.0-142.0","F1A8AA92975D4B689D4AB13B7B8AC7DE","019cf9a5-924c-77bf-838a-29377d7221f8","019cf974-7aee-7bc9-8ea4-9f55741b365d","","null","<div style=""background-color: white; width: 100vw; height: 100vh;""></div>","null","","","","","","","","","",""
"","","","","","html-keyboard-response","143","244539","0.0-143.0","F1A8AA92975D4B689D4AB13B7B8AC7DE","019cf9a5-924c-77bf-838a-29377d7221f8","019cf974-7aee-7bc9-8ea4-9f55741b365d","","null","
                <div class=""stimulus-container"">
                    <img src=""images/semantic_sequence/exploring_nature_semantic/exploring_nature_semantic_ten.png"" class=""exp-image"">
                    <div class=""question-area""></div> 
                </div>","null","","","","","","","","","",""
"","","","","","html-button-response","144","245000","0.0-144.0","F1A8AA92975D4B689D4AB13B7B8AC7DE","019cf9a5-924c-77bf-838a-29377d7221f8","019cf974-7aee-7bc9-8ea4-9f55741b365d","","460","
                <div class=""stimulus-container"">
                    <img src=""images/semantic_sequence/exploring_nature_semantic/exploring_nature_semantic_ten.png"" class=""exp-image"">
                    <div class=""question-area"">
                        <p style=""font-size: 20px; font-weight: bold; margin: 0;"">Is there a person in this image?</p>
                    </div>
                </div>","0","main_experiment_trial","ten","exploring_nature_semantic","semantic_sequence","randomized","","","","",""
"","","","","","html-keyboard-response","145","246001","0.0-145.0","F1A8AA92975D4B689D4AB13B7B8AC7DE","019cf9a5-924c-77bf-838a-29377d7221f8","019cf974-7aee-7bc9-8ea4-9f55741b365d","","null","
                <div class=""stimulus-container"">
                    <img src=""images/semantic_sequence/exploring_nature_semantic/exploring_nature_semantic_6.png"" class=""exp-image"">
                    <div class=""question-area""></div> 
                </div>","null","","","","","","","","","",""
"","","","","","html-button-response","146","246387","0.0-146.0","F1A8AA92975D4B689D4AB13B7B8AC7DE","019cf9a5-924c-77bf-838a-29377d7221f8","019cf974-7aee-7bc9-8ea4-9f55741b365d","","386","
                <div class=""stimulus-container"">
                    <img src=""images/semantic_sequence/exploring_nature_semantic/exploring_nature_semantic_6.png"" class=""exp-image"">
                    <div class=""question-area"">
                        <p style=""font-size: 20px; font-weight: bold; margin: 0;"">Is there a person in this image?</p>
                    </div>
                </div>","0","main_experiment_trial","6","exploring_nature_semantic","semantic_sequence","randomized","","","","",""
"","","","","","html-keyboard-response","147","247397","0.0-147.0","F1A8AA92975D4B689D4AB13B7B8AC7DE","019cf9a5-924c-77bf-838a-29377d7221f8","019cf974-7aee-7bc9-8ea4-9f55741b365d","","null","
                <div class=""stimulus-container"">
                    <img src=""images/semantic_sequence/exploring_nature_semantic/exploring_nature_semantic_7.png"" class=""exp-image"">
                    <div class=""question-area""></div> 
                </div>","null","","","","","","","","","",""
"","","","","","html-button-response","148","247713","0.0-148.0","F1A8AA92975D4B689D4AB13B7B8AC7DE","019cf9a5-924c-77bf-838a-29377d7221f8","019cf974-7aee-7bc9-8ea4-9f55741b365d","","315","
                <div class=""stimulus-container"">
                    <img src=""images/semantic_sequence/exploring_nature_semantic/exploring_nature_semantic_7.png"" class=""exp-image"">
                    <div class=""question-area"">
                        <p style=""font-size: 20px; font-weight: bold; margin: 0;"">Is there a person in this image?</p>
                    </div>
                </div>","0","main_experiment_trial","7","exploring_nature_semantic","semantic_sequence","randomized","","","","",""
"","","","","","html-keyboard-response","149","248718","0.0-149.0","F1A8AA92975D4B689D4AB13B7B8AC7DE","019cf9a5-924c-77bf-838a-29377d7221f8","019cf974-7aee-7bc9-8ea4-9f55741b365d","","null","
                <div class=""stimulus-container"">
                    <img src=""images/semantic_sequence/exploring_nature_semantic/exploring_nature_semantic_1.png"" class=""exp-image"">
                    <div class=""question-area""></div> 
                </div>","null","","","","","","","","","",""
"","","","","","html-button-response","150","249037","0.0-150.0","F1A8AA92975D4B689D4AB13B7B8AC7DE","019cf9a5-924c-77bf-838a-29377d7221f8","019cf974-7aee-7bc9-8ea4-9f55741b365d","","318","
                <div class=""stimulus-container"">
                    <img src=""images/semantic_sequence/exploring_nature_semantic/exploring_nature_semantic_1.png"" class=""exp-image"">
                    <div class=""question-area"">
                        <p style=""font-size: 20px; font-weight: bold; margin: 0;"">Is there a person in this image?</p>
                    </div>
                </div>","0","main_experiment_trial","1","exploring_nature_semantic","semantic_sequence","randomized","","","","",""
"","","","","","html-keyboard-response","151","250051","0.0-151.0","F1A8AA92975D4B689D4AB13B7B8AC7DE","019cf9a5-924c-77bf-838a-29377d7221f8","019cf974-7aee-7bc9-8ea4-9f55741b365d","","null","
                <div class=""stimulus-container"">
                    <img src=""images/semantic_sequence/exploring_nature_semantic/exploring_nature_semantic_2.png"" class=""exp-image"">
                    <div class=""question-area""></div> 
                </div>","null","","","","","","","","","",""
"","","","","","html-button-response","152","250370","0.0-152.0","F1A8AA92975D4B689D4AB13B7B8AC7DE","019cf9a5-924c-77bf-838a-29377d7221f8","019cf974-7aee-7bc9-8ea4-9f55741b365d","","317","
                <div class=""stimulus-container"">
                    <img src=""images/semantic_sequence/exploring_nature_semantic/exploring_nature_semantic_2.png"" class=""exp-image"">
                    <div class=""question-area"">
                        <p style=""font-size: 20px; font-weight: bold; margin: 0;"">Is there a person in this image?</p>
                    </div>
                </div>","0","main_experiment_trial","2","exploring_nature_semantic","semantic_sequence","randomized","","","","",""
"","","","","","html-keyboard-response","153","251372","0.0-153.0","F1A8AA92975D4B689D4AB13B7B8AC7DE","019cf9a5-924c-77bf-838a-29377d7221f8","019cf974-7aee-7bc9-8ea4-9f55741b365d","","null","
                <div class=""stimulus-container"">
                    <img src=""images/semantic_sequence/exploring_nature_semantic/exploring_nature_semantic_9.png"" class=""exp-image"">
                    <div class=""question-area""></div> 
                </div>","null","","","","","","","","","",""
"","","","","","html-button-response","154","251643","0.0-154.0","F1A8AA92975D4B689D4AB13B7B8AC7DE","019cf9a5-924c-77bf-838a-29377d7221f8","019cf974-7aee-7bc9-8ea4-9f55741b365d","","271","
                <div class=""stimulus-container"">
                    <img src=""images/semantic_sequence/exploring_nature_semantic/exploring_nature_semantic_9.png"" class=""exp-image"">
                    <div class=""question-area"">
                        <p style=""font-size: 20px; font-weight: bold; margin: 0;"">Is there a person in this image?</p>
                    </div>
                </div>","0","main_experiment_trial","9","exploring_nature_semantic","semantic_sequence","randomized","","","","",""
"","","","","","html-keyboard-response","155","252656","0.0-155.0","F1A8AA92975D4B689D4AB13B7B8AC7DE","019cf9a5-924c-77bf-838a-29377d7221f8","019cf974-7aee-7bc9-8ea4-9f55741b365d","","null","
                <div class=""stimulus-container"">
                    <img src=""images/semantic_sequence/exploring_nature_semantic/exploring_nature_semantic_8.png"" class=""exp-image"">
                    <div class=""question-area""></div> 
                </div>","null","","","","","","","","","",""
"","","","","","html-button-response","156","252892","0.0-156.0","F1A8AA92975D4B689D4AB13B7B8AC7DE","019cf9a5-924c-77bf-838a-29377d7221f8","019cf974-7aee-7bc9-8ea4-9f55741b365d","","235","
                <div class=""stimulus-container"">
                    <img src=""images/semantic_sequence/exploring_nature_semantic/exploring_nature_semantic_8.png"" class=""exp-image"">
                    <div class=""question-area"">
                        <p style=""font-size: 20px; font-weight: bold; margin: 0;"">Is there a person in this image?</p>
                    </div>
                </div>","0","main_experiment_trial","8","exploring_nature_semantic","semantic_sequence","randomized","","","","",""
"","","","","","html-keyboard-response","157","253905","0.0-157.0","F1A8AA92975D4B689D4AB13B7B8AC7DE","019cf9a5-924c-77bf-838a-29377d7221f8","019cf974-7aee-7bc9-8ea4-9f55741b365d","","null","
                <div class=""stimulus-container"">
                    <img src=""images/semantic_sequence/exploring_nature_semantic/exploring_nature_semantic_3.png"" class=""exp-image"">
                    <div class=""question-area""></div> 
                </div>","null","","","","","","","","","",""
"","","","","","html-button-response","158","254225","0.0-158.0","F1A8AA92975D4B689D4AB13B7B8AC7DE","019cf9a5-924c-77bf-838a-29377d7221f8","019cf974-7aee-7bc9-8ea4-9f55741b365d","","319","
                <div class=""stimulus-container"">
                    <img src=""images/semantic_sequence/exploring_nature_semantic/exploring_nature_semantic_3.png"" class=""exp-image"">
                    <div class=""question-area"">
                        <p style=""font-size: 20px; font-weight: bold; margin: 0;"">Is there a person in this image?</p>
                    </div>
                </div>","0","main_experiment_trial","3","exploring_nature_semantic","semantic_sequence","randomized","","","","",""
"","","","","","html-keyboard-response","159","255230","0.0-159.0","F1A8AA92975D4B689D4AB13B7B8AC7DE","019cf9a5-924c-77bf-838a-29377d7221f8","019cf974-7aee-7bc9-8ea4-9f55741b365d","","null","
                <div class=""stimulus-container"">
                    <img src=""images/semantic_sequence/exploring_nature_semantic/exploring_nature_semantic_5.png"" class=""exp-image"">
                    <div class=""question-area""></div> 
                </div>","null","","","","","","","","","",""
"","","","","","html-button-response","160","255588","0.0-160.0","F1A8AA92975D4B689D4AB13B7B8AC7DE","019cf9a5-924c-77bf-838a-29377d7221f8","019cf974-7aee-7bc9-8ea4-9f55741b365d","","357","
                <div class=""stimulus-container"">
                    <img src=""images/semantic_sequence/exploring_nature_semantic/exploring_nature_semantic_5.png"" class=""exp-image"">
                    <div class=""question-area"">
                        <p style=""font-size: 20px; font-weight: bold; margin: 0;"">Is there a person in this image?</p>
                    </div>
                </div>","0","main_experiment_trial","5","exploring_nature_semantic","semantic_sequence","randomized","","","","",""
"","","","","","html-keyboard-response","161","256601","0.0-161.0","F1A8AA92975D4B689D4AB13B7B8AC7DE","019cf9a5-924c-77bf-838a-29377d7221f8","019cf974-7aee-7bc9-8ea4-9f55741b365d","","null","
                <div class=""stimulus-container"">
                    <img src=""images/semantic_sequence/exploring_nature_semantic/exploring_nature_semantic_4.png"" class=""exp-image"">
                    <div class=""question-area""></div> 
                </div>","null","","","","","","","","","",""
"","","","","","html-button-response","162","257040","0.0-162.0","F1A8AA92975D4B689D4AB13B7B8AC7DE","019cf9a5-924c-77bf-838a-29377d7221f8","019cf974-7aee-7bc9-8ea4-9f55741b365d","","438","
                <div class=""stimulus-container"">
                    <img src=""images/semantic_sequence/exploring_nature_semantic/exploring_nature_semantic_4.png"" class=""exp-image"">
                    <div class=""question-area"">
                        <p style=""font-size: 20px; font-weight: bold; margin: 0;"">Is there a person in this image?</p>
                    </div>
                </div>","0","main_experiment_trial","4","exploring_nature_semantic","semantic_sequence","randomized","","","","",""
"","","","","","html-keyboard-response","163","262041","0.0-163.0","F1A8AA92975D4B689D4AB13B7B8AC7DE","019cf9a5-924c-77bf-838a-29377d7221f8","019cf974-7aee-7bc9-8ea4-9f55741b365d","","null","<div style=""background-color: white; width: 100vw; height: 100vh;""></div>","null","","","","","","","","","",""
"","","","","","html-keyboard-response","164","263048","0.0-164.0","F1A8AA92975D4B689D4AB13B7B8AC7DE","019cf9a5-924c-77bf-838a-29377d7221f8","019cf974-7aee-7bc9-8ea4-9f55741b365d","","null","
                <div class=""stimulus-container"">
                    <img src=""images/causal_sequence/package_causal/package_causal_9.png"" class=""exp-image"">
                    <div class=""question-area""></div> 
                </div>","null","","","","","","","","","",""
"","","","","","html-button-response","165","263681","0.0-165.0","F1A8AA92975D4B689D4AB13B7B8AC7DE","019cf9a5-924c-77bf-838a-29377d7221f8","019cf974-7aee-7bc9-8ea4-9f55741b365d","","632","
                <div class=""stimulus-container"">
                    <img src=""images/causal_sequence/package_causal/package_causal_9.png"" class=""exp-image"">
                    <div class=""question-area"">
                        <p style=""font-size: 20px; font-weight: bold; margin: 0;"">Is there a person in this image?</p>
                    </div>
                </div>","0","main_experiment_trial","9","package_causal","causal_sequence","randomized","","","","",""
"","","","","","html-keyboard-response","166","264698","0.0-166.0","F1A8AA92975D4B689D4AB13B7B8AC7DE","019cf9a5-924c-77bf-838a-29377d7221f8","019cf974-7aee-7bc9-8ea4-9f55741b365d","","null","
                <div class=""stimulus-container"">
                    <img src=""images/causal_sequence/package_causal/package_causal_7.png"" class=""exp-image"">
                    <div class=""question-area""></div> 
                </div>","null","","","","","","","","","",""
"","","","","","html-button-response","167","264965","0.0-167.0","F1A8AA92975D4B689D4AB13B7B8AC7DE","019cf9a5-924c-77bf-838a-29377d7221f8","019cf974-7aee-7bc9-8ea4-9f55741b365d","","267","
                <div class=""stimulus-container"">
                    <img src=""images/causal_sequence/package_causal/package_causal_7.png"" class=""exp-image"">
                    <div class=""question-area"">
                        <p style=""font-size: 20px; font-weight: bold; margin: 0;"">Is there a person in this image?</p>
                    </div>
                </div>","0","main_experiment_trial","7","package_causal","causal_sequence","randomized","","","","",""
"","","","","","html-keyboard-response","168","265980","0.0-168.0","F1A8AA92975D4B689D4AB13B7B8AC7DE","019cf9a5-924c-77bf-838a-29377d7221f8","019cf974-7aee-7bc9-8ea4-9f55741b365d","","null","
                <div class=""stimulus-container"">
                    <img src=""images/causal_sequence/package_causal/package_causal_ten.png"" class=""exp-image"">
                    <div class=""question-area""></div> 
                </div>","null","","","","","","","","","",""
"","","","","","html-button-response","169","266280","0.0-169.0","F1A8AA92975D4B689D4AB13B7B8AC7DE","019cf9a5-924c-77bf-838a-29377d7221f8","019cf974-7aee-7bc9-8ea4-9f55741b365d","","299","
                <div class=""stimulus-container"">
                    <img src=""images/causal_sequence/package_causal/package_causal_ten.png"" class=""exp-image"">
                    <div class=""question-area"">
                        <p style=""font-size: 20px; font-weight: bold; margin: 0;"">Is there a person in this image?</p>
                    </div>
                </div>","0","main_experiment_trial","ten","package_causal","causal_sequence","randomized","","","","",""
"","","","","","html-keyboard-response","170","267292","0.0-170.0","F1A8AA92975D4B689D4AB13B7B8AC7DE","019cf9a5-924c-77bf-838a-29377d7221f8","019cf974-7aee-7bc9-8ea4-9f55741b365d","","null","
                <div class=""stimulus-container"">
                    <img src=""images/causal_sequence/package_causal/package_causal_1.png"" class=""exp-image"">
                    <div class=""question-area""></div> 
                </div>","null","","","","","","","","","",""
"","","","","","html-button-response","171","267457","0.0-171.0","F1A8AA92975D4B689D4AB13B7B8AC7DE","019cf9a5-924c-77bf-838a-29377d7221f8","019cf974-7aee-7bc9-8ea4-9f55741b365d","","163","
                <div class=""stimulus-container"">
                    <img src=""images/causal_sequence/package_causal/package_causal_1.png"" class=""exp-image"">
                    <div class=""question-area"">
                        <p style=""font-size: 20px; font-weight: bold; margin: 0;"">Is there a person in this image?</p>
                    </div>
                </div>","0","main_experiment_trial","1","package_causal","causal_sequence","randomized","","","","",""
"","","","","","html-keyboard-response","172","268461","0.0-172.0","F1A8AA92975D4B689D4AB13B7B8AC7DE","019cf9a5-924c-77bf-838a-29377d7221f8","019cf974-7aee-7bc9-8ea4-9f55741b365d","","null","
                <div class=""stimulus-container"">
                    <img src=""images/causal_sequence/package_causal/package_causal_2.png"" class=""exp-image"">
                    <div class=""question-area""></div> 
                </div>","null","","","","","","","","","",""
"","","","","","html-button-response","173","269094","0.0-173.0","F1A8AA92975D4B689D4AB13B7B8AC7DE","019cf9a5-924c-77bf-838a-29377d7221f8","019cf974-7aee-7bc9-8ea4-9f55741b365d","","632","
                <div class=""stimulus-container"">
                    <img src=""images/causal_sequence/package_causal/package_causal_2.png"" class=""exp-image"">
                    <div class=""question-area"">
                        <p style=""font-size: 20px; font-weight: bold; margin: 0;"">Is there a person in this image?</p>
                    </div>
                </div>","0","main_experiment_trial","2","package_causal","causal_sequence","randomized","","","","",""
"","","","","","html-keyboard-response","174","270097","0.0-174.0","F1A8AA92975D4B689D4AB13B7B8AC7DE","019cf9a5-924c-77bf-838a-29377d7221f8","019cf974-7aee-7bc9-8ea4-9f55741b365d","","null","
                <div class=""stimulus-container"">
                    <img src=""images/causal_sequence/package_causal/package_causal_3.png"" class=""exp-image"">
                    <div class=""question-area""></div> 
                </div>","null","","","","","","","","","",""
"","","","","","html-button-response","175","270356","0.0-175.0","F1A8AA92975D4B689D4AB13B7B8AC7DE","019cf9a5-924c-77bf-838a-29377d7221f8","019cf974-7aee-7bc9-8ea4-9f55741b365d","","257","
                <div class=""stimulus-container"">
                    <img src=""images/causal_sequence/package_causal/package_causal_3.png"" class=""exp-image"">
                    <div class=""question-area"">
                        <p style=""font-size: 20px; font-weight: bold; margin: 0;"">Is there a person in this image?</p>
                    </div>
                </div>","0","main_experiment_trial","3","package_causal","causal_sequence","randomized","","","","",""
"","","","","","html-keyboard-response","176","271362","0.0-176.0","F1A8AA92975D4B689D4AB13B7B8AC7DE","019cf9a5-924c-77bf-838a-29377d7221f8","019cf974-7aee-7bc9-8ea4-9f55741b365d","","null","
                <div class=""stimulus-container"">
                    <img src=""images/causal_sequence/package_causal/package_causal_6.png"" class=""exp-image"">
                    <div class=""question-area""></div> 
                </div>","null","","","","","","","","","",""
"","","","","","html-button-response","177","272027","0.0-177.0","F1A8AA92975D4B689D4AB13B7B8AC7DE","019cf9a5-924c-77bf-838a-29377d7221f8","019cf974-7aee-7bc9-8ea4-9f55741b365d","","665","
                <div class=""stimulus-container"">
                    <img src=""images/causal_sequence/package_causal/package_causal_6.png"" class=""exp-image"">
                    <div class=""question-area"">
                        <p style=""font-size: 20px; font-weight: bold; margin: 0;"">Is there a person in this image?</p>
                    </div>
                </div>","0","main_experiment_trial","6","package_causal","causal_sequence","randomized","","","","",""
"","","","","","html-keyboard-response","178","273032","0.0-178.0","F1A8AA92975D4B689D4AB13B7B8AC7DE","019cf9a5-924c-77bf-838a-29377d7221f8","019cf974-7aee-7bc9-8ea4-9f55741b365d","","null","
                <div class=""stimulus-container"">
                    <img src=""images/causal_sequence/package_causal/package_causal_5.png"" class=""exp-image"">
                    <div class=""question-area""></div> 
                </div>","null","","","","","","","","","",""
"","","","","","html-button-response","179","273491","0.0-179.0","F1A8AA92975D4B689D4AB13B7B8AC7DE","019cf9a5-924c-77bf-838a-29377d7221f8","019cf974-7aee-7bc9-8ea4-9f55741b365d","","457","
                <div class=""stimulus-container"">
                    <img src=""images/causal_sequence/package_causal/package_causal_5.png"" class=""exp-image"">
                    <div class=""question-area"">
                        <p style=""font-size: 20px; font-weight: bold; margin: 0;"">Is there a person in this image?</p>
                    </div>
                </div>","0","main_experiment_trial","5","package_causal","causal_sequence","randomized","","","","",""
"","","","","","html-keyboard-response","180","274501","0.0-180.0","F1A8AA92975D4B689D4AB13B7B8AC7DE","019cf9a5-924c-77bf-838a-29377d7221f8","019cf974-7aee-7bc9-8ea4-9f55741b365d","","null","
