"success","timeout","failed_images","failed_audio","failed_video","trial_type","trial_index","time_elapsed","internal_node_id","subject_id","study_id","session_id","view_history","rt","stimulus","response","task","image_index","folder","sequence_type","valuable_image_index","reward_type","correct_choice","chosen_image_index","target_X"
"true","false","[]","[]","[]","preload","0","14964","0.0-0.0","AC5B52521F2D43CD8FD6871C57EBAE06","019cf866-c181-7b20-bda0-d6b863aafd66","019cf855-66fc-7d76-a612-8313d2c5c123","","","","","","","","","","","","",""
"","","","","","instructions","1","37081","0.0-1.0","AC5B52521F2D43CD8FD6871C57EBAE06","019cf866-c181-7b20-bda0-d6b863aafd66","019cf855-66fc-7d76-a612-8313d2c5c123","[{""page_index"":0,""viewing_time"":22111}]","22111","","","","","","","","","","",""
"","","","","","instructions","2","46724","0.0-2.0","AC5B52521F2D43CD8FD6871C57EBAE06","019cf866-c181-7b20-bda0-d6b863aafd66","019cf855-66fc-7d76-a612-8313d2c5c123","[{""page_index"":0,""viewing_time"":9641}]","9642","","","","","","","","","","",""
"true","","","","","fullscreen","3","49645","0.0-3.0","AC5B52521F2D43CD8FD6871C57EBAE06","019cf866-c181-7b20-bda0-d6b863aafd66","019cf855-66fc-7d76-a612-8313d2c5c123","","1904","","","","","","","","","","",""
"","","","","","instructions","4","55887","0.0-4.0","AC5B52521F2D43CD8FD6871C57EBAE06","019cf866-c181-7b20-bda0-d6b863aafd66","019cf855-66fc-7d76-a612-8313d2c5c123","[{""page_index"":0,""viewing_time"":6240}]","6241","","","","","","","","","","",""
"","","","","","instructions","5","62480","0.0-5.0","AC5B52521F2D43CD8FD6871C57EBAE06","019cf866-c181-7b20-bda0-d6b863aafd66","019cf855-66fc-7d76-a612-8313d2c5c123","[{""page_index"":0,""viewing_time"":6592}]","6592","","","","","","","","","","",""
"","","","","","html-keyboard-response","6","66483","0.0-6.0","AC5B52521F2D43CD8FD6871C57EBAE06","019cf866-c181-7b20-bda0-d6b863aafd66","019cf855-66fc-7d76-a612-8313d2c5c123","","null","
                <div class=""stimulus-container"">
                    <img src=""images/instructions/movie_1.png"" class=""exp-image"">
                    <div class=""question-area""></div> 
                </div>","null","","","","","","","","",""
"","","","","","html-button-response","7","69251","0.0-7.0","AC5B52521F2D43CD8FD6871C57EBAE06","019cf866-c181-7b20-bda0-d6b863aafd66","019cf855-66fc-7d76-a612-8313d2c5c123","","2766","
                <div class=""stimulus-container"">
                    <img src=""images/instructions/movie_1.png"" class=""exp-image"">
                    <div class=""question-area"">
                        <p style=""font-size: 20px; font-weight: bold; margin: 0;"">Was there a person in this image?</p>
                    </div>
                </div>","0","example_question","1","","","","","","",""
"","","","","","html-keyboard-response","8","73253","0.0-8.0","AC5B52521F2D43CD8FD6871C57EBAE06","019cf866-c181-7b20-bda0-d6b863aafd66","019cf855-66fc-7d76-a612-8313d2c5c123","","null","
                <div class=""stimulus-container"">
                    <img src=""images/instructions/movie_2.png"" class=""exp-image"">
                    <div class=""question-area""></div> 
                </div>","null","","","","","","","","",""
"","","","","","html-button-response","9","74277","0.0-9.0","AC5B52521F2D43CD8FD6871C57EBAE06","019cf866-c181-7b20-bda0-d6b863aafd66","019cf855-66fc-7d76-a612-8313d2c5c123","","1022","
                <div class=""stimulus-container"">
                    <img src=""images/instructions/movie_2.png"" class=""exp-image"">
                    <div class=""question-area"">
                        <p style=""font-size: 20px; font-weight: bold; margin: 0;"">Was there a person in this image?</p>
                    </div>
                </div>","1","example_question","2","","","","","","",""
"","","","","","html-keyboard-response","10","78279","0.0-10.0","AC5B52521F2D43CD8FD6871C57EBAE06","019cf866-c181-7b20-bda0-d6b863aafd66","019cf855-66fc-7d76-a612-8313d2c5c123","","null","
                <div class=""stimulus-container"">
                    <img src=""images/instructions/movie_3.png"" class=""exp-image"">
                    <div class=""question-area""></div> 
                </div>","null","","","","","","","","",""
"","","","","","html-button-response","11","79208","0.0-11.0","AC5B52521F2D43CD8FD6871C57EBAE06","019cf866-c181-7b20-bda0-d6b863aafd66","019cf855-66fc-7d76-a612-8313d2c5c123","","928","
                <div class=""stimulus-container"">
                    <img src=""images/instructions/movie_3.png"" class=""exp-image"">
                    <div class=""question-area"">
                        <p style=""font-size: 20px; font-weight: bold; margin: 0;"">Was there a person in this image?</p>
                    </div>
                </div>","0","example_question","3","","","","","","",""
"","","","","","html-keyboard-response","12","83211","0.0-12.0","AC5B52521F2D43CD8FD6871C57EBAE06","019cf866-c181-7b20-bda0-d6b863aafd66","019cf855-66fc-7d76-a612-8313d2c5c123","","null","
                <div class=""stimulus-container"">
                    <img src=""images/instructions/movie_4.png"" class=""exp-image"">
                    <div class=""question-area""></div> 
                </div>","null","","","","","","","","",""
"","","","","","html-button-response","13","83902","0.0-13.0","AC5B52521F2D43CD8FD6871C57EBAE06","019cf866-c181-7b20-bda0-d6b863aafd66","019cf855-66fc-7d76-a612-8313d2c5c123","","690","
                <div class=""stimulus-container"">
                    <img src=""images/instructions/movie_4.png"" class=""exp-image"">
                    <div class=""question-area"">
                        <p style=""font-size: 20px; font-weight: bold; margin: 0;"">Was there a person in this image?</p>
                    </div>
                </div>","0","example_question","4","","","","","","",""
"","","","","","instructions","14","85783","0.0-14.0","AC5B52521F2D43CD8FD6871C57EBAE06","019cf866-c181-7b20-bda0-d6b863aafd66","019cf855-66fc-7d76-a612-8313d2c5c123","[{""page_index"":0,""viewing_time"":1880}]","1880","","","","","","","","","","",""
"","","","","","instructions","15","91783","0.0-15.0","AC5B52521F2D43CD8FD6871C57EBAE06","019cf866-c181-7b20-bda0-d6b863aafd66","019cf855-66fc-7d76-a612-8313d2c5c123","[{""page_index"":0,""viewing_time"":5999}]","5999","","","","","","","","","","",""
"","","","","","html-keyboard-response","16","92785","0.0-16.0","AC5B52521F2D43CD8FD6871C57EBAE06","019cf866-c181-7b20-bda0-d6b863aafd66","019cf855-66fc-7d76-a612-8313d2c5c123","","null","<div style=""background-color: white; width: 100vw; height: 100vh;""></div>","null","","","","","","","","",""
"","","","","","html-keyboard-response","17","97787","0.0-17.0","AC5B52521F2D43CD8FD6871C57EBAE06","019cf866-c181-7b20-bda0-d6b863aafd66","019cf855-66fc-7d76-a612-8313d2c5c123","","null","
                <div class=""stimulus-container"">
                    <img src=""images/schematic_sequence/restaurant_scheme/restaurant_scheme_1.png"" class=""exp-image"">
                    <div class=""question-area""></div> 
                </div>","null","","","","","","","","",""
"","","","","","html-button-response","18","98429","0.0-18.0","AC5B52521F2D43CD8FD6871C57EBAE06","019cf866-c181-7b20-bda0-d6b863aafd66","019cf855-66fc-7d76-a612-8313d2c5c123","","639","
                <div class=""stimulus-container"">
                    <img src=""images/schematic_sequence/restaurant_scheme/restaurant_scheme_1.png"" class=""exp-image"">
                    <div class=""question-area"">
                        <p style=""font-size: 20px; font-weight: bold; margin: 0;"">Is there a person in this image?</p>
                    </div>
                </div>","0","main_experiment_trial","1","restaurant_scheme","schematic_sequence","","","","",""
"","","","","","html-keyboard-response","19","103432","0.0-19.0","AC5B52521F2D43CD8FD6871C57EBAE06","019cf866-c181-7b20-bda0-d6b863aafd66","019cf855-66fc-7d76-a612-8313d2c5c123","","null","
                <div class=""stimulus-container"">
                    <img src=""images/schematic_sequence/restaurant_scheme/restaurant_scheme_2.png"" class=""exp-image"">
                    <div class=""question-area""></div> 
                </div>","null","","","","","","","","",""
"","","","","","html-button-response","20","103866","0.0-20.0","AC5B52521F2D43CD8FD6871C57EBAE06","019cf866-c181-7b20-bda0-d6b863aafd66","019cf855-66fc-7d76-a612-8313d2c5c123","","432","
                <div class=""stimulus-container"">
                    <img src=""images/schematic_sequence/restaurant_scheme/restaurant_scheme_2.png"" class=""exp-image"">
                    <div class=""question-area"">
                        <p style=""font-size: 20px; font-weight: bold; margin: 0;"">Is there a person in this image?</p>
                    </div>
                </div>","1","main_experiment_trial","2","restaurant_scheme","schematic_sequence","","","","",""
"","","","","","html-keyboard-response","21","108869","0.0-21.0","AC5B52521F2D43CD8FD6871C57EBAE06","019cf866-c181-7b20-bda0-d6b863aafd66","019cf855-66fc-7d76-a612-8313d2c5c123","","null","
                <div class=""stimulus-container"">
                    <img src=""images/schematic_sequence/restaurant_scheme/restaurant_scheme_3.png"" class=""exp-image"">
                    <div class=""question-area""></div> 
                </div>","null","","","","","","","","",""
"","","","","","html-button-response","22","109381","0.0-22.0","AC5B52521F2D43CD8FD6871C57EBAE06","019cf866-c181-7b20-bda0-d6b863aafd66","019cf855-66fc-7d76-a612-8313d2c5c123","","509","
                <div class=""stimulus-container"">
                    <img src=""images/schematic_sequence/restaurant_scheme/restaurant_scheme_3.png"" class=""exp-image"">
                    <div class=""question-area"">
                        <p style=""font-size: 20px; font-weight: bold; margin: 0;"">Is there a person in this image?</p>
                    </div>
                </div>","1","main_experiment_trial","3","restaurant_scheme","schematic_sequence","","","","",""
"","","","","","html-keyboard-response","23","114383","0.0-23.0","AC5B52521F2D43CD8FD6871C57EBAE06","019cf866-c181-7b20-bda0-d6b863aafd66","019cf855-66fc-7d76-a612-8313d2c5c123","","null","
                <div class=""stimulus-container"">
                    <img src=""images/schematic_sequence/restaurant_scheme/restaurant_scheme_4.png"" class=""exp-image"">
                    <div class=""question-area""></div> 
                </div>","null","","","","","","","","",""
"","","","","","html-button-response","24","115104","0.0-24.0","AC5B52521F2D43CD8FD6871C57EBAE06","019cf866-c181-7b20-bda0-d6b863aafd66","019cf855-66fc-7d76-a612-8313d2c5c123","","719","
                <div class=""stimulus-container"">
                    <img src=""images/schematic_sequence/restaurant_scheme/restaurant_scheme_4.png"" class=""exp-image"">
                    <div class=""question-area"">
                        <p style=""font-size: 20px; font-weight: bold; margin: 0;"">Is there a person in this image?</p>
                    </div>
                </div>","0","main_experiment_trial","4","restaurant_scheme","schematic_sequence","","","","",""
"","","","","","html-keyboard-response","25","120107","0.0-25.0","AC5B52521F2D43CD8FD6871C57EBAE06","019cf866-c181-7b20-bda0-d6b863aafd66","019cf855-66fc-7d76-a612-8313d2c5c123","","null","
                <div class=""stimulus-container"">
                    <img src=""images/schematic_sequence/restaurant_scheme/restaurant_scheme_5.png"" class=""exp-image"">
                    <div class=""question-area""></div> 
                </div>","null","","","","","","","","",""
"","","","","","html-button-response","26","120657","0.0-26.0","AC5B52521F2D43CD8FD6871C57EBAE06","019cf866-c181-7b20-bda0-d6b863aafd66","019cf855-66fc-7d76-a612-8313d2c5c123","","549","
                <div class=""stimulus-container"">
                    <img src=""images/schematic_sequence/restaurant_scheme/restaurant_scheme_5.png"" class=""exp-image"">
                    <div class=""question-area"">
                        <p style=""font-size: 20px; font-weight: bold; margin: 0;"">Is there a person in this image?</p>
                    </div>
                </div>","0","main_experiment_trial","5","restaurant_scheme","schematic_sequence","","","","",""
"","","","","","html-keyboard-response","27","125659","0.0-27.0","AC5B52521F2D43CD8FD6871C57EBAE06","019cf866-c181-7b20-bda0-d6b863aafd66","019cf855-66fc-7d76-a612-8313d2c5c123","","null","
                <div class=""stimulus-container"">
                    <img src=""images/schematic_sequence/restaurant_scheme/restaurant_scheme_6.png"" class=""exp-image"">
                    <div class=""question-area""></div> 
                </div>","null","","","","","","","","",""
"","","","","","html-button-response","28","126179","0.0-28.0","AC5B52521F2D43CD8FD6871C57EBAE06","019cf866-c181-7b20-bda0-d6b863aafd66","019cf855-66fc-7d76-a612-8313d2c5c123","","519","
                <div class=""stimulus-container"">
                    <img src=""images/schematic_sequence/restaurant_scheme/restaurant_scheme_6.png"" class=""exp-image"">
                    <div class=""question-area"">
                        <p style=""font-size: 20px; font-weight: bold; margin: 0;"">Is there a person in this image?</p>
                    </div>
                </div>","1","main_experiment_trial","6","restaurant_scheme","schematic_sequence","","","","",""
"","","","","","html-keyboard-response","29","131182","0.0-29.0","AC5B52521F2D43CD8FD6871C57EBAE06","019cf866-c181-7b20-bda0-d6b863aafd66","019cf855-66fc-7d76-a612-8313d2c5c123","","null","
                <div class=""stimulus-container"">
                    <img src=""images/schematic_sequence/restaurant_scheme/restaurant_scheme_7.png"" class=""exp-image"">
                    <div class=""question-area""></div> 
                </div>","null","","","","","","","","",""
"","","","","","html-button-response","30","133602","0.0-30.0","AC5B52521F2D43CD8FD6871C57EBAE06","019cf866-c181-7b20-bda0-d6b863aafd66","019cf855-66fc-7d76-a612-8313d2c5c123","","2418","
                <div class=""stimulus-container"">
                    <img src=""images/schematic_sequence/restaurant_scheme/restaurant_scheme_7.png"" class=""exp-image"">
                    <div class=""question-area"">
                        <p style=""font-size: 20px; font-weight: bold; margin: 0;"">Is there a person in this image?</p>
                    </div>
                </div>","1","main_experiment_trial","7","restaurant_scheme","schematic_sequence","","","","",""
"","","","","","html-keyboard-response","31","138604","0.0-31.0","AC5B52521F2D43CD8FD6871C57EBAE06","019cf866-c181-7b20-bda0-d6b863aafd66","019cf855-66fc-7d76-a612-8313d2c5c123","","null","
                <div class=""stimulus-container"">
                    <img src=""images/schematic_sequence/restaurant_scheme/restaurant_scheme_8.png"" class=""exp-image"">
                    <div class=""question-area""></div> 
                </div>","null","","","","","","","","",""
"","","","","","html-button-response","32","141607","0.0-32.0","AC5B52521F2D43CD8FD6871C57EBAE06","019cf866-c181-7b20-bda0-d6b863aafd66","019cf855-66fc-7d76-a612-8313d2c5c123","","null","
                <div class=""stimulus-container"">
                    <img src=""images/schematic_sequence/restaurant_scheme/restaurant_scheme_8.png"" class=""exp-image"">
                    <div class=""question-area"">
                        <p style=""font-size: 20px; font-weight: bold; margin: 0;"">Is there a person in this image?</p>
                    </div>
                </div>","null","main_experiment_trial","8","restaurant_scheme","schematic_sequence","","","","",""
"","","","","","html-keyboard-response","33","146608","0.0-33.0","AC5B52521F2D43CD8FD6871C57EBAE06","019cf866-c181-7b20-bda0-d6b863aafd66","019cf855-66fc-7d76-a612-8313d2c5c123","","null","
                <div class=""stimulus-container"">
                    <img src=""images/schematic_sequence/restaurant_scheme/restaurant_scheme_9.png"" class=""exp-image"">
                    <div class=""question-area""></div> 
                </div>","null","","","","","","","","",""
"","","","","","html-button-response","34","147155","0.0-34.0","AC5B52521F2D43CD8FD6871C57EBAE06","019cf866-c181-7b20-bda0-d6b863aafd66","019cf855-66fc-7d76-a612-8313d2c5c123","","545","
                <div class=""stimulus-container"">
                    <img src=""images/schematic_sequence/restaurant_scheme/restaurant_scheme_9.png"" class=""exp-image"">
                    <div class=""question-area"">
                        <p style=""font-size: 20px; font-weight: bold; margin: 0;"">Is there a person in this image?</p>
                    </div>
                </div>","0","main_experiment_trial","9","restaurant_scheme","schematic_sequence","","","","",""
"","","","","","html-keyboard-response","35","152158","0.0-35.0","AC5B52521F2D43CD8FD6871C57EBAE06","019cf866-c181-7b20-bda0-d6b863aafd66","019cf855-66fc-7d76-a612-8313d2c5c123","","null","
                <div class=""stimulus-container"">
                    <img src=""images/schematic_sequence/restaurant_scheme/restaurant_scheme_ten.png"" class=""exp-image"">
                    <div class=""question-area""></div> 
                </div>","null","","","","","","","","",""
"","","","","","html-button-response","36","152782","0.0-36.0","AC5B52521F2D43CD8FD6871C57EBAE06","019cf866-c181-7b20-bda0-d6b863aafd66","019cf855-66fc-7d76-a612-8313d2c5c123","","623","
                <div class=""stimulus-container"">
                    <img src=""images/schematic_sequence/restaurant_scheme/restaurant_scheme_ten.png"" class=""exp-image"">
                    <div class=""question-area"">
                        <p style=""font-size: 20px; font-weight: bold; margin: 0;"">Is there a person in this image?</p>
                    </div>
                </div>","0","main_experiment_trial","ten","restaurant_scheme","schematic_sequence","","","","",""
"","","","","","html-keyboard-response","37","153784","0.0-37.0","AC5B52521F2D43CD8FD6871C57EBAE06","019cf866-c181-7b20-bda0-d6b863aafd66","019cf855-66fc-7d76-a612-8313d2c5c123","","null","<div style=""background-color: white; width: 100vw; height: 100vh;""></div>","null","","","","","","","","",""
"","","","","","html-keyboard-response","38","158788","0.0-38.0","AC5B52521F2D43CD8FD6871C57EBAE06","019cf866-c181-7b20-bda0-d6b863aafd66","019cf855-66fc-7d76-a612-8313d2c5c123","","null","
                <div class=""stimulus-container"">
                    <img src=""images/semantic_sequence/using_technology_semantic/using_technology_semantic_1.png"" class=""exp-image"">
                    <div class=""question-area""></div> 
                </div>","null","","","","","","","","",""
"","","","","","html-button-response","39","159573","0.0-39.0","AC5B52521F2D43CD8FD6871C57EBAE06","019cf866-c181-7b20-bda0-d6b863aafd66","019cf855-66fc-7d76-a612-8313d2c5c123","","783","
                <div class=""stimulus-container"">
                    <img src=""images/semantic_sequence/using_technology_semantic/using_technology_semantic_1.png"" class=""exp-image"">
                    <div class=""question-area"">
                        <p style=""font-size: 20px; font-weight: bold; margin: 0;"">Is there a person in this image?</p>
                    </div>
                </div>","0","main_experiment_trial","1","using_technology_semantic","semantic_sequence","","","","",""
"","","","","","html-keyboard-response","40","164575","0.0-40.0","AC5B52521F2D43CD8FD6871C57EBAE06","019cf866-c181-7b20-bda0-d6b863aafd66","019cf855-66fc-7d76-a612-8313d2c5c123","","null","
                <div class=""stimulus-container"">
                    <img src=""images/semantic_sequence/using_technology_semantic/using_technology_semantic_2.png"" class=""exp-image"">
                    <div class=""question-area""></div> 
                </div>","null","","","","","","","","",""
"","","","","","html-button-response","41","165149","0.0-41.0","AC5B52521F2D43CD8FD6871C57EBAE06","019cf866-c181-7b20-bda0-d6b863aafd66","019cf855-66fc-7d76-a612-8313d2c5c123","","573","
                <div class=""stimulus-container"">
                    <img src=""images/semantic_sequence/using_technology_semantic/using_technology_semantic_2.png"" class=""exp-image"">
                    <div class=""question-area"">
                        <p style=""font-size: 20px; font-weight: bold; margin: 0;"">Is there a person in this image?</p>
                    </div>
                </div>","0","main_experiment_trial","2","using_technology_semantic","semantic_sequence","","","","",""
"","","","","","html-keyboard-response","42","170151","0.0-42.0","AC5B52521F2D43CD8FD6871C57EBAE06","019cf866-c181-7b20-bda0-d6b863aafd66","019cf855-66fc-7d76-a612-8313d2c5c123","","null","
                <div class=""stimulus-container"">
                    <img src=""images/semantic_sequence/using_technology_semantic/using_technology_semantic_3.png"" class=""exp-image"">
                    <div class=""question-area""></div> 
                </div>","null","","","","","","","","",""
"","","","","","html-button-response","43","171411","0.0-43.0","AC5B52521F2D43CD8FD6871C57EBAE06","019cf866-c181-7b20-bda0-d6b863aafd66","019cf855-66fc-7d76-a612-8313d2c5c123","","1258","
                <div class=""stimulus-container"">
                    <img src=""images/semantic_sequence/using_technology_semantic/using_technology_semantic_3.png"" class=""exp-image"">
                    <div class=""question-area"">
                        <p style=""font-size: 20px; font-weight: bold; margin: 0;"">Is there a person in this image?</p>
                    </div>
                </div>","0","main_experiment_trial","3","using_technology_semantic","semantic_sequence","","","","",""
"","","","","","html-keyboard-response","44","176413","0.0-44.0","AC5B52521F2D43CD8FD6871C57EBAE06","019cf866-c181-7b20-bda0-d6b863aafd66","019cf855-66fc-7d76-a612-8313d2c5c123","","null","
                <div class=""stimulus-container"">
                    <img src=""images/semantic_sequence/using_technology_semantic/using_technology_semantic_4.png"" class=""exp-image"">
                    <div class=""question-area""></div> 
                </div>","null","","","","","","","","",""
"","","","","","html-button-response","45","177476","0.0-45.0","AC5B52521F2D43CD8FD6871C57EBAE06","019cf866-c181-7b20-bda0-d6b863aafd66","019cf855-66fc-7d76-a612-8313d2c5c123","","1062","
                <div class=""stimulus-container"">
                    <img src=""images/semantic_sequence/using_technology_semantic/using_technology_semantic_4.png"" class=""exp-image"">
                    <div class=""question-area"">
                        <p style=""font-size: 20px; font-weight: bold; margin: 0;"">Is there a person in this image?</p>
                    </div>
                </div>","0","main_experiment_trial","4","using_technology_semantic","semantic_sequence","","","","",""
"","","","","","html-keyboard-response","46","182478","0.0-46.0","AC5B52521F2D43CD8FD6871C57EBAE06","019cf866-c181-7b20-bda0-d6b863aafd66","019cf855-66fc-7d76-a612-8313d2c5c123","","null","
                <div class=""stimulus-container"">
                    <img src=""images/semantic_sequence/using_technology_semantic/using_technology_semantic_5.png"" class=""exp-image"">
                    <div class=""question-area""></div> 
                </div>","null","","","","","","","","",""
"","","","","","html-button-response","47","183515","0.0-47.0","AC5B52521F2D43CD8FD6871C57EBAE06","019cf866-c181-7b20-bda0-d6b863aafd66","019cf855-66fc-7d76-a612-8313d2c5c123","","1036","
                <div class=""stimulus-container"">
                    <img src=""images/semantic_sequence/using_technology_semantic/using_technology_semantic_5.png"" class=""exp-image"">
                    <div class=""question-area"">
                        <p style=""font-size: 20px; font-weight: bold; margin: 0;"">Is there a person in this image?</p>
                    </div>
                </div>","0","main_experiment_trial","5","using_technology_semantic","semantic_sequence","","","","",""
"","","","","","html-keyboard-response","48","188518","0.0-48.0","AC5B52521F2D43CD8FD6871C57EBAE06","019cf866-c181-7b20-bda0-d6b863aafd66","019cf855-66fc-7d76-a612-8313d2c5c123","","null","
                <div class=""stimulus-container"">
                    <img src=""images/semantic_sequence/using_technology_semantic/using_technology_semantic_6.png"" class=""exp-image"">
                    <div class=""question-area""></div> 
                </div>","null","","","","","","","","",""
"","","","","","html-button-response","49","189097","0.0-49.0","AC5B52521F2D43CD8FD6871C57EBAE06","019cf866-c181-7b20-bda0-d6b863aafd66","019cf855-66fc-7d76-a612-8313d2c5c123","","577","
                <div class=""stimulus-container"">
                    <img src=""images/semantic_sequence/using_technology_semantic/using_technology_semantic_6.png"" class=""exp-image"">
                    <div class=""question-area"">
                        <p style=""font-size: 20px; font-weight: bold; margin: 0;"">Is there a person in this image?</p>
                    </div>
                </div>","0","main_experiment_trial","6","using_technology_semantic","semantic_sequence","","","","",""
"","","","","","html-keyboard-response","50","194100","0.0-50.0","AC5B52521F2D43CD8FD6871C57EBAE06","019cf866-c181-7b20-bda0-d6b863aafd66","019cf855-66fc-7d76-a612-8313d2c5c123","","null","
                <div class=""stimulus-container"">
                    <img src=""images/semantic_sequence/using_technology_semantic/using_technology_semantic_7.png"" class=""exp-image"">
                    <div class=""question-area""></div> 
                </div>","null","","","","","","","","",""
"","","","","","html-button-response","51","194564","0.0-51.0","AC5B52521F2D43CD8FD6871C57EBAE06","019cf866-c181-7b20-bda0-d6b863aafd66","019cf855-66fc-7d76-a612-8313d2c5c123","","461","
                <div class=""stimulus-container"">
                    <img src=""images/semantic_sequence/using_technology_semantic/using_technology_semantic_7.png"" class=""exp-image"">
                    <div class=""question-area"">
                        <p style=""font-size: 20px; font-weight: bold; margin: 0;"">Is there a person in this image?</p>
                    </div>
                </div>","0","main_experiment_trial","7","using_technology_semantic","semantic_sequence","","","","",""
"","","","","","html-keyboard-response","52","199567","0.0-52.0","AC5B52521F2D43CD8FD6871C57EBAE06","019cf866-c181-7b20-bda0-d6b863aafd66","019cf855-66fc-7d76-a612-8313d2c5c123","","null","
                <div class=""stimulus-container"">
                    <img src=""images/semantic_sequence/using_technology_semantic/using_technology_semantic_8.png"" class=""exp-image"">
                    <div class=""question-area""></div> 
                </div>","null","","","","","","","","",""
"","","","","","html-button-response","53","200186","0.0-53.0","AC5B52521F2D43CD8FD6871C57EBAE06","019cf866-c181-7b20-bda0-d6b863aafd66","019cf855-66fc-7d76-a612-8313d2c5c123","","617","
                <div class=""stimulus-container"">
                    <img src=""images/semantic_sequence/using_technology_semantic/using_technology_semantic_8.png"" class=""exp-image"">
                    <div class=""question-area"">
                        <p style=""font-size: 20px; font-weight: bold; margin: 0;"">Is there a person in this image?</p>
                    </div>
                </div>","0","main_experiment_trial","8","using_technology_semantic","semantic_sequence","","","","",""
"","","","","","html-keyboard-response","54","205189","0.0-54.0","AC5B52521F2D43CD8FD6871C57EBAE06","019cf866-c181-7b20-bda0-d6b863aafd66","019cf855-66fc-7d76-a612-8313d2c5c123","","null","
                <div class=""stimulus-container"">
                    <img src=""images/semantic_sequence/using_technology_semantic/using_technology_semantic_9.png"" class=""exp-image"">
                    <div class=""question-area""></div> 
                </div>","null","","","","","","","","",""
"","","","","","html-button-response","55","205983","0.0-55.0","AC5B52521F2D43CD8FD6871C57EBAE06","019cf866-c181-7b20-bda0-d6b863aafd66","019cf855-66fc-7d76-a612-8313d2c5c123","","791","
                <div class=""stimulus-container"">
                    <img src=""images/semantic_sequence/using_technology_semantic/using_technology_semantic_9.png"" class=""exp-image"">
                    <div class=""question-area"">
                        <p style=""font-size: 20px; font-weight: bold; margin: 0;"">Is there a person in this image?</p>
                    </div>
                </div>","0","main_experiment_trial","9","using_technology_semantic","semantic_sequence","","","","",""
"","","","","","html-keyboard-response","56","210985","0.0-56.0","AC5B52521F2D43CD8FD6871C57EBAE06","019cf866-c181-7b20-bda0-d6b863aafd66","019cf855-66fc-7d76-a612-8313d2c5c123","","null","
                <div class=""stimulus-container"">
                    <img src=""images/semantic_sequence/using_technology_semantic/using_technology_semantic_ten.png"" class=""exp-image"">
                    <div class=""question-area""></div> 
                </div>","null","","","","","","","","",""
"","","","","","html-button-response","57","211486","0.0-57.0","AC5B52521F2D43CD8FD6871C57EBAE06","019cf866-c181-7b20-bda0-d6b863aafd66","019cf855-66fc-7d76-a612-8313d2c5c123","","498","
                <div class=""stimulus-container"">
                    <img src=""images/semantic_sequence/using_technology_semantic/using_technology_semantic_ten.png"" class=""exp-image"">
                    <div class=""question-area"">
                        <p style=""font-size: 20px; font-weight: bold; margin: 0;"">Is there a person in this image?</p>
                    </div>
                </div>","0","main_experiment_trial","ten","using_technology_semantic","semantic_sequence","","","","",""
"","","","","","html-keyboard-response","58","212487","0.0-58.0","AC5B52521F2D43CD8FD6871C57EBAE06","019cf866-c181-7b20-bda0-d6b863aafd66","019cf855-66fc-7d76-a612-8313d2c5c123","","null","<div style=""background-color: white; width: 100vw; height: 100vh;""></div>","null","","","","","","","","",""
"","","","","","html-keyboard-response","59","217490","0.0-59.0","AC5B52521F2D43CD8FD6871C57EBAE06","019cf866-c181-7b20-bda0-d6b863aafd66","019cf855-66fc-7d76-a612-8313d2c5c123","","null","
                <div class=""stimulus-container"">
                    <img src=""images/semantic_sequence/redecorating_a_house_semantic/redecorating_a_house_semantic_1.png"" class=""exp-image"">
                    <div class=""question-area""></div> 
                </div>","null","","","","","","","","",""
"","","","","","html-button-response","60","218888","0.0-60.0","AC5B52521F2D43CD8FD6871C57EBAE06","019cf866-c181-7b20-bda0-d6b863aafd66","019cf855-66fc-7d76-a612-8313d2c5c123","","1395","
                <div class=""stimulus-container"">
                    <img src=""images/semantic_sequence/redecorating_a_house_semantic/redecorating_a_house_semantic_1.png"" class=""exp-image"">
                    <div class=""question-area"">
                        <p style=""font-size: 20px; font-weight: bold; margin: 0;"">Is there a person in this image?</p>
                    </div>
                </div>","0","main_experiment_trial","1","redecorating_a_house_semantic","semantic_sequence","","","","",""
"","","","","","html-keyboard-response","61","223891","0.0-61.0","AC5B52521F2D43CD8FD6871C57EBAE06","019cf866-c181-7b20-bda0-d6b863aafd66","019cf855-66fc-7d76-a612-8313d2c5c123","","null","
                <div class=""stimulus-container"">
                    <img src=""images/semantic_sequence/redecorating_a_house_semantic/redecorating_a_house_semantic_2.png"" class=""exp-image"">
                    <div class=""question-area""></div> 
                </div>","null","","","","","","","","",""
"","","","","","html-button-response","62","226793","0.0-62.0","AC5B52521F2D43CD8FD6871C57EBAE06","019cf866-c181-7b20-bda0-d6b863aafd66","019cf855-66fc-7d76-a612-8313d2c5c123","","2900","
                <div class=""stimulus-container"">
                    <img src=""images/semantic_sequence/redecorating_a_house_semantic/redecorating_a_house_semantic_2.png"" class=""exp-image"">
                    <div class=""question-area"">
                        <p style=""font-size: 20px; font-weight: bold; margin: 0;"">Is there a person in this image?</p>
                    </div>
                </div>","0","main_experiment_trial","2","redecorating_a_house_semantic","semantic_sequence","","","","",""
"","","","","","html-keyboard-response","63","231796","0.0-63.0","AC5B52521F2D43CD8FD6871C57EBAE06","019cf866-c181-7b20-bda0-d6b863aafd66","019cf855-66fc-7d76-a612-8313d2c5c123","","null","
                <div class=""stimulus-container"">
                    <img src=""images/semantic_sequence/redecorating_a_house_semantic/redecorating_a_house_semantic_3.png"" class=""exp-image"">
                    <div class=""question-area""></div> 
                </div>","null","","","","","","","","",""
"","","","","","html-button-response","64","234313","0.0-64.0","AC5B52521F2D43CD8FD6871C57EBAE06","019cf866-c181-7b20-bda0-d6b863aafd66","019cf855-66fc-7d76-a612-8313d2c5c123","","2514","
                <div class=""stimulus-container"">
                    <img src=""images/semantic_sequence/redecorating_a_house_semantic/redecorating_a_house_semantic_3.png"" class=""exp-image"">
                    <div class=""question-area"">
                        <p style=""font-size: 20px; font-weight: bold; margin: 0;"">Is there a person in this image?</p>
                    </div>
                </div>","0","main_experiment_trial","3","redecorating_a_house_semantic","semantic_sequence","","","","",""
"","","","","","html-keyboard-response","65","239315","0.0-65.0","AC5B52521F2D43CD8FD6871C57EBAE06","019cf866-c181-7b20-bda0-d6b863aafd66","019cf855-66fc-7d76-a612-8313d2c5c123","","null","
                <div class=""stimulus-container"">
                    <img src=""images/semantic_sequence/redecorating_a_house_semantic/redecorating_a_house_semantic_4.png"" class=""exp-image"">
                    <div class=""question-area""></div> 
                </div>","null","","","","","","","","",""
"","","","","","html-button-response","66","239759","0.0-66.0","AC5B52521F2D43CD8FD6871C57EBAE06","019cf866-c181-7b20-bda0-d6b863aafd66","019cf855-66fc-7d76-a612-8313d2c5c123","","442","
                <div class=""stimulus-container"">
                    <img src=""images/semantic_sequence/redecorating_a_house_semantic/redecorating_a_house_semantic_4.png"" class=""exp-image"">
                    <div class=""question-area"">
                        <p style=""font-size: 20px; font-weight: bold; margin: 0;"">Is there a person in this image?</p>
                    </div>
                </div>","0","main_experiment_trial","4","redecorating_a_house_semantic","semantic_sequence","","","","",""
"","","","","","html-keyboard-response","67","244762","0.0-67.0","AC5B52521F2D43CD8FD6871C57EBAE06","019cf866-c181-7b20-bda0-d6b863aafd66","019cf855-66fc-7d76-a612-8313d2c5c123","","null","
                <div class=""stimulus-container"">
                    <img src=""images/semantic_sequence/redecorating_a_house_semantic/redecorating_a_house_semantic_5.png"" class=""exp-image"">
                    <div class=""question-area""></div> 
                </div>","null","","","","","","","","",""
"","","","","","html-button-response","68","245460","0.0-68.0","AC5B52521F2D43CD8FD6871C57EBAE06","019cf866-c181-7b20-bda0-d6b863aafd66","019cf855-66fc-7d76-a612-8313d2c5c123","","696","
                <div class=""stimulus-container"">
                    <img src=""images/semantic_sequence/redecorating_a_house_semantic/redecorating_a_house_semantic_5.png"" class=""exp-image"">
                    <div class=""question-area"">
                        <p style=""font-size: 20px; font-weight: bold; margin: 0;"">Is there a person in this image?</p>
                    </div>
                </div>","0","main_experiment_trial","5","redecorating_a_house_semantic","semantic_sequence","","","","",""
"","","","","","html-keyboard-response","69","250463","0.0-69.0","AC5B52521F2D43CD8FD6871C57EBAE06","019cf866-c181-7b20-bda0-d6b863aafd66","019cf855-66fc-7d76-a612-8313d2c5c123","","null","
                <div class=""stimulus-container"">
                    <img src=""images/semantic_sequence/redecorating_a_house_semantic/redecorating_a_house_semantic_6.png"" class=""exp-image"">
                    <div class=""question-area""></div> 
                </div>","null","","","","","","","","",""
"","","","","","html-button-response","70","251001","0.0-70.0","AC5B52521F2D43CD8FD6871C57EBAE06","019cf866-c181-7b20-bda0-d6b863aafd66","019cf855-66fc-7d76-a612-8313d2c5c123","","536","
                <div class=""stimulus-container"">
                    <img src=""images/semantic_sequence/redecorating_a_house_semantic/redecorating_a_house_semantic_6.png"" class=""exp-image"">
                    <div class=""question-area"">
                        <p style=""font-size: 20px; font-weight: bold; margin: 0;"">Is there a person in this image?</p>
                    </div>
                </div>","0","main_experiment_trial","6","redecorating_a_house_semantic","semantic_sequence","","","","",""
"","","","","","html-keyboard-response","71","256003","0.0-71.0","AC5B52521F2D43CD8FD6871C57EBAE06","019cf866-c181-7b20-bda0-d6b863aafd66","019cf855-66fc-7d76-a612-8313d2c5c123","","null","
                <div class=""stimulus-container"">
                    <img src=""images/semantic_sequence/redecorating_a_house_semantic/redecorating_a_house_semantic_7.png"" class=""exp-image"">
                    <div class=""question-area""></div> 
                </div>","null","","","","","","","","",""
"","","","","","html-button-response","72","257601","0.0-72.0","AC5B52521F2D43CD8FD6871C57EBAE06","019cf866-c181-7b20-bda0-d6b863aafd66","019cf855-66fc-7d76-a612-8313d2c5c123","","1596","
                <div class=""stimulus-container"">
                    <img src=""images/semantic_sequence/redecorating_a_house_semantic/redecorating_a_house_semantic_7.png"" class=""exp-image"">
                    <div class=""question-area"">
                        <p style=""font-size: 20px; font-weight: bold; margin: 0;"">Is there a person in this image?</p>
                    </div>
                </div>","0","main_experiment_trial","7","redecorating_a_house_semantic","semantic_sequence","","","","",""
"","","","","","html-keyboard-response","73","262603","0.0-73.0","AC5B52521F2D43CD8FD6871C57EBAE06","019cf866-c181-7b20-bda0-d6b863aafd66","019cf855-66fc-7d76-a612-8313d2c5c123","","null","
                <div class=""stimulus-container"">
                    <img src=""images/semantic_sequence/redecorating_a_house_semantic/redecorating_a_house_semantic_8.png"" class=""exp-image"">
                    <div class=""question-area""></div> 
                </div>","null","","","","","","","","",""
"","","","","","html-button-response","74","263088","0.0-74.0","AC5B52521F2D43CD8FD6871C57EBAE06","019cf866-c181-7b20-bda0-d6b863aafd66","019cf855-66fc-7d76-a612-8313d2c5c123","","483","
                <div class=""stimulus-container"">
                    <img src=""images/semantic_sequence/redecorating_a_house_semantic/redecorating_a_house_semantic_8.png"" class=""exp-image"">
                    <div class=""question-area"">
                        <p style=""font-size: 20px; font-weight: bold; margin: 0;"">Is there a person in this image?</p>
                    </div>
                </div>","0","main_experiment_trial","8","redecorating_a_house_semantic","semantic_sequence","","","","",""
"","","","","","html-keyboard-response","75","268090","0.0-75.0","AC5B52521F2D43CD8FD6871C57EBAE06","019cf866-c181-7b20-bda0-d6b863aafd66","019cf855-66fc-7d76-a612-8313d2c5c123","","null","
                <div class=""stimulus-container"">
                    <img src=""images/semantic_sequence/redecorating_a_house_semantic/redecorating_a_house_semantic_9.png"" class=""exp-image"">
                    <div class=""question-area""></div> 
                </div>","null","","","","","","","","",""
"","","","","","html-button-response","76","269061","0.0-76.0","AC5B52521F2D43CD8FD6871C57EBAE06","019cf866-c181-7b20-bda0-d6b863aafd66","019cf855-66fc-7d76-a612-8313d2c5c123","","968","
                <div class=""stimulus-container"">
                    <img src=""images/semantic_sequence/redecorating_a_house_semantic/redecorating_a_house_semantic_9.png"" class=""exp-image"">
                    <div class=""question-area"">
                        <p style=""font-size: 20px; font-weight: bold; margin: 0;"">Is there a person in this image?</p>
                    </div>
                </div>","0","main_experiment_trial","9","redecorating_a_house_semantic","semantic_sequence","","","","",""
"","","","","","html-keyboard-response","77","274064","0.0-77.0","AC5B52521F2D43CD8FD6871C57EBAE06","019cf866-c181-7b20-bda0-d6b863aafd66","019cf855-66fc-7d76-a612-8313d2c5c123","","null","
                <div class=""stimulus-container"">
                    <img src=""images/semantic_sequence/redecorating_a_house_semantic/redecorating_a_house_semantic_ten.png"" class=""exp-image"">
                    <div class=""question-area""></div> 
                </div>","null","","","","","","","","",""
"","","","","","html-button-response","78","274672","0.0-78.0","AC5B52521F2D43CD8FD6871C57EBAE06","019cf866-c181-7b20-bda0-d6b863aafd66","019cf855-66fc-7d76-a612-8313d2c5c123","","606","
                <div class=""stimulus-container"">
                    <img src=""images/semantic_sequence/redecorating_a_house_semantic/redecorating_a_house_semantic_ten.png"" class=""exp-image"">
                    <div class=""question-area"">
                        <p style=""font-size: 20px; font-weight: bold; margin: 0;"">Is there a person in this image?</p>
                    </div>
                </div>","0","main_experiment_trial","ten","redecorating_a_house_semantic","semantic_sequence","","","","",""
"","","","","","html-keyboard-response","79","275674","0.0-79.0","AC5B52521F2D43CD8FD6871C57EBAE06","019cf866-c181-7b20-bda0-d6b863aafd66","019cf855-66fc-7d76-a612-8313d2c5c123","","null","<div style=""background-color: white; width: 100vw; height: 100vh;""></div>","null","","","","","","","","",""
"","","","","","html-keyboard-response","80","280676","0.0-80.0","AC5B52521F2D43CD8FD6871C57EBAE06","019cf866-c181-7b20-bda0-d6b863aafd66","019cf855-66fc-7d76-a612-8313d2c5c123","","null","
                <div class=""stimulus-container"">
                    <img src=""images/semantic_sequence/kitchen_operations_semantic/kitchen_operations_semantic_1.png"" class=""exp-image"">
                    <div class=""question-area""></div> 
                </div>","null","","","","","","","","",""
"","","","","","html-button-response","81","281262","0.0-81.0","AC5B52521F2D43CD8FD6871C57EBAE06","019cf866-c181-7b20-bda0-d6b863aafd66","019cf855-66fc-7d76-a612-8313d2c5c123","","584","
                <div class=""stimulus-container"">
                    <img src=""images/semantic_sequence/kitchen_operations_semantic/kitchen_operations_semantic_1.png"" class=""exp-image"">
                    <div class=""question-area"">
                        <p style=""font-size: 20px; font-weight: bold; margin: 0;"">Is there a person in this image?</p>
                    </div>
                </div>","0","main_experiment_trial","1","kitchen_operations_semantic","semantic_sequence","","","","",""
"","","","","","html-keyboard-response","82","286265","0.0-82.0","AC5B52521F2D43CD8FD6871C57EBAE06","019cf866-c181-7b20-bda0-d6b863aafd66","019cf855-66fc-7d76-a612-8313d2c5c123","","null","
                <div class=""stimulus-container"">
                    <img src=""images/semantic_sequence/kitchen_operations_semantic/kitchen_operations_semantic_2.png"" class=""exp-image"">
                    <div class=""question-area""></div> 
                </div>","null","","","","","","","","",""
"","","","","","html-button-response","83","286728","0.0-83.0","AC5B52521F2D43CD8FD6871C57EBAE06","019cf866-c181-7b20-bda0-d6b863aafd66","019cf855-66fc-7d76-a612-8313d2c5c123","","460","
                <div class=""stimulus-container"">
                    <img src=""images/semantic_sequence/kitchen_operations_semantic/kitchen_operations_semantic_2.png"" class=""exp-image"">
                    <div class=""question-area"">
                        <p style=""font-size: 20px; font-weight: bold; margin: 0;"">Is there a person in this image?</p>
                    </div>
                </div>","0","main_experiment_trial","2","kitchen_operations_semantic","semantic_sequence","","","","",""
"","","","","","html-keyboard-response","84","291731","0.0-84.0","AC5B52521F2D43CD8FD6871C57EBAE06","019cf866-c181-7b20-bda0-d6b863aafd66","019cf855-66fc-7d76-a612-8313d2c5c123","","null","
                <div class=""stimulus-container"">
                    <img src=""images/semantic_sequence/kitchen_operations_semantic/kitchen_operations_semantic_3.png"" class=""exp-image"">
                    <div class=""question-area""></div> 
                </div>","null","","","","","","","","",""
"","","","","","html-button-response","85","292241","0.0-85.0","AC5B52521F2D43CD8FD6871C57EBAE06","019cf866-c181-7b20-bda0-d6b863aafd66","019cf855-66fc-7d76-a612-8313d2c5c123","","507","
                <div class=""stimulus-container"">
                    <img src=""images/semantic_sequence/kitchen_operations_semantic/kitchen_operations_semantic_3.png"" class=""exp-image"">
                    <div class=""question-area"">
                        <p style=""font-size: 20px; font-weight: bold; margin: 0;"">Is there a person in this image?</p>
                    </div>
                </div>","0","main_experiment_trial","3","kitchen_operations_semantic","semantic_sequence","","","","",""
"","","","","","html-keyboard-response","86","297243","0.0-86.0","AC5B52521F2D43CD8FD6871C57EBAE06","019cf866-c181-7b20-bda0-d6b863aafd66","019cf855-66fc-7d76-a612-8313d2c5c123","","null","
                <div class=""stimulus-container"">
                    <img src=""images/semantic_sequence/kitchen_operations_semantic/kitchen_operations_semantic_4.png"" class=""exp-image"">
                    <div class=""question-area""></div> 
                </div>","null","","","","","","","","",""
"","","","","","html-button-response","87","298320","0.0-87.0","AC5B52521F2D43CD8FD6871C57EBAE06","019cf866-c181-7b20-bda0-d6b863aafd66","019cf855-66fc-7d76-a612-8313d2c5c123","","1075","
                <div class=""stimulus-container"">
                    <img src=""images/semantic_sequence/kitchen_operations_semantic/kitchen_operations_semantic_4.png"" class=""exp-image"">
                    <div class=""question-area"">
                        <p style=""font-size: 20px; font-weight: bold; margin: 0;"">Is there a person in this image?</p>
                    </div>
                </div>","0","main_experiment_trial","4","kitchen_operations_semantic","semantic_sequence","","","","",""
"","","","","","html-keyboard-response","88","303322","0.0-88.0","AC5B52521F2D43CD8FD6871C57EBAE06","019cf866-c181-7b20-bda0-d6b863aafd66","019cf855-66fc-7d76-a612-8313d2c5c123","","null","
                <div class=""stimulus-container"">
                    <img src=""images/semantic_sequence/kitchen_operations_semantic/kitchen_operations_semantic_5.png"" class=""exp-image"">
                    <div class=""question-area""></div> 
                </div>","null","","","","","","","","",""
"","","","","","html-button-response","89","306325","0.0-89.0","AC5B52521F2D43CD8FD6871C57EBAE06","019cf866-c181-7b20-bda0-d6b863aafd66","019cf855-66fc-7d76-a612-8313d2c5c123","","null","
                <div class=""stimulus-container"">
                    <img src=""images/semantic_sequence/kitchen_operations_semantic/kitchen_operations_semantic_5.png"" class=""exp-image"">
                    <div class=""question-area"">
                        <p style=""font-size: 20px; font-weight: bold; margin: 0;"">Is there a person in this image?</p>
                    </div>
                </div>","null","main_experiment_trial","5","kitchen_operations_semantic","semantic_sequence","","","","",""
"","","","","","html-keyboard-response","90","311328","0.0-90.0","AC5B52521F2D43CD8FD6871C57EBAE06","019cf866-c181-7b20-bda0-d6b863aafd66","019cf855-66fc-7d76-a612-8313d2c5c123","","null","
                <div class=""stimulus-container"">
                    <img src=""images/semantic_sequence/kitchen_operations_semantic/kitchen_operations_semantic_6.png"" class=""exp-image"">
                    <div class=""question-area""></div> 
                </div>","null","","","","","","","","",""
"","","","","","html-button-response","91","311811","0.0-91.0","AC5B52521F2D43CD8FD6871C57EBAE06","019cf866-c181-7b20-bda0-d6b863aafd66","019cf855-66fc-7d76-a612-8313d2c5c123","","481","
                <div class=""stimulus-container"">
                    <img src=""images/semantic_sequence/kitchen_operations_semantic/kitchen_operations_semantic_6.png"" class=""exp-image"">
                    <div class=""question-area"">
                        <p style=""font-size: 20px; font-weight: bold; margin: 0;"">Is there a person in this image?</p>
                    </div>
                </div>","0","main_experiment_trial","6","kitchen_operations_semantic","semantic_sequence","","","","",""
"","","","","","html-keyboard-response","92","316814","0.0-92.0","AC5B52521F2D43CD8FD6871C57EBAE06","019cf866-c181-7b20-bda0-d6b863aafd66","019cf855-66fc-7d76-a612-8313d2c5c123","","null","
                <div class=""stimulus-container"">
                    <img src=""images/semantic_sequence/kitchen_operations_semantic/kitchen_operations_semantic_7.png"" class=""exp-image"">
                    <div class=""question-area""></div> 
                </div>","null","","","","","","","","",""
"","","","","","html-button-response","93","317306","0.0-93.0","AC5B52521F2D43CD8FD6871C57EBAE06","019cf866-c181-7b20-bda0-d6b863aafd66","019cf855-66fc-7d76-a612-8313d2c5c123","","489","
                <div class=""stimulus-container"">
                    <img src=""images/semantic_sequence/kitchen_operations_semantic/kitchen_operations_semantic_7.png"" class=""exp-image"">
                    <div class=""question-area"">
                        <p style=""font-size: 20px; font-weight: bold; margin: 0;"">Is there a person in this image?</p>
                    </div>
                </div>","0","main_experiment_trial","7","kitchen_operations_semantic","semantic_sequence","","","","",""
"","","","","","html-keyboard-response","94","322308","0.0-94.0","AC5B52521F2D43CD8FD6871C57EBAE06","019cf866-c181-7b20-bda0-d6b863aafd66","019cf855-66fc-7d76-a612-8313d2c5c123","","null","
                <div class=""stimulus-container"">
                    <img src=""images/semantic_sequence/kitchen_operations_semantic/kitchen_operations_semantic_8.png"" class=""exp-image"">
                    <div class=""question-area""></div> 
                </div>","null","","","","","","","","",""
"","","","","","html-button-response","95","323135","0.0-95.0","AC5B52521F2D43CD8FD6871C57EBAE06","019cf866-c181-7b20-bda0-d6b863aafd66","019cf855-66fc-7d76-a612-8313d2c5c123","","825","
                <div class=""stimulus-container"">
                    <img src=""images/semantic_sequence/kitchen_operations_semantic/kitchen_operations_semantic_8.png"" class=""exp-image"">
                    <div class=""question-area"">
                        <p style=""font-size: 20px; font-weight: bold; margin: 0;"">Is there a person in this image?</p>
                    </div>
                </div>","0","main_experiment_trial","8","kitchen_operations_semantic","semantic_sequence","","","","",""
"","","","","","html-keyboard-response","96","328138","0.0-96.0","AC5B52521F2D43CD8FD6871C57EBAE06","019cf866-c181-7b20-bda0-d6b863aafd66","019cf855-66fc-7d76-a612-8313d2c5c123","","null","
                <div class=""stimulus-container"">
                    <img src=""images/semantic_sequence/kitchen_operations_semantic/kitchen_operations_semantic_9.png"" class=""exp-image"">
                    <div class=""question-area""></div> 
                </div>","null","","","","","","","","",""
"","","","","","html-button-response","97","328577","0.0-97.0","AC5B52521F2D43CD8FD6871C57EBAE06","019cf866-c181-7b20-bda0-d6b863aafd66","019cf855-66fc-7d76-a612-8313d2c5c123","","437","
                <div class=""stimulus-container"">
                    <img src=""images/semantic_sequence/kitchen_operations_semantic/kitchen_operations_semantic_9.png"" class=""exp-image"">
                    <div class=""question-area"">
                        <p style=""font-size: 20px; font-weight: bold; margin: 0;"">Is there a person in this image?</p>
                    </div>
                </div>","0","main_experiment_trial","9","kitchen_operations_semantic","semantic_sequence","","","","",""
"","","","","","html-keyboard-response","98","333580","0.0-98.0","AC5B52521F2D43CD8FD6871C57EBAE06","019cf866-c181-7b20-bda0-d6b863aafd66","019cf855-66fc-7d76-a612-8313d2c5c123","","null","
                <div class=""stimulus-container"">
                    <img src=""images/semantic_sequence/kitchen_operations_semantic/kitchen_operations_semantic_ten.png"" class=""exp-image"">
                    <div class=""question-area""></div> 
                </div>","null","","","","","","","","",""
"","","","","","html-button-response","99","334154","0.0-99.0","AC5B52521F2D43CD8FD6871C57EBAE06","019cf866-c181-7b20-bda0-d6b863aafd66","019cf855-66fc-7d76-a612-8313d2c5c123","","572","
                <div class=""stimulus-container"">
                    <img src=""images/semantic_sequence/kitchen_operations_semantic/kitchen_operations_semantic_ten.png"" class=""exp-image"">
                    <div class=""question-area"">
                        <p style=""font-size: 20px; font-weight: bold; margin: 0;"">Is there a person in this image?</p>
                    </div>
                </div>","0","main_experiment_trial","ten","kitchen_operations_semantic","semantic_sequence","","","","",""
"","","","","","html-keyboard-response","100","335155","0.0-100.0","AC5B52521F2D43CD8FD6871C57EBAE06","019cf866-c181-7b20-bda0-d6b863aafd66","019cf855-66fc-7d76-a612-8313d2c5c123","","null","<div style=""background-color: white; width: 100vw; height: 100vh;""></div>","null","","","","","","","","",""
"","","","","","html-keyboard-response","101","340157","0.0-101.0","AC5B52521F2D43CD8FD6871C57EBAE06","019cf866-c181-7b20-bda0-d6b863aafd66","019cf855-66fc-7d76-a612-8313d2c5c123","","null","
                <div class=""stimulus-container"">
                    <img src=""images/schematic_sequence/supermarket_scheme/supermarket_scheme_1.png"" class=""exp-image"">
                    <div class=""question-area""></div> 
                </div>","null","","","","","","","","",""
"","","","","","html-button-response","102","340661","0.0-102.0","AC5B52521F2D43CD8FD6871C57EBAE06","019cf866-c181-7b20-bda0-d6b863aafd66","019cf855-66fc-7d76-a612-8313d2c5c123","","503","
                <div class=""stimulus-container"">
                    <img src=""images/schematic_sequence/supermarket_scheme/supermarket_scheme_1.png"" class=""exp-image"">
                    <div class=""question-area"">
                        <p style=""font-size: 20px; font-weight: bold; margin: 0;"">Is there a person in this image?</p>
                    </div>
                </div>","1","main_experiment_trial","1","supermarket_scheme","schematic_sequence","","","","",""
"","","","","","html-keyboard-response","103","345664","0.0-103.0","AC5B52521F2D43CD8FD6871C57EBAE06","019cf866-c181-7b20-bda0-d6b863aafd66","019cf855-66fc-7d76-a612-8313d2c5c123","","null","
                <div class=""stimulus-container"">
                    <img src=""images/schematic_sequence/supermarket_scheme/supermarket_scheme_2.png"" class=""exp-image"">
                    <div class=""question-area""></div> 
                </div>","null","","","","","","","","",""
"","","","","","html-button-response","104","346365","0.0-104.0","AC5B52521F2D43CD8FD6871C57EBAE06","019cf866-c181-7b20-bda0-d6b863aafd66","019cf855-66fc-7d76-a612-8313d2c5c123","","699","
                <div class=""stimulus-container"">
                    <img src=""images/schematic_sequence/supermarket_scheme/supermarket_scheme_2.png"" class=""exp-image"">
                    <div class=""question-area"">
                        <p style=""font-size: 20px; font-weight: bold; margin: 0;"">Is there a person in this image?</p>
                    </div>
                </div>","1","main_experiment_trial","2","supermarket_scheme","schematic_sequence","","","","",""
"","","","","","html-keyboard-response","105","351367","0.0-105.0","AC5B52521F2D43CD8FD6871C57EBAE06","019cf866-c181-7b20-bda0-d6b863aafd66","019cf855-66fc-7d76-a612-8313d2c5c123","","null","
                <div class=""stimulus-container"">
                    <img src=""images/schematic_sequence/supermarket_scheme/supermarket_scheme_3.png"" class=""exp-image"">
                    <div class=""question-area""></div> 
                </div>","null","","","","","","","","",""
"","","","","","html-button-response","106","351819","0.0-106.0","AC5B52521F2D43CD8FD6871C57EBAE06","019cf866-c181-7b20-bda0-d6b863aafd66","019cf855-66fc-7d76-a612-8313d2c5c123","","450","
                <div class=""stimulus-container"">
                    <img src=""images/schematic_sequence/supermarket_scheme/supermarket_scheme_3.png"" class=""exp-image"">
                    <div class=""question-area"">
                        <p style=""font-size: 20px; font-weight: bold; margin: 0;"">Is there a person in this image?</p>
                    </div>
                </div>","1","main_experiment_trial","3","supermarket_scheme","schematic_sequence","","","","",""
"","","","","","html-keyboard-response","107","356821","0.0-107.0","AC5B52521F2D43CD8FD6871C57EBAE06","019cf866-c181-7b20-bda0-d6b863aafd66","019cf855-66fc-7d76-a612-8313d2c5c123","","null","
                <div class=""stimulus-container"">
                    <img src=""images/schematic_sequence/supermarket_scheme/supermarket_scheme_4.png"" class=""exp-image"">
                    <div class=""question-area""></div> 
                </div>","null","","","","","","","","",""
"","","","","","html-button-response","108","358523","0.0-108.0","AC5B52521F2D43CD8FD6871C57EBAE06","019cf866-c181-7b20-bda0-d6b863aafd66","019cf855-66fc-7d76-a612-8313d2c5c123","","1700","
                <div class=""stimulus-container"">
                    <img src=""images/schematic_sequence/supermarket_scheme/supermarket_scheme_4.png"" class=""exp-image"">
                    <div class=""question-area"">
                        <p style=""font-size: 20px; font-weight: bold; margin: 0;"">Is there a person in this image?</p>
                    </div>
                </div>","0","main_experiment_trial","4","supermarket_scheme","schematic_sequence","","","","",""
"","","","","","html-keyboard-response","109","363525","0.0-109.0","AC5B52521F2D43CD8FD6871C57EBAE06","019cf866-c181-7b20-bda0-d6b863aafd66","019cf855-66fc-7d76-a612-8313d2c5c123","","null","
                <div class=""stimulus-container"">
                    <img src=""images/schematic_sequence/supermarket_scheme/supermarket_scheme_5.png"" class=""exp-image"">
                    <div class=""question-area""></div> 
                </div>","null","","","","","","","","",""
"","","","","","html-button-response","110","364004","0.0-110.0","AC5B52521F2D43CD8FD6871C57EBAE06","019cf866-c181-7b20-bda0-d6b863aafd66","019cf855-66fc-7d76-a612-8313d2c5c123","","476","
                <div class=""stimulus-container"">
                    <img src=""images/schematic_sequence/supermarket_scheme/supermarket_scheme_5.png"" class=""exp-image"">
                    <div class=""question-area"">
                        <p style=""font-size: 20px; font-weight: bold; margin: 0;"">Is there a person in this image?</p>
                    </div>
                </div>","1","main_experiment_trial","5","supermarket_scheme","schematic_sequence","","","","",""
"","","","","","html-keyboard-response","111","369006","0.0-111.0","AC5B52521F2D43CD8FD6871C57EBAE06","019cf866-c181-7b20-bda0-d6b863aafd66","019cf855-66fc-7d76-a612-8313d2c5c123","","null","
                <div class=""stimulus-container"">
                    <img src=""images/schematic_sequence/supermarket_scheme/supermarket_scheme_6.png"" class=""exp-image"">
                    <div class=""question-area""></div> 
                </div>","null","","","","","","","","",""
"","","","","","html-button-response","112","370181","0.0-112.0","AC5B52521F2D43CD8FD6871C57EBAE06","019cf866-c181-7b20-bda0-d6b863aafd66","019cf855-66fc-7d76-a612-8313d2c5c123","","1173","
                <div class=""stimulus-container"">
                    <img src=""images/schematic_sequence/supermarket_scheme/supermarket_scheme_6.png"" class=""exp-image"">
                    <div class=""question-area"">
                        <p style=""font-size: 20px; font-weight: bold; margin: 0;"">Is there a person in this image?</p>
                    </div>
                </div>","0","main_experiment_trial","6","supermarket_scheme","schematic_sequence","","","","",""
"","","","","","html-keyboard-response","113","375183","0.0-113.0","AC5B52521F2D43CD8FD6871C57EBAE06","019cf866-c181-7b20-bda0-d6b863aafd66","019cf855-66fc-7d76-a612-8313d2c5c123","","null","
                <div class=""stimulus-container"">
                    <img src=""images/schematic_sequence/supermarket_scheme/supermarket_scheme_7.png"" class=""exp-image"">
                    <div class=""question-area""></div> 
                </div>","null","","","","","","","","",""
"","","","","","html-button-response","114","375594","0.0-114.0","AC5B52521F2D43CD8FD6871C57EBAE06","019cf866-c181-7b20-bda0-d6b863aafd66","019cf855-66fc-7d76-a612-8313d2c5c123","","410","
                <div class=""stimulus-container"">
                    <img src=""images/schematic_sequence/supermarket_scheme/supermarket_scheme_7.png"" class=""exp-image"">
                    <div class=""question-area"">
                        <p style=""font-size: 20px; font-weight: bold; margin: 0;"">Is there a person in this image?</p>
                    </div>
                </div>","0","main_experiment_trial","7","supermarket_scheme","schematic_sequence","","","","",""
"","","","","","html-keyboard-response","115","380596","0.0-115.0","AC5B52521F2D43CD8FD6871C57EBAE06","019cf866-c181-7b20-bda0-d6b863aafd66","019cf855-66fc-7d76-a612-8313d2c5c123","","null","
                <div class=""stimulus-container"">
                    <img src=""images/schematic_sequence/supermarket_scheme/supermarket_scheme_8.png"" class=""exp-image"">
                    <div class=""question-area""></div> 
                </div>","null","","","","","","","","",""
"","","","","","html-button-response","116","381186","0.0-116.0","AC5B52521F2D43CD8FD6871C57EBAE06","019cf866-c181-7b20-bda0-d6b863aafd66","019cf855-66fc-7d76-a612-8313d2c5c123","","587","
                <div class=""stimulus-container"">
                    <img src=""images/schematic_sequence/supermarket_scheme/supermarket_scheme_8.png"" class=""exp-image"">
                    <div class=""question-area"">
                        <p style=""font-size: 20px; font-weight: bold; margin: 0;"">Is there a person in this image?</p>
                    </div>
                </div>","0","main_experiment_trial","8","supermarket_scheme","schematic_sequence","","","","",""
"","","","","","html-keyboard-response","117","386188","0.0-117.0","AC5B52521F2D43CD8FD6871C57EBAE06","019cf866-c181-7b20-bda0-d6b863aafd66","019cf855-66fc-7d76-a612-8313d2c5c123","","null","
                <div class=""stimulus-container"">
                    <img src=""images/schematic_sequence/supermarket_scheme/supermarket_scheme_9.png"" class=""exp-image"">
                    <div class=""question-area""></div> 
                </div>","null","","","","","","","","",""
"","","","","","html-button-response","118","386764","0.0-118.0","AC5B52521F2D43CD8FD6871C57EBAE06","019cf866-c181-7b20-bda0-d6b863aafd66","019cf855-66fc-7d76-a612-8313d2c5c123","","574","
                <div class=""stimulus-container"">
                    <img src=""images/schematic_sequence/supermarket_scheme/supermarket_scheme_9.png"" class=""exp-image"">
                    <div class=""question-area"">
                        <p style=""font-size: 20px; font-weight: bold; margin: 0;"">Is there a person in this image?</p>
                    </div>
                </div>","0","main_experiment_trial","9","supermarket_scheme","schematic_sequence","","","","",""
"","","","","","html-keyboard-response","119","391767","0.0-119.0","AC5B52521F2D43CD8FD6871C57EBAE06","019cf866-c181-7b20-bda0-d6b863aafd66","019cf855-66fc-7d76-a612-8313d2c5c123","","null","
                <div class=""stimulus-container"">
                    <img src=""images/schematic_sequence/supermarket_scheme/supermarket_scheme_ten.png"" class=""exp-image"">
                    <div class=""question-area""></div> 
                </div>","null","","","","","","","","",""
"","","","","","html-button-response","120","392236","0.0-120.0","AC5B52521F2D43CD8FD6871C57EBAE06","019cf866-c181-7b20-bda0-d6b863aafd66","019cf855-66fc-7d76-a612-8313d2c5c123","","467","
                <div class=""stimulus-container"">
                    <img src=""images/schematic_sequence/supermarket_scheme/supermarket_scheme_ten.png"" class=""exp-image"">
                    <div class=""question-area"">
                        <p style=""font-size: 20px; font-weight: bold; margin: 0;"">Is there a person in this image?</p>
                    </div>
                </div>","1","main_experiment_trial","ten","supermarket_scheme","schematic_sequence","","","","",""
"","","","","","html-keyboard-response","121","393238","0.0-121.0","AC5B52521F2D43CD8FD6871C57EBAE06","019cf866-c181-7b20-bda0-d6b863aafd66","019cf855-66fc-7d76-a612-8313d2c5c123","","null","<div style=""background-color: white; width: 100vw; height: 100vh;""></div>","null","","","","","","","","",""
"","","","","","html-keyboard-response","122","398241","0.0-122.0","AC5B52521F2D43CD8FD6871C57EBAE06","019cf866-c181-7b20-bda0-d6b863aafd66","019cf855-66fc-7d76-a612-8313d2c5c123","","null","
                <div class=""stimulus-container"">
                    <img src=""images/schematic_sequence/hotel_scheme/hotel_scheme_1.png"" class=""exp-image"">
                    <div class=""question-area""></div> 
                </div>","null","","","","","","","","",""
"","","","","","html-button-response","123","398732","0.0-123.0","AC5B52521F2D43CD8FD6871C57EBAE06","019cf866-c181-7b20-bda0-d6b863aafd66","019cf855-66fc-7d76-a612-8313d2c5c123","","489","
                <div class=""stimulus-container"">
                    <img src=""images/schematic_sequence/hotel_scheme/hotel_scheme_1.png"" class=""exp-image"">
                    <div class=""question-area"">
                        <p style=""font-size: 20px; font-weight: bold; margin: 0;"">Is there a person in this image?</p>
                    </div>
                </div>","1","main_experiment_trial","1","hotel_scheme","schematic_sequence","","","","",""
"","","","","","html-keyboard-response","124","403735","0.0-124.0","AC5B52521F2D43CD8FD6871C57EBAE06","019cf866-c181-7b20-bda0-d6b863aafd66","019cf855-66fc-7d76-a612-8313d2c5c123","","null","
                <div class=""stimulus-container"">
                    <img src=""images/schematic_sequence/hotel_scheme/hotel_scheme_2.png"" class=""exp-image"">
                    <div class=""question-area""></div> 
                </div>","null","","","","","","","","",""
"","","","","","html-button-response","125","404299","0.0-125.0","AC5B52521F2D43CD8FD6871C57EBAE06","019cf866-c181-7b20-bda0-d6b863aafd66","019cf855-66fc-7d76-a612-8313d2c5c123","","562","
                <div class=""stimulus-container"">
                    <img src=""images/schematic_sequence/hotel_scheme/hotel_scheme_2.png"" class=""exp-image"">
                    <div class=""question-area"">
                        <p style=""font-size: 20px; font-weight: bold; margin: 0;"">Is there a person in this image?</p>
                    </div>
                </div>","0","main_experiment_trial","2","hotel_scheme","schematic_sequence","","","","",""
"","","","","","html-keyboard-response","126","409302","0.0-126.0","AC5B52521F2D43CD8FD6871C57EBAE06","019cf866-c181-7b20-bda0-d6b863aafd66","019cf855-66fc-7d76-a612-8313d2c5c123","","null","
                <div class=""stimulus-container"">
                    <img src=""images/schematic_sequence/hotel_scheme/hotel_scheme_3.png"" class=""exp-image"">
                    <div class=""question-area""></div> 
                </div>","null","","","","","","","","",""
"","","","","","html-button-response","127","409909","0.0-127.0","AC5B52521F2D43CD8FD6871C57EBAE06","019cf866-c181-7b20-bda0-d6b863aafd66","019cf855-66fc-7d76-a612-8313d2c5c123","","605","
                <div class=""stimulus-container"">
                    <img src=""images/schematic_sequence/hotel_scheme/hotel_scheme_3.png"" class=""exp-image"">
                    <div class=""question-area"">
                        <p style=""font-size: 20px; font-weight: bold; margin: 0;"">Is there a person in this image?</p>
                    </div>
                </div>","0","main_experiment_trial","3","hotel_scheme","schematic_sequence","","","","",""
"","","","","","html-keyboard-response","128","414911","0.0-128.0","AC5B52521F2D43CD8FD6871C57EBAE06","019cf866-c181-7b20-bda0-d6b863aafd66","019cf855-66fc-7d76-a612-8313d2c5c123","","null","
                <div class=""stimulus-container"">
                    <img src=""images/schematic_sequence/hotel_scheme/hotel_scheme_4.png"" class=""exp-image"">
                    <div class=""question-area""></div> 
                </div>","null","","","","","","","","",""
"","","","","","html-button-response","129","415281","0.0-129.0","AC5B52521F2D43CD8FD6871C57EBAE06","019cf866-c181-7b20-bda0-d6b863aafd66","019cf855-66fc-7d76-a612-8313d2c5c123","","367","
                <div class=""stimulus-container"">
                    <img src=""images/schematic_sequence/hotel_scheme/hotel_scheme_4.png"" class=""exp-image"">
                    <div class=""question-area"">
                        <p style=""font-size: 20px; font-weight: bold; margin: 0;"">Is there a person in this image?</p>
                    </div>
                </div>","1","main_experiment_trial","4","hotel_scheme","schematic_sequence","","","","",""
"","","","","","html-keyboard-response","130","420284","0.0-130.0","AC5B52521F2D43CD8FD6871C57EBAE06","019cf866-c181-7b20-bda0-d6b863aafd66","019cf855-66fc-7d76-a612-8313d2c5c123","","null","
                <div class=""stimulus-container"">
                    <img src=""images/schematic_sequence/hotel_scheme/hotel_scheme_5.png"" class=""exp-image"">
                    <div class=""question-area""></div> 
                </div>","null","","","","","","","","",""
"","","","","","html-button-response","131","420869","0.0-131.0","AC5B52521F2D43CD8FD6871C57EBAE06","019cf866-c181-7b20-bda0-d6b863aafd66","019cf855-66fc-7d76-a612-8313d2c5c123","","583","
                <div class=""stimulus-container"">
                    <img src=""images/schematic_sequence/hotel_scheme/hotel_scheme_5.png"" class=""exp-image"">
                    <div class=""question-area"">
                        <p style=""font-size: 20px; font-weight: bold; margin: 0;"">Is there a person in this image?</p>
                    </div>
                </div>","0","main_experiment_trial","5","hotel_scheme","schematic_sequence","","","","",""
"","","","","","html-keyboard-response","132","425872","0.0-132.0","AC5B52521F2D43CD8FD6871C57EBAE06","019cf866-c181-7b20-bda0-d6b863aafd66","019cf855-66fc-7d76-a612-8313d2c5c123","","null","
                <div class=""stimulus-container"">
                    <img src=""images/schematic_sequence/hotel_scheme/hotel_scheme_6.png"" class=""exp-image"">
                    <div class=""question-area""></div> 
                </div>","null","","","","","","","","",""
"","","","","","html-button-response","133","426456","0.0-133.0","AC5B52521F2D43CD8FD6871C57EBAE06","019cf866-c181-7b20-bda0-d6b863aafd66","019cf855-66fc-7d76-a612-8313d2c5c123","","583","
                <div class=""stimulus-container"">
                    <img src=""images/schematic_sequence/hotel_scheme/hotel_scheme_6.png"" class=""exp-image"">
                    <div class=""question-area"">
                        <p style=""font-size: 20px; font-weight: bold; margin: 0;"">Is there a person in this image?</p>
                    </div>
                </div>","0","main_experiment_trial","6","hotel_scheme","schematic_sequence","","","","",""
"","","","","","html-keyboard-response","134","431459","0.0-134.0","AC5B52521F2D43CD8FD6871C57EBAE06","019cf866-c181-7b20-bda0-d6b863aafd66","019cf855-66fc-7d76-a612-8313d2c5c123","","null","
                <div class=""stimulus-container"">
                    <img src=""images/schematic_sequence/hotel_scheme/hotel_scheme_7.png"" class=""exp-image"">
                    <div class=""question-area""></div> 
                </div>","null","","","","","","","","",""
"","","","","","html-button-response","135","434462","0.0-135.0","AC5B52521F2D43CD8FD6871C57EBAE06","019cf866-c181-7b20-bda0-d6b863aafd66","019cf855-66fc-7d76-a612-8313d2c5c123","","null","
                <div class=""stimulus-container"">
                    <img src=""images/schematic_sequence/hotel_scheme/hotel_scheme_7.png"" class=""exp-image"">
                    <div class=""question-area"">
                        <p style=""font-size: 20px; font-weight: bold; margin: 0;"">Is there a person in this image?</p>
                    </div>
                </div>","null","main_experiment_trial","7","hotel_scheme","schematic_sequence","","","","",""
"","","","","","html-keyboard-response","136","439465","0.0-136.0","AC5B52521F2D43CD8FD6871C57EBAE06","019cf866-c181-7b20-bda0-d6b863aafd66","019cf855-66fc-7d76-a612-8313d2c5c123","","null","
                <div class=""stimulus-container"">
                    <img src=""images/schematic_sequence/hotel_scheme/hotel_scheme_8.png"" class=""exp-image"">
                    <div class=""question-area""></div> 
                </div>","null","","","","","","","","",""
"","","","","","html-button-response","137","442469","0.0-137.0","AC5B52521F2D43CD8FD6871C57EBAE06","019cf866-c181-7b20-bda0-d6b863aafd66","019cf855-66fc-7d76-a612-8313d2c5c123","","null","
                <div class=""stimulus-container"">
                    <img src=""images/schematic_sequence/hotel_scheme/hotel_scheme_8.png"" class=""exp-image"">
                    <div class=""question-area"">
                        <p style=""font-size: 20px; font-weight: bold; margin: 0;"">Is there a person in this image?</p>
                    </div>
                </div>","null","main_experiment_trial","8","hotel_scheme","schematic_sequence","","","","",""
"","","","","","html-keyboard-response","138","447472","0.0-138.0","AC5B52521F2D43CD8FD6871C57EBAE06","019cf866-c181-7b20-bda0-d6b863aafd66","019cf855-66fc-7d76-a612-8313d2c5c123","","null","
                <div class=""stimulus-container"">
                    <img src=""images/schematic_sequence/hotel_scheme/hotel_scheme_9.png"" class=""exp-image"">
                    <div class=""question-area""></div> 
                </div>","null","","","","","","","","",""
"","","","","","html-button-response","139","450475","0.0-139.0","AC5B52521F2D43CD8FD6871C57EBAE06","019cf866-c181-7b20-bda0-d6b863aafd66","019cf855-66fc-7d76-a612-8313d2c5c123","","null","
                <div class=""stimulus-container"">
                    <img src=""images/schematic_sequence/hotel_scheme/hotel_scheme_9.png"" class=""exp-image"">
                    <div class=""question-area"">
                        <p style=""font-size: 20px; font-weight: bold; margin: 0;"">Is there a person in this image?</p>
                    </div>
                </div>","null","main_experiment_trial","9","hotel_scheme","schematic_sequence","","","","",""
"","","","","","html-keyboard-response","140","455477","0.0-140.0","AC5B52521F2D43CD8FD6871C57EBAE06","019cf866-c181-7b20-bda0-d6b863aafd66","019cf855-66fc-7d76-a612-8313d2c5c123","","null","
                <div class=""stimulus-container"">
                    <img src=""images/schematic_sequence/hotel_scheme/hotel_scheme_ten.png"" class=""exp-image"">
                    <div class=""question-area""></div> 
                </div>","null","","","","","","","","",""
"","","","","","html-button-response","141","456424","0.0-141.0","AC5B52521F2D43CD8FD6871C57EBAE06","019cf866-c181-7b20-bda0-d6b863aafd66","019cf855-66fc-7d76-a612-8313d2c5c123","","944","
                <div class=""stimulus-container"">
                    <img src=""images/schematic_sequence/hotel_scheme/hotel_scheme_ten.png"" class=""exp-image"">
                    <div class=""question-area"">
                        <p style=""font-size: 20px; font-weight: bold; margin: 0;"">Is there a person in this image?</p>
                    </div>
                </div>","0","main_experiment_trial","ten","hotel_scheme","schematic_sequence","","","","",""
"","","","","","html-keyboard-response","142","457426","0.0-142.0","AC5B52521F2D43CD8FD6871C57EBAE06","019cf866-c181-7b20-bda0-d6b863aafd66","019cf855-66fc-7d76-a612-8313d2c5c123","","null","<div style=""background-color: white; width: 100vw; height: 100vh;""></div>","null","","","","","","","","",""
"","","","","","html-keyboard-response","143","462428","0.0-143.0","AC5B52521F2D43CD8FD6871C57EBAE06","019cf866-c181-7b20-bda0-d6b863aafd66","019cf855-66fc-7d76-a612-8313d2c5c123","","null","
                <div class=""stimulus-container"">
                    <img src=""images/schematic_sequence/interview_scheme/interview_scheme_1.png"" class=""exp-image"">
                    <div class=""question-area""></div> 
                </div>","null","","","","","","","","",""
"","","","","","html-button-response","144","463296","0.0-144.0","AC5B52521F2D43CD8FD6871C57EBAE06","019cf866-c181-7b20-bda0-d6b863aafd66","019cf855-66fc-7d76-a612-8313d2c5c123","","866","
                <div class=""stimulus-container"">
                    <img src=""images/schematic_sequence/interview_scheme/interview_scheme_1.png"" class=""exp-image"">
                    <div class=""question-area"">
                        <p style=""font-size: 20px; font-weight: bold; margin: 0;"">Is there a person in this image?</p>
                    </div>
                </div>","1","main_experiment_trial","1","interview_scheme","schematic_sequence","","","","",""
"","","","","","html-keyboard-response","145","468299","0.0-145.0","AC5B52521F2D43CD8FD6871C57EBAE06","019cf866-c181-7b20-bda0-d6b863aafd66","019cf855-66fc-7d76-a612-8313d2c5c123","","null","
                <div class=""stimulus-container"">
                    <img src=""images/schematic_sequence/interview_scheme/interview_scheme_2.png"" class=""exp-image"">
                    <div class=""question-area""></div> 
                </div>","null","","","","","","","","",""
"","","","","","html-button-response","146","468700","0.0-146.0","AC5B52521F2D43CD8FD6871C57EBAE06","019cf866-c181-7b20-bda0-d6b863aafd66","019cf855-66fc-7d76-a612-8313d2c5c123","","399","
                <div class=""stimulus-container"">
                    <img src=""images/schematic_sequence/interview_scheme/interview_scheme_2.png"" class=""exp-image"">
                    <div class=""question-area"">
                        <p style=""font-size: 20px; font-weight: bold; margin: 0;"">Is there a person in this image?</p>
                    </div>
                </div>","1","main_experiment_trial","2","interview_scheme","schematic_sequence","","","","",""
"","","","","","html-keyboard-response","147","473702","0.0-147.0","AC5B52521F2D43CD8FD6871C57EBAE06","019cf866-c181-7b20-bda0-d6b863aafd66","019cf855-66fc-7d76-a612-8313d2c5c123","","null","
                <div class=""stimulus-container"">
                    <img src=""images/schematic_sequence/interview_scheme/interview_scheme_3.png"" class=""exp-image"">
                    <div class=""question-area""></div> 
                </div>","null","","","","","","","","",""
"","","","","","html-button-response","148","474356","0.0-148.0","AC5B52521F2D43CD8FD6871C57EBAE06","019cf866-c181-7b20-bda0-d6b863aafd66","019cf855-66fc-7d76-a612-8313d2c5c123","","651","
                <div class=""stimulus-container"">
                    <img src=""images/schematic_sequence/interview_scheme/interview_scheme_3.png"" class=""exp-image"">
                    <div class=""question-area"">
                        <p style=""font-size: 20px; font-weight: bold; margin: 0;"">Is there a person in this image?</p>
                    </div>
                </div>","1","main_experiment_trial","3","interview_scheme","schematic_sequence","","","","",""
"","","","","","html-keyboard-response","149","479358","0.0-149.0","AC5B52521F2D43CD8FD6871C57EBAE06","019cf866-c181-7b20-bda0-d6b863aafd66","019cf855-66fc-7d76-a612-8313d2c5c123","","null","
                <div class=""stimulus-container"">
                    <img src=""images/schematic_sequence/interview_scheme/interview_scheme_4.png"" class=""exp-image"">
                    <div class=""question-area""></div> 
                </div>","null","","","","","","","","",""
"","","","","","html-button-response","150","479795","0.0-150.0","AC5B52521F2D43CD8FD6871C57EBAE06","019cf866-c181-7b20-bda0-d6b863aafd66","019cf855-66fc-7d76-a612-8313d2c5c123","","436","
                <div class=""stimulus-container"">
                    <img src=""images/schematic_sequence/interview_scheme/interview_scheme_4.png"" class=""exp-image"">
                    <div class=""question-area"">
                        <p style=""font-size: 20px; font-weight: bold; margin: 0;"">Is there a person in this image?</p>
                    </div>
                </div>","1","main_experiment_trial","4","interview_scheme","schematic_sequence","","","","",""
"","","","","","html-keyboard-response","151","484798","0.0-151.0","AC5B52521F2D43CD8FD6871C57EBAE06","019cf866-c181-7b20-bda0-d6b863aafd66","019cf855-66fc-7d76-a612-8313d2c5c123","","null","
                <div class=""stimulus-container"">
                    <img src=""images/schematic_sequence/interview_scheme/interview_scheme_5.png"" class=""exp-image"">
                    <div class=""question-area""></div> 
                </div>","null","","","","","","","","",""
"","","","","","html-button-response","152","486237","0.0-152.0","AC5B52521F2D43CD8FD6871C57EBAE06","019cf866-c181-7b20-bda0-d6b863aafd66","019cf855-66fc-7d76-a612-8313d2c5c123","","1437","
                <div class=""stimulus-container"">
                    <img src=""images/schematic_sequence/interview_scheme/interview_scheme_5.png"" class=""exp-image"">
                    <div class=""question-area"">
                        <p style=""font-size: 20px; font-weight: bold; margin: 0;"">Is there a person in this image?</p>
                    </div>
                </div>","1","main_experiment_trial","5","interview_scheme","schematic_sequence","","","","",""
"","","","","","html-keyboard-response","153","491240","0.0-153.0","AC5B52521F2D43CD8FD6871C57EBAE06","019cf866-c181-7b20-bda0-d6b863aafd66","019cf855-66fc-7d76-a612-8313d2c5c123","","null","
                <div class=""stimulus-container"">
                    <img src=""images/schematic_sequence/interview_scheme/interview_scheme_6.png"" class=""exp-image"">
                    <div class=""question-area""></div> 
                </div>","null","","","","","","","","",""
"","","","","","html-button-response","154","492087","0.0-154.0","AC5B52521F2D43CD8FD6871C57EBAE06","019cf866-c181-7b20-bda0-d6b863aafd66","019cf855-66fc-7d76-a612-8313d2c5c123","","846","
                <div class=""stimulus-container"">
                    <img src=""images/schematic_sequence/interview_scheme/interview_scheme_6.png"" class=""exp-image"">
                    <div class=""question-area"">
                        <p style=""font-size: 20px; font-weight: bold; margin: 0;"">Is there a person in this image?</p>
                    </div>
                </div>","0","main_experiment_trial","6","interview_scheme","schematic_sequence","","","","",""
"","","","","","html-keyboard-response","155","497090","0.0-155.0","AC5B52521F2D43CD8FD6871C57EBAE06","019cf866-c181-7b20-bda0-d6b863aafd66","019cf855-66fc-7d76-a612-8313d2c5c123","","null","
                <div class=""stimulus-container"">
                    <img src=""images/schematic_sequence/interview_scheme/interview_scheme_7.png"" class=""exp-image"">
                    <div class=""question-area""></div> 
                </div>","null","","","","","","","","",""
"","","","","","html-button-response","156","497736","0.0-156.0","AC5B52521F2D43CD8FD6871C57EBAE06","019cf866-c181-7b20-bda0-d6b863aafd66","019cf855-66fc-7d76-a612-8313d2c5c123","","644","
                <div class=""stimulus-container"">
                    <img src=""images/schematic_sequence/interview_scheme/interview_scheme_7.png"" class=""exp-image"">
                    <div class=""question-area"">
                        <p style=""font-size: 20px; font-weight: bold; margin: 0;"">Is there a person in this image?</p>
                    </div>
                </div>","0","main_experiment_trial","7","interview_scheme","schematic_sequence","","","","",""
"","","","","","html-keyboard-response","157","502739","0.0-157.0","AC5B52521F2D43CD8FD6871C57EBAE06","019cf866-c181-7b20-bda0-d6b863aafd66","019cf855-66fc-7d76-a612-8313d2c5c123","","null","
                <div class=""stimulus-container"">
                    <img src=""images/schematic_sequence/interview_scheme/interview_scheme_8.png"" class=""exp-image"">
                    <div class=""question-area""></div> 
                </div>","null","","","","","","","","",""
"","","","","","html-button-response","158","503322","0.0-158.0","AC5B52521F2D43CD8FD6871C57EBAE06","019cf866-c181-7b20-bda0-d6b863aafd66","019cf855-66fc-7d76-a612-8313d2c5c123","","580","
                <div class=""stimulus-container"">
                    <img src=""images/schematic_sequence/interview_scheme/interview_scheme_8.png"" class=""exp-image"">
                    <div class=""question-area"">
                        <p style=""font-size: 20px; font-weight: bold; margin: 0;"">Is there a person in this image?</p>
                    </div>
                </div>","0","main_experiment_trial","8","interview_scheme","schematic_sequence","","","","",""
"","","","","","html-keyboard-response","159","508324","0.0-159.0","AC5B52521F2D43CD8FD6871C57EBAE06","019cf866-c181-7b20-bda0-d6b863aafd66","019cf855-66fc-7d76-a612-8313d2c5c123","","null","
                <div class=""stimulus-container"">
                    <img src=""images/schematic_sequence/interview_scheme/interview_scheme_9.png"" class=""exp-image"">
                    <div class=""question-area""></div> 
                </div>","null","","","","","","","","",""
"","","","","","html-button-response","160","508901","0.0-160.0","AC5B52521F2D43CD8FD6871C57EBAE06","019cf866-c181-7b20-bda0-d6b863aafd66","019cf855-66fc-7d76-a612-8313d2c5c123","","574","
                <div class=""stimulus-container"">
                    <img src=""images/schematic_sequence/interview_scheme/interview_scheme_9.png"" class=""exp-image"">
                    <div class=""question-area"">
                        <p style=""font-size: 20px; font-weight: bold; margin: 0;"">Is there a person in this image?</p>
                    </div>
                </div>","0","main_experiment_trial","9","interview_scheme","schematic_sequence","","","","",""
"","","","","","html-keyboard-response","161","513904","0.0-161.0","AC5B52521F2D43CD8FD6871C57EBAE06","019cf866-c181-7b20-bda0-d6b863aafd66","019cf855-66fc-7d76-a612-8313d2c5c123","","null","
                <div class=""stimulus-container"">
                    <img src=""images/schematic_sequence/interview_scheme/interview_scheme_ten.png"" class=""exp-image"">
                    <div class=""question-area""></div> 
                </div>","null","","","","","","","","",""
"","","","","","html-button-response","162","516907","0.0-162.0","AC5B52521F2D43CD8FD6871C57EBAE06","019cf866-c181-7b20-bda0-d6b863aafd66","019cf855-66fc-7d76-a612-8313d2c5c123","","null","
                <div class=""stimulus-container"">
                    <img src=""images/schematic_sequence/interview_scheme/interview_scheme_ten.png"" class=""exp-image"">
                    <div class=""question-area"">
                        <p style=""font-size: 20px; font-weight: bold; margin: 0;"">Is there a person in this image?</p>
                    </div>
                </div>","null","main_experiment_trial","ten","interview_scheme","schematic_sequence","","","","",""
"","","","","","html-keyboard-response","163","517910","0.0-163.0","AC5B52521F2D43CD8FD6871C57EBAE06","019cf866-c181-7b20-bda0-d6b863aafd66","019cf855-66fc-7d76-a612-8313d2c5c123","","null","<div style=""background-color: white; width: 100vw; height: 100vh;""></div>","null","","","","","","","","",""
"","","","","","html-keyboard-response","164","522913","0.0-164.0","AC5B52521F2D43CD8FD6871C57EBAE06","019cf866-c181-7b20-bda0-d6b863aafd66","019cf855-66fc-7d76-a612-8313d2c5c123","","null","
                <div class=""stimulus-container"">
                    <img src=""images/semantic_sequence/cat_care_semantic/cat_care_semantic_1.png"" class=""exp-image"">
                    <div class=""question-area""></div> 
                </div>","null","","","","","","","","",""
"","","","","","html-button-response","165","524948","0.0-165.0","AC5B52521F2D43CD8FD6871C57EBAE06","019cf866-c181-7b20-bda0-d6b863aafd66","019cf855-66fc-7d76-a612-8313d2c5c123","","2033","
                <div class=""stimulus-container"">
                    <img src=""images/semantic_sequence/cat_care_semantic/cat_care_semantic_1.png"" class=""exp-image"">
                    <div class=""question-area"">
                        <p style=""font-size: 20px; font-weight: bold; margin: 0;"">Is there a person in this image?</p>
                    </div>
                </div>","0","main_experiment_trial","1","cat_care_semantic","semantic_sequence","","","","",""
"","","","","","html-keyboard-response","166","529951","0.0-166.0","AC5B52521F2D43CD8FD6871C57EBAE06","019cf866-c181-7b20-bda0-d6b863aafd66","019cf855-66fc-7d76-a612-8313d2c5c123","","null","
                <div class=""stimulus-container"">
                    <img src=""images/semantic_sequence/cat_care_semantic/cat_care_semantic_2.png"" class=""exp-image"">
                    <div class=""question-area""></div> 
                </div>","null","","","","","","","","",""
"","","","","","html-button-response","167","530911","0.0-167.0","AC5B52521F2D43CD8FD6871C57EBAE06","019cf866-c181-7b20-bda0-d6b863aafd66","019cf855-66fc-7d76-a612-8313d2c5c123","","957","
                <div class=""stimulus-container"">
                    <img src=""images/semantic_sequence/cat_care_semantic/cat_care_semantic_2.png"" class=""exp-image"">
                    <div class=""question-area"">
                        <p style=""font-size: 20px; font-weight: bold; margin: 0;"">Is there a person in this image?</p>
                    </div>
                </div>","0","main_experiment_trial","2","cat_care_semantic","semantic_sequence","","","","",""
"","","","","","html-keyboard-response","168","535913","0.0-168.0","AC5B52521F2D43CD8FD6871C57EBAE06","019cf866-c181-7b20-bda0-d6b863aafd66","019cf855-66fc-7d76-a612-8313d2c5c123","","null","
                <div class=""stimulus-container"">
                    <img src=""images/semantic_sequence/cat_care_semantic/cat_care_semantic_3.png"" class=""exp-image"">
                    <div class=""question-area""></div> 
                </div>","null","","","","","","","","",""
"","","","","","html-button-response","169","536376","0.0-169.0","AC5B52521F2D43CD8FD6871C57EBAE06","019cf866-c181-7b20-bda0-d6b863aafd66","019cf855-66fc-7d76-a612-8313d2c5c123","","460","
                <div class=""stimulus-container"">
                    <img src=""images/semantic_sequence/cat_care_semantic/cat_care_semantic_3.png"" class=""exp-image"">
                    <div class=""question-area"">
                        <p style=""font-size: 20px; font-weight: bold; margin: 0;"">Is there a person in this image?</p>
                    </div>
                </div>","0","main_experiment_trial","3","cat_care_semantic","semantic_sequence","","","","",""
"","","","","","html-keyboard-response","170","541378","0.0-170.0","AC5B52521F2D43CD8FD6871C57EBAE06","019cf866-c181-7b20-bda0-d6b863aafd66","019cf855-66fc-7d76-a612-8313d2c5c123","","null","
                <div class=""stimulus-container"">
                    <img src=""images/semantic_sequence/cat_care_semantic/cat_care_semantic_4.png"" class=""exp-image"">
                    <div class=""question-area""></div> 
                </div>","null","","","","","","","","",""
"","","","","","html-button-response","171","542686","0.0-171.0","AC5B52521F2D43CD8FD6871C57EBAE06","019cf866-c181-7b20-bda0-d6b863aafd66","019cf855-66fc-7d76-a612-8313d2c5c123","","1306","
                <div class=""stimulus-container"">
                    <img src=""images/semantic_sequence/cat_care_semantic/cat_care_semantic_4.png"" class=""exp-image"">
                    <div class=""question-area"">
                        <p style=""font-size: 20px; font-weight: bold; margin: 0;"">Is there a person in this image?</p>
                    </div>
                </div>","0","main_experiment_trial","4","cat_care_semantic","semantic_sequence","","","","",""
"","","","","","html-keyboard-response","172","547689","0.0-172.0","AC5B52521F2D43CD8FD6871C57EBAE06","019cf866-c181-7b20-bda0-d6b863aafd66","019cf855-66fc-7d76-a612-8313d2c5c123","","null","
                <div class=""stimulus-container"">
                    <img src=""images/semantic_sequence/cat_care_semantic/cat_care_semantic_5.png"" class=""exp-image"">
                    <div class=""question-area""></div> 
                </div>","null","","","","","","","","",""
"","","","","","html-button-response","173","548389","0.0-173.0","AC5B52521F2D43CD8FD6871C57EBAE06","019cf866-c181-7b20-bda0-d6b863aafd66","019cf855-66fc-7d76-a612-8313d2c5c123","","697","
                <div class=""stimulus-container"">
                    <img src=""images/semantic_sequence/cat_care_semantic/cat_care_semantic_5.png"" class=""exp-image"">
                    <div class=""question-area"">
                        <p style=""font-size: 20px; font-weight: bold; margin: 0;"">Is there a person in this image?</p>
                    </div>
                </div>","0","main_experiment_trial","5","cat_care_semantic","semantic_sequence","","","","",""
"","","","","","html-keyboard-response","174","553392","0.0-174.0","AC5B52521F2D43CD8FD6871C57EBAE06","019cf866-c181-7b20-bda0-d6b863aafd66","019cf855-66fc-7d76-a612-8313d2c5c123","","null","
                <div class=""stimulus-container"">
                    <img src=""images/semantic_sequence/cat_care_semantic/cat_care_semantic_6.png"" class=""exp-image"">
                    <div class=""question-area""></div> 
                </div>","null","","","","","","","","",""
"","","","","","html-button-response","175","553954","0.0-175.0","AC5B52521F2D43CD8FD6871C57EBAE06","019cf866-c181-7b20-bda0-d6b863aafd66","019cf855-66fc-7d76-a612-8313d2c5c123","","560","
                <div class=""stimulus-container"">
                    <img src=""images/semantic_sequence/cat_care_semantic/cat_care_semantic_6.png"" class=""exp-image"">
                    <div class=""question-area"">
                        <p style=""font-size: 20px; font-weight: bold; margin: 0;"">Is there a person in this image?</p>
                    </div>
                </div>","0","main_experiment_trial","6","cat_care_semantic","semantic_sequence","","","","",""
"","","","","","html-keyboard-response","176","558957","0.0-176.0","AC5B52521F2D43CD8FD6871C57EBAE06","019cf866-c181-7b20-bda0-d6b863aafd66","019cf855-66fc-7d76-a612-8313d2c5c123","","null","
                <div class=""stimulus-container"">
                    <img src=""images/semantic_sequence/cat_care_semantic/cat_care_semantic_7.png"" class=""exp-image"">
                    <div class=""question-area""></div> 
                </div>","null","","","","","","","","",""
"","","","","","html-button-response","177","559505","0.0-177.0","AC5B52521F2D43CD8FD6871C57EBAE06","019cf866-c181-7b20-bda0-d6b863aafd66","019cf855-66fc-7d76-a612-8313d2c5c123","","546","
                <div class=""stimulus-container"">
                    <img src=""images/semantic_sequence/cat_care_semantic/cat_care_semantic_7.png"" class=""exp-image"">
                    <div class=""question-area"">
                        <p style=""font-size: 20px; font-weight: bold; margin: 0;"">Is there a person in this image?</p>
                    </div>
                </div>","0","main_experiment_trial","7","cat_care_semantic","semantic_sequence","","","","",""
"","","","","","html-keyboard-response","178","564508","0.0-178.0","AC5B52521F2D43CD8FD6871C57EBAE06","019cf866-c181-7b20-bda0-d6b863aafd66","019cf855-66fc-7d76-a612-8313d2c5c123","","null","
                <div class=""stimulus-container"">
                    <img src=""images/semantic_sequence/cat_care_semantic/cat_care_semantic_8.png"" class=""exp-image"">
                    <div class=""question-area""></div> 
                </div>","null","","","","","","","","",""
"","","","","","html-button-response","179","565560","0.0-179.0","AC5B52521F2D43CD8FD6871C57EBAE06","019cf866-c181-7b20-bda0-d6b863aafd66","019cf855-66fc-7d76-a612-8313d2c5c123","","1050","
                <div class=""stimulus-container"">
                    <img src=""images/semantic_sequence/cat_care_semantic/cat_care_semantic_8.png"" class=""exp-image"">
                    <div class=""question-area"">
                        <p style=""font-size: 20px; font-weight: bold; margin: 0;"">Is there a person in this image?</p>
                    </div>
                </div>","0","main_experiment_trial","8","cat_care_semantic","semantic_sequence","","","","",""
