"success","timeout","failed_images","failed_audio","failed_video","trial_type","trial_index","time_elapsed","internal_node_id","subject_id","study_id","session_id","view_history","rt","stimulus","response","task","image_index","folder","valuable_image_index","valuable_X","chosen_image_index","distance_from_X"
"false","false","[]","[]","[]","preload","0","11904","0.0-0.0","4069F47E7D584B90BA6BF7164077E6B9","019ce698-5097-729d-a638-86a964083c8c","019ce643-47c6-74a0-b3d2-7bf5651ded46","","","","","","","","","","",""
"","","","","","instructions","1","18946","0.0-1.0","4069F47E7D584B90BA6BF7164077E6B9","019ce698-5097-729d-a638-86a964083c8c","019ce643-47c6-74a0-b3d2-7bf5651ded46","[{""page_index"":0,""viewing_time"":7041}]","7041","","","","","","","","",""
"","","","","","instructions","2","25045","0.0-2.0","4069F47E7D584B90BA6BF7164077E6B9","019ce698-5097-729d-a638-86a964083c8c","019ce643-47c6-74a0-b3d2-7bf5651ded46","[{""page_index"":0,""viewing_time"":6097}]","6097","","","","","","","","",""
"true","","","","","fullscreen","3","28502","0.0-3.0","4069F47E7D584B90BA6BF7164077E6B9","019ce698-5097-729d-a638-86a964083c8c","019ce643-47c6-74a0-b3d2-7bf5651ded46","","2443","","","","","","","","",""
"","","","","","instructions","4","35517","0.0-4.0","4069F47E7D584B90BA6BF7164077E6B9","019ce698-5097-729d-a638-86a964083c8c","019ce643-47c6-74a0-b3d2-7bf5651ded46","[{""page_index"":0,""viewing_time"":7014}]","7014","","","","","","","","",""
"","","","","","instructions","5","47044","0.0-5.0","4069F47E7D584B90BA6BF7164077E6B9","019ce698-5097-729d-a638-86a964083c8c","019ce643-47c6-74a0-b3d2-7bf5651ded46","[{""page_index"":0,""viewing_time"":11526}]","11526","","","","","","","","",""
"","","","","","html-keyboard-response","6","51061","0.0-6.0","4069F47E7D584B90BA6BF7164077E6B9","019ce698-5097-729d-a638-86a964083c8c","019ce643-47c6-74a0-b3d2-7bf5651ded46","","null","
                <div class=""stimulus-container"">
                    <img src=""images/instructions/movie_1.png"" class=""exp-image"">
                    <div class=""question-area""></div> 
                </div>","null","","","","","","",""
"","","","","","html-button-response","7","54180","0.0-7.0","4069F47E7D584B90BA6BF7164077E6B9","019ce698-5097-729d-a638-86a964083c8c","019ce643-47c6-74a0-b3d2-7bf5651ded46","","null","
                <div class=""stimulus-container"">
                    <img src=""images/instructions/movie_1.png"" class=""exp-image"">
                    <div class=""question-area"">
                        <p style=""font-size: 20px; font-weight: bold; margin: 0;"">Was there a person in this image?</p>
                    </div>
                </div>","null","example_question","1","","","","",""
"","","","","","html-keyboard-response","8","58189","0.0-8.0","4069F47E7D584B90BA6BF7164077E6B9","019ce698-5097-729d-a638-86a964083c8c","019ce643-47c6-74a0-b3d2-7bf5651ded46","","null","
                <div class=""stimulus-container"">
                    <img src=""images/instructions/movie_2.png"" class=""exp-image"">
                    <div class=""question-area""></div> 
                </div>","null","","","","","","",""
"","","","","","html-button-response","9","59330","0.0-9.0","4069F47E7D584B90BA6BF7164077E6B9","019ce698-5097-729d-a638-86a964083c8c","019ce643-47c6-74a0-b3d2-7bf5651ded46","","1141","
                <div class=""stimulus-container"">
                    <img src=""images/instructions/movie_2.png"" class=""exp-image"">
                    <div class=""question-area"">
                        <p style=""font-size: 20px; font-weight: bold; margin: 0;"">Was there a person in this image?</p>
                    </div>
                </div>","0","example_question","2","","","","",""
"","","","","","html-keyboard-response","10","63341","0.0-10.0","4069F47E7D584B90BA6BF7164077E6B9","019ce698-5097-729d-a638-86a964083c8c","019ce643-47c6-74a0-b3d2-7bf5651ded46","","null","
                <div class=""stimulus-container"">
                    <img src=""images/instructions/movie_3.png"" class=""exp-image"">
                    <div class=""question-area""></div> 
                </div>","null","","","","","","",""
"","","","","","html-button-response","11","64430","0.0-11.0","4069F47E7D584B90BA6BF7164077E6B9","019ce698-5097-729d-a638-86a964083c8c","019ce643-47c6-74a0-b3d2-7bf5651ded46","","1088","
                <div class=""stimulus-container"">
                    <img src=""images/instructions/movie_3.png"" class=""exp-image"">
                    <div class=""question-area"">
                        <p style=""font-size: 20px; font-weight: bold; margin: 0;"">Was there a person in this image?</p>
                    </div>
                </div>","0","example_question","3","","","","",""
"","","","","","html-keyboard-response","12","68479","0.0-12.0","4069F47E7D584B90BA6BF7164077E6B9","019ce698-5097-729d-a638-86a964083c8c","019ce643-47c6-74a0-b3d2-7bf5651ded46","","null","
                <div class=""stimulus-container"">
                    <img src=""images/instructions/movie_4.png"" class=""exp-image"">
                    <div class=""question-area""></div> 
                </div>","null","","","","","","",""
"","","","","","html-button-response","13","69866","0.0-13.0","4069F47E7D584B90BA6BF7164077E6B9","019ce698-5097-729d-a638-86a964083c8c","019ce643-47c6-74a0-b3d2-7bf5651ded46","","1385","
                <div class=""stimulus-container"">
                    <img src=""images/instructions/movie_4.png"" class=""exp-image"">
                    <div class=""question-area"">
                        <p style=""font-size: 20px; font-weight: bold; margin: 0;"">Was there a person in this image?</p>
                    </div>
                </div>","0","example_question","4","","","","",""
"","","","","","instructions","14","72830","0.0-14.0","4069F47E7D584B90BA6BF7164077E6B9","019ce698-5097-729d-a638-86a964083c8c","019ce643-47c6-74a0-b3d2-7bf5651ded46","[{""page_index"":0,""viewing_time"":2962}]","2962","","","","","","","","",""
"","","","","","html-keyboard-response","15","73838","0.0-15.0","4069F47E7D584B90BA6BF7164077E6B9","019ce698-5097-729d-a638-86a964083c8c","019ce643-47c6-74a0-b3d2-7bf5651ded46","","null","<div style=""background-color: gray; width: 100vw; height: 100vh;""></div>","null","","","","","","",""
"","","","","","html-keyboard-response","16","78843","0.0-16.0","4069F47E7D584B90BA6BF7164077E6B9","019ce698-5097-729d-a638-86a964083c8c","019ce643-47c6-74a0-b3d2-7bf5651ded46","","null","
                    <div class=""stimulus-container"">
                        <img src=""images/causal_sequence/the_performance_causal/the_performance_causal_1.png"" class=""exp-image"">
                        <div class=""question-area""></div> 
                    </div>","null","","","","","","",""
"","","","","","html-button-response","17","80072","0.0-17.0","4069F47E7D584B90BA6BF7164077E6B9","019ce698-5097-729d-a638-86a964083c8c","019ce643-47c6-74a0-b3d2-7bf5651ded46","","1229","
                    <div class=""stimulus-container"">
                        <img src=""images/causal_sequence/the_performance_causal/the_performance_causal_1.png"" class=""exp-image"">
                        <div class=""question-area"">
                            <p style=""font-size: 20px; font-weight: bold; margin: 0;"">Is there a person in this image?</p>
                        </div>
                    </div>","0","main_causal_task","1","the_performance_causal","","","",""
"","","","","","html-keyboard-response","18","85087","0.0-18.0","4069F47E7D584B90BA6BF7164077E6B9","019ce698-5097-729d-a638-86a964083c8c","019ce643-47c6-74a0-b3d2-7bf5651ded46","","null","
                    <div class=""stimulus-container"">
                        <img src=""images/causal_sequence/the_performance_causal/the_performance_causal_2.png"" class=""exp-image"">
                        <div class=""question-area""></div> 
                    </div>","null","","","","","","",""
"","","","","","html-button-response","19","85756","0.0-19.0","4069F47E7D584B90BA6BF7164077E6B9","019ce698-5097-729d-a638-86a964083c8c","019ce643-47c6-74a0-b3d2-7bf5651ded46","","667","
                    <div class=""stimulus-container"">
                        <img src=""images/causal_sequence/the_performance_causal/the_performance_causal_2.png"" class=""exp-image"">
                        <div class=""question-area"">
                            <p style=""font-size: 20px; font-weight: bold; margin: 0;"">Is there a person in this image?</p>
                        </div>
                    </div>","0","main_causal_task","2","the_performance_causal","","","",""
"","","","","","html-keyboard-response","20","90770","0.0-20.0","4069F47E7D584B90BA6BF7164077E6B9","019ce698-5097-729d-a638-86a964083c8c","019ce643-47c6-74a0-b3d2-7bf5651ded46","","null","
                    <div class=""stimulus-container"">
                        <img src=""images/causal_sequence/the_performance_causal/the_performance_causal_3.png"" class=""exp-image"">
                        <div class=""question-area""></div> 
                    </div>","null","","","","","","",""
"","","","","","html-button-response","21","91503","0.0-21.0","4069F47E7D584B90BA6BF7164077E6B9","019ce698-5097-729d-a638-86a964083c8c","019ce643-47c6-74a0-b3d2-7bf5651ded46","","733","
                    <div class=""stimulus-container"">
                        <img src=""images/causal_sequence/the_performance_causal/the_performance_causal_3.png"" class=""exp-image"">
                        <div class=""question-area"">
                            <p style=""font-size: 20px; font-weight: bold; margin: 0;"">Is there a person in this image?</p>
                        </div>
                    </div>","0","main_causal_task","3","the_performance_causal","","","",""
"","","","","","html-keyboard-response","22","96512","0.0-22.0","4069F47E7D584B90BA6BF7164077E6B9","019ce698-5097-729d-a638-86a964083c8c","019ce643-47c6-74a0-b3d2-7bf5651ded46","","null","
                    <div class=""stimulus-container"">
                        <img src=""images/causal_sequence/the_performance_causal/the_performance_causal_4.png"" class=""exp-image"">
                        <div class=""question-area""></div> 
                    </div>","null","","","","","","",""
"","","","","","html-button-response","23","97108","0.0-23.0","4069F47E7D584B90BA6BF7164077E6B9","019ce698-5097-729d-a638-86a964083c8c","019ce643-47c6-74a0-b3d2-7bf5651ded46","","595","
                    <div class=""stimulus-container"">
                        <img src=""images/causal_sequence/the_performance_causal/the_performance_causal_4.png"" class=""exp-image"">
                        <div class=""question-area"">
                            <p style=""font-size: 20px; font-weight: bold; margin: 0;"">Is there a person in this image?</p>
                        </div>
                    </div>","0","main_causal_task","4","the_performance_causal","","","",""
"","","","","","html-keyboard-response","24","102118","0.0-24.0","4069F47E7D584B90BA6BF7164077E6B9","019ce698-5097-729d-a638-86a964083c8c","019ce643-47c6-74a0-b3d2-7bf5651ded46","","null","
                    <div class=""stimulus-container"">
                        <img src=""images/causal_sequence/the_performance_causal/the_performance_causal_5.png"" class=""exp-image"">
                        <div class=""question-area""></div> 
                    </div>","null","","","","","","",""
"","","","","","html-button-response","25","102987","0.0-25.0","4069F47E7D584B90BA6BF7164077E6B9","019ce698-5097-729d-a638-86a964083c8c","019ce643-47c6-74a0-b3d2-7bf5651ded46","","869","
                    <div class=""stimulus-container"">
                        <img src=""images/causal_sequence/the_performance_causal/the_performance_causal_5.png"" class=""exp-image"">
                        <div class=""question-area"">
                            <p style=""font-size: 20px; font-weight: bold; margin: 0;"">Is there a person in this image?</p>
                        </div>
                    </div>","0","main_causal_task","5","the_performance_causal","","","",""
"","","","","","html-keyboard-response","26","108004","0.0-26.0","4069F47E7D584B90BA6BF7164077E6B9","019ce698-5097-729d-a638-86a964083c8c","019ce643-47c6-74a0-b3d2-7bf5651ded46","","null","
                    <div class=""stimulus-container"">
                        <img src=""images/causal_sequence/the_performance_causal/the_performance_causal_6.png"" class=""exp-image"">
                        <div class=""question-area""></div> 
                    </div>","null","","","","","","",""
"","","","","","html-button-response","27","109044","0.0-27.0","4069F47E7D584B90BA6BF7164077E6B9","019ce698-5097-729d-a638-86a964083c8c","019ce643-47c6-74a0-b3d2-7bf5651ded46","","1040","
                    <div class=""stimulus-container"">
                        <img src=""images/causal_sequence/the_performance_causal/the_performance_causal_6.png"" class=""exp-image"">
                        <div class=""question-area"">
                            <p style=""font-size: 20px; font-weight: bold; margin: 0;"">Is there a person in this image?</p>
                        </div>
                    </div>","0","main_causal_task","6","the_performance_causal","","","",""
"","","","","","html-keyboard-response","28","114046","0.0-28.0","4069F47E7D584B90BA6BF7164077E6B9","019ce698-5097-729d-a638-86a964083c8c","019ce643-47c6-74a0-b3d2-7bf5651ded46","","null","
                    <div class=""stimulus-container"">
                        <img src=""images/causal_sequence/the_performance_causal/the_performance_causal_7.png"" class=""exp-image"">
                        <div class=""question-area""></div> 
                    </div>","null","","","","","","",""
"","","","","","html-button-response","29","115064","0.0-29.0","4069F47E7D584B90BA6BF7164077E6B9","019ce698-5097-729d-a638-86a964083c8c","019ce643-47c6-74a0-b3d2-7bf5651ded46","","1016","
                    <div class=""stimulus-container"">
                        <img src=""images/causal_sequence/the_performance_causal/the_performance_causal_7.png"" class=""exp-image"">
                        <div class=""question-area"">
                            <p style=""font-size: 20px; font-weight: bold; margin: 0;"">Is there a person in this image?</p>
                        </div>
                    </div>","0","main_causal_task","7","the_performance_causal","","","",""
"","","","","","html-keyboard-response","30","120067","0.0-30.0","4069F47E7D584B90BA6BF7164077E6B9","019ce698-5097-729d-a638-86a964083c8c","019ce643-47c6-74a0-b3d2-7bf5651ded46","","null","
                    <div class=""stimulus-container"">
                        <img src=""images/causal_sequence/the_performance_causal/the_performance_causal_8.png"" class=""exp-image"">
                        <div class=""question-area""></div> 
                    </div>","null","","","","","","",""
"","","","","","html-button-response","31","121001","0.0-31.0","4069F47E7D584B90BA6BF7164077E6B9","019ce698-5097-729d-a638-86a964083c8c","019ce643-47c6-74a0-b3d2-7bf5651ded46","","932","
                    <div class=""stimulus-container"">
                        <img src=""images/causal_sequence/the_performance_causal/the_performance_causal_8.png"" class=""exp-image"">
                        <div class=""question-area"">
                            <p style=""font-size: 20px; font-weight: bold; margin: 0;"">Is there a person in this image?</p>
                        </div>
                    </div>","0","main_causal_task","8","the_performance_causal","","","",""
"","","","","","html-keyboard-response","32","126012","0.0-32.0","4069F47E7D584B90BA6BF7164077E6B9","019ce698-5097-729d-a638-86a964083c8c","019ce643-47c6-74a0-b3d2-7bf5651ded46","","null","
                    <div class=""stimulus-container"">
                        <img src=""images/causal_sequence/the_performance_causal/the_performance_causal_9.png"" class=""exp-image"">
                        <div class=""question-area""></div> 
                    </div>","null","","","","","","",""
"","","","","","html-button-response","33","126595","0.0-33.0","4069F47E7D584B90BA6BF7164077E6B9","019ce698-5097-729d-a638-86a964083c8c","019ce643-47c6-74a0-b3d2-7bf5651ded46","","583","
                    <div class=""stimulus-container"">
                        <img src=""images/causal_sequence/the_performance_causal/the_performance_causal_9.png"" class=""exp-image"">
                        <div class=""question-area"">
                            <p style=""font-size: 20px; font-weight: bold; margin: 0;"">Is there a person in this image?</p>
                        </div>
                    </div>","0","main_causal_task","9","the_performance_causal","","","",""
"","","","","","html-keyboard-response","34","127602","0.0-34.0","4069F47E7D584B90BA6BF7164077E6B9","019ce698-5097-729d-a638-86a964083c8c","019ce643-47c6-74a0-b3d2-7bf5651ded46","","null","<div style=""background-color: gray; width: 100vw; height: 100vh;""></div>","null","","","","","","",""
"","","","","","html-keyboard-response","35","132614","0.0-35.0","4069F47E7D584B90BA6BF7164077E6B9","019ce698-5097-729d-a638-86a964083c8c","019ce643-47c6-74a0-b3d2-7bf5651ded46","","null","
                    <div class=""stimulus-container"">
                        <img src=""images/causal_sequence/dog_causal/dog_causal_1.png"" class=""exp-image"">
                        <div class=""question-area""></div> 
                    </div>","null","","","","","","",""
"","","","","","html-button-response","36","133237","0.0-36.0","4069F47E7D584B90BA6BF7164077E6B9","019ce698-5097-729d-a638-86a964083c8c","019ce643-47c6-74a0-b3d2-7bf5651ded46","","623","
                    <div class=""stimulus-container"">
                        <img src=""images/causal_sequence/dog_causal/dog_causal_1.png"" class=""exp-image"">
                        <div class=""question-area"">
                            <p style=""font-size: 20px; font-weight: bold; margin: 0;"">Is there a person in this image?</p>
                        </div>
                    </div>","0","main_causal_task","1","dog_causal","","","",""
"","","","","","html-keyboard-response","37","138253","0.0-37.0","4069F47E7D584B90BA6BF7164077E6B9","019ce698-5097-729d-a638-86a964083c8c","019ce643-47c6-74a0-b3d2-7bf5651ded46","","null","
                    <div class=""stimulus-container"">
                        <img src=""images/causal_sequence/dog_causal/dog_causal_2.png"" class=""exp-image"">
                        <div class=""question-area""></div> 
                    </div>","null","","","","","","",""
"","","","","","html-button-response","38","138932","0.0-38.0","4069F47E7D584B90BA6BF7164077E6B9","019ce698-5097-729d-a638-86a964083c8c","019ce643-47c6-74a0-b3d2-7bf5651ded46","","678","
                    <div class=""stimulus-container"">
                        <img src=""images/causal_sequence/dog_causal/dog_causal_2.png"" class=""exp-image"">
                        <div class=""question-area"">
                            <p style=""font-size: 20px; font-weight: bold; margin: 0;"">Is there a person in this image?</p>
                        </div>
                    </div>","0","main_causal_task","2","dog_causal","","","",""
"","","","","","html-keyboard-response","39","143938","0.0-39.0","4069F47E7D584B90BA6BF7164077E6B9","019ce698-5097-729d-a638-86a964083c8c","019ce643-47c6-74a0-b3d2-7bf5651ded46","","null","
                    <div class=""stimulus-container"">
                        <img src=""images/causal_sequence/dog_causal/dog_causal_3.png"" class=""exp-image"">
                        <div class=""question-area""></div> 
                    </div>","null","","","","","","",""
"","","","","","html-button-response","40","144656","0.0-40.0","4069F47E7D584B90BA6BF7164077E6B9","019ce698-5097-729d-a638-86a964083c8c","019ce643-47c6-74a0-b3d2-7bf5651ded46","","717","
                    <div class=""stimulus-container"">
                        <img src=""images/causal_sequence/dog_causal/dog_causal_3.png"" class=""exp-image"">
                        <div class=""question-area"">
                            <p style=""font-size: 20px; font-weight: bold; margin: 0;"">Is there a person in this image?</p>
                        </div>
                    </div>","0","main_causal_task","3","dog_causal","","","",""
"","","","","","html-keyboard-response","41","149662","0.0-41.0","4069F47E7D584B90BA6BF7164077E6B9","019ce698-5097-729d-a638-86a964083c8c","019ce643-47c6-74a0-b3d2-7bf5651ded46","","null","
                    <div class=""stimulus-container"">
                        <img src=""images/causal_sequence/dog_causal/dog_causal_4.png"" class=""exp-image"">
                        <div class=""question-area""></div> 
                    </div>","null","","","","","","",""
"","","","","","html-button-response","42","150724","0.0-42.0","4069F47E7D584B90BA6BF7164077E6B9","019ce698-5097-729d-a638-86a964083c8c","019ce643-47c6-74a0-b3d2-7bf5651ded46","","1062","
                    <div class=""stimulus-container"">
                        <img src=""images/causal_sequence/dog_causal/dog_causal_4.png"" class=""exp-image"">
                        <div class=""question-area"">
                            <p style=""font-size: 20px; font-weight: bold; margin: 0;"">Is there a person in this image?</p>
                        </div>
                    </div>","0","main_causal_task","4","dog_causal","","","",""
"","","","","","html-keyboard-response","43","155726","0.0-43.0","4069F47E7D584B90BA6BF7164077E6B9","019ce698-5097-729d-a638-86a964083c8c","019ce643-47c6-74a0-b3d2-7bf5651ded46","","null","
                    <div class=""stimulus-container"">
                        <img src=""images/causal_sequence/dog_causal/dog_causal_5.png"" class=""exp-image"">
                        <div class=""question-area""></div> 
                    </div>","null","","","","","","",""
"","","","","","html-button-response","44","156382","0.0-44.0","4069F47E7D584B90BA6BF7164077E6B9","019ce698-5097-729d-a638-86a964083c8c","019ce643-47c6-74a0-b3d2-7bf5651ded46","","655","
                    <div class=""stimulus-container"">
                        <img src=""images/causal_sequence/dog_causal/dog_causal_5.png"" class=""exp-image"">
                        <div class=""question-area"">
                            <p style=""font-size: 20px; font-weight: bold; margin: 0;"">Is there a person in this image?</p>
                        </div>
                    </div>","0","main_causal_task","5","dog_causal","","","",""
"","","","","","html-keyboard-response","45","161396","0.0-45.0","4069F47E7D584B90BA6BF7164077E6B9","019ce698-5097-729d-a638-86a964083c8c","019ce643-47c6-74a0-b3d2-7bf5651ded46","","null","
                    <div class=""stimulus-container"">
                        <img src=""images/causal_sequence/dog_causal/dog_causal_6.png"" class=""exp-image"">
                        <div class=""question-area""></div> 
                    </div>","null","","","","","","",""
"","","","","","html-button-response","46","162382","0.0-46.0","4069F47E7D584B90BA6BF7164077E6B9","019ce698-5097-729d-a638-86a964083c8c","019ce643-47c6-74a0-b3d2-7bf5651ded46","","985","
                    <div class=""stimulus-container"">
                        <img src=""images/causal_sequence/dog_causal/dog_causal_6.png"" class=""exp-image"">
                        <div class=""question-area"">
                            <p style=""font-size: 20px; font-weight: bold; margin: 0;"">Is there a person in this image?</p>
                        </div>
                    </div>","0","main_causal_task","6","dog_causal","","","",""
"","","","","","html-keyboard-response","47","167388","0.0-47.0","4069F47E7D584B90BA6BF7164077E6B9","019ce698-5097-729d-a638-86a964083c8c","019ce643-47c6-74a0-b3d2-7bf5651ded46","","null","
                    <div class=""stimulus-container"">
                        <img src=""images/causal_sequence/dog_causal/dog_causal_7.png"" class=""exp-image"">
                        <div class=""question-area""></div> 
                    </div>","null","","","","","","",""
"","","","","","html-button-response","48","168919","0.0-48.0","4069F47E7D584B90BA6BF7164077E6B9","019ce698-5097-729d-a638-86a964083c8c","019ce643-47c6-74a0-b3d2-7bf5651ded46","","1530","
                    <div class=""stimulus-container"">
                        <img src=""images/causal_sequence/dog_causal/dog_causal_7.png"" class=""exp-image"">
                        <div class=""question-area"">
                            <p style=""font-size: 20px; font-weight: bold; margin: 0;"">Is there a person in this image?</p>
                        </div>
                    </div>","0","main_causal_task","7","dog_causal","","","",""
"","","","","","html-keyboard-response","49","173925","0.0-49.0","4069F47E7D584B90BA6BF7164077E6B9","019ce698-5097-729d-a638-86a964083c8c","019ce643-47c6-74a0-b3d2-7bf5651ded46","","null","
                    <div class=""stimulus-container"">
                        <img src=""images/causal_sequence/dog_causal/dog_causal_8.png"" class=""exp-image"">
                        <div class=""question-area""></div> 
                    </div>","null","","","","","","",""
"","","","","","html-button-response","50","174847","0.0-50.0","4069F47E7D584B90BA6BF7164077E6B9","019ce698-5097-729d-a638-86a964083c8c","019ce643-47c6-74a0-b3d2-7bf5651ded46","","922","
                    <div class=""stimulus-container"">
                        <img src=""images/causal_sequence/dog_causal/dog_causal_8.png"" class=""exp-image"">
                        <div class=""question-area"">
                            <p style=""font-size: 20px; font-weight: bold; margin: 0;"">Is there a person in this image?</p>
                        </div>
                    </div>","0","main_causal_task","8","dog_causal","","","",""
"","","","","","html-keyboard-response","51","179864","0.0-51.0","4069F47E7D584B90BA6BF7164077E6B9","019ce698-5097-729d-a638-86a964083c8c","019ce643-47c6-74a0-b3d2-7bf5651ded46","","null","
                    <div class=""stimulus-container"">
                        <img src=""images/causal_sequence/dog_causal/dog_causal_9.png"" class=""exp-image"">
                        <div class=""question-area""></div> 
                    </div>","null","","","","","","",""
"","","","","","html-button-response","52","180472","0.0-52.0","4069F47E7D584B90BA6BF7164077E6B9","019ce698-5097-729d-a638-86a964083c8c","019ce643-47c6-74a0-b3d2-7bf5651ded46","","606","
                    <div class=""stimulus-container"">
                        <img src=""images/causal_sequence/dog_causal/dog_causal_9.png"" class=""exp-image"">
                        <div class=""question-area"">
                            <p style=""font-size: 20px; font-weight: bold; margin: 0;"">Is there a person in this image?</p>
                        </div>
                    </div>","0","main_causal_task","9","dog_causal","","","",""
"","","","","","html-keyboard-response","53","181482","0.0-53.0","4069F47E7D584B90BA6BF7164077E6B9","019ce698-5097-729d-a638-86a964083c8c","019ce643-47c6-74a0-b3d2-7bf5651ded46","","null","<div style=""background-color: gray; width: 100vw; height: 100vh;""></div>","null","","","","","","",""
"","","","","","html-keyboard-response","54","186495","0.0-54.0","4069F47E7D584B90BA6BF7164077E6B9","019ce698-5097-729d-a638-86a964083c8c","019ce643-47c6-74a0-b3d2-7bf5651ded46","","null","
                    <div class=""stimulus-container"">
                        <img src=""images/causal_sequence/package_causal/package_causal_1.png"" class=""exp-image"">
                        <div class=""question-area""></div> 
                    </div>","null","","","","","","",""
"","","","","","html-button-response","55","187266","0.0-55.0","4069F47E7D584B90BA6BF7164077E6B9","019ce698-5097-729d-a638-86a964083c8c","019ce643-47c6-74a0-b3d2-7bf5651ded46","","770","
                    <div class=""stimulus-container"">
                        <img src=""images/causal_sequence/package_causal/package_causal_1.png"" class=""exp-image"">
                        <div class=""question-area"">
                            <p style=""font-size: 20px; font-weight: bold; margin: 0;"">Is there a person in this image?</p>
                        </div>
                    </div>","0","main_causal_task","1","package_causal","","","",""
"","","","","","html-keyboard-response","56","192279","0.0-56.0","4069F47E7D584B90BA6BF7164077E6B9","019ce698-5097-729d-a638-86a964083c8c","019ce643-47c6-74a0-b3d2-7bf5651ded46","","null","
                    <div class=""stimulus-container"">
                        <img src=""images/causal_sequence/package_causal/package_causal_2.png"" class=""exp-image"">
                        <div class=""question-area""></div> 
                    </div>","null","","","","","","",""
"","","","","","html-button-response","57","193671","0.0-57.0","4069F47E7D584B90BA6BF7164077E6B9","019ce698-5097-729d-a638-86a964083c8c","019ce643-47c6-74a0-b3d2-7bf5651ded46","","1390","
                    <div class=""stimulus-container"">
                        <img src=""images/causal_sequence/package_causal/package_causal_2.png"" class=""exp-image"">
                        <div class=""question-area"">
                            <p style=""font-size: 20px; font-weight: bold; margin: 0;"">Is there a person in this image?</p>
                        </div>
                    </div>","0","main_causal_task","2","package_causal","","","",""
"","","","","","html-keyboard-response","58","198673","0.0-58.0","4069F47E7D584B90BA6BF7164077E6B9","019ce698-5097-729d-a638-86a964083c8c","019ce643-47c6-74a0-b3d2-7bf5651ded46","","null","
                    <div class=""stimulus-container"">
                        <img src=""images/causal_sequence/package_causal/package_causal_3.png"" class=""exp-image"">
                        <div class=""question-area""></div> 
                    </div>","null","","","","","","",""
"","","","","","html-button-response","59","199360","0.0-59.0","4069F47E7D584B90BA6BF7164077E6B9","019ce698-5097-729d-a638-86a964083c8c","019ce643-47c6-74a0-b3d2-7bf5651ded46","","685","
                    <div class=""stimulus-container"">
                        <img src=""images/causal_sequence/package_causal/package_causal_3.png"" class=""exp-image"">
                        <div class=""question-area"">
                            <p style=""font-size: 20px; font-weight: bold; margin: 0;"">Is there a person in this image?</p>
                        </div>
                    </div>","0","main_causal_task","3","package_causal","","","",""
"","","","","","html-keyboard-response","60","204375","0.0-60.0","4069F47E7D584B90BA6BF7164077E6B9","019ce698-5097-729d-a638-86a964083c8c","019ce643-47c6-74a0-b3d2-7bf5651ded46","","null","
                    <div class=""stimulus-container"">
                        <img src=""images/causal_sequence/package_causal/package_causal_4.png"" class=""exp-image"">
                        <div class=""question-area""></div> 
                    </div>","null","","","","","","",""
"","","","","","html-button-response","61","205673","0.0-61.0","4069F47E7D584B90BA6BF7164077E6B9","019ce698-5097-729d-a638-86a964083c8c","019ce643-47c6-74a0-b3d2-7bf5651ded46","","1297","
                    <div class=""stimulus-container"">
                        <img src=""images/causal_sequence/package_causal/package_causal_4.png"" class=""exp-image"">
                        <div class=""question-area"">
                            <p style=""font-size: 20px; font-weight: bold; margin: 0;"">Is there a person in this image?</p>
                        </div>
                    </div>","1","main_causal_task","4","package_causal","","","",""
"","","","","","html-keyboard-response","62","210684","0.0-62.0","4069F47E7D584B90BA6BF7164077E6B9","019ce698-5097-729d-a638-86a964083c8c","019ce643-47c6-74a0-b3d2-7bf5651ded46","","null","
                    <div class=""stimulus-container"">
                        <img src=""images/causal_sequence/package_causal/package_causal_5.png"" class=""exp-image"">
                        <div class=""question-area""></div> 
                    </div>","null","","","","","","",""
"","","","","","html-button-response","63","211782","0.0-63.0","4069F47E7D584B90BA6BF7164077E6B9","019ce698-5097-729d-a638-86a964083c8c","019ce643-47c6-74a0-b3d2-7bf5651ded46","","1096","
                    <div class=""stimulus-container"">
                        <img src=""images/causal_sequence/package_causal/package_causal_5.png"" class=""exp-image"">
                        <div class=""question-area"">
                            <p style=""font-size: 20px; font-weight: bold; margin: 0;"">Is there a person in this image?</p>
                        </div>
                    </div>","0","main_causal_task","5","package_causal","","","",""
"","","","","","html-keyboard-response","64","216787","0.0-64.0","4069F47E7D584B90BA6BF7164077E6B9","019ce698-5097-729d-a638-86a964083c8c","019ce643-47c6-74a0-b3d2-7bf5651ded46","","null","
                    <div class=""stimulus-container"">
                        <img src=""images/causal_sequence/package_causal/package_causal_6.png"" class=""exp-image"">
                        <div class=""question-area""></div> 
                    </div>","null","","","","","","",""
"","","","","","html-button-response","65","217675","0.0-65.0","4069F47E7D584B90BA6BF7164077E6B9","019ce698-5097-729d-a638-86a964083c8c","019ce643-47c6-74a0-b3d2-7bf5651ded46","","887","
                    <div class=""stimulus-container"">
                        <img src=""images/causal_sequence/package_causal/package_causal_6.png"" class=""exp-image"">
                        <div class=""question-area"">
                            <p style=""font-size: 20px; font-weight: bold; margin: 0;"">Is there a person in this image?</p>
                        </div>
                    </div>","0","main_causal_task","6","package_causal","","","",""
"","","","","","html-keyboard-response","66","222678","0.0-66.0","4069F47E7D584B90BA6BF7164077E6B9","019ce698-5097-729d-a638-86a964083c8c","019ce643-47c6-74a0-b3d2-7bf5651ded46","","null","
                    <div class=""stimulus-container"">
                        <img src=""images/causal_sequence/package_causal/package_causal_7.png"" class=""exp-image"">
                        <div class=""question-area""></div> 
                    </div>","null","","","","","","",""
"","","","","","html-button-response","67","223438","0.0-67.0","4069F47E7D584B90BA6BF7164077E6B9","019ce698-5097-729d-a638-86a964083c8c","019ce643-47c6-74a0-b3d2-7bf5651ded46","","759","
                    <div class=""stimulus-container"">
                        <img src=""images/causal_sequence/package_causal/package_causal_7.png"" class=""exp-image"">
                        <div class=""question-area"">
                            <p style=""font-size: 20px; font-weight: bold; margin: 0;"">Is there a person in this image?</p>
                        </div>
                    </div>","0","main_causal_task","7","package_causal","","","",""
"","","","","","html-keyboard-response","68","228449","0.0-68.0","4069F47E7D584B90BA6BF7164077E6B9","019ce698-5097-729d-a638-86a964083c8c","019ce643-47c6-74a0-b3d2-7bf5651ded46","","null","
                    <div class=""stimulus-container"">
                        <img src=""images/causal_sequence/package_causal/package_causal_8.png"" class=""exp-image"">
                        <div class=""question-area""></div> 
                    </div>","null","","","","","","",""
"","","","","","html-button-response","69","229413","0.0-69.0","4069F47E7D584B90BA6BF7164077E6B9","019ce698-5097-729d-a638-86a964083c8c","019ce643-47c6-74a0-b3d2-7bf5651ded46","","963","
                    <div class=""stimulus-container"">
                        <img src=""images/causal_sequence/package_causal/package_causal_8.png"" class=""exp-image"">
                        <div class=""question-area"">
                            <p style=""font-size: 20px; font-weight: bold; margin: 0;"">Is there a person in this image?</p>
                        </div>
                    </div>","0","main_causal_task","8","package_causal","","","",""
"","","","","","html-keyboard-response","70","234420","0.0-70.0","4069F47E7D584B90BA6BF7164077E6B9","019ce698-5097-729d-a638-86a964083c8c","019ce643-47c6-74a0-b3d2-7bf5651ded46","","null","
                    <div class=""stimulus-container"">
                        <img src=""images/causal_sequence/package_causal/package_causal_9.png"" class=""exp-image"">
                        <div class=""question-area""></div> 
                    </div>","null","","","","","","",""
"","","","","","html-button-response","71","235051","0.0-71.0","4069F47E7D584B90BA6BF7164077E6B9","019ce698-5097-729d-a638-86a964083c8c","019ce643-47c6-74a0-b3d2-7bf5651ded46","","630","
                    <div class=""stimulus-container"">
                        <img src=""images/causal_sequence/package_causal/package_causal_9.png"" class=""exp-image"">
                        <div class=""question-area"">
                            <p style=""font-size: 20px; font-weight: bold; margin: 0;"">Is there a person in this image?</p>
                        </div>
                    </div>","0","main_causal_task","9","package_causal","","","",""
"","","","","","html-keyboard-response","72","236057","0.0-72.0","4069F47E7D584B90BA6BF7164077E6B9","019ce698-5097-729d-a638-86a964083c8c","019ce643-47c6-74a0-b3d2-7bf5651ded46","","null","<div style=""background-color: gray; width: 100vw; height: 100vh;""></div>","null","","","","","","",""
"","","","","","html-keyboard-response","73","241067","0.0-73.0","4069F47E7D584B90BA6BF7164077E6B9","019ce698-5097-729d-a638-86a964083c8c","019ce643-47c6-74a0-b3d2-7bf5651ded46","","null","
                    <div class=""stimulus-container"">
                        <img src=""images/causal_sequence/coin_causal/coin_causal_1.png"" class=""exp-image"">
                        <div class=""question-area""></div> 
                    </div>","null","","","","","","",""
"","","","","","html-button-response","74","242068","0.0-74.0","4069F47E7D584B90BA6BF7164077E6B9","019ce698-5097-729d-a638-86a964083c8c","019ce643-47c6-74a0-b3d2-7bf5651ded46","","1001","
                    <div class=""stimulus-container"">
                        <img src=""images/causal_sequence/coin_causal/coin_causal_1.png"" class=""exp-image"">
                        <div class=""question-area"">
                            <p style=""font-size: 20px; font-weight: bold; margin: 0;"">Is there a person in this image?</p>
                        </div>
                    </div>","0","main_causal_task","1","coin_causal","","","",""
"","","","","","html-keyboard-response","75","247071","0.0-75.0","4069F47E7D584B90BA6BF7164077E6B9","019ce698-5097-729d-a638-86a964083c8c","019ce643-47c6-74a0-b3d2-7bf5651ded46","","null","
                    <div class=""stimulus-container"">
                        <img src=""images/causal_sequence/coin_causal/coin_causal_2.png"" class=""exp-image"">
                        <div class=""question-area""></div> 
                    </div>","null","","","","","","",""
"","","","","","html-button-response","76","247902","0.0-76.0","4069F47E7D584B90BA6BF7164077E6B9","019ce698-5097-729d-a638-86a964083c8c","019ce643-47c6-74a0-b3d2-7bf5651ded46","","829","
                    <div class=""stimulus-container"">
                        <img src=""images/causal_sequence/coin_causal/coin_causal_2.png"" class=""exp-image"">
                        <div class=""question-area"">
                            <p style=""font-size: 20px; font-weight: bold; margin: 0;"">Is there a person in this image?</p>
                        </div>
                    </div>","0","main_causal_task","2","coin_causal","","","",""
"","","","","","html-keyboard-response","77","252913","0.0-77.0","4069F47E7D584B90BA6BF7164077E6B9","019ce698-5097-729d-a638-86a964083c8c","019ce643-47c6-74a0-b3d2-7bf5651ded46","","null","
                    <div class=""stimulus-container"">
                        <img src=""images/causal_sequence/coin_causal/coin_causal_3.png"" class=""exp-image"">
                        <div class=""question-area""></div> 
                    </div>","null","","","","","","",""
"","","","","","html-button-response","78","253991","0.0-78.0","4069F47E7D584B90BA6BF7164077E6B9","019ce698-5097-729d-a638-86a964083c8c","019ce643-47c6-74a0-b3d2-7bf5651ded46","","1077","
                    <div class=""stimulus-container"">
                        <img src=""images/causal_sequence/coin_causal/coin_causal_3.png"" class=""exp-image"">
                        <div class=""question-area"">
                            <p style=""font-size: 20px; font-weight: bold; margin: 0;"">Is there a person in this image?</p>
                        </div>
                    </div>","0","main_causal_task","3","coin_causal","","","",""
"","","","","","html-keyboard-response","79","259001","0.0-79.0","4069F47E7D584B90BA6BF7164077E6B9","019ce698-5097-729d-a638-86a964083c8c","019ce643-47c6-74a0-b3d2-7bf5651ded46","","null","
                    <div class=""stimulus-container"">
                        <img src=""images/causal_sequence/coin_causal/coin_causal_4.png"" class=""exp-image"">
                        <div class=""question-area""></div> 
                    </div>","null","","","","","","",""
"","","","","","html-button-response","80","260094","0.0-80.0","4069F47E7D584B90BA6BF7164077E6B9","019ce698-5097-729d-a638-86a964083c8c","019ce643-47c6-74a0-b3d2-7bf5651ded46","","1093","
                    <div class=""stimulus-container"">
                        <img src=""images/causal_sequence/coin_causal/coin_causal_4.png"" class=""exp-image"">
                        <div class=""question-area"">
                            <p style=""font-size: 20px; font-weight: bold; margin: 0;"">Is there a person in this image?</p>
                        </div>
                    </div>","0","main_causal_task","4","coin_causal","","","",""
"","","","","","html-keyboard-response","81","265101","0.0-81.0","4069F47E7D584B90BA6BF7164077E6B9","019ce698-5097-729d-a638-86a964083c8c","019ce643-47c6-74a0-b3d2-7bf5651ded46","","null","
                    <div class=""stimulus-container"">
                        <img src=""images/causal_sequence/coin_causal/coin_causal_5.png"" class=""exp-image"">
                        <div class=""question-area""></div> 
                    </div>","null","","","","","","",""
"","","","","","html-button-response","82","266070","0.0-82.0","4069F47E7D584B90BA6BF7164077E6B9","019ce698-5097-729d-a638-86a964083c8c","019ce643-47c6-74a0-b3d2-7bf5651ded46","","968","
                    <div class=""stimulus-container"">
                        <img src=""images/causal_sequence/coin_causal/coin_causal_5.png"" class=""exp-image"">
                        <div class=""question-area"">
                            <p style=""font-size: 20px; font-weight: bold; margin: 0;"">Is there a person in this image?</p>
                        </div>
                    </div>","0","main_causal_task","5","coin_causal","","","",""
"","","","","","html-keyboard-response","83","271083","0.0-83.0","4069F47E7D584B90BA6BF7164077E6B9","019ce698-5097-729d-a638-86a964083c8c","019ce643-47c6-74a0-b3d2-7bf5651ded46","","null","
                    <div class=""stimulus-container"">
                        <img src=""images/causal_sequence/coin_causal/coin_causal_6.png"" class=""exp-image"">
                        <div class=""question-area""></div> 
                    </div>","null","","","","","","",""
"","","","","","html-button-response","84","271758","0.0-84.0","4069F47E7D584B90BA6BF7164077E6B9","019ce698-5097-729d-a638-86a964083c8c","019ce643-47c6-74a0-b3d2-7bf5651ded46","","675","
                    <div class=""stimulus-container"">
                        <img src=""images/causal_sequence/coin_causal/coin_causal_6.png"" class=""exp-image"">
                        <div class=""question-area"">
                            <p style=""font-size: 20px; font-weight: bold; margin: 0;"">Is there a person in this image?</p>
                        </div>
                    </div>","0","main_causal_task","6","coin_causal","","","",""
"","","","","","html-keyboard-response","85","276765","0.0-85.0","4069F47E7D584B90BA6BF7164077E6B9","019ce698-5097-729d-a638-86a964083c8c","019ce643-47c6-74a0-b3d2-7bf5651ded46","","null","
                    <div class=""stimulus-container"">
                        <img src=""images/causal_sequence/coin_causal/coin_causal_7.png"" class=""exp-image"">
                        <div class=""question-area""></div> 
                    </div>","null","","","","","","",""
"","","","","","html-button-response","86","278082","0.0-86.0","4069F47E7D584B90BA6BF7164077E6B9","019ce698-5097-729d-a638-86a964083c8c","019ce643-47c6-74a0-b3d2-7bf5651ded46","","1315","
                    <div class=""stimulus-container"">
                        <img src=""images/causal_sequence/coin_causal/coin_causal_7.png"" class=""exp-image"">
                        <div class=""question-area"">
                            <p style=""font-size: 20px; font-weight: bold; margin: 0;"">Is there a person in this image?</p>
                        </div>
                    </div>","1","main_causal_task","7","coin_causal","","","",""
"","","","","","html-keyboard-response","87","283096","0.0-87.0","4069F47E7D584B90BA6BF7164077E6B9","019ce698-5097-729d-a638-86a964083c8c","019ce643-47c6-74a0-b3d2-7bf5651ded46","","null","
                    <div class=""stimulus-container"">
                        <img src=""images/causal_sequence/coin_causal/coin_causal_8.png"" class=""exp-image"">
                        <div class=""question-area""></div> 
                    </div>","null","","","","","","",""
"","","","","","html-button-response","88","284679","0.0-88.0","4069F47E7D584B90BA6BF7164077E6B9","019ce698-5097-729d-a638-86a964083c8c","019ce643-47c6-74a0-b3d2-7bf5651ded46","","1581","
                    <div class=""stimulus-container"">
                        <img src=""images/causal_sequence/coin_causal/coin_causal_8.png"" class=""exp-image"">
                        <div class=""question-area"">
                            <p style=""font-size: 20px; font-weight: bold; margin: 0;"">Is there a person in this image?</p>
                        </div>
                    </div>","0","main_causal_task","8","coin_causal","","","",""
"","","","","","html-keyboard-response","89","289688","0.0-89.0","4069F47E7D584B90BA6BF7164077E6B9","019ce698-5097-729d-a638-86a964083c8c","019ce643-47c6-74a0-b3d2-7bf5651ded46","","null","
                    <div class=""stimulus-container"">
                        <img src=""images/causal_sequence/coin_causal/coin_causal_9.png"" class=""exp-image"">
                        <div class=""question-area""></div> 
                    </div>","null","","","","","","",""
"","","","","","html-button-response","90","291181","0.0-90.0","4069F47E7D584B90BA6BF7164077E6B9","019ce698-5097-729d-a638-86a964083c8c","019ce643-47c6-74a0-b3d2-7bf5651ded46","","1491","
                    <div class=""stimulus-container"">
                        <img src=""images/causal_sequence/coin_causal/coin_causal_9.png"" class=""exp-image"">
                        <div class=""question-area"">
                            <p style=""font-size: 20px; font-weight: bold; margin: 0;"">Is there a person in this image?</p>
                        </div>
                    </div>","0","main_causal_task","9","coin_causal","","","",""
"","","","","","html-keyboard-response","91","292195","0.0-91.0","4069F47E7D584B90BA6BF7164077E6B9","019ce698-5097-729d-a638-86a964083c8c","019ce643-47c6-74a0-b3d2-7bf5651ded46","","null","<div style=""background-color: gray; width: 100vw; height: 100vh;""></div>","null","","","","","","",""
"","","","","","html-keyboard-response","92","297196","0.0-92.0","4069F47E7D584B90BA6BF7164077E6B9","019ce698-5097-729d-a638-86a964083c8c","019ce643-47c6-74a0-b3d2-7bf5651ded46","","null","
                    <div class=""stimulus-container"">
                        <img src=""images/causal_sequence/saving_a_cat_causal/saving_a_cat_causal_1.png"" class=""exp-image"">
                        <div class=""question-area""></div> 
                    </div>","null","","","","","","",""
"","","","","","html-button-response","93","298931","0.0-93.0","4069F47E7D584B90BA6BF7164077E6B9","019ce698-5097-729d-a638-86a964083c8c","019ce643-47c6-74a0-b3d2-7bf5651ded46","","1736","
                    <div class=""stimulus-container"">
                        <img src=""images/causal_sequence/saving_a_cat_causal/saving_a_cat_causal_1.png"" class=""exp-image"">
                        <div class=""question-area"">
                            <p style=""font-size: 20px; font-weight: bold; margin: 0;"">Is there a person in this image?</p>
                        </div>
                    </div>","0","main_causal_task","1","saving_a_cat_causal","","","",""
"","","","","","html-keyboard-response","94","303945","0.0-94.0","4069F47E7D584B90BA6BF7164077E6B9","019ce698-5097-729d-a638-86a964083c8c","019ce643-47c6-74a0-b3d2-7bf5651ded46","","null","
                    <div class=""stimulus-container"">
                        <img src=""images/causal_sequence/saving_a_cat_causal/saving_a_cat_causal_2.png"" class=""exp-image"">
                        <div class=""question-area""></div> 
                    </div>","null","","","","","","",""
"","","","","","html-button-response","95","305514","0.0-95.0","4069F47E7D584B90BA6BF7164077E6B9","019ce698-5097-729d-a638-86a964083c8c","019ce643-47c6-74a0-b3d2-7bf5651ded46","","1567","
                    <div class=""stimulus-container"">
                        <img src=""images/causal_sequence/saving_a_cat_causal/saving_a_cat_causal_2.png"" class=""exp-image"">
                        <div class=""question-area"">
                            <p style=""font-size: 20px; font-weight: bold; margin: 0;"">Is there a person in this image?</p>
                        </div>
                    </div>","1","main_causal_task","2","saving_a_cat_causal","","","",""
"","","","","","html-keyboard-response","96","310523","0.0-96.0","4069F47E7D584B90BA6BF7164077E6B9","019ce698-5097-729d-a638-86a964083c8c","019ce643-47c6-74a0-b3d2-7bf5651ded46","","null","
                    <div class=""stimulus-container"">
                        <img src=""images/causal_sequence/saving_a_cat_causal/saving_a_cat_causal_3.png"" class=""exp-image"">
                        <div class=""question-area""></div> 
                    </div>","null","","","","","","",""
"","","","","","html-button-response","97","311969","0.0-97.0","4069F47E7D584B90BA6BF7164077E6B9","019ce698-5097-729d-a638-86a964083c8c","019ce643-47c6-74a0-b3d2-7bf5651ded46","","1446","
                    <div class=""stimulus-container"">
                        <img src=""images/causal_sequence/saving_a_cat_causal/saving_a_cat_causal_3.png"" class=""exp-image"">
                        <div class=""question-area"">
                            <p style=""font-size: 20px; font-weight: bold; margin: 0;"">Is there a person in this image?</p>
                        </div>
                    </div>","1","main_causal_task","3","saving_a_cat_causal","","","",""
"","","","","","html-keyboard-response","98","317044","0.0-98.0","4069F47E7D584B90BA6BF7164077E6B9","019ce698-5097-729d-a638-86a964083c8c","019ce643-47c6-74a0-b3d2-7bf5651ded46","","null","
                    <div class=""stimulus-container"">
                        <img src=""images/causal_sequence/saving_a_cat_causal/saving_a_cat_causal_4.png"" class=""exp-image"">
                        <div class=""question-area""></div> 
                    </div>","null","","","","","","",""
"","","","","","html-button-response","99","318370","0.0-99.0","4069F47E7D584B90BA6BF7164077E6B9","019ce698-5097-729d-a638-86a964083c8c","019ce643-47c6-74a0-b3d2-7bf5651ded46","","1326","
                    <div class=""stimulus-container"">
                        <img src=""images/causal_sequence/saving_a_cat_causal/saving_a_cat_causal_4.png"" class=""exp-image"">
                        <div class=""question-area"">
                            <p style=""font-size: 20px; font-weight: bold; margin: 0;"">Is there a person in this image?</p>
                        </div>
                    </div>","0","main_causal_task","4","saving_a_cat_causal","","","",""
"","","","","","html-keyboard-response","100","323375","0.0-100.0","4069F47E7D584B90BA6BF7164077E6B9","019ce698-5097-729d-a638-86a964083c8c","019ce643-47c6-74a0-b3d2-7bf5651ded46","","null","
                    <div class=""stimulus-container"">
                        <img src=""images/causal_sequence/saving_a_cat_causal/saving_a_cat_causal_5.png"" class=""exp-image"">
                        <div class=""question-area""></div> 
                    </div>","null","","","","","","",""
"","","","","","html-button-response","101","324602","0.0-101.0","4069F47E7D584B90BA6BF7164077E6B9","019ce698-5097-729d-a638-86a964083c8c","019ce643-47c6-74a0-b3d2-7bf5651ded46","","1226","
                    <div class=""stimulus-container"">
                        <img src=""images/causal_sequence/saving_a_cat_causal/saving_a_cat_causal_5.png"" class=""exp-image"">
                        <div class=""question-area"">
                            <p style=""font-size: 20px; font-weight: bold; margin: 0;"">Is there a person in this image?</p>
                        </div>
                    </div>","0","main_causal_task","5","saving_a_cat_causal","","","",""
"","","","","","html-keyboard-response","102","329611","0.0-102.0","4069F47E7D584B90BA6BF7164077E6B9","019ce698-5097-729d-a638-86a964083c8c","019ce643-47c6-74a0-b3d2-7bf5651ded46","","null","
                    <div class=""stimulus-container"">
                        <img src=""images/causal_sequence/saving_a_cat_causal/saving_a_cat_causal_6.png"" class=""exp-image"">
                        <div class=""question-area""></div> 
                    </div>","null","","","","","","",""
"","","","","","html-button-response","103","331479","0.0-103.0","4069F47E7D584B90BA6BF7164077E6B9","019ce698-5097-729d-a638-86a964083c8c","019ce643-47c6-74a0-b3d2-7bf5651ded46","","1867","
                    <div class=""stimulus-container"">
                        <img src=""images/causal_sequence/saving_a_cat_causal/saving_a_cat_causal_6.png"" class=""exp-image"">
                        <div class=""question-area"">
                            <p style=""font-size: 20px; font-weight: bold; margin: 0;"">Is there a person in this image?</p>
                        </div>
                    </div>","0","main_causal_task","6","saving_a_cat_causal","","","",""
"","","","","","html-keyboard-response","104","336490","0.0-104.0","4069F47E7D584B90BA6BF7164077E6B9","019ce698-5097-729d-a638-86a964083c8c","019ce643-47c6-74a0-b3d2-7bf5651ded46","","null","
                    <div class=""stimulus-container"">
                        <img src=""images/causal_sequence/saving_a_cat_causal/saving_a_cat_causal_7.png"" class=""exp-image"">
                        <div class=""question-area""></div> 
                    </div>","null","","","","","","",""
"","","","","","html-button-response","105","338069","0.0-105.0","4069F47E7D584B90BA6BF7164077E6B9","019ce698-5097-729d-a638-86a964083c8c","019ce643-47c6-74a0-b3d2-7bf5651ded46","","1578","
                    <div class=""stimulus-container"">
                        <img src=""images/causal_sequence/saving_a_cat_causal/saving_a_cat_causal_7.png"" class=""exp-image"">
                        <div class=""question-area"">
                            <p style=""font-size: 20px; font-weight: bold; margin: 0;"">Is there a person in this image?</p>
                        </div>
                    </div>","0","main_causal_task","7","saving_a_cat_causal","","","",""
"","","","","","html-keyboard-response","106","343076","0.0-106.0","4069F47E7D584B90BA6BF7164077E6B9","019ce698-5097-729d-a638-86a964083c8c","019ce643-47c6-74a0-b3d2-7bf5651ded46","","null","
                    <div class=""stimulus-container"">
                        <img src=""images/causal_sequence/saving_a_cat_causal/saving_a_cat_causal_8.png"" class=""exp-image"">
                        <div class=""question-area""></div> 
                    </div>","null","","","","","","",""
"","","","","","html-button-response","107","346078","0.0-107.0","4069F47E7D584B90BA6BF7164077E6B9","019ce698-5097-729d-a638-86a964083c8c","019ce643-47c6-74a0-b3d2-7bf5651ded46","","null","
                    <div class=""stimulus-container"">
                        <img src=""images/causal_sequence/saving_a_cat_causal/saving_a_cat_causal_8.png"" class=""exp-image"">
                        <div class=""question-area"">
                            <p style=""font-size: 20px; font-weight: bold; margin: 0;"">Is there a person in this image?</p>
                        </div>
                    </div>","null","main_causal_task","8","saving_a_cat_causal","","","",""
"","","","","","html-keyboard-response","108","351087","0.0-108.0","4069F47E7D584B90BA6BF7164077E6B9","019ce698-5097-729d-a638-86a964083c8c","019ce643-47c6-74a0-b3d2-7bf5651ded46","","null","
                    <div class=""stimulus-container"">
                        <img src=""images/causal_sequence/saving_a_cat_causal/saving_a_cat_causal_9.png"" class=""exp-image"">
                        <div class=""question-area""></div> 
                    </div>","null","","","","","","",""
"","","","","","html-button-response","109","353137","0.0-109.0","4069F47E7D584B90BA6BF7164077E6B9","019ce698-5097-729d-a638-86a964083c8c","019ce643-47c6-74a0-b3d2-7bf5651ded46","","2049","
                    <div class=""stimulus-container"">
                        <img src=""images/causal_sequence/saving_a_cat_causal/saving_a_cat_causal_9.png"" class=""exp-image"">
                        <div class=""question-area"">
                            <p style=""font-size: 20px; font-weight: bold; margin: 0;"">Is there a person in this image?</p>
                        </div>
                    </div>","0","main_causal_task","9","saving_a_cat_causal","","","",""
"","","","","","html-keyboard-response","110","354142","0.0-110.0","4069F47E7D584B90BA6BF7164077E6B9","019ce698-5097-729d-a638-86a964083c8c","019ce643-47c6-74a0-b3d2-7bf5651ded46","","null","<div style=""background-color: gray; width: 100vw; height: 100vh;""></div>","null","","","","","","",""
"","","","","","html-keyboard-response","111","359151","0.0-111.0","4069F47E7D584B90BA6BF7164077E6B9","019ce698-5097-729d-a638-86a964083c8c","019ce643-47c6-74a0-b3d2-7bf5651ded46","","null","
                    <div class=""stimulus-container"">
                        <img src=""images/causal_sequence/museum_causal/museum_causal_1.png"" class=""exp-image"">
                        <div class=""question-area""></div> 
                    </div>","null","","","","","","",""
"","","","","","html-button-response","112","362159","0.0-112.0","4069F47E7D584B90BA6BF7164077E6B9","019ce698-5097-729d-a638-86a964083c8c","019ce643-47c6-74a0-b3d2-7bf5651ded46","","null","
                    <div class=""stimulus-container"">
                        <img src=""images/causal_sequence/museum_causal/museum_causal_1.png"" class=""exp-image"">
                        <div class=""question-area"">
                            <p style=""font-size: 20px; font-weight: bold; margin: 0;"">Is there a person in this image?</p>
                        </div>
                    </div>","null","main_causal_task","1","museum_causal","","","",""
"","","","","","html-keyboard-response","113","367167","0.0-113.0","4069F47E7D584B90BA6BF7164077E6B9","019ce698-5097-729d-a638-86a964083c8c","019ce643-47c6-74a0-b3d2-7bf5651ded46","","null","
                    <div class=""stimulus-container"">
                        <img src=""images/causal_sequence/museum_causal/museum_causal_2.png"" class=""exp-image"">
                        <div class=""question-area""></div> 
                    </div>","null","","","","","","",""
"","","","","","html-button-response","114","370086","0.0-114.0","4069F47E7D584B90BA6BF7164077E6B9","019ce698-5097-729d-a638-86a964083c8c","019ce643-47c6-74a0-b3d2-7bf5651ded46","","2918","
                    <div class=""stimulus-container"">
                        <img src=""images/causal_sequence/museum_causal/museum_causal_2.png"" class=""exp-image"">
                        <div class=""question-area"">
                            <p style=""font-size: 20px; font-weight: bold; margin: 0;"">Is there a person in this image?</p>
                        </div>
                    </div>","1","main_causal_task","2","museum_causal","","","",""
"","","","","","html-keyboard-response","115","375094","0.0-115.0","4069F47E7D584B90BA6BF7164077E6B9","019ce698-5097-729d-a638-86a964083c8c","019ce643-47c6-74a0-b3d2-7bf5651ded46","","null","
                    <div class=""stimulus-container"">
                        <img src=""images/causal_sequence/museum_causal/museum_causal_3.png"" class=""exp-image"">
                        <div class=""question-area""></div> 
                    </div>","null","","","","","","",""
"","","","","","html-button-response","116","376956","0.0-116.0","4069F47E7D584B90BA6BF7164077E6B9","019ce698-5097-729d-a638-86a964083c8c","019ce643-47c6-74a0-b3d2-7bf5651ded46","","1861","
                    <div class=""stimulus-container"">
                        <img src=""images/causal_sequence/museum_causal/museum_causal_3.png"" class=""exp-image"">
                        <div class=""question-area"">
                            <p style=""font-size: 20px; font-weight: bold; margin: 0;"">Is there a person in this image?</p>
                        </div>
                    </div>","0","main_causal_task","3","museum_causal","","","",""
"","","","","","html-keyboard-response","117","381971","0.0-117.0","4069F47E7D584B90BA6BF7164077E6B9","019ce698-5097-729d-a638-86a964083c8c","019ce643-47c6-74a0-b3d2-7bf5651ded46","","null","
                    <div class=""stimulus-container"">
                        <img src=""images/causal_sequence/museum_causal/museum_causal_4.png"" class=""exp-image"">
                        <div class=""question-area""></div> 
                    </div>","null","","","","","","",""
"","","","","","html-button-response","118","384025","0.0-118.0","4069F47E7D584B90BA6BF7164077E6B9","019ce698-5097-729d-a638-86a964083c8c","019ce643-47c6-74a0-b3d2-7bf5651ded46","","2053","
                    <div class=""stimulus-container"">
                        <img src=""images/causal_sequence/museum_causal/museum_causal_4.png"" class=""exp-image"">
                        <div class=""question-area"">
                            <p style=""font-size: 20px; font-weight: bold; margin: 0;"">Is there a person in this image?</p>
                        </div>
                    </div>","1","main_causal_task","4","museum_causal","","","",""
"","","","","","html-keyboard-response","119","389028","0.0-119.0","4069F47E7D584B90BA6BF7164077E6B9","019ce698-5097-729d-a638-86a964083c8c","019ce643-47c6-74a0-b3d2-7bf5651ded46","","null","
                    <div class=""stimulus-container"">
                        <img src=""images/causal_sequence/museum_causal/museum_causal_5.png"" class=""exp-image"">
                        <div class=""question-area""></div> 
                    </div>","null","","","","","","",""
"","","","","","html-button-response","120","390606","0.0-120.0","4069F47E7D584B90BA6BF7164077E6B9","019ce698-5097-729d-a638-86a964083c8c","019ce643-47c6-74a0-b3d2-7bf5651ded46","","1578","
                    <div class=""stimulus-container"">
                        <img src=""images/causal_sequence/museum_causal/museum_causal_5.png"" class=""exp-image"">
                        <div class=""question-area"">
                            <p style=""font-size: 20px; font-weight: bold; margin: 0;"">Is there a person in this image?</p>
                        </div>
                    </div>","0","main_causal_task","5","museum_causal","","","",""
"","","","","","html-keyboard-response","121","395611","0.0-121.0","4069F47E7D584B90BA6BF7164077E6B9","019ce698-5097-729d-a638-86a964083c8c","019ce643-47c6-74a0-b3d2-7bf5651ded46","","null","
                    <div class=""stimulus-container"">
                        <img src=""images/causal_sequence/museum_causal/museum_causal_6.png"" class=""exp-image"">
                        <div class=""question-area""></div> 
                    </div>","null","","","","","","",""
"","","","","","html-button-response","122","398521","0.0-122.0","4069F47E7D584B90BA6BF7164077E6B9","019ce698-5097-729d-a638-86a964083c8c","019ce643-47c6-74a0-b3d2-7bf5651ded46","","2910","
                    <div class=""stimulus-container"">
                        <img src=""images/causal_sequence/museum_causal/museum_causal_6.png"" class=""exp-image"">
                        <div class=""question-area"">
                            <p style=""font-size: 20px; font-weight: bold; margin: 0;"">Is there a person in this image?</p>
                        </div>
                    </div>","0","main_causal_task","6","museum_causal","","","",""
"","","","","","html-keyboard-response","123","403532","0.0-123.0","4069F47E7D584B90BA6BF7164077E6B9","019ce698-5097-729d-a638-86a964083c8c","019ce643-47c6-74a0-b3d2-7bf5651ded46","","null","
                    <div class=""stimulus-container"">
                        <img src=""images/causal_sequence/museum_causal/museum_causal_7.png"" class=""exp-image"">
                        <div class=""question-area""></div> 
                    </div>","null","","","","","","",""
"","","","","","html-button-response","124","405940","0.0-124.0","4069F47E7D584B90BA6BF7164077E6B9","019ce698-5097-729d-a638-86a964083c8c","019ce643-47c6-74a0-b3d2-7bf5651ded46","","2407","
                    <div class=""stimulus-container"">
                        <img src=""images/causal_sequence/museum_causal/museum_causal_7.png"" class=""exp-image"">
                        <div class=""question-area"">
                            <p style=""font-size: 20px; font-weight: bold; margin: 0;"">Is there a person in this image?</p>
                        </div>
                    </div>","1","main_causal_task","7","museum_causal","","","",""
"","","","","","html-keyboard-response","125","410948","0.0-125.0","4069F47E7D584B90BA6BF7164077E6B9","019ce698-5097-729d-a638-86a964083c8c","019ce643-47c6-74a0-b3d2-7bf5651ded46","","null","
                    <div class=""stimulus-container"">
                        <img src=""images/causal_sequence/museum_causal/museum_causal_8.png"" class=""exp-image"">
                        <div class=""question-area""></div> 
                    </div>","null","","","","","","",""
"","","","","","html-button-response","126","412446","0.0-126.0","4069F47E7D584B90BA6BF7164077E6B9","019ce698-5097-729d-a638-86a964083c8c","019ce643-47c6-74a0-b3d2-7bf5651ded46","","1497","
                    <div class=""stimulus-container"">
                        <img src=""images/causal_sequence/museum_causal/museum_causal_8.png"" class=""exp-image"">
                        <div class=""question-area"">
                            <p style=""font-size: 20px; font-weight: bold; margin: 0;"">Is there a person in this image?</p>
                        </div>
                    </div>","0","main_causal_task","8","museum_causal","","","",""
"","","","","","html-keyboard-response","127","417491","0.0-127.0","4069F47E7D584B90BA6BF7164077E6B9","019ce698-5097-729d-a638-86a964083c8c","019ce643-47c6-74a0-b3d2-7bf5651ded46","","null","
                    <div class=""stimulus-container"">
                        <img src=""images/causal_sequence/museum_causal/museum_causal_9.png"" class=""exp-image"">
                        <div class=""question-area""></div> 
                    </div>","null","","","","","","",""
"","","","","","html-button-response","128","419085","0.0-128.0","4069F47E7D584B90BA6BF7164077E6B9","019ce698-5097-729d-a638-86a964083c8c","019ce643-47c6-74a0-b3d2-7bf5651ded46","","1594","
                    <div class=""stimulus-container"">
                        <img src=""images/causal_sequence/museum_causal/museum_causal_9.png"" class=""exp-image"">
                        <div class=""question-area"">
                            <p style=""font-size: 20px; font-weight: bold; margin: 0;"">Is there a person in this image?</p>
                        </div>
                    </div>","1","main_causal_task","9","museum_causal","","","",""
"","","","","","instructions","129","422609","0.0-129.0","4069F47E7D584B90BA6BF7164077E6B9","019ce698-5097-729d-a638-86a964083c8c","019ce643-47c6-74a0-b3d2-7bf5651ded46","[{""page_index"":0,""viewing_time"":3522}]","3522","","","","","","","","",""
"","","","","","instructions","130","432410","0.0-130.0","4069F47E7D584B90BA6BF7164077E6B9","019ce698-5097-729d-a638-86a964083c8c","019ce643-47c6-74a0-b3d2-7bf5651ded46","[{""page_index"":0,""viewing_time"":9800}]","9800","","","","","","","","",""
"","","","","","html-keyboard-response","131","433417","0.0-131.0","4069F47E7D584B90BA6BF7164077E6B9","019ce698-5097-729d-a638-86a964083c8c","019ce643-47c6-74a0-b3d2-7bf5651ded46","","null","
        <div class=""stimulus-container"" style=""display: flex; align-items: center; justify-content: center; gap: 30px;"">
            <img src=""images/instructions/movie_1.png"" class=""exp-image"">
            <div style=""font-size: 40px; font-weight: bold; color: green; border: 5px solid green; padding: 25px; border-radius: 15px; background-color: #f0fff0;"">
                WORTH<br>$1
            </div>
        </div>
        <div class=""question-area""></div>","null","","","","","","",""
"","","","","","html-button-response","132","436431","0.0-132.0","4069F47E7D584B90BA6BF7164077E6B9","019ce698-5097-729d-a638-86a964083c8c","019ce643-47c6-74a0-b3d2-7bf5651ded46","","null","
        <div class=""stimulus-container"" style=""display: flex; align-items: center; justify-content: center; gap: 30px;"">
            <img src=""images/instructions/movie_1.png"" class=""exp-image"">
            <div style=""font-size: 40px; font-weight: bold; color: green; border: 5px solid green; padding: 25px; border-radius: 15px; background-color: #f0fff0;"">
                WORTH<br>$1
            </div>
        </div>
        <div class=""question-area"">
            <p style=""font-size: 20px; font-weight: bold; margin: 0;"">Was there a person in this image?</p>
        </div>","null","","","","","","",""
"","","","","","instructions","133","440964","0.0-133.0","4069F47E7D584B90BA6BF7164077E6B9","019ce698-5097-729d-a638-86a964083c8c","019ce643-47c6-74a0-b3d2-7bf5651ded46","[{""page_index"":0,""viewing_time"":4533}]","4533","","","","","","","","",""
"","","","","","html-keyboard-response","134","450972","0.0-134.0","4069F47E7D584B90BA6BF7164077E6B9","019ce698-5097-729d-a638-86a964083c8c","019ce643-47c6-74a0-b3d2-7bf5651ded46","","null","
            <div class=""stimulus-container"" style=""display: flex; align-items: center; justify-content: center; gap: 30px;"">
                <img src=""images/causal_sequence/package_causal/package_causal_5.png"" class=""exp-image"">
                <div style=""font-size: 40px; font-weight: bold; color: green; border: 5px solid green; padding: 25px; border-radius: 15px; background-color: #f0fff0;"">
                    WORTH<br>$1
                </div>
            </div>
            <div class=""question-area""></div>","null","","","","","","",""
"","","","","","html-button-response","135","452672","0.0-135.0","4069F47E7D584B90BA6BF7164077E6B9","019ce698-5097-729d-a638-86a964083c8c","019ce643-47c6-74a0-b3d2-7bf5651ded46","","1700","
            <div class=""stimulus-container"" style=""display: flex; align-items: center; justify-content: center; gap: 30px;"">
                <img src=""images/causal_sequence/package_causal/package_causal_5.png"" class=""exp-image"">
                <div style=""font-size: 40px; font-weight: bold; color: green; border: 5px solid green; padding: 25px; border-radius: 15px; background-color: #f0fff0;"">
                    WORTH<br>$1
                </div>
            </div>
            <div class=""question-area"">
                <p style=""font-size: 20px; font-weight: bold; margin: 0;"">Was there a person in this image?</p>
            </div>","0","part2_value_learning","","package_causal","5","","",""
"","","","","","html-keyboard-response","136","462677","0.0-136.0","4069F47E7D584B90BA6BF7164077E6B9","019ce698-5097-729d-a638-86a964083c8c","019ce643-47c6-74a0-b3d2-7bf5651ded46","","null","
            <div class=""stimulus-container"" style=""display: flex; align-items: center; justify-content: center; gap: 30px;"">
                <img src=""images/causal_sequence/dog_causal/dog_causal_3.png"" class=""exp-image"">
                <div style=""font-size: 40px; font-weight: bold; color: green; border: 5px solid green; padding: 25px; border-radius: 15px; background-color: #f0fff0;"">
                    WORTH<br>$1
                </div>
            </div>
            <div class=""question-area""></div>","null","","","","","","",""
"","","","","","html-button-response","137","464253","0.0-137.0","4069F47E7D584B90BA6BF7164077E6B9","019ce698-5097-729d-a638-86a964083c8c","019ce643-47c6-74a0-b3d2-7bf5651ded46","","1575","
            <div class=""stimulus-container"" style=""display: flex; align-items: center; justify-content: center; gap: 30px;"">
                <img src=""images/causal_sequence/dog_causal/dog_causal_3.png"" class=""exp-image"">
                <div style=""font-size: 40px; font-weight: bold; color: green; border: 5px solid green; padding: 25px; border-radius: 15px; background-color: #f0fff0;"">
                    WORTH<br>$1
                </div>
            </div>
            <div class=""question-area"">
                <p style=""font-size: 20px; font-weight: bold; margin: 0;"">Was there a person in this image?</p>
            </div>","0","part2_value_learning","","dog_causal","3","","",""
"","","","","","html-keyboard-response","138","474267","0.0-138.0","4069F47E7D584B90BA6BF7164077E6B9","019ce698-5097-729d-a638-86a964083c8c","019ce643-47c6-74a0-b3d2-7bf5651ded46","","null","
            <div class=""stimulus-container"" style=""display: flex; align-items: center; justify-content: center; gap: 30px;"">
                <img src=""images/causal_sequence/museum_causal/museum_causal_7.png"" class=""exp-image"">
                <div style=""font-size: 40px; font-weight: bold; color: green; border: 5px solid green; padding: 25px; border-radius: 15px; background-color: #f0fff0;"">
                    WORTH<br>$1
                </div>
            </div>
            <div class=""question-area""></div>","null","","","","","","",""
"","","","","","html-button-response","139","476289","0.0-139.0","4069F47E7D584B90BA6BF7164077E6B9","019ce698-5097-729d-a638-86a964083c8c","019ce643-47c6-74a0-b3d2-7bf5651ded46","","2022","
            <div class=""stimulus-container"" style=""display: flex; align-items: center; justify-content: center; gap: 30px;"">
                <img src=""images/causal_sequence/museum_causal/museum_causal_7.png"" class=""exp-image"">
                <div style=""font-size: 40px; font-weight: bold; color: green; border: 5px solid green; padding: 25px; border-radius: 15px; background-color: #f0fff0;"">
                    WORTH<br>$1
                </div>
            </div>
            <div class=""question-area"">
                <p style=""font-size: 20px; font-weight: bold; margin: 0;"">Was there a person in this image?</p>
            </div>","1","part2_value_learning","","museum_causal","7","","",""
"","","","","","html-keyboard-response","140","486296","0.0-140.0","4069F47E7D584B90BA6BF7164077E6B9","019ce698-5097-729d-a638-86a964083c8c","019ce643-47c6-74a0-b3d2-7bf5651ded46","","null","
            <div class=""stimulus-container"" style=""display: flex; align-items: center; justify-content: center; gap: 30px;"">
                <img src=""images/causal_sequence/saving_a_cat_causal/saving_a_cat_causal_3.png"" class=""exp-image"">
                <div style=""font-size: 40px; font-weight: bold; color: green; border: 5px solid green; padding: 25px; border-radius: 15px; background-color: #f0fff0;"">
                    WORTH<br>$1
                </div>
            </div>
            <div class=""question-area""></div>","null","","","","","","",""
"","","","","","html-button-response","141","488848","0.0-141.0","4069F47E7D584B90BA6BF7164077E6B9","019ce698-5097-729d-a638-86a964083c8c","019ce643-47c6-74a0-b3d2-7bf5651ded46","","2551","
            <div class=""stimulus-container"" style=""display: flex; align-items: center; justify-content: center; gap: 30px;"">
                <img src=""images/causal_sequence/saving_a_cat_causal/saving_a_cat_causal_3.png"" class=""exp-image"">
                <div style=""font-size: 40px; font-weight: bold; color: green; border: 5px solid green; padding: 25px; border-radius: 15px; background-color: #f0fff0;"">
                    WORTH<br>$1
                </div>
            </div>
            <div class=""question-area"">
                <p style=""font-size: 20px; font-weight: bold; margin: 0;"">Was there a person in this image?</p>
            </div>","1","part2_value_learning","","saving_a_cat_causal","3","","",""
"","","","","","html-keyboard-response","142","498850","0.0-142.0","4069F47E7D584B90BA6BF7164077E6B9","019ce698-5097-729d-a638-86a964083c8c","019ce643-47c6-74a0-b3d2-7bf5651ded46","","null","
            <div class=""stimulus-container"" style=""display: flex; align-items: center; justify-content: center; gap: 30px;"">
                <img src=""images/causal_sequence/coin_causal/coin_causal_3.png"" class=""exp-image"">
                <div style=""font-size: 40px; font-weight: bold; color: green; border: 5px solid green; padding: 25px; border-radius: 15px; background-color: #f0fff0;"">
                    WORTH<br>$1
                </div>
            </div>
            <div class=""question-area""></div>","null","","","","","","",""
"","","","","","html-button-response","143","501877","0.0-143.0","4069F47E7D584B90BA6BF7164077E6B9","019ce698-5097-729d-a638-86a964083c8c","019ce643-47c6-74a0-b3d2-7bf5651ded46","","null","
            <div class=""stimulus-container"" style=""display: flex; align-items: center; justify-content: center; gap: 30px;"">
                <img src=""images/causal_sequence/coin_causal/coin_causal_3.png"" class=""exp-image"">
                <div style=""font-size: 40px; font-weight: bold; color: green; border: 5px solid green; padding: 25px; border-radius: 15px; background-color: #f0fff0;"">
                    WORTH<br>$1
                </div>
            </div>
            <div class=""question-area"">
                <p style=""font-size: 20px; font-weight: bold; margin: 0;"">Was there a person in this image?</p>
            </div>","null","part2_value_learning","","coin_causal","3","","",""
"","","","","","html-keyboard-response","144","511882","0.0-144.0","4069F47E7D584B90BA6BF7164077E6B9","019ce698-5097-729d-a638-86a964083c8c","019ce643-47c6-74a0-b3d2-7bf5651ded46","","null","
            <div class=""stimulus-container"" style=""display: flex; align-items: center; justify-content: center; gap: 30px;"">
                <img src=""images/causal_sequence/the_performance_causal/the_performance_causal_5.png"" class=""exp-image"">
                <div style=""font-size: 40px; font-weight: bold; color: green; border: 5px solid green; padding: 25px; border-radius: 15px; background-color: #f0fff0;"">
                    WORTH<br>$1
                </div>
            </div>
            <div class=""question-area""></div>","null","","","","","","",""
"","","","","","html-button-response","145","513611","0.0-145.0","4069F47E7D584B90BA6BF7164077E6B9","019ce698-5097-729d-a638-86a964083c8c","019ce643-47c6-74a0-b3d2-7bf5651ded46","","1728","
            <div class=""stimulus-container"" style=""display: flex; align-items: center; justify-content: center; gap: 30px;"">
                <img src=""images/causal_sequence/the_performance_causal/the_performance_causal_5.png"" class=""exp-image"">
                <div style=""font-size: 40px; font-weight: bold; color: green; border: 5px solid green; padding: 25px; border-radius: 15px; background-color: #f0fff0;"">
                    WORTH<br>$1
                </div>
            </div>
            <div class=""question-area"">
                <p style=""font-size: 20px; font-weight: bold; margin: 0;"">Was there a person in this image?</p>
            </div>","0","part2_value_learning","","the_performance_causal","5","","",""
"","","","","","instructions","146","515514","0.0-146.0","4069F47E7D584B90BA6BF7164077E6B9","019ce698-5097-729d-a638-86a964083c8c","019ce643-47c6-74a0-b3d2-7bf5651ded46","[{""page_index"":0,""viewing_time"":1902}]","1902","","","","","","","","",""
"","","","","","instructions","147","517843","0.0-147.0","4069F47E7D584B90BA6BF7164077E6B9","019ce698-5097-729d-a638-86a964083c8c","019ce643-47c6-74a0-b3d2-7bf5651ded46","[{""page_index"":0,""viewing_time"":2328}]","2328","","","","","","","","",""
"","","","","","html-keyboard-response","148","527859","0.0-148.0-0.0","4069F47E7D584B90BA6BF7164077E6B9","019ce698-5097-729d-a638-86a964083c8c","019ce643-47c6-74a0-b3d2-7bf5651ded46","","null","
                        <div style=""font-family: Arial; margin-bottom: 20px;""><h3>Which image is more valuable?</h3></div>
                        <div class=""stimulus-container"" style=""display: flex; width: 1100px; justify-content: center; gap: 50px;"">
                            <img src=""images/causal_sequence/saving_a_cat_causal/saving_a_cat_causal_4.png"" class=""exp-image"">
                            <img src=""images/causal_sequence/saving_a_cat_causal/saving_a_cat_causal_2.png"" class=""exp-image"">
                        </div>","null","","","","","","",""
"","","","","","html-button-response","149","531086","0.0-148.0-1.0","4069F47E7D584B90BA6BF7164077E6B9","019ce698-5097-729d-a638-86a964083c8c","019ce643-47c6-74a0-b3d2-7bf5651ded46","","3226","
                        <div style=""font-family: Arial; margin-bottom: 20px;""><h3>Which image is more valuable?</h3></div>
                        <div class=""stimulus-container"" style=""display: flex; width: 1100px; justify-content: center; gap: 50px;"">
                            <img src=""images/causal_sequence/saving_a_cat_causal/saving_a_cat_causal_4.png"" class=""exp-image"">
                            <img src=""images/causal_sequence/saving_a_cat_causal/saving_a_cat_causal_2.png"" class=""exp-image"">
                        </div>","0","part3_final_choice","","saving_a_cat_causal","","3","4","1"
"","","","","","html-keyboard-response","150","541092","0.0-149.0-0.0","4069F47E7D584B90BA6BF7164077E6B9","019ce698-5097-729d-a638-86a964083c8c","019ce643-47c6-74a0-b3d2-7bf5651ded46","","null","
                        <div style=""font-family: Arial; margin-bottom: 20px;""><h3>Which image is more valuable?</h3></div>
                        <div class=""stimulus-container"" style=""display: flex; width: 1100px; justify-content: center; gap: 50px;"">
                            <img src=""images/causal_sequence/museum_causal/museum_causal_8.png"" class=""exp-image"">
                            <img src=""images/causal_sequence/museum_causal/museum_causal_6.png"" class=""exp-image"">
                        </div>","null","","","","","","",""
"","","","","","html-button-response","151","542794","0.0-149.0-1.0","4069F47E7D584B90BA6BF7164077E6B9","019ce698-5097-729d-a638-86a964083c8c","019ce643-47c6-74a0-b3d2-7bf5651ded46","","1700","
                        <div style=""font-family: Arial; margin-bottom: 20px;""><h3>Which image is more valuable?</h3></div>
                        <div class=""stimulus-container"" style=""display: flex; width: 1100px; justify-content: center; gap: 50px;"">
                            <img src=""images/causal_sequence/museum_causal/museum_causal_8.png"" class=""exp-image"">
                            <img src=""images/causal_sequence/museum_causal/museum_causal_6.png"" class=""exp-image"">
                        </div>","1","part3_final_choice","","museum_causal","","7","6","-1"
"","","","","","html-keyboard-response","152","552850","0.0-150.0-0.0","4069F47E7D584B90BA6BF7164077E6B9","019ce698-5097-729d-a638-86a964083c8c","019ce643-47c6-74a0-b3d2-7bf5651ded46","","null","
                        <div style=""font-family: Arial; margin-bottom: 20px;""><h3>Which image is more valuable?</h3></div>
                        <div class=""stimulus-container"" style=""display: flex; width: 1100px; justify-content: center; gap: 50px;"">
                            <img src=""images/causal_sequence/coin_causal/coin_causal_4.png"" class=""exp-image"">
                            <img src=""images/causal_sequence/coin_causal/coin_causal_2.png"" class=""exp-image"">
                        </div>","null","","","","","","",""
"","","","","","html-button-response","153","554624","0.0-150.0-1.0","4069F47E7D584B90BA6BF7164077E6B9","019ce698-5097-729d-a638-86a964083c8c","019ce643-47c6-74a0-b3d2-7bf5651ded46","","1774","
                        <div style=""font-family: Arial; margin-bottom: 20px;""><h3>Which image is more valuable?</h3></div>
                        <div class=""stimulus-container"" style=""display: flex; width: 1100px; justify-content: center; gap: 50px;"">
                            <img src=""images/causal_sequence/coin_causal/coin_causal_4.png"" class=""exp-image"">
                            <img src=""images/causal_sequence/coin_causal/coin_causal_2.png"" class=""exp-image"">
                        </div>","1","part3_final_choice","","coin_causal","","3","2","-1"
"","","","","","html-keyboard-response","154","564627","0.0-151.0-0.0","4069F47E7D584B90BA6BF7164077E6B9","019ce698-5097-729d-a638-86a964083c8c","019ce643-47c6-74a0-b3d2-7bf5651ded46","","null","
                        <div style=""font-family: Arial; margin-bottom: 20px;""><h3>Which image is more valuable?</h3></div>
                        <div class=""stimulus-container"" style=""display: flex; width: 1100px; justify-content: center; gap: 50px;"">
                            <img src=""images/causal_sequence/dog_causal/dog_causal_2.png"" class=""exp-image"">
                            <img src=""images/causal_sequence/dog_causal/dog_causal_4.png"" class=""exp-image"">
                        </div>","null","","","","","","",""
"","","","","","html-button-response","155","566066","0.0-151.0-1.0","4069F47E7D584B90BA6BF7164077E6B9","019ce698-5097-729d-a638-86a964083c8c","019ce643-47c6-74a0-b3d2-7bf5651ded46","","1437","
                        <div style=""font-family: Arial; margin-bottom: 20px;""><h3>Which image is more valuable?</h3></div>
                        <div class=""stimulus-container"" style=""display: flex; width: 1100px; justify-content: center; gap: 50px;"">
                            <img src=""images/causal_sequence/dog_causal/dog_causal_2.png"" class=""exp-image"">
                            <img src=""images/causal_sequence/dog_causal/dog_causal_4.png"" class=""exp-image"">
                        </div>","0","part3_final_choice","","dog_causal","","3","2","-1"
"","","","","","html-keyboard-response","156","576100","0.0-152.0-0.0","4069F47E7D584B90BA6BF7164077E6B9","019ce698-5097-729d-a638-86a964083c8c","019ce643-47c6-74a0-b3d2-7bf5651ded46","","null","
                        <div style=""font-family: Arial; margin-bottom: 20px;""><h3>Which image is more valuable?</h3></div>
                        <div class=""stimulus-container"" style=""display: flex; width: 1100px; justify-content: center; gap: 50px;"">
                            <img src=""images/causal_sequence/the_performance_causal/the_performance_causal_4.png"" class=""exp-image"">
                            <img src=""images/causal_sequence/the_performance_causal/the_performance_causal_6.png"" class=""exp-image"">
                        </div>","null","","","","","","",""
"","","","","","html-button-response","157","578356","0.0-152.0-1.0","4069F47E7D584B90BA6BF7164077E6B9","019ce698-5097-729d-a638-86a964083c8c","019ce643-47c6-74a0-b3d2-7bf5651ded46","","2255","
                        <div style=""font-family: Arial; margin-bottom: 20px;""><h3>Which image is more valuable?</h3></div>
                        <div class=""stimulus-container"" style=""display: flex; width: 1100px; justify-content: center; gap: 50px;"">
                            <img src=""images/causal_sequence/the_performance_causal/the_performance_causal_4.png"" class=""exp-image"">
                            <img src=""images/causal_sequence/the_performance_causal/the_performance_causal_6.png"" class=""exp-image"">
                        </div>","0","part3_final_choice","","the_performance_causal","","5","4","-1"
"","","","","","html-keyboard-response","158","588360","0.0-153.0-0.0","4069F47E7D584B90BA6BF7164077E6B9","019ce698-5097-729d-a638-86a964083c8c","019ce643-47c6-74a0-b3d2-7bf5651ded46","","null","
                        <div style=""font-family: Arial; margin-bottom: 20px;""><h3>Which image is more valuable?</h3></div>
                        <div class=""stimulus-container"" style=""display: flex; width: 1100px; justify-content: center; gap: 50px;"">
                            <img src=""images/causal_sequence/package_causal/package_causal_4.png"" class=""exp-image"">
                            <img src=""images/causal_sequence/package_causal/package_causal_6.png"" class=""exp-image"">
                        </div>","null","","","","","","",""
"","","","","","html-button-response","159","589585","0.0-153.0-1.0","4069F47E7D584B90BA6BF7164077E6B9","019ce698-5097-729d-a638-86a964083c8c","019ce643-47c6-74a0-b3d2-7bf5651ded46","","1224","
                        <div style=""font-family: Arial; margin-bottom: 20px;""><h3>Which image is more valuable?</h3></div>
                        <div class=""stimulus-container"" style=""display: flex; width: 1100px; justify-content: center; gap: 50px;"">
                            <img src=""images/causal_sequence/package_causal/package_causal_4.png"" class=""exp-image"">
                            <img src=""images/causal_sequence/package_causal/package_causal_6.png"" class=""exp-image"">
                        </div>","1","part3_final_choice","","package_causal","","5","6","1"
"","","","","","survey-text","160","637408","0.0-154.0","4069F47E7D584B90BA6BF7164077E6B9","019ce698-5097-729d-a638-86a964083c8c","019ce643-47c6-74a0-b3d2-7bf5651ded46","","47729","","{""gender"":""Female"",""age"":""32"",""decision_strategy"":""I looked at the image and saw many people were in it."",""consistency_check"":""I used the same logic for all pairs of images.""}","demographics_and_strategy","","","","","",""
"","","","","","instructions","161","662245","0.0-155.0","4069F47E7D584B90BA6BF7164077E6B9","019ce698-5097-729d-a638-86a964083c8c","019ce643-47c6-74a0-b3d2-7bf5651ded46","[{""page_index"":0,""viewing_time"":24835}]","24835","","","","","","","","",""
