"success","timeout","failed_images","failed_audio","failed_video","trial_type","trial_index","time_elapsed","internal_node_id","subject_id","study_id","session_id","view_history","rt","stimulus","response","task","image_index","folder","sequence_type","valuable_image_index","reward_type","chosen_image_index","target_X","correct_choice"
"true","false","[]","[]","[]","preload","0","2282","0.0-0.0","5EE51F753E744CCFB294047E79D3AE52","019cf535-b2ba-7139-b0aa-b3afe7d56719","019cf509-e3f1-72d9-bf6b-e2f1118fdaab","","","","","","","","","","","","",""
"","","","","","instructions","1","718335","0.0-1.0","5EE51F753E744CCFB294047E79D3AE52","019cf535-b2ba-7139-b0aa-b3afe7d56719","019cf509-e3f1-72d9-bf6b-e2f1118fdaab","[{""page_index"":0,""viewing_time"":716053}]","716053","","","","","","","","","","",""
"","","","","","instructions","2","720129","0.0-2.0","5EE51F753E744CCFB294047E79D3AE52","019cf535-b2ba-7139-b0aa-b3afe7d56719","019cf509-e3f1-72d9-bf6b-e2f1118fdaab","[{""page_index"":0,""viewing_time"":1791}]","1791","","","","","","","","","","",""
"true","","","","","fullscreen","3","722632","0.0-3.0","5EE51F753E744CCFB294047E79D3AE52","019cf535-b2ba-7139-b0aa-b3afe7d56719","019cf509-e3f1-72d9-bf6b-e2f1118fdaab","","1496","","","","","","","","","","",""
"","","","","","instructions","4","745239","0.0-4.0","5EE51F753E744CCFB294047E79D3AE52","019cf535-b2ba-7139-b0aa-b3afe7d56719","019cf509-e3f1-72d9-bf6b-e2f1118fdaab","[{""page_index"":0,""viewing_time"":22606}]","22606","","","","","","","","","","",""
"","","","","","instructions","5","755136","0.0-5.0","5EE51F753E744CCFB294047E79D3AE52","019cf535-b2ba-7139-b0aa-b3afe7d56719","019cf509-e3f1-72d9-bf6b-e2f1118fdaab","[{""page_index"":0,""viewing_time"":9896}]","9896","","","","","","","","","","",""
"","","","","","html-keyboard-response","6","759144","0.0-6.0","5EE51F753E744CCFB294047E79D3AE52","019cf535-b2ba-7139-b0aa-b3afe7d56719","019cf509-e3f1-72d9-bf6b-e2f1118fdaab","","null","
                <div class=""stimulus-container"">
                    <img src=""images/instructions/movie_1.png"" class=""exp-image"">
                    <div class=""question-area""></div> 
                </div>","null","","","","","","","","",""
"","","","","","html-button-response","7","762197","0.0-7.0","5EE51F753E744CCFB294047E79D3AE52","019cf535-b2ba-7139-b0aa-b3afe7d56719","019cf509-e3f1-72d9-bf6b-e2f1118fdaab","","null","
                <div class=""stimulus-container"">
                    <img src=""images/instructions/movie_1.png"" class=""exp-image"">
                    <div class=""question-area"">
                        <p style=""font-size: 20px; font-weight: bold; margin: 0;"">Was there a person in this image?</p>
                    </div>
                </div>","null","example_question","1","","","","","","",""
"","","","","","html-keyboard-response","8","766238","0.0-8.0","5EE51F753E744CCFB294047E79D3AE52","019cf535-b2ba-7139-b0aa-b3afe7d56719","019cf509-e3f1-72d9-bf6b-e2f1118fdaab","","null","
                <div class=""stimulus-container"">
                    <img src=""images/instructions/movie_2.png"" class=""exp-image"">
                    <div class=""question-area""></div> 
                </div>","null","","","","","","","","",""
"","","","","","html-button-response","9","766850","0.0-9.0","5EE51F753E744CCFB294047E79D3AE52","019cf535-b2ba-7139-b0aa-b3afe7d56719","019cf509-e3f1-72d9-bf6b-e2f1118fdaab","","611","
                <div class=""stimulus-container"">
                    <img src=""images/instructions/movie_2.png"" class=""exp-image"">
                    <div class=""question-area"">
                        <p style=""font-size: 20px; font-weight: bold; margin: 0;"">Was there a person in this image?</p>
                    </div>
                </div>","0","example_question","2","","","","","","",""
"","","","","","html-keyboard-response","10","770855","0.0-10.0","5EE51F753E744CCFB294047E79D3AE52","019cf535-b2ba-7139-b0aa-b3afe7d56719","019cf509-e3f1-72d9-bf6b-e2f1118fdaab","","null","
                <div class=""stimulus-container"">
                    <img src=""images/instructions/movie_3.png"" class=""exp-image"">
                    <div class=""question-area""></div> 
                </div>","null","","","","","","","","",""
"","","","","","html-button-response","11","771306","0.0-11.0","5EE51F753E744CCFB294047E79D3AE52","019cf535-b2ba-7139-b0aa-b3afe7d56719","019cf509-e3f1-72d9-bf6b-e2f1118fdaab","","450","
                <div class=""stimulus-container"">
                    <img src=""images/instructions/movie_3.png"" class=""exp-image"">
                    <div class=""question-area"">
                        <p style=""font-size: 20px; font-weight: bold; margin: 0;"">Was there a person in this image?</p>
                    </div>
                </div>","0","example_question","3","","","","","","",""
"","","","","","html-keyboard-response","12","775386","0.0-12.0","5EE51F753E744CCFB294047E79D3AE52","019cf535-b2ba-7139-b0aa-b3afe7d56719","019cf509-e3f1-72d9-bf6b-e2f1118fdaab","","null","
                <div class=""stimulus-container"">
                    <img src=""images/instructions/movie_4.png"" class=""exp-image"">
                    <div class=""question-area""></div> 
                </div>","null","","","","","","","","",""
"","","","","","html-button-response","13","775807","0.0-13.0","5EE51F753E744CCFB294047E79D3AE52","019cf535-b2ba-7139-b0aa-b3afe7d56719","019cf509-e3f1-72d9-bf6b-e2f1118fdaab","","421","
                <div class=""stimulus-container"">
                    <img src=""images/instructions/movie_4.png"" class=""exp-image"">
                    <div class=""question-area"">
                        <p style=""font-size: 20px; font-weight: bold; margin: 0;"">Was there a person in this image?</p>
                    </div>
                </div>","0","example_question","4","","","","","","",""
"","","","","","instructions","14","778956","0.0-14.0","5EE51F753E744CCFB294047E79D3AE52","019cf535-b2ba-7139-b0aa-b3afe7d56719","019cf509-e3f1-72d9-bf6b-e2f1118fdaab","[{""page_index"":0,""viewing_time"":3149}]","3149","","","","","","","","","","",""
"","","","","","instructions","15","792046","0.0-15.0","5EE51F753E744CCFB294047E79D3AE52","019cf535-b2ba-7139-b0aa-b3afe7d56719","019cf509-e3f1-72d9-bf6b-e2f1118fdaab","[{""page_index"":0,""viewing_time"":13089}]","13089","","","","","","","","","","",""
"","","","","","html-keyboard-response","16","793064","0.0-16.0","5EE51F753E744CCFB294047E79D3AE52","019cf535-b2ba-7139-b0aa-b3afe7d56719","019cf509-e3f1-72d9-bf6b-e2f1118fdaab","","null","<div style=""background-color: white; width: 100vw; height: 100vh;""></div>","null","","","","","","","","",""
"","","","","","html-keyboard-response","17","798281","0.0-17.0","5EE51F753E744CCFB294047E79D3AE52","019cf535-b2ba-7139-b0aa-b3afe7d56719","019cf509-e3f1-72d9-bf6b-e2f1118fdaab","","null","
                <div class=""stimulus-container"">
                    <img src=""images/schematic_sequence/flight_scheme/flight_scheme_1.png"" class=""exp-image"">
                    <div class=""question-area""></div> 
                </div>","null","","","","","","","","",""
"","","","","","html-button-response","18","799021","0.0-18.0","5EE51F753E744CCFB294047E79D3AE52","019cf535-b2ba-7139-b0aa-b3afe7d56719","019cf509-e3f1-72d9-bf6b-e2f1118fdaab","","739","
                <div class=""stimulus-container"">
                    <img src=""images/schematic_sequence/flight_scheme/flight_scheme_1.png"" class=""exp-image"">
                    <div class=""question-area"">
                        <p style=""font-size: 20px; font-weight: bold; margin: 0;"">Is there a person in this image?</p>
                    </div>
                </div>","0","main_experiment_trial","1","flight_scheme","schematic_sequence","","","","",""
"","","","","","html-keyboard-response","19","804048","0.0-19.0","5EE51F753E744CCFB294047E79D3AE52","019cf535-b2ba-7139-b0aa-b3afe7d56719","019cf509-e3f1-72d9-bf6b-e2f1118fdaab","","null","
                <div class=""stimulus-container"">
                    <img src=""images/schematic_sequence/flight_scheme/flight_scheme_2.png"" class=""exp-image"">
                    <div class=""question-area""></div> 
                </div>","null","","","","","","","","",""
"","","","","","html-button-response","20","804622","0.0-20.0","5EE51F753E744CCFB294047E79D3AE52","019cf535-b2ba-7139-b0aa-b3afe7d56719","019cf509-e3f1-72d9-bf6b-e2f1118fdaab","","574","
                <div class=""stimulus-container"">
                    <img src=""images/schematic_sequence/flight_scheme/flight_scheme_2.png"" class=""exp-image"">
                    <div class=""question-area"">
                        <p style=""font-size: 20px; font-weight: bold; margin: 0;"">Is there a person in this image?</p>
                    </div>
                </div>","1","main_experiment_trial","2","flight_scheme","schematic_sequence","","","","",""
"","","","","","html-keyboard-response","21","809629","0.0-21.0","5EE51F753E744CCFB294047E79D3AE52","019cf535-b2ba-7139-b0aa-b3afe7d56719","019cf509-e3f1-72d9-bf6b-e2f1118fdaab","","null","
                <div class=""stimulus-container"">
                    <img src=""images/schematic_sequence/flight_scheme/flight_scheme_3.png"" class=""exp-image"">
                    <div class=""question-area""></div> 
                </div>","null","","","","","","","","",""
"","","","","","html-button-response","22","810127","0.0-22.0","5EE51F753E744CCFB294047E79D3AE52","019cf535-b2ba-7139-b0aa-b3afe7d56719","019cf509-e3f1-72d9-bf6b-e2f1118fdaab","","495","
                <div class=""stimulus-container"">
                    <img src=""images/schematic_sequence/flight_scheme/flight_scheme_3.png"" class=""exp-image"">
                    <div class=""question-area"">
                        <p style=""font-size: 20px; font-weight: bold; margin: 0;"">Is there a person in this image?</p>
                    </div>
                </div>","0","main_experiment_trial","3","flight_scheme","schematic_sequence","","","","",""
"","","","","","html-keyboard-response","23","815134","0.0-23.0","5EE51F753E744CCFB294047E79D3AE52","019cf535-b2ba-7139-b0aa-b3afe7d56719","019cf509-e3f1-72d9-bf6b-e2f1118fdaab","","null","
                <div class=""stimulus-container"">
                    <img src=""images/schematic_sequence/flight_scheme/flight_scheme_4.png"" class=""exp-image"">
                    <div class=""question-area""></div> 
                </div>","null","","","","","","","","",""
"","","","","","html-button-response","24","815567","0.0-24.0","5EE51F753E744CCFB294047E79D3AE52","019cf535-b2ba-7139-b0aa-b3afe7d56719","019cf509-e3f1-72d9-bf6b-e2f1118fdaab","","433","
                <div class=""stimulus-container"">
                    <img src=""images/schematic_sequence/flight_scheme/flight_scheme_4.png"" class=""exp-image"">
                    <div class=""question-area"">
                        <p style=""font-size: 20px; font-weight: bold; margin: 0;"">Is there a person in this image?</p>
                    </div>
                </div>","0","main_experiment_trial","4","flight_scheme","schematic_sequence","","","","",""
"","","","","","html-keyboard-response","25","820573","0.0-25.0","5EE51F753E744CCFB294047E79D3AE52","019cf535-b2ba-7139-b0aa-b3afe7d56719","019cf509-e3f1-72d9-bf6b-e2f1118fdaab","","null","
                <div class=""stimulus-container"">
                    <img src=""images/schematic_sequence/flight_scheme/flight_scheme_5.png"" class=""exp-image"">
                    <div class=""question-area""></div> 
                </div>","null","","","","","","","","",""
"","","","","","html-button-response","26","821122","0.0-26.0","5EE51F753E744CCFB294047E79D3AE52","019cf535-b2ba-7139-b0aa-b3afe7d56719","019cf509-e3f1-72d9-bf6b-e2f1118fdaab","","548","
                <div class=""stimulus-container"">
                    <img src=""images/schematic_sequence/flight_scheme/flight_scheme_5.png"" class=""exp-image"">
                    <div class=""question-area"">
                        <p style=""font-size: 20px; font-weight: bold; margin: 0;"">Is there a person in this image?</p>
                    </div>
                </div>","0","main_experiment_trial","5","flight_scheme","schematic_sequence","","","","",""
"","","","","","html-keyboard-response","27","826150","0.0-27.0","5EE51F753E744CCFB294047E79D3AE52","019cf535-b2ba-7139-b0aa-b3afe7d56719","019cf509-e3f1-72d9-bf6b-e2f1118fdaab","","null","
                <div class=""stimulus-container"">
                    <img src=""images/schematic_sequence/flight_scheme/flight_scheme_6.png"" class=""exp-image"">
                    <div class=""question-area""></div> 
                </div>","null","","","","","","","","",""
"","","","","","html-button-response","28","826664","0.0-28.0","5EE51F753E744CCFB294047E79D3AE52","019cf535-b2ba-7139-b0aa-b3afe7d56719","019cf509-e3f1-72d9-bf6b-e2f1118fdaab","","512","
                <div class=""stimulus-container"">
                    <img src=""images/schematic_sequence/flight_scheme/flight_scheme_6.png"" class=""exp-image"">
                    <div class=""question-area"">
                        <p style=""font-size: 20px; font-weight: bold; margin: 0;"">Is there a person in this image?</p>
                    </div>
                </div>","1","main_experiment_trial","6","flight_scheme","schematic_sequence","","","","",""
"","","","","","html-keyboard-response","29","831676","0.0-29.0","5EE51F753E744CCFB294047E79D3AE52","019cf535-b2ba-7139-b0aa-b3afe7d56719","019cf509-e3f1-72d9-bf6b-e2f1118fdaab","","null","
                <div class=""stimulus-container"">
                    <img src=""images/schematic_sequence/flight_scheme/flight_scheme_7.png"" class=""exp-image"">
                    <div class=""question-area""></div> 
                </div>","null","","","","","","","","",""
"","","","","","html-button-response","30","832057","0.0-30.0","5EE51F753E744CCFB294047E79D3AE52","019cf535-b2ba-7139-b0aa-b3afe7d56719","019cf509-e3f1-72d9-bf6b-e2f1118fdaab","","380","
                <div class=""stimulus-container"">
                    <img src=""images/schematic_sequence/flight_scheme/flight_scheme_7.png"" class=""exp-image"">
                    <div class=""question-area"">
                        <p style=""font-size: 20px; font-weight: bold; margin: 0;"">Is there a person in this image?</p>
                    </div>
                </div>","0","main_experiment_trial","7","flight_scheme","schematic_sequence","","","","",""
"","","","","","html-keyboard-response","31","837059","0.0-31.0","5EE51F753E744CCFB294047E79D3AE52","019cf535-b2ba-7139-b0aa-b3afe7d56719","019cf509-e3f1-72d9-bf6b-e2f1118fdaab","","null","
                <div class=""stimulus-container"">
                    <img src=""images/schematic_sequence/flight_scheme/flight_scheme_8.png"" class=""exp-image"">
                    <div class=""question-area""></div> 
                </div>","null","","","","","","","","",""
"","","","","","html-button-response","32","837479","0.0-32.0","5EE51F753E744CCFB294047E79D3AE52","019cf535-b2ba-7139-b0aa-b3afe7d56719","019cf509-e3f1-72d9-bf6b-e2f1118fdaab","","419","
                <div class=""stimulus-container"">
                    <img src=""images/schematic_sequence/flight_scheme/flight_scheme_8.png"" class=""exp-image"">
                    <div class=""question-area"">
                        <p style=""font-size: 20px; font-weight: bold; margin: 0;"">Is there a person in this image?</p>
                    </div>
                </div>","1","main_experiment_trial","8","flight_scheme","schematic_sequence","","","","",""
"","","","","","html-keyboard-response","33","842484","0.0-33.0","5EE51F753E744CCFB294047E79D3AE52","019cf535-b2ba-7139-b0aa-b3afe7d56719","019cf509-e3f1-72d9-bf6b-e2f1118fdaab","","null","
                <div class=""stimulus-container"">
                    <img src=""images/schematic_sequence/flight_scheme/flight_scheme_9.png"" class=""exp-image"">
                    <div class=""question-area""></div> 
                </div>","null","","","","","","","","",""
"","","","","","html-button-response","34","843157","0.0-34.0","5EE51F753E744CCFB294047E79D3AE52","019cf535-b2ba-7139-b0aa-b3afe7d56719","019cf509-e3f1-72d9-bf6b-e2f1118fdaab","","671","
                <div class=""stimulus-container"">
                    <img src=""images/schematic_sequence/flight_scheme/flight_scheme_9.png"" class=""exp-image"">
                    <div class=""question-area"">
                        <p style=""font-size: 20px; font-weight: bold; margin: 0;"">Is there a person in this image?</p>
                    </div>
                </div>","0","main_experiment_trial","9","flight_scheme","schematic_sequence","","","","",""
"","","","","","html-keyboard-response","35","848403","0.0-35.0","5EE51F753E744CCFB294047E79D3AE52","019cf535-b2ba-7139-b0aa-b3afe7d56719","019cf509-e3f1-72d9-bf6b-e2f1118fdaab","","null","
                <div class=""stimulus-container"">
                    <img src=""images/schematic_sequence/flight_scheme/flight_scheme_ten.png"" class=""exp-image"">
                    <div class=""question-area""></div> 
                </div>","null","","","","","","","","",""
"","","","","","html-button-response","36","848938","0.0-36.0","5EE51F753E744CCFB294047E79D3AE52","019cf535-b2ba-7139-b0aa-b3afe7d56719","019cf509-e3f1-72d9-bf6b-e2f1118fdaab","","535","
                <div class=""stimulus-container"">
                    <img src=""images/schematic_sequence/flight_scheme/flight_scheme_ten.png"" class=""exp-image"">
                    <div class=""question-area"">
                        <p style=""font-size: 20px; font-weight: bold; margin: 0;"">Is there a person in this image?</p>
                    </div>
                </div>","0","main_experiment_trial","ten","flight_scheme","schematic_sequence","","","","",""
"","","","","","html-keyboard-response","37","849944","0.0-37.0","5EE51F753E744CCFB294047E79D3AE52","019cf535-b2ba-7139-b0aa-b3afe7d56719","019cf509-e3f1-72d9-bf6b-e2f1118fdaab","","null","<div style=""background-color: white; width: 100vw; height: 100vh;""></div>","null","","","","","","","","",""
"","","","","","html-keyboard-response","38","854959","0.0-38.0","5EE51F753E744CCFB294047E79D3AE52","019cf535-b2ba-7139-b0aa-b3afe7d56719","019cf509-e3f1-72d9-bf6b-e2f1118fdaab","","null","
                <div class=""stimulus-container"">
                    <img src=""images/causal_sequence/package_causal/package_causal_1.png"" class=""exp-image"">
                    <div class=""question-area""></div> 
                </div>","null","","","","","","","","",""
"","","","","","html-button-response","39","855675","0.0-39.0","5EE51F753E744CCFB294047E79D3AE52","019cf535-b2ba-7139-b0aa-b3afe7d56719","019cf509-e3f1-72d9-bf6b-e2f1118fdaab","","715","
                <div class=""stimulus-container"">
                    <img src=""images/causal_sequence/package_causal/package_causal_1.png"" class=""exp-image"">
                    <div class=""question-area"">
                        <p style=""font-size: 20px; font-weight: bold; margin: 0;"">Is there a person in this image?</p>
                    </div>
                </div>","0","main_experiment_trial","1","package_causal","causal_sequence","","","","",""
"","","","","","html-keyboard-response","40","860682","0.0-40.0","5EE51F753E744CCFB294047E79D3AE52","019cf535-b2ba-7139-b0aa-b3afe7d56719","019cf509-e3f1-72d9-bf6b-e2f1118fdaab","","null","
                <div class=""stimulus-container"">
                    <img src=""images/causal_sequence/package_causal/package_causal_2.png"" class=""exp-image"">
                    <div class=""question-area""></div> 
                </div>","null","","","","","","","","",""
"","","","","","html-button-response","41","861524","0.0-41.0","5EE51F753E744CCFB294047E79D3AE52","019cf535-b2ba-7139-b0aa-b3afe7d56719","019cf509-e3f1-72d9-bf6b-e2f1118fdaab","","843","
                <div class=""stimulus-container"">
                    <img src=""images/causal_sequence/package_causal/package_causal_2.png"" class=""exp-image"">
                    <div class=""question-area"">
                        <p style=""font-size: 20px; font-weight: bold; margin: 0;"">Is there a person in this image?</p>
                    </div>
                </div>","0","main_experiment_trial","2","package_causal","causal_sequence","","","","",""
"","","","","","html-keyboard-response","42","866530","0.0-42.0","5EE51F753E744CCFB294047E79D3AE52","019cf535-b2ba-7139-b0aa-b3afe7d56719","019cf509-e3f1-72d9-bf6b-e2f1118fdaab","","null","
                <div class=""stimulus-container"">
                    <img src=""images/causal_sequence/package_causal/package_causal_3.png"" class=""exp-image"">
                    <div class=""question-area""></div> 
                </div>","null","","","","","","","","",""
"","","","","","html-button-response","43","866933","0.0-43.0","5EE51F753E744CCFB294047E79D3AE52","019cf535-b2ba-7139-b0aa-b3afe7d56719","019cf509-e3f1-72d9-bf6b-e2f1118fdaab","","402","
                <div class=""stimulus-container"">
                    <img src=""images/causal_sequence/package_causal/package_causal_3.png"" class=""exp-image"">
                    <div class=""question-area"">
                        <p style=""font-size: 20px; font-weight: bold; margin: 0;"">Is there a person in this image?</p>
                    </div>
                </div>","0","main_experiment_trial","3","package_causal","causal_sequence","","","","",""
"","","","","","html-keyboard-response","44","872040","0.0-44.0","5EE51F753E744CCFB294047E79D3AE52","019cf535-b2ba-7139-b0aa-b3afe7d56719","019cf509-e3f1-72d9-bf6b-e2f1118fdaab","","null","
                <div class=""stimulus-container"">
                    <img src=""images/causal_sequence/package_causal/package_causal_4.png"" class=""exp-image"">
                    <div class=""question-area""></div> 
                </div>","null","","","","","","","","",""
"","","","","","html-button-response","45","872573","0.0-45.0","5EE51F753E744CCFB294047E79D3AE52","019cf535-b2ba-7139-b0aa-b3afe7d56719","019cf509-e3f1-72d9-bf6b-e2f1118fdaab","","530","
                <div class=""stimulus-container"">
                    <img src=""images/causal_sequence/package_causal/package_causal_4.png"" class=""exp-image"">
                    <div class=""question-area"">
                        <p style=""font-size: 20px; font-weight: bold; margin: 0;"">Is there a person in this image?</p>
                    </div>
                </div>","1","main_experiment_trial","4","package_causal","causal_sequence","","","","",""
"","","","","","html-keyboard-response","46","877580","0.0-46.0","5EE51F753E744CCFB294047E79D3AE52","019cf535-b2ba-7139-b0aa-b3afe7d56719","019cf509-e3f1-72d9-bf6b-e2f1118fdaab","","null","
                <div class=""stimulus-container"">
                    <img src=""images/causal_sequence/package_causal/package_causal_5.png"" class=""exp-image"">
                    <div class=""question-area""></div> 
                </div>","null","","","","","","","","",""
"","","","","","html-button-response","47","878091","0.0-47.0","5EE51F753E744CCFB294047E79D3AE52","019cf535-b2ba-7139-b0aa-b3afe7d56719","019cf509-e3f1-72d9-bf6b-e2f1118fdaab","","511","
                <div class=""stimulus-container"">
                    <img src=""images/causal_sequence/package_causal/package_causal_5.png"" class=""exp-image"">
                    <div class=""question-area"">
                        <p style=""font-size: 20px; font-weight: bold; margin: 0;"">Is there a person in this image?</p>
                    </div>
                </div>","0","main_experiment_trial","5","package_causal","causal_sequence","","","","",""
"","","","","","html-keyboard-response","48","883098","0.0-48.0","5EE51F753E744CCFB294047E79D3AE52","019cf535-b2ba-7139-b0aa-b3afe7d56719","019cf509-e3f1-72d9-bf6b-e2f1118fdaab","","null","
                <div class=""stimulus-container"">
                    <img src=""images/causal_sequence/package_causal/package_causal_6.png"" class=""exp-image"">
                    <div class=""question-area""></div> 
                </div>","null","","","","","","","","",""
"","","","","","html-button-response","49","883529","0.0-49.0","5EE51F753E744CCFB294047E79D3AE52","019cf535-b2ba-7139-b0aa-b3afe7d56719","019cf509-e3f1-72d9-bf6b-e2f1118fdaab","","431","
                <div class=""stimulus-container"">
                    <img src=""images/causal_sequence/package_causal/package_causal_6.png"" class=""exp-image"">
                    <div class=""question-area"">
                        <p style=""font-size: 20px; font-weight: bold; margin: 0;"">Is there a person in this image?</p>
                    </div>
                </div>","0","main_experiment_trial","6","package_causal","causal_sequence","","","","",""
"","","","","","html-keyboard-response","50","888535","0.0-50.0","5EE51F753E744CCFB294047E79D3AE52","019cf535-b2ba-7139-b0aa-b3afe7d56719","019cf509-e3f1-72d9-bf6b-e2f1118fdaab","","null","
                <div class=""stimulus-container"">
                    <img src=""images/causal_sequence/package_causal/package_causal_7.png"" class=""exp-image"">
                    <div class=""question-area""></div> 
                </div>","null","","","","","","","","",""
"","","","","","html-button-response","51","888982","0.0-51.0","5EE51F753E744CCFB294047E79D3AE52","019cf535-b2ba-7139-b0aa-b3afe7d56719","019cf509-e3f1-72d9-bf6b-e2f1118fdaab","","446","
                <div class=""stimulus-container"">
                    <img src=""images/causal_sequence/package_causal/package_causal_7.png"" class=""exp-image"">
                    <div class=""question-area"">
                        <p style=""font-size: 20px; font-weight: bold; margin: 0;"">Is there a person in this image?</p>
                    </div>
                </div>","0","main_experiment_trial","7","package_causal","causal_sequence","","","","",""
"","","","","","html-keyboard-response","52","894009","0.0-52.0","5EE51F753E744CCFB294047E79D3AE52","019cf535-b2ba-7139-b0aa-b3afe7d56719","019cf509-e3f1-72d9-bf6b-e2f1118fdaab","","null","
                <div class=""stimulus-container"">
                    <img src=""images/causal_sequence/package_causal/package_causal_8.png"" class=""exp-image"">
                    <div class=""question-area""></div> 
                </div>","null","","","","","","","","",""
"","","","","","html-button-response","53","894509","0.0-53.0","5EE51F753E744CCFB294047E79D3AE52","019cf535-b2ba-7139-b0aa-b3afe7d56719","019cf509-e3f1-72d9-bf6b-e2f1118fdaab","","499","
                <div class=""stimulus-container"">
                    <img src=""images/causal_sequence/package_causal/package_causal_8.png"" class=""exp-image"">
                    <div class=""question-area"">
                        <p style=""font-size: 20px; font-weight: bold; margin: 0;"">Is there a person in this image?</p>
                    </div>
                </div>","0","main_experiment_trial","8","package_causal","causal_sequence","","","","",""
"","","","","","html-keyboard-response","54","899527","0.0-54.0","5EE51F753E744CCFB294047E79D3AE52","019cf535-b2ba-7139-b0aa-b3afe7d56719","019cf509-e3f1-72d9-bf6b-e2f1118fdaab","","null","
                <div class=""stimulus-container"">
                    <img src=""images/causal_sequence/package_causal/package_causal_9.png"" class=""exp-image"">
                    <div class=""question-area""></div> 
                </div>","null","","","","","","","","",""
"","","","","","html-button-response","55","900051","0.0-55.0","5EE51F753E744CCFB294047E79D3AE52","019cf535-b2ba-7139-b0aa-b3afe7d56719","019cf509-e3f1-72d9-bf6b-e2f1118fdaab","","522","
                <div class=""stimulus-container"">
                    <img src=""images/causal_sequence/package_causal/package_causal_9.png"" class=""exp-image"">
                    <div class=""question-area"">
                        <p style=""font-size: 20px; font-weight: bold; margin: 0;"">Is there a person in this image?</p>
                    </div>
                </div>","0","main_experiment_trial","9","package_causal","causal_sequence","","","","",""
"","","","","","html-keyboard-response","56","905536","0.0-56.0","5EE51F753E744CCFB294047E79D3AE52","019cf535-b2ba-7139-b0aa-b3afe7d56719","019cf509-e3f1-72d9-bf6b-e2f1118fdaab","","null","
                <div class=""stimulus-container"">
                    <img src=""images/causal_sequence/package_causal/package_causal_ten.png"" class=""exp-image"">
                    <div class=""question-area""></div> 
                </div>","null","","","","","","","","",""
"","","","","","html-button-response","57","907260","0.0-57.0","5EE51F753E744CCFB294047E79D3AE52","019cf535-b2ba-7139-b0aa-b3afe7d56719","019cf509-e3f1-72d9-bf6b-e2f1118fdaab","","1723","
                <div class=""stimulus-container"">
                    <img src=""images/causal_sequence/package_causal/package_causal_ten.png"" class=""exp-image"">
                    <div class=""question-area"">
                        <p style=""font-size: 20px; font-weight: bold; margin: 0;"">Is there a person in this image?</p>
                    </div>
                </div>","0","main_experiment_trial","ten","package_causal","causal_sequence","","","","",""
"","","","","","html-keyboard-response","58","908266","0.0-58.0","5EE51F753E744CCFB294047E79D3AE52","019cf535-b2ba-7139-b0aa-b3afe7d56719","019cf509-e3f1-72d9-bf6b-e2f1118fdaab","","null","<div style=""background-color: white; width: 100vw; height: 100vh;""></div>","null","","","","","","","","",""
"","","","","","html-keyboard-response","59","913476","0.0-59.0","5EE51F753E744CCFB294047E79D3AE52","019cf535-b2ba-7139-b0aa-b3afe7d56719","019cf509-e3f1-72d9-bf6b-e2f1118fdaab","","null","
                <div class=""stimulus-container"">
                    <img src=""images/causal_sequence/museum_causal/museum_causal_1.png"" class=""exp-image"">
                    <div class=""question-area""></div> 
                </div>","null","","","","","","","","",""
"","","","","","html-button-response","60","914054","0.0-60.0","5EE51F753E744CCFB294047E79D3AE52","019cf535-b2ba-7139-b0aa-b3afe7d56719","019cf509-e3f1-72d9-bf6b-e2f1118fdaab","","578","
                <div class=""stimulus-container"">
                    <img src=""images/causal_sequence/museum_causal/museum_causal_1.png"" class=""exp-image"">
                    <div class=""question-area"">
                        <p style=""font-size: 20px; font-weight: bold; margin: 0;"">Is there a person in this image?</p>
                    </div>
                </div>","0","main_experiment_trial","1","museum_causal","causal_sequence","","","","",""
"","","","","","html-keyboard-response","61","919081","0.0-61.0","5EE51F753E744CCFB294047E79D3AE52","019cf535-b2ba-7139-b0aa-b3afe7d56719","019cf509-e3f1-72d9-bf6b-e2f1118fdaab","","null","
                <div class=""stimulus-container"">
                    <img src=""images/causal_sequence/museum_causal/museum_causal_2.png"" class=""exp-image"">
                    <div class=""question-area""></div> 
                </div>","null","","","","","","","","",""
"","","","","","html-button-response","62","919446","0.0-62.0","5EE51F753E744CCFB294047E79D3AE52","019cf535-b2ba-7139-b0aa-b3afe7d56719","019cf509-e3f1-72d9-bf6b-e2f1118fdaab","","365","
                <div class=""stimulus-container"">
                    <img src=""images/causal_sequence/museum_causal/museum_causal_2.png"" class=""exp-image"">
                    <div class=""question-area"">
                        <p style=""font-size: 20px; font-weight: bold; margin: 0;"">Is there a person in this image?</p>
                    </div>
                </div>","0","main_experiment_trial","2","museum_causal","causal_sequence","","","","",""
"","","","","","html-keyboard-response","63","924453","0.0-63.0","5EE51F753E744CCFB294047E79D3AE52","019cf535-b2ba-7139-b0aa-b3afe7d56719","019cf509-e3f1-72d9-bf6b-e2f1118fdaab","","null","
                <div class=""stimulus-container"">
                    <img src=""images/causal_sequence/museum_causal/museum_causal_3.png"" class=""exp-image"">
                    <div class=""question-area""></div> 
                </div>","null","","","","","","","","",""
"","","","","","html-button-response","64","924846","0.0-64.0","5EE51F753E744CCFB294047E79D3AE52","019cf535-b2ba-7139-b0aa-b3afe7d56719","019cf509-e3f1-72d9-bf6b-e2f1118fdaab","","393","
                <div class=""stimulus-container"">
                    <img src=""images/causal_sequence/museum_causal/museum_causal_3.png"" class=""exp-image"">
                    <div class=""question-area"">
                        <p style=""font-size: 20px; font-weight: bold; margin: 0;"">Is there a person in this image?</p>
                    </div>
                </div>","0","main_experiment_trial","3","museum_causal","causal_sequence","","","","",""
"","","","","","html-keyboard-response","65","929849","0.0-65.0","5EE51F753E744CCFB294047E79D3AE52","019cf535-b2ba-7139-b0aa-b3afe7d56719","019cf509-e3f1-72d9-bf6b-e2f1118fdaab","","null","
                <div class=""stimulus-container"">
                    <img src=""images/causal_sequence/museum_causal/museum_causal_4.png"" class=""exp-image"">
                    <div class=""question-area""></div> 
                </div>","null","","","","","","","","",""
"","","","","","html-button-response","66","930292","0.0-66.0","5EE51F753E744CCFB294047E79D3AE52","019cf535-b2ba-7139-b0aa-b3afe7d56719","019cf509-e3f1-72d9-bf6b-e2f1118fdaab","","442","
                <div class=""stimulus-container"">
                    <img src=""images/causal_sequence/museum_causal/museum_causal_4.png"" class=""exp-image"">
                    <div class=""question-area"">
                        <p style=""font-size: 20px; font-weight: bold; margin: 0;"">Is there a person in this image?</p>
                    </div>
                </div>","1","main_experiment_trial","4","museum_causal","causal_sequence","","","","",""
"","","","","","html-keyboard-response","67","935297","0.0-67.0","5EE51F753E744CCFB294047E79D3AE52","019cf535-b2ba-7139-b0aa-b3afe7d56719","019cf509-e3f1-72d9-bf6b-e2f1118fdaab","","null","
                <div class=""stimulus-container"">
                    <img src=""images/causal_sequence/museum_causal/museum_causal_5.png"" class=""exp-image"">
                    <div class=""question-area""></div> 
                </div>","null","","","","","","","","",""
"","","","","","html-button-response","68","935798","0.0-68.0","5EE51F753E744CCFB294047E79D3AE52","019cf535-b2ba-7139-b0aa-b3afe7d56719","019cf509-e3f1-72d9-bf6b-e2f1118fdaab","","500","
                <div class=""stimulus-container"">
                    <img src=""images/causal_sequence/museum_causal/museum_causal_5.png"" class=""exp-image"">
                    <div class=""question-area"">
                        <p style=""font-size: 20px; font-weight: bold; margin: 0;"">Is there a person in this image?</p>
                    </div>
                </div>","0","main_experiment_trial","5","museum_causal","causal_sequence","","","","",""
"","","","","","html-keyboard-response","69","940805","0.0-69.0","5EE51F753E744CCFB294047E79D3AE52","019cf535-b2ba-7139-b0aa-b3afe7d56719","019cf509-e3f1-72d9-bf6b-e2f1118fdaab","","null","
                <div class=""stimulus-container"">
                    <img src=""images/causal_sequence/museum_causal/museum_causal_6.png"" class=""exp-image"">
                    <div class=""question-area""></div> 
                </div>","null","","","","","","","","",""
"","","","","","html-button-response","70","941198","0.0-70.0","5EE51F753E744CCFB294047E79D3AE52","019cf535-b2ba-7139-b0aa-b3afe7d56719","019cf509-e3f1-72d9-bf6b-e2f1118fdaab","","391","
                <div class=""stimulus-container"">
                    <img src=""images/causal_sequence/museum_causal/museum_causal_6.png"" class=""exp-image"">
                    <div class=""question-area"">
                        <p style=""font-size: 20px; font-weight: bold; margin: 0;"">Is there a person in this image?</p>
                    </div>
                </div>","0","main_experiment_trial","6","museum_causal","causal_sequence","","","","",""
"","","","","","html-keyboard-response","71","946322","0.0-71.0","5EE51F753E744CCFB294047E79D3AE52","019cf535-b2ba-7139-b0aa-b3afe7d56719","019cf509-e3f1-72d9-bf6b-e2f1118fdaab","","null","
                <div class=""stimulus-container"">
                    <img src=""images/causal_sequence/museum_causal/museum_causal_7.png"" class=""exp-image"">
                    <div class=""question-area""></div> 
                </div>","null","","","","","","","","",""
"","","","","","html-button-response","72","946854","0.0-72.0","5EE51F753E744CCFB294047E79D3AE52","019cf535-b2ba-7139-b0aa-b3afe7d56719","019cf509-e3f1-72d9-bf6b-e2f1118fdaab","","531","
                <div class=""stimulus-container"">
                    <img src=""images/causal_sequence/museum_causal/museum_causal_7.png"" class=""exp-image"">
                    <div class=""question-area"">
                        <p style=""font-size: 20px; font-weight: bold; margin: 0;"">Is there a person in this image?</p>
                    </div>
                </div>","1","main_experiment_trial","7","museum_causal","causal_sequence","","","","",""
"","","","","","html-keyboard-response","73","951917","0.0-73.0","5EE51F753E744CCFB294047E79D3AE52","019cf535-b2ba-7139-b0aa-b3afe7d56719","019cf509-e3f1-72d9-bf6b-e2f1118fdaab","","null","
                <div class=""stimulus-container"">
                    <img src=""images/causal_sequence/museum_causal/museum_causal_8.png"" class=""exp-image"">
                    <div class=""question-area""></div> 
                </div>","null","","","","","","","","",""
"","","","","","html-button-response","74","952596","0.0-74.0","5EE51F753E744CCFB294047E79D3AE52","019cf535-b2ba-7139-b0aa-b3afe7d56719","019cf509-e3f1-72d9-bf6b-e2f1118fdaab","","677","
                <div class=""stimulus-container"">
                    <img src=""images/causal_sequence/museum_causal/museum_causal_8.png"" class=""exp-image"">
                    <div class=""question-area"">
                        <p style=""font-size: 20px; font-weight: bold; margin: 0;"">Is there a person in this image?</p>
                    </div>
                </div>","0","main_experiment_trial","8","museum_causal","causal_sequence","","","","",""
"","","","","","html-keyboard-response","75","957601","0.0-75.0","5EE51F753E744CCFB294047E79D3AE52","019cf535-b2ba-7139-b0aa-b3afe7d56719","019cf509-e3f1-72d9-bf6b-e2f1118fdaab","","null","
                <div class=""stimulus-container"">
                    <img src=""images/causal_sequence/museum_causal/museum_causal_9.png"" class=""exp-image"">
                    <div class=""question-area""></div> 
                </div>","null","","","","","","","","",""
"","","","","","html-button-response","76","958028","0.0-76.0","5EE51F753E744CCFB294047E79D3AE52","019cf535-b2ba-7139-b0aa-b3afe7d56719","019cf509-e3f1-72d9-bf6b-e2f1118fdaab","","425","
                <div class=""stimulus-container"">
                    <img src=""images/causal_sequence/museum_causal/museum_causal_9.png"" class=""exp-image"">
                    <div class=""question-area"">
                        <p style=""font-size: 20px; font-weight: bold; margin: 0;"">Is there a person in this image?</p>
                    </div>
                </div>","1","main_experiment_trial","9","museum_causal","causal_sequence","","","","",""
"","","","","","html-keyboard-response","77","963242","0.0-77.0","5EE51F753E744CCFB294047E79D3AE52","019cf535-b2ba-7139-b0aa-b3afe7d56719","019cf509-e3f1-72d9-bf6b-e2f1118fdaab","","null","
                <div class=""stimulus-container"">
                    <img src=""images/causal_sequence/museum_causal/museum_causal_ten.png"" class=""exp-image"">
                    <div class=""question-area""></div> 
                </div>","null","","","","","","","","",""
"","","","","","html-button-response","78","963631","0.0-78.0","5EE51F753E744CCFB294047E79D3AE52","019cf535-b2ba-7139-b0aa-b3afe7d56719","019cf509-e3f1-72d9-bf6b-e2f1118fdaab","","388","
                <div class=""stimulus-container"">
                    <img src=""images/causal_sequence/museum_causal/museum_causal_ten.png"" class=""exp-image"">
                    <div class=""question-area"">
                        <p style=""font-size: 20px; font-weight: bold; margin: 0;"">Is there a person in this image?</p>
                    </div>
                </div>","0","main_experiment_trial","ten","museum_causal","causal_sequence","","","","",""
"","","","","","html-keyboard-response","79","964637","0.0-79.0","5EE51F753E744CCFB294047E79D3AE52","019cf535-b2ba-7139-b0aa-b3afe7d56719","019cf509-e3f1-72d9-bf6b-e2f1118fdaab","","null","<div style=""background-color: white; width: 100vw; height: 100vh;""></div>","null","","","","","","","","",""
"","","","","","html-keyboard-response","80","969798","0.0-80.0","5EE51F753E744CCFB294047E79D3AE52","019cf535-b2ba-7139-b0aa-b3afe7d56719","019cf509-e3f1-72d9-bf6b-e2f1118fdaab","","null","
                <div class=""stimulus-container"">
                    <img src=""images/causal_sequence/saving_a_cat_causal/saving_a_cat_causal_1.png"" class=""exp-image"">
                    <div class=""question-area""></div> 
                </div>","null","","","","","","","","",""
"","","","","","html-button-response","81","970386","0.0-81.0","5EE51F753E744CCFB294047E79D3AE52","019cf535-b2ba-7139-b0aa-b3afe7d56719","019cf509-e3f1-72d9-bf6b-e2f1118fdaab","","587","
                <div class=""stimulus-container"">
                    <img src=""images/causal_sequence/saving_a_cat_causal/saving_a_cat_causal_1.png"" class=""exp-image"">
                    <div class=""question-area"">
                        <p style=""font-size: 20px; font-weight: bold; margin: 0;"">Is there a person in this image?</p>
                    </div>
                </div>","0","main_experiment_trial","1","saving_a_cat_causal","causal_sequence","","","","",""
"","","","","","html-keyboard-response","82","975391","0.0-82.0","5EE51F753E744CCFB294047E79D3AE52","019cf535-b2ba-7139-b0aa-b3afe7d56719","019cf509-e3f1-72d9-bf6b-e2f1118fdaab","","null","
                <div class=""stimulus-container"">
                    <img src=""images/causal_sequence/saving_a_cat_causal/saving_a_cat_causal_2.png"" class=""exp-image"">
                    <div class=""question-area""></div> 
                </div>","null","","","","","","","","",""
"","","","","","html-button-response","83","975854","0.0-83.0","5EE51F753E744CCFB294047E79D3AE52","019cf535-b2ba-7139-b0aa-b3afe7d56719","019cf509-e3f1-72d9-bf6b-e2f1118fdaab","","462","
                <div class=""stimulus-container"">
                    <img src=""images/causal_sequence/saving_a_cat_causal/saving_a_cat_causal_2.png"" class=""exp-image"">
                    <div class=""question-area"">
                        <p style=""font-size: 20px; font-weight: bold; margin: 0;"">Is there a person in this image?</p>
                    </div>
                </div>","1","main_experiment_trial","2","saving_a_cat_causal","causal_sequence","","","","",""
"","","","","","html-keyboard-response","84","980860","0.0-84.0","5EE51F753E744CCFB294047E79D3AE52","019cf535-b2ba-7139-b0aa-b3afe7d56719","019cf509-e3f1-72d9-bf6b-e2f1118fdaab","","null","
                <div class=""stimulus-container"">
                    <img src=""images/causal_sequence/saving_a_cat_causal/saving_a_cat_causal_3.png"" class=""exp-image"">
                    <div class=""question-area""></div> 
                </div>","null","","","","","","","","",""
"","","","","","html-button-response","85","981353","0.0-85.0","5EE51F753E744CCFB294047E79D3AE52","019cf535-b2ba-7139-b0aa-b3afe7d56719","019cf509-e3f1-72d9-bf6b-e2f1118fdaab","","492","
                <div class=""stimulus-container"">
                    <img src=""images/causal_sequence/saving_a_cat_causal/saving_a_cat_causal_3.png"" class=""exp-image"">
                    <div class=""question-area"">
                        <p style=""font-size: 20px; font-weight: bold; margin: 0;"">Is there a person in this image?</p>
                    </div>
                </div>","1","main_experiment_trial","3","saving_a_cat_causal","causal_sequence","","","","",""
"","","","","","html-keyboard-response","86","986355","0.0-86.0","5EE51F753E744CCFB294047E79D3AE52","019cf535-b2ba-7139-b0aa-b3afe7d56719","019cf509-e3f1-72d9-bf6b-e2f1118fdaab","","null","
                <div class=""stimulus-container"">
                    <img src=""images/causal_sequence/saving_a_cat_causal/saving_a_cat_causal_4.png"" class=""exp-image"">
                    <div class=""question-area""></div> 
                </div>","null","","","","","","","","",""
"","","","","","html-button-response","87","986762","0.0-87.0","5EE51F753E744CCFB294047E79D3AE52","019cf535-b2ba-7139-b0aa-b3afe7d56719","019cf509-e3f1-72d9-bf6b-e2f1118fdaab","","406","
                <div class=""stimulus-container"">
                    <img src=""images/causal_sequence/saving_a_cat_causal/saving_a_cat_causal_4.png"" class=""exp-image"">
                    <div class=""question-area"">
                        <p style=""font-size: 20px; font-weight: bold; margin: 0;"">Is there a person in this image?</p>
                    </div>
                </div>","0","main_experiment_trial","4","saving_a_cat_causal","causal_sequence","","","","",""
"","","","","","html-keyboard-response","88","991768","0.0-88.0","5EE51F753E744CCFB294047E79D3AE52","019cf535-b2ba-7139-b0aa-b3afe7d56719","019cf509-e3f1-72d9-bf6b-e2f1118fdaab","","null","
                <div class=""stimulus-container"">
                    <img src=""images/causal_sequence/saving_a_cat_causal/saving_a_cat_causal_5.png"" class=""exp-image"">
                    <div class=""question-area""></div> 
                </div>","null","","","","","","","","",""
"","","","","","html-button-response","89","992160","0.0-89.0","5EE51F753E744CCFB294047E79D3AE52","019cf535-b2ba-7139-b0aa-b3afe7d56719","019cf509-e3f1-72d9-bf6b-e2f1118fdaab","","390","
                <div class=""stimulus-container"">
                    <img src=""images/causal_sequence/saving_a_cat_causal/saving_a_cat_causal_5.png"" class=""exp-image"">
                    <div class=""question-area"">
                        <p style=""font-size: 20px; font-weight: bold; margin: 0;"">Is there a person in this image?</p>
                    </div>
                </div>","0","main_experiment_trial","5","saving_a_cat_causal","causal_sequence","","","","",""
"","","","","","html-keyboard-response","90","997163","0.0-90.0","5EE51F753E744CCFB294047E79D3AE52","019cf535-b2ba-7139-b0aa-b3afe7d56719","019cf509-e3f1-72d9-bf6b-e2f1118fdaab","","null","
                <div class=""stimulus-container"">
                    <img src=""images/causal_sequence/saving_a_cat_causal/saving_a_cat_causal_6.png"" class=""exp-image"">
                    <div class=""question-area""></div> 
                </div>","null","","","","","","","","",""
"","","","","","html-button-response","91","997745","0.0-91.0","5EE51F753E744CCFB294047E79D3AE52","019cf535-b2ba-7139-b0aa-b3afe7d56719","019cf509-e3f1-72d9-bf6b-e2f1118fdaab","","581","
                <div class=""stimulus-container"">
                    <img src=""images/causal_sequence/saving_a_cat_causal/saving_a_cat_causal_6.png"" class=""exp-image"">
                    <div class=""question-area"">
                        <p style=""font-size: 20px; font-weight: bold; margin: 0;"">Is there a person in this image?</p>
                    </div>
                </div>","0","main_experiment_trial","6","saving_a_cat_causal","causal_sequence","","","","",""
"","","","","","html-keyboard-response","92","1002752","0.0-92.0","5EE51F753E744CCFB294047E79D3AE52","019cf535-b2ba-7139-b0aa-b3afe7d56719","019cf509-e3f1-72d9-bf6b-e2f1118fdaab","","null","
                <div class=""stimulus-container"">
                    <img src=""images/causal_sequence/saving_a_cat_causal/saving_a_cat_causal_7.png"" class=""exp-image"">
                    <div class=""question-area""></div> 
                </div>","null","","","","","","","","",""
"","","","","","html-button-response","93","1003153","0.0-93.0","5EE51F753E744CCFB294047E79D3AE52","019cf535-b2ba-7139-b0aa-b3afe7d56719","019cf509-e3f1-72d9-bf6b-e2f1118fdaab","","399","
                <div class=""stimulus-container"">
                    <img src=""images/causal_sequence/saving_a_cat_causal/saving_a_cat_causal_7.png"" class=""exp-image"">
                    <div class=""question-area"">
                        <p style=""font-size: 20px; font-weight: bold; margin: 0;"">Is there a person in this image?</p>
                    </div>
                </div>","0","main_experiment_trial","7","saving_a_cat_causal","causal_sequence","","","","",""
"","","","","","html-keyboard-response","94","1008155","0.0-94.0","5EE51F753E744CCFB294047E79D3AE52","019cf535-b2ba-7139-b0aa-b3afe7d56719","019cf509-e3f1-72d9-bf6b-e2f1118fdaab","","null","
                <div class=""stimulus-container"">
                    <img src=""images/causal_sequence/saving_a_cat_causal/saving_a_cat_causal_8.png"" class=""exp-image"">
                    <div class=""question-area""></div> 
                </div>","null","","","","","","","","",""
"","","","","","html-button-response","95","1008570","0.0-95.0","5EE51F753E744CCFB294047E79D3AE52","019cf535-b2ba-7139-b0aa-b3afe7d56719","019cf509-e3f1-72d9-bf6b-e2f1118fdaab","","414","
                <div class=""stimulus-container"">
                    <img src=""images/causal_sequence/saving_a_cat_causal/saving_a_cat_causal_8.png"" class=""exp-image"">
                    <div class=""question-area"">
                        <p style=""font-size: 20px; font-weight: bold; margin: 0;"">Is there a person in this image?</p>
                    </div>
                </div>","0","main_experiment_trial","8","saving_a_cat_causal","causal_sequence","","","","",""
"","","","","","html-keyboard-response","96","1013588","0.0-96.0","5EE51F753E744CCFB294047E79D3AE52","019cf535-b2ba-7139-b0aa-b3afe7d56719","019cf509-e3f1-72d9-bf6b-e2f1118fdaab","","null","
                <div class=""stimulus-container"">
                    <img src=""images/causal_sequence/saving_a_cat_causal/saving_a_cat_causal_9.png"" class=""exp-image"">
                    <div class=""question-area""></div> 
                </div>","null","","","","","","","","",""
"","","","","","html-button-response","97","1014014","0.0-97.0","5EE51F753E744CCFB294047E79D3AE52","019cf535-b2ba-7139-b0aa-b3afe7d56719","019cf509-e3f1-72d9-bf6b-e2f1118fdaab","","425","
                <div class=""stimulus-container"">
                    <img src=""images/causal_sequence/saving_a_cat_causal/saving_a_cat_causal_9.png"" class=""exp-image"">
                    <div class=""question-area"">
                        <p style=""font-size: 20px; font-weight: bold; margin: 0;"">Is there a person in this image?</p>
                    </div>
                </div>","0","main_experiment_trial","9","saving_a_cat_causal","causal_sequence","","","","",""
"","","","","","html-keyboard-response","98","1019020","0.0-98.0","5EE51F753E744CCFB294047E79D3AE52","019cf535-b2ba-7139-b0aa-b3afe7d56719","019cf509-e3f1-72d9-bf6b-e2f1118fdaab","","null","
                <div class=""stimulus-container"">
                    <img src=""images/causal_sequence/saving_a_cat_causal/saving_a_cat_causal_ten.png"" class=""exp-image"">
                    <div class=""question-area""></div> 
                </div>","null","","","","","","","","",""
"","","","","","html-button-response","99","1019556","0.0-99.0","5EE51F753E744CCFB294047E79D3AE52","019cf535-b2ba-7139-b0aa-b3afe7d56719","019cf509-e3f1-72d9-bf6b-e2f1118fdaab","","536","
                <div class=""stimulus-container"">
                    <img src=""images/causal_sequence/saving_a_cat_causal/saving_a_cat_causal_ten.png"" class=""exp-image"">
                    <div class=""question-area"">
                        <p style=""font-size: 20px; font-weight: bold; margin: 0;"">Is there a person in this image?</p>
                    </div>
                </div>","0","main_experiment_trial","ten","saving_a_cat_causal","causal_sequence","","","","",""
"","","","","","html-keyboard-response","100","1020561","0.0-100.0","5EE51F753E744CCFB294047E79D3AE52","019cf535-b2ba-7139-b0aa-b3afe7d56719","019cf509-e3f1-72d9-bf6b-e2f1118fdaab","","null","<div style=""background-color: white; width: 100vw; height: 100vh;""></div>","null","","","","","","","","",""
"","","","","","html-keyboard-response","101","1025567","0.0-101.0","5EE51F753E744CCFB294047E79D3AE52","019cf535-b2ba-7139-b0aa-b3afe7d56719","019cf509-e3f1-72d9-bf6b-e2f1118fdaab","","null","
                <div class=""stimulus-container"">
                    <img src=""images/schematic_sequence/restaurant_scheme/restaurant_scheme_1.png"" class=""exp-image"">
                    <div class=""question-area""></div> 
                </div>","null","","","","","","","","",""
"","","","","","html-button-response","102","1025978","0.0-102.0","5EE51F753E744CCFB294047E79D3AE52","019cf535-b2ba-7139-b0aa-b3afe7d56719","019cf509-e3f1-72d9-bf6b-e2f1118fdaab","","409","
                <div class=""stimulus-container"">
                    <img src=""images/schematic_sequence/restaurant_scheme/restaurant_scheme_1.png"" class=""exp-image"">
                    <div class=""question-area"">
                        <p style=""font-size: 20px; font-weight: bold; margin: 0;"">Is there a person in this image?</p>
                    </div>
                </div>","0","main_experiment_trial","1","restaurant_scheme","schematic_sequence","","","","",""
"","","","","","html-keyboard-response","103","1030984","0.0-103.0","5EE51F753E744CCFB294047E79D3AE52","019cf535-b2ba-7139-b0aa-b3afe7d56719","019cf509-e3f1-72d9-bf6b-e2f1118fdaab","","null","
                <div class=""stimulus-container"">
                    <img src=""images/schematic_sequence/restaurant_scheme/restaurant_scheme_2.png"" class=""exp-image"">
                    <div class=""question-area""></div> 
                </div>","null","","","","","","","","",""
"","","","","","html-button-response","104","1031370","0.0-104.0","5EE51F753E744CCFB294047E79D3AE52","019cf535-b2ba-7139-b0aa-b3afe7d56719","019cf509-e3f1-72d9-bf6b-e2f1118fdaab","","384","
                <div class=""stimulus-container"">
                    <img src=""images/schematic_sequence/restaurant_scheme/restaurant_scheme_2.png"" class=""exp-image"">
                    <div class=""question-area"">
                        <p style=""font-size: 20px; font-weight: bold; margin: 0;"">Is there a person in this image?</p>
                    </div>
                </div>","1","main_experiment_trial","2","restaurant_scheme","schematic_sequence","","","","",""
"","","","","","html-keyboard-response","105","1036376","0.0-105.0","5EE51F753E744CCFB294047E79D3AE52","019cf535-b2ba-7139-b0aa-b3afe7d56719","019cf509-e3f1-72d9-bf6b-e2f1118fdaab","","null","
                <div class=""stimulus-container"">
                    <img src=""images/schematic_sequence/restaurant_scheme/restaurant_scheme_3.png"" class=""exp-image"">
                    <div class=""question-area""></div> 
                </div>","null","","","","","","","","",""
"","","","","","html-button-response","106","1036795","0.0-106.0","5EE51F753E744CCFB294047E79D3AE52","019cf535-b2ba-7139-b0aa-b3afe7d56719","019cf509-e3f1-72d9-bf6b-e2f1118fdaab","","419","
                <div class=""stimulus-container"">
                    <img src=""images/schematic_sequence/restaurant_scheme/restaurant_scheme_3.png"" class=""exp-image"">
                    <div class=""question-area"">
                        <p style=""font-size: 20px; font-weight: bold; margin: 0;"">Is there a person in this image?</p>
                    </div>
                </div>","1","main_experiment_trial","3","restaurant_scheme","schematic_sequence","","","","",""
"","","","","","html-keyboard-response","107","1041800","0.0-107.0","5EE51F753E744CCFB294047E79D3AE52","019cf535-b2ba-7139-b0aa-b3afe7d56719","019cf509-e3f1-72d9-bf6b-e2f1118fdaab","","null","
                <div class=""stimulus-container"">
                    <img src=""images/schematic_sequence/restaurant_scheme/restaurant_scheme_4.png"" class=""exp-image"">
                    <div class=""question-area""></div> 
                </div>","null","","","","","","","","",""
"","","","","","html-button-response","108","1042439","0.0-108.0","5EE51F753E744CCFB294047E79D3AE52","019cf535-b2ba-7139-b0aa-b3afe7d56719","019cf509-e3f1-72d9-bf6b-e2f1118fdaab","","637","
                <div class=""stimulus-container"">
                    <img src=""images/schematic_sequence/restaurant_scheme/restaurant_scheme_4.png"" class=""exp-image"">
                    <div class=""question-area"">
                        <p style=""font-size: 20px; font-weight: bold; margin: 0;"">Is there a person in this image?</p>
                    </div>
                </div>","0","main_experiment_trial","4","restaurant_scheme","schematic_sequence","","","","",""
"","","","","","html-keyboard-response","109","1047445","0.0-109.0","5EE51F753E744CCFB294047E79D3AE52","019cf535-b2ba-7139-b0aa-b3afe7d56719","019cf509-e3f1-72d9-bf6b-e2f1118fdaab","","null","
                <div class=""stimulus-container"">
                    <img src=""images/schematic_sequence/restaurant_scheme/restaurant_scheme_5.png"" class=""exp-image"">
                    <div class=""question-area""></div> 
                </div>","null","","","","","","","","",""
"","","","","","html-button-response","110","1048132","0.0-110.0","5EE51F753E744CCFB294047E79D3AE52","019cf535-b2ba-7139-b0aa-b3afe7d56719","019cf509-e3f1-72d9-bf6b-e2f1118fdaab","","685","
                <div class=""stimulus-container"">
                    <img src=""images/schematic_sequence/restaurant_scheme/restaurant_scheme_5.png"" class=""exp-image"">
                    <div class=""question-area"">
                        <p style=""font-size: 20px; font-weight: bold; margin: 0;"">Is there a person in this image?</p>
                    </div>
                </div>","0","main_experiment_trial","5","restaurant_scheme","schematic_sequence","","","","",""
"","","","","","html-keyboard-response","111","1053138","0.0-111.0","5EE51F753E744CCFB294047E79D3AE52","019cf535-b2ba-7139-b0aa-b3afe7d56719","019cf509-e3f1-72d9-bf6b-e2f1118fdaab","","null","
                <div class=""stimulus-container"">
                    <img src=""images/schematic_sequence/restaurant_scheme/restaurant_scheme_6.png"" class=""exp-image"">
                    <div class=""question-area""></div> 
                </div>","null","","","","","","","","",""
"","","","","","html-button-response","112","1053577","0.0-112.0","5EE51F753E744CCFB294047E79D3AE52","019cf535-b2ba-7139-b0aa-b3afe7d56719","019cf509-e3f1-72d9-bf6b-e2f1118fdaab","","439","
                <div class=""stimulus-container"">
                    <img src=""images/schematic_sequence/restaurant_scheme/restaurant_scheme_6.png"" class=""exp-image"">
                    <div class=""question-area"">
                        <p style=""font-size: 20px; font-weight: bold; margin: 0;"">Is there a person in this image?</p>
                    </div>
                </div>","1","main_experiment_trial","6","restaurant_scheme","schematic_sequence","","","","",""
"","","","","","html-keyboard-response","113","1058703","0.0-113.0","5EE51F753E744CCFB294047E79D3AE52","019cf535-b2ba-7139-b0aa-b3afe7d56719","019cf509-e3f1-72d9-bf6b-e2f1118fdaab","","null","
                <div class=""stimulus-container"">
                    <img src=""images/schematic_sequence/restaurant_scheme/restaurant_scheme_7.png"" class=""exp-image"">
                    <div class=""question-area""></div> 
                </div>","null","","","","","","","","",""
"","","","","","html-button-response","114","1059172","0.0-114.0","5EE51F753E744CCFB294047E79D3AE52","019cf535-b2ba-7139-b0aa-b3afe7d56719","019cf509-e3f1-72d9-bf6b-e2f1118fdaab","","468","
                <div class=""stimulus-container"">
                    <img src=""images/schematic_sequence/restaurant_scheme/restaurant_scheme_7.png"" class=""exp-image"">
                    <div class=""question-area"">
                        <p style=""font-size: 20px; font-weight: bold; margin: 0;"">Is there a person in this image?</p>
                    </div>
                </div>","1","main_experiment_trial","7","restaurant_scheme","schematic_sequence","","","","",""
"","","","","","html-keyboard-response","115","1064174","0.0-115.0","5EE51F753E744CCFB294047E79D3AE52","019cf535-b2ba-7139-b0aa-b3afe7d56719","019cf509-e3f1-72d9-bf6b-e2f1118fdaab","","null","
                <div class=""stimulus-container"">
                    <img src=""images/schematic_sequence/restaurant_scheme/restaurant_scheme_8.png"" class=""exp-image"">
                    <div class=""question-area""></div> 
                </div>","null","","","","","","","","",""
"","","","","","html-button-response","116","1064933","0.0-116.0","5EE51F753E744CCFB294047E79D3AE52","019cf535-b2ba-7139-b0aa-b3afe7d56719","019cf509-e3f1-72d9-bf6b-e2f1118fdaab","","755","
                <div class=""stimulus-container"">
                    <img src=""images/schematic_sequence/restaurant_scheme/restaurant_scheme_8.png"" class=""exp-image"">
                    <div class=""question-area"">
                        <p style=""font-size: 20px; font-weight: bold; margin: 0;"">Is there a person in this image?</p>
                    </div>
                </div>","0","main_experiment_trial","8","restaurant_scheme","schematic_sequence","","","","",""
"","","","","","html-keyboard-response","117","1069985","0.0-117.0","5EE51F753E744CCFB294047E79D3AE52","019cf535-b2ba-7139-b0aa-b3afe7d56719","019cf509-e3f1-72d9-bf6b-e2f1118fdaab","","null","
                <div class=""stimulus-container"">
                    <img src=""images/schematic_sequence/restaurant_scheme/restaurant_scheme_9.png"" class=""exp-image"">
                    <div class=""question-area""></div> 
                </div>","null","","","","","","","","",""
"","","","","","html-button-response","118","1070692","0.0-118.0","5EE51F753E744CCFB294047E79D3AE52","019cf535-b2ba-7139-b0aa-b3afe7d56719","019cf509-e3f1-72d9-bf6b-e2f1118fdaab","","704","
                <div class=""stimulus-container"">
                    <img src=""images/schematic_sequence/restaurant_scheme/restaurant_scheme_9.png"" class=""exp-image"">
                    <div class=""question-area"">
                        <p style=""font-size: 20px; font-weight: bold; margin: 0;"">Is there a person in this image?</p>
                    </div>
                </div>","0","main_experiment_trial","9","restaurant_scheme","schematic_sequence","","","","",""
"","","","","","html-keyboard-response","119","1075729","0.0-119.0","5EE51F753E744CCFB294047E79D3AE52","019cf535-b2ba-7139-b0aa-b3afe7d56719","019cf509-e3f1-72d9-bf6b-e2f1118fdaab","","null","
                <div class=""stimulus-container"">
                    <img src=""images/schematic_sequence/restaurant_scheme/restaurant_scheme_ten.png"" class=""exp-image"">
                    <div class=""question-area""></div> 
                </div>","null","","","","","","","","",""
"","","","","","html-button-response","120","1076391","0.0-120.0","5EE51F753E744CCFB294047E79D3AE52","019cf535-b2ba-7139-b0aa-b3afe7d56719","019cf509-e3f1-72d9-bf6b-e2f1118fdaab","","660","
                <div class=""stimulus-container"">
                    <img src=""images/schematic_sequence/restaurant_scheme/restaurant_scheme_ten.png"" class=""exp-image"">
                    <div class=""question-area"">
                        <p style=""font-size: 20px; font-weight: bold; margin: 0;"">Is there a person in this image?</p>
                    </div>
                </div>","0","main_experiment_trial","ten","restaurant_scheme","schematic_sequence","","","","",""
"","","","","","html-keyboard-response","121","1077397","0.0-121.0","5EE51F753E744CCFB294047E79D3AE52","019cf535-b2ba-7139-b0aa-b3afe7d56719","019cf509-e3f1-72d9-bf6b-e2f1118fdaab","","null","<div style=""background-color: white; width: 100vw; height: 100vh;""></div>","null","","","","","","","","",""
"","","","","","html-keyboard-response","122","1082403","0.0-122.0","5EE51F753E744CCFB294047E79D3AE52","019cf535-b2ba-7139-b0aa-b3afe7d56719","019cf509-e3f1-72d9-bf6b-e2f1118fdaab","","null","
                <div class=""stimulus-container"">
                    <img src=""images/schematic_sequence/supermarket_scheme/supermarket_scheme_1.png"" class=""exp-image"">
                    <div class=""question-area""></div> 
                </div>","null","","","","","","","","",""
"","","","","","html-button-response","123","1083032","0.0-123.0","5EE51F753E744CCFB294047E79D3AE52","019cf535-b2ba-7139-b0aa-b3afe7d56719","019cf509-e3f1-72d9-bf6b-e2f1118fdaab","","629","
                <div class=""stimulus-container"">
                    <img src=""images/schematic_sequence/supermarket_scheme/supermarket_scheme_1.png"" class=""exp-image"">
                    <div class=""question-area"">
                        <p style=""font-size: 20px; font-weight: bold; margin: 0;"">Is there a person in this image?</p>
                    </div>
                </div>","1","main_experiment_trial","1","supermarket_scheme","schematic_sequence","","","","",""
"","","","","","html-keyboard-response","124","1088039","0.0-124.0","5EE51F753E744CCFB294047E79D3AE52","019cf535-b2ba-7139-b0aa-b3afe7d56719","019cf509-e3f1-72d9-bf6b-e2f1118fdaab","","null","
                <div class=""stimulus-container"">
                    <img src=""images/schematic_sequence/supermarket_scheme/supermarket_scheme_2.png"" class=""exp-image"">
                    <div class=""question-area""></div> 
                </div>","null","","","","","","","","",""
"","","","","","html-button-response","125","1088769","0.0-125.0","5EE51F753E744CCFB294047E79D3AE52","019cf535-b2ba-7139-b0aa-b3afe7d56719","019cf509-e3f1-72d9-bf6b-e2f1118fdaab","","730","
                <div class=""stimulus-container"">
                    <img src=""images/schematic_sequence/supermarket_scheme/supermarket_scheme_2.png"" class=""exp-image"">
                    <div class=""question-area"">
                        <p style=""font-size: 20px; font-weight: bold; margin: 0;"">Is there a person in this image?</p>
                    </div>
                </div>","1","main_experiment_trial","2","supermarket_scheme","schematic_sequence","","","","",""
"","","","","","html-keyboard-response","126","1093775","0.0-126.0","5EE51F753E744CCFB294047E79D3AE52","019cf535-b2ba-7139-b0aa-b3afe7d56719","019cf509-e3f1-72d9-bf6b-e2f1118fdaab","","null","
                <div class=""stimulus-container"">
                    <img src=""images/schematic_sequence/supermarket_scheme/supermarket_scheme_3.png"" class=""exp-image"">
                    <div class=""question-area""></div> 
                </div>","null","","","","","","","","",""
"","","","","","html-button-response","127","1094969","0.0-127.0","5EE51F753E744CCFB294047E79D3AE52","019cf535-b2ba-7139-b0aa-b3afe7d56719","019cf509-e3f1-72d9-bf6b-e2f1118fdaab","","1192","
                <div class=""stimulus-container"">
                    <img src=""images/schematic_sequence/supermarket_scheme/supermarket_scheme_3.png"" class=""exp-image"">
                    <div class=""question-area"">
                        <p style=""font-size: 20px; font-weight: bold; margin: 0;"">Is there a person in this image?</p>
                    </div>
                </div>","1","main_experiment_trial","3","supermarket_scheme","schematic_sequence","","","","",""
"","","","","","html-keyboard-response","128","1100299","0.0-128.0","5EE51F753E744CCFB294047E79D3AE52","019cf535-b2ba-7139-b0aa-b3afe7d56719","019cf509-e3f1-72d9-bf6b-e2f1118fdaab","","null","
                <div class=""stimulus-container"">
                    <img src=""images/schematic_sequence/supermarket_scheme/supermarket_scheme_4.png"" class=""exp-image"">
                    <div class=""question-area""></div> 
                </div>","null","","","","","","","","",""
"","","","","","html-button-response","129","1101112","0.0-129.0","5EE51F753E744CCFB294047E79D3AE52","019cf535-b2ba-7139-b0aa-b3afe7d56719","019cf509-e3f1-72d9-bf6b-e2f1118fdaab","","813","
                <div class=""stimulus-container"">
                    <img src=""images/schematic_sequence/supermarket_scheme/supermarket_scheme_4.png"" class=""exp-image"">
                    <div class=""question-area"">
                        <p style=""font-size: 20px; font-weight: bold; margin: 0;"">Is there a person in this image?</p>
                    </div>
                </div>","0","main_experiment_trial","4","supermarket_scheme","schematic_sequence","","","","",""
"","","","","","html-keyboard-response","130","1106118","0.0-130.0","5EE51F753E744CCFB294047E79D3AE52","019cf535-b2ba-7139-b0aa-b3afe7d56719","019cf509-e3f1-72d9-bf6b-e2f1118fdaab","","null","
                <div class=""stimulus-container"">
                    <img src=""images/schematic_sequence/supermarket_scheme/supermarket_scheme_5.png"" class=""exp-image"">
                    <div class=""question-area""></div> 
                </div>","null","","","","","","","","",""
"","","","","","html-button-response","131","1107136","0.0-131.0","5EE51F753E744CCFB294047E79D3AE52","019cf535-b2ba-7139-b0aa-b3afe7d56719","019cf509-e3f1-72d9-bf6b-e2f1118fdaab","","1016","
                <div class=""stimulus-container"">
                    <img src=""images/schematic_sequence/supermarket_scheme/supermarket_scheme_5.png"" class=""exp-image"">
                    <div class=""question-area"">
                        <p style=""font-size: 20px; font-weight: bold; margin: 0;"">Is there a person in this image?</p>
                    </div>
                </div>","1","main_experiment_trial","5","supermarket_scheme","schematic_sequence","","","","",""
"","","","","","html-keyboard-response","132","1112455","0.0-132.0","5EE51F753E744CCFB294047E79D3AE52","019cf535-b2ba-7139-b0aa-b3afe7d56719","019cf509-e3f1-72d9-bf6b-e2f1118fdaab","","null","
                <div class=""stimulus-container"">
                    <img src=""images/schematic_sequence/supermarket_scheme/supermarket_scheme_6.png"" class=""exp-image"">
                    <div class=""question-area""></div> 
                </div>","null","","","","","","","","",""
"","","","","","html-button-response","133","1113202","0.0-133.0","5EE51F753E744CCFB294047E79D3AE52","019cf535-b2ba-7139-b0aa-b3afe7d56719","019cf509-e3f1-72d9-bf6b-e2f1118fdaab","","746","
                <div class=""stimulus-container"">
                    <img src=""images/schematic_sequence/supermarket_scheme/supermarket_scheme_6.png"" class=""exp-image"">
                    <div class=""question-area"">
                        <p style=""font-size: 20px; font-weight: bold; margin: 0;"">Is there a person in this image?</p>
                    </div>
                </div>","0","main_experiment_trial","6","supermarket_scheme","schematic_sequence","","","","",""
"","","","","","html-keyboard-response","134","1118391","0.0-134.0","5EE51F753E744CCFB294047E79D3AE52","019cf535-b2ba-7139-b0aa-b3afe7d56719","019cf509-e3f1-72d9-bf6b-e2f1118fdaab","","null","
                <div class=""stimulus-container"">
                    <img src=""images/schematic_sequence/supermarket_scheme/supermarket_scheme_7.png"" class=""exp-image"">
                    <div class=""question-area""></div> 
                </div>","null","","","","","","","","",""
"","","","","","html-button-response","135","1118970","0.0-135.0","5EE51F753E744CCFB294047E79D3AE52","019cf535-b2ba-7139-b0aa-b3afe7d56719","019cf509-e3f1-72d9-bf6b-e2f1118fdaab","","578","
                <div class=""stimulus-container"">
                    <img src=""images/schematic_sequence/supermarket_scheme/supermarket_scheme_7.png"" class=""exp-image"">
                    <div class=""question-area"">
                        <p style=""font-size: 20px; font-weight: bold; margin: 0;"">Is there a person in this image?</p>
                    </div>
                </div>","0","main_experiment_trial","7","supermarket_scheme","schematic_sequence","","","","",""
"","","","","","html-keyboard-response","136","1123976","0.0-136.0","5EE51F753E744CCFB294047E79D3AE52","019cf535-b2ba-7139-b0aa-b3afe7d56719","019cf509-e3f1-72d9-bf6b-e2f1118fdaab","","null","
                <div class=""stimulus-container"">
                    <img src=""images/schematic_sequence/supermarket_scheme/supermarket_scheme_8.png"" class=""exp-image"">
                    <div class=""question-area""></div> 
                </div>","null","","","","","","","","",""
"","","","","","html-button-response","137","1124616","0.0-137.0","5EE51F753E744CCFB294047E79D3AE52","019cf535-b2ba-7139-b0aa-b3afe7d56719","019cf509-e3f1-72d9-bf6b-e2f1118fdaab","","640","
                <div class=""stimulus-container"">
                    <img src=""images/schematic_sequence/supermarket_scheme/supermarket_scheme_8.png"" class=""exp-image"">
                    <div class=""question-area"">
                        <p style=""font-size: 20px; font-weight: bold; margin: 0;"">Is there a person in this image?</p>
                    </div>
                </div>","0","main_experiment_trial","8","supermarket_scheme","schematic_sequence","","","","",""
"","","","","","html-keyboard-response","138","1129985","0.0-138.0","5EE51F753E744CCFB294047E79D3AE52","019cf535-b2ba-7139-b0aa-b3afe7d56719","019cf509-e3f1-72d9-bf6b-e2f1118fdaab","","null","
                <div class=""stimulus-container"">
                    <img src=""images/schematic_sequence/supermarket_scheme/supermarket_scheme_9.png"" class=""exp-image"">
                    <div class=""question-area""></div> 
                </div>","null","","","","","","","","",""
"","","","","","html-button-response","139","1130961","0.0-139.0","5EE51F753E744CCFB294047E79D3AE52","019cf535-b2ba-7139-b0aa-b3afe7d56719","019cf509-e3f1-72d9-bf6b-e2f1118fdaab","","973","
                <div class=""stimulus-container"">
                    <img src=""images/schematic_sequence/supermarket_scheme/supermarket_scheme_9.png"" class=""exp-image"">
                    <div class=""question-area"">
                        <p style=""font-size: 20px; font-weight: bold; margin: 0;"">Is there a person in this image?</p>
                    </div>
                </div>","0","main_experiment_trial","9","supermarket_scheme","schematic_sequence","","","","",""
"","","","","","html-keyboard-response","140","1135968","0.0-140.0","5EE51F753E744CCFB294047E79D3AE52","019cf535-b2ba-7139-b0aa-b3afe7d56719","019cf509-e3f1-72d9-bf6b-e2f1118fdaab","","null","
                <div class=""stimulus-container"">
                    <img src=""images/schematic_sequence/supermarket_scheme/supermarket_scheme_ten.png"" class=""exp-image"">
                    <div class=""question-area""></div> 
                </div>","null","","","","","","","","",""
"","","","","","html-button-response","141","1136602","0.0-141.0","5EE51F753E744CCFB294047E79D3AE52","019cf535-b2ba-7139-b0aa-b3afe7d56719","019cf509-e3f1-72d9-bf6b-e2f1118fdaab","","632","
                <div class=""stimulus-container"">
                    <img src=""images/schematic_sequence/supermarket_scheme/supermarket_scheme_ten.png"" class=""exp-image"">
                    <div class=""question-area"">
                        <p style=""font-size: 20px; font-weight: bold; margin: 0;"">Is there a person in this image?</p>
                    </div>
                </div>","1","main_experiment_trial","ten","supermarket_scheme","schematic_sequence","","","","",""
"","","","","","html-keyboard-response","142","1137604","0.0-142.0","5EE51F753E744CCFB294047E79D3AE52","019cf535-b2ba-7139-b0aa-b3afe7d56719","019cf509-e3f1-72d9-bf6b-e2f1118fdaab","","null","<div style=""background-color: white; width: 100vw; height: 100vh;""></div>","null","","","","","","","","",""
"","","","","","html-keyboard-response","143","1142727","0.0-143.0","5EE51F753E744CCFB294047E79D3AE52","019cf535-b2ba-7139-b0aa-b3afe7d56719","019cf509-e3f1-72d9-bf6b-e2f1118fdaab","","null","
                <div class=""stimulus-container"">
                    <img src=""images/causal_sequence/dog_causal/dog_causal_1.png"" class=""exp-image"">
                    <div class=""question-area""></div> 
                </div>","null","","","","","","","","",""
"","","","","","html-button-response","144","1143286","0.0-144.0","5EE51F753E744CCFB294047E79D3AE52","019cf535-b2ba-7139-b0aa-b3afe7d56719","019cf509-e3f1-72d9-bf6b-e2f1118fdaab","","558","
                <div class=""stimulus-container"">
                    <img src=""images/causal_sequence/dog_causal/dog_causal_1.png"" class=""exp-image"">
                    <div class=""question-area"">
                        <p style=""font-size: 20px; font-weight: bold; margin: 0;"">Is there a person in this image?</p>
                    </div>
                </div>","0","main_experiment_trial","1","dog_causal","causal_sequence","","","","",""
"","","","","","html-keyboard-response","145","1148304","0.0-145.0","5EE51F753E744CCFB294047E79D3AE52","019cf535-b2ba-7139-b0aa-b3afe7d56719","019cf509-e3f1-72d9-bf6b-e2f1118fdaab","","null","
                <div class=""stimulus-container"">
                    <img src=""images/causal_sequence/dog_causal/dog_causal_2.png"" class=""exp-image"">
                    <div class=""question-area""></div> 
                </div>","null","","","","","","","","",""
"","","","","","html-button-response","146","1148872","0.0-146.0","5EE51F753E744CCFB294047E79D3AE52","019cf535-b2ba-7139-b0aa-b3afe7d56719","019cf509-e3f1-72d9-bf6b-e2f1118fdaab","","566","
                <div class=""stimulus-container"">
                    <img src=""images/causal_sequence/dog_causal/dog_causal_2.png"" class=""exp-image"">
                    <div class=""question-area"">
                        <p style=""font-size: 20px; font-weight: bold; margin: 0;"">Is there a person in this image?</p>
                    </div>
                </div>","0","main_experiment_trial","2","dog_causal","causal_sequence","","","","",""
"","","","","","html-keyboard-response","147","1153878","0.0-147.0","5EE51F753E744CCFB294047E79D3AE52","019cf535-b2ba-7139-b0aa-b3afe7d56719","019cf509-e3f1-72d9-bf6b-e2f1118fdaab","","null","
                <div class=""stimulus-container"">
                    <img src=""images/causal_sequence/dog_causal/dog_causal_3.png"" class=""exp-image"">
                    <div class=""question-area""></div> 
                </div>","null","","","","","","","","",""
"","","","","","html-button-response","148","1154872","0.0-148.0","5EE51F753E744CCFB294047E79D3AE52","019cf535-b2ba-7139-b0aa-b3afe7d56719","019cf509-e3f1-72d9-bf6b-e2f1118fdaab","","993","
                <div class=""stimulus-container"">
                    <img src=""images/causal_sequence/dog_causal/dog_causal_3.png"" class=""exp-image"">
                    <div class=""question-area"">
                        <p style=""font-size: 20px; font-weight: bold; margin: 0;"">Is there a person in this image?</p>
                    </div>
                </div>","0","main_experiment_trial","3","dog_causal","causal_sequence","","","","",""
"","","","","","html-keyboard-response","149","1159877","0.0-149.0","5EE51F753E744CCFB294047E79D3AE52","019cf535-b2ba-7139-b0aa-b3afe7d56719","019cf509-e3f1-72d9-bf6b-e2f1118fdaab","","null","
                <div class=""stimulus-container"">
                    <img src=""images/causal_sequence/dog_causal/dog_causal_4.png"" class=""exp-image"">
                    <div class=""question-area""></div> 
                </div>","null","","","","","","","","",""
"","","","","","html-button-response","150","1160394","0.0-150.0","5EE51F753E744CCFB294047E79D3AE52","019cf535-b2ba-7139-b0aa-b3afe7d56719","019cf509-e3f1-72d9-bf6b-e2f1118fdaab","","516","
                <div class=""stimulus-container"">
                    <img src=""images/causal_sequence/dog_causal/dog_causal_4.png"" class=""exp-image"">
                    <div class=""question-area"">
                        <p style=""font-size: 20px; font-weight: bold; margin: 0;"">Is there a person in this image?</p>
                    </div>
                </div>","0","main_experiment_trial","4","dog_causal","causal_sequence","","","","",""
"","","","","","html-keyboard-response","151","1165399","0.0-151.0","5EE51F753E744CCFB294047E79D3AE52","019cf535-b2ba-7139-b0aa-b3afe7d56719","019cf509-e3f1-72d9-bf6b-e2f1118fdaab","","null","
                <div class=""stimulus-container"">
                    <img src=""images/causal_sequence/dog_causal/dog_causal_5.png"" class=""exp-image"">
                    <div class=""question-area""></div> 
                </div>","null","","","","","","","","",""
"","","","","","html-button-response","152","1165807","0.0-152.0","5EE51F753E744CCFB294047E79D3AE52","019cf535-b2ba-7139-b0aa-b3afe7d56719","019cf509-e3f1-72d9-bf6b-e2f1118fdaab","","407","
                <div class=""stimulus-container"">
                    <img src=""images/causal_sequence/dog_causal/dog_causal_5.png"" class=""exp-image"">
                    <div class=""question-area"">
                        <p style=""font-size: 20px; font-weight: bold; margin: 0;"">Is there a person in this image?</p>
                    </div>
                </div>","0","main_experiment_trial","5","dog_causal","causal_sequence","","","","",""
"","","","","","html-keyboard-response","153","1170810","0.0-153.0","5EE51F753E744CCFB294047E79D3AE52","019cf535-b2ba-7139-b0aa-b3afe7d56719","019cf509-e3f1-72d9-bf6b-e2f1118fdaab","","null","
                <div class=""stimulus-container"">
                    <img src=""images/causal_sequence/dog_causal/dog_causal_6.png"" class=""exp-image"">
                    <div class=""question-area""></div> 
                </div>","null","","","","","","","","",""
"","","","","","html-button-response","154","1171341","0.0-154.0","5EE51F753E744CCFB294047E79D3AE52","019cf535-b2ba-7139-b0aa-b3afe7d56719","019cf509-e3f1-72d9-bf6b-e2f1118fdaab","","531","
                <div class=""stimulus-container"">
                    <img src=""images/causal_sequence/dog_causal/dog_causal_6.png"" class=""exp-image"">
                    <div class=""question-area"">
                        <p style=""font-size: 20px; font-weight: bold; margin: 0;"">Is there a person in this image?</p>
                    </div>
                </div>","0","main_experiment_trial","6","dog_causal","causal_sequence","","","","",""
"","","","","","html-keyboard-response","155","1176343","0.0-155.0","5EE51F753E744CCFB294047E79D3AE52","019cf535-b2ba-7139-b0aa-b3afe7d56719","019cf509-e3f1-72d9-bf6b-e2f1118fdaab","","null","
                <div class=""stimulus-container"">
                    <img src=""images/causal_sequence/dog_causal/dog_causal_7.png"" class=""exp-image"">
                    <div class=""question-area""></div> 
                </div>","null","","","","","","","","",""
"","","","","","html-button-response","156","1176825","0.0-156.0","5EE51F753E744CCFB294047E79D3AE52","019cf535-b2ba-7139-b0aa-b3afe7d56719","019cf509-e3f1-72d9-bf6b-e2f1118fdaab","","481","
                <div class=""stimulus-container"">
                    <img src=""images/causal_sequence/dog_causal/dog_causal_7.png"" class=""exp-image"">
                    <div class=""question-area"">
                        <p style=""font-size: 20px; font-weight: bold; margin: 0;"">Is there a person in this image?</p>
                    </div>
                </div>","0","main_experiment_trial","7","dog_causal","causal_sequence","","","","",""
"","","","","","html-keyboard-response","157","1181830","0.0-157.0","5EE51F753E744CCFB294047E79D3AE52","019cf535-b2ba-7139-b0aa-b3afe7d56719","019cf509-e3f1-72d9-bf6b-e2f1118fdaab","","null","
                <div class=""stimulus-container"">
                    <img src=""images/causal_sequence/dog_causal/dog_causal_8.png"" class=""exp-image"">
                    <div class=""question-area""></div> 
                </div>","null","","","","","","","","",""
"","","","","","html-button-response","158","1182187","0.0-158.0","5EE51F753E744CCFB294047E79D3AE52","019cf535-b2ba-7139-b0aa-b3afe7d56719","019cf509-e3f1-72d9-bf6b-e2f1118fdaab","","357","
                <div class=""stimulus-container"">
                    <img src=""images/causal_sequence/dog_causal/dog_causal_8.png"" class=""exp-image"">
                    <div class=""question-area"">
                        <p style=""font-size: 20px; font-weight: bold; margin: 0;"">Is there a person in this image?</p>
                    </div>
                </div>","0","main_experiment_trial","8","dog_causal","causal_sequence","","","","",""
"","","","","","html-keyboard-response","159","1187193","0.0-159.0","5EE51F753E744CCFB294047E79D3AE52","019cf535-b2ba-7139-b0aa-b3afe7d56719","019cf509-e3f1-72d9-bf6b-e2f1118fdaab","","null","
                <div class=""stimulus-container"">
                    <img src=""images/causal_sequence/dog_causal/dog_causal_9.png"" class=""exp-image"">
                    <div class=""question-area""></div> 
                </div>","null","","","","","","","","",""
"","","","","","html-button-response","160","1187569","0.0-160.0","5EE51F753E744CCFB294047E79D3AE52","019cf535-b2ba-7139-b0aa-b3afe7d56719","019cf509-e3f1-72d9-bf6b-e2f1118fdaab","","375","
                <div class=""stimulus-container"">
                    <img src=""images/causal_sequence/dog_causal/dog_causal_9.png"" class=""exp-image"">
                    <div class=""question-area"">
                        <p style=""font-size: 20px; font-weight: bold; margin: 0;"">Is there a person in this image?</p>
                    </div>
                </div>","0","main_experiment_trial","9","dog_causal","causal_sequence","","","","",""
"","","","","","html-keyboard-response","161","1192570","0.0-161.0","5EE51F753E744CCFB294047E79D3AE52","019cf535-b2ba-7139-b0aa-b3afe7d56719","019cf509-e3f1-72d9-bf6b-e2f1118fdaab","","null","
                <div class=""stimulus-container"">
                    <img src=""images/causal_sequence/dog_causal/dog_causal_ten.png"" class=""exp-image"">
                    <div class=""question-area""></div> 
                </div>","null","","","","","","","","",""
"","","","","","html-button-response","162","1192949","0.0-162.0","5EE51F753E744CCFB294047E79D3AE52","019cf535-b2ba-7139-b0aa-b3afe7d56719","019cf509-e3f1-72d9-bf6b-e2f1118fdaab","","377","
                <div class=""stimulus-container"">
                    <img src=""images/causal_sequence/dog_causal/dog_causal_ten.png"" class=""exp-image"">
                    <div class=""question-area"">
                        <p style=""font-size: 20px; font-weight: bold; margin: 0;"">Is there a person in this image?</p>
                    </div>
                </div>","0","main_experiment_trial","ten","dog_causal","causal_sequence","","","","",""
"","","","","","html-keyboard-response","163","1193950","0.0-163.0","5EE51F753E744CCFB294047E79D3AE52","019cf535-b2ba-7139-b0aa-b3afe7d56719","019cf509-e3f1-72d9-bf6b-e2f1118fdaab","","null","<div style=""background-color: white; width: 100vw; height: 100vh;""></div>","null","","","","","","","","",""
"","","","","","html-keyboard-response","164","1199240","0.0-164.0","5EE51F753E744CCFB294047E79D3AE52","019cf535-b2ba-7139-b0aa-b3afe7d56719","019cf509-e3f1-72d9-bf6b-e2f1118fdaab","","null","
                <div class=""stimulus-container"">
                    <img src=""images/schematic_sequence/hotel_scheme/hotel_scheme_1.png"" class=""exp-image"">
                    <div class=""question-area""></div> 
                </div>","null","","","","","","","","",""
"","","","","","html-button-response","165","1200060","0.0-165.0","5EE51F753E744CCFB294047E79D3AE52","019cf535-b2ba-7139-b0aa-b3afe7d56719","019cf509-e3f1-72d9-bf6b-e2f1118fdaab","","817","
                <div class=""stimulus-container"">
                    <img src=""images/schematic_sequence/hotel_scheme/hotel_scheme_1.png"" class=""exp-image"">
                    <div class=""question-area"">
                        <p style=""font-size: 20px; font-weight: bold; margin: 0;"">Is there a person in this image?</p>
                    </div>
                </div>","1","main_experiment_trial","1","hotel_scheme","schematic_sequence","","","","",""
"","","","","","html-keyboard-response","166","1205063","0.0-166.0","5EE51F753E744CCFB294047E79D3AE52","019cf535-b2ba-7139-b0aa-b3afe7d56719","019cf509-e3f1-72d9-bf6b-e2f1118fdaab","","null","
                <div class=""stimulus-container"">
                    <img src=""images/schematic_sequence/hotel_scheme/hotel_scheme_2.png"" class=""exp-image"">
                    <div class=""question-area""></div> 
                </div>","null","","","","","","","","",""
"","","","","","html-button-response","167","1205624","0.0-167.0","5EE51F753E744CCFB294047E79D3AE52","019cf535-b2ba-7139-b0aa-b3afe7d56719","019cf509-e3f1-72d9-bf6b-e2f1118fdaab","","561","
                <div class=""stimulus-container"">
                    <img src=""images/schematic_sequence/hotel_scheme/hotel_scheme_2.png"" class=""exp-image"">
                    <div class=""question-area"">
                        <p style=""font-size: 20px; font-weight: bold; margin: 0;"">Is there a person in this image?</p>
                    </div>
                </div>","0","main_experiment_trial","2","hotel_scheme","schematic_sequence","","","","",""
"","","","","","html-keyboard-response","168","1210656","0.0-168.0","5EE51F753E744CCFB294047E79D3AE52","019cf535-b2ba-7139-b0aa-b3afe7d56719","019cf509-e3f1-72d9-bf6b-e2f1118fdaab","","null","
                <div class=""stimulus-container"">
                    <img src=""images/schematic_sequence/hotel_scheme/hotel_scheme_3.png"" class=""exp-image"">
                    <div class=""question-area""></div> 
                </div>","null","","","","","","","","",""
"","","","","","html-button-response","169","1211294","0.0-169.0","5EE51F753E744CCFB294047E79D3AE52","019cf535-b2ba-7139-b0aa-b3afe7d56719","019cf509-e3f1-72d9-bf6b-e2f1118fdaab","","638","
                <div class=""stimulus-container"">
                    <img src=""images/schematic_sequence/hotel_scheme/hotel_scheme_3.png"" class=""exp-image"">
                    <div class=""question-area"">
                        <p style=""font-size: 20px; font-weight: bold; margin: 0;"">Is there a person in this image?</p>
                    </div>
                </div>","0","main_experiment_trial","3","hotel_scheme","schematic_sequence","","","","",""
"","","","","","html-keyboard-response","170","1216300","0.0-170.0","5EE51F753E744CCFB294047E79D3AE52","019cf535-b2ba-7139-b0aa-b3afe7d56719","019cf509-e3f1-72d9-bf6b-e2f1118fdaab","","null","
                <div class=""stimulus-container"">
                    <img src=""images/schematic_sequence/hotel_scheme/hotel_scheme_4.png"" class=""exp-image"">
                    <div class=""question-area""></div> 
                </div>","null","","","","","","","","",""
"","","","","","html-button-response","171","1216719","0.0-171.0","5EE51F753E744CCFB294047E79D3AE52","019cf535-b2ba-7139-b0aa-b3afe7d56719","019cf509-e3f1-72d9-bf6b-e2f1118fdaab","","416","
                <div class=""stimulus-container"">
                    <img src=""images/schematic_sequence/hotel_scheme/hotel_scheme_4.png"" class=""exp-image"">
                    <div class=""question-area"">
                        <p style=""font-size: 20px; font-weight: bold; margin: 0;"">Is there a person in this image?</p>
                    </div>
                </div>","1","main_experiment_trial","4","hotel_scheme","schematic_sequence","","","","",""
"","","","","","html-keyboard-response","172","1221725","0.0-172.0","5EE51F753E744CCFB294047E79D3AE52","019cf535-b2ba-7139-b0aa-b3afe7d56719","019cf509-e3f1-72d9-bf6b-e2f1118fdaab","","null","
                <div class=""stimulus-container"">
                    <img src=""images/schematic_sequence/hotel_scheme/hotel_scheme_5.png"" class=""exp-image"">
                    <div class=""question-area""></div> 
                </div>","null","","","","","","","","",""
"","","","","","html-button-response","173","1222193","0.0-173.0","5EE51F753E744CCFB294047E79D3AE52","019cf535-b2ba-7139-b0aa-b3afe7d56719","019cf509-e3f1-72d9-bf6b-e2f1118fdaab","","467","
                <div class=""stimulus-container"">
                    <img src=""images/schematic_sequence/hotel_scheme/hotel_scheme_5.png"" class=""exp-image"">
                    <div class=""question-area"">
                        <p style=""font-size: 20px; font-weight: bold; margin: 0;"">Is there a person in this image?</p>
                    </div>
                </div>","0","main_experiment_trial","5","hotel_scheme","schematic_sequence","","","","",""
"","","","","","html-keyboard-response","174","1227199","0.0-174.0","5EE51F753E744CCFB294047E79D3AE52","019cf535-b2ba-7139-b0aa-b3afe7d56719","019cf509-e3f1-72d9-bf6b-e2f1118fdaab","","null","
                <div class=""stimulus-container"">
                    <img src=""images/schematic_sequence/hotel_scheme/hotel_scheme_6.png"" class=""exp-image"">
                    <div class=""question-area""></div> 
                </div>","null","","","","","","","","",""
"","","","","","html-button-response","175","1227930","0.0-175.0","5EE51F753E744CCFB294047E79D3AE52","019cf535-b2ba-7139-b0aa-b3afe7d56719","019cf509-e3f1-72d9-bf6b-e2f1118fdaab","","731","
                <div class=""stimulus-container"">
                    <img src=""images/schematic_sequence/hotel_scheme/hotel_scheme_6.png"" class=""exp-image"">
                    <div class=""question-area"">
                        <p style=""font-size: 20px; font-weight: bold; margin: 0;"">Is there a person in this image?</p>
                    </div>
                </div>","0","main_experiment_trial","6","hotel_scheme","schematic_sequence","","","","",""
"","","","","","html-keyboard-response","176","1232936","0.0-176.0","5EE51F753E744CCFB294047E79D3AE52","019cf535-b2ba-7139-b0aa-b3afe7d56719","019cf509-e3f1-72d9-bf6b-e2f1118fdaab","","null","
                <div class=""stimulus-container"">
                    <img src=""images/schematic_sequence/hotel_scheme/hotel_scheme_7.png"" class=""exp-image"">
                    <div class=""question-area""></div> 
                </div>","null","","","","","","","","",""
"","","","","","html-button-response","177","1233434","0.0-177.0","5EE51F753E744CCFB294047E79D3AE52","019cf535-b2ba-7139-b0aa-b3afe7d56719","019cf509-e3f1-72d9-bf6b-e2f1118fdaab","","497","
                <div class=""stimulus-container"">
                    <img src=""images/schematic_sequence/hotel_scheme/hotel_scheme_7.png"" class=""exp-image"">
                    <div class=""question-area"">
                        <p style=""font-size: 20px; font-weight: bold; margin: 0;"">Is there a person in this image?</p>
                    </div>
                </div>","0","main_experiment_trial","7","hotel_scheme","schematic_sequence","","","","",""
"","","","","","html-keyboard-response","178","1238440","0.0-178.0","5EE51F753E744CCFB294047E79D3AE52","019cf535-b2ba-7139-b0aa-b3afe7d56719","019cf509-e3f1-72d9-bf6b-e2f1118fdaab","","null","
                <div class=""stimulus-container"">
                    <img src=""images/schematic_sequence/hotel_scheme/hotel_scheme_8.png"" class=""exp-image"">
                    <div class=""question-area""></div> 
                </div>","null","","","","","","","","",""
"","","","","","html-button-response","179","1239172","0.0-179.0","5EE51F753E744CCFB294047E79D3AE52","019cf535-b2ba-7139-b0aa-b3afe7d56719","019cf509-e3f1-72d9-bf6b-e2f1118fdaab","","732","
                <div class=""stimulus-container"">
                    <img src=""images/schematic_sequence/hotel_scheme/hotel_scheme_8.png"" class=""exp-image"">
                    <div class=""question-area"">
                        <p style=""font-size: 20px; font-weight: bold; margin: 0;"">Is there a person in this image?</p>
                    </div>
                </div>","0","main_experiment_trial","8","hotel_scheme","schematic_sequence","","","","",""
"","","","","","html-keyboard-response","180","1244513","0.0-180.0","5EE51F753E744CCFB294047E79D3AE52","019cf535-b2ba-7139-b0aa-b3afe7d56719","019cf509-e3f1-72d9-bf6b-e2f1118fdaab","","null","
                <div class=""stimulus-container"">
                    <img src=""images/schematic_sequence/hotel_scheme/hotel_scheme_9.png"" class=""exp-image"">
                    <div class=""question-area""></div> 
                </div>","null","","","","","","","","",""
"","","","","","html-button-response","181","1244946","0.0-181.0","5EE51F753E744CCFB294047E79D3AE52","019cf535-b2ba-7139-b0aa-b3afe7d56719","019cf509-e3f1-72d9-bf6b-e2f1118fdaab","","431","
                <div class=""stimulus-container"">
                    <img src=""images/schematic_sequence/hotel_scheme/hotel_scheme_9.png"" class=""exp-image"">
                    <div class=""question-area"">
                        <p style=""font-size: 20px; font-weight: bold; margin: 0;"">Is there a person in this image?</p>
                    </div>
                </div>","0","main_experiment_trial","9","hotel_scheme","schematic_sequence","","","","",""
"","","","","","html-keyboard-response","182","1249952","0.0-182.0","5EE51F753E744CCFB294047E79D3AE52","019cf535-b2ba-7139-b0aa-b3afe7d56719","019cf509-e3f1-72d9-bf6b-e2f1118fdaab","","null","
                <div class=""stimulus-container"">
                    <img src=""images/schematic_sequence/hotel_scheme/hotel_scheme_ten.png"" class=""exp-image"">
                    <div class=""question-area""></div> 
                </div>","null","","","","","","","","",""
"","","","","","html-button-response","183","1250715","0.0-183.0","5EE51F753E744CCFB294047E79D3AE52","019cf535-b2ba-7139-b0aa-b3afe7d56719","019cf509-e3f1-72d9-bf6b-e2f1118fdaab","","763","
                <div class=""stimulus-container"">
                    <img src=""images/schematic_sequence/hotel_scheme/hotel_scheme_ten.png"" class=""exp-image"">
                    <div class=""question-area"">
                        <p style=""font-size: 20px; font-weight: bold; margin: 0;"">Is there a person in this image?</p>
                    </div>
                </div>","0","main_experiment_trial","ten","hotel_scheme","schematic_sequence","","","","",""
