"success","timeout","failed_images","failed_audio","failed_video","trial_type","trial_index","time_elapsed","internal_node_id","subject_id","study_id","session_id","view_history","rt","stimulus","response","task","image_index","folder","sequence_type","presentation_order","valuable_image_index","reward_type","distance_from_x","target_X","chosen_image_index","is_x_plus_dist","correct_choice"
"true","false","[]","[]","[]","preload","0","7156","0.0-0.0","2683F5C251AC4287B3C32C538820D30C","019d6b31-8ca5-7824-b952-4093423d7354","019d6ae6-5d89-74c6-b581-3918d1816346","","","","","","","","","","","","","","","",""
"","","","","","instructions","1","10708","0.0-1.0","2683F5C251AC4287B3C32C538820D30C","019d6b31-8ca5-7824-b952-4093423d7354","019d6ae6-5d89-74c6-b581-3918d1816346","[{""page_index"":0,""viewing_time"":3551}]","3551","","","","","","","","","","","","","",""
"","","","","","instructions","2","13132","0.0-2.0","2683F5C251AC4287B3C32C538820D30C","019d6b31-8ca5-7824-b952-4093423d7354","019d6ae6-5d89-74c6-b581-3918d1816346","[{""page_index"":0,""viewing_time"":2424}]","2424","","","","","","","","","","","","","",""
"true","","","","","fullscreen","3","15894","0.0-3.0","2683F5C251AC4287B3C32C538820D30C","019d6b31-8ca5-7824-b952-4093423d7354","019d6ae6-5d89-74c6-b581-3918d1816346","","1760","","","","","","","","","","","","","",""
"","","","","","instructions","4","26142","0.0-4.0","2683F5C251AC4287B3C32C538820D30C","019d6b31-8ca5-7824-b952-4093423d7354","019d6ae6-5d89-74c6-b581-3918d1816346","[{""page_index"":0,""viewing_time"":10248}]","10248","","","","","","","","","","","","","",""
"","","","","","instructions","5","33102","0.0-5.0","2683F5C251AC4287B3C32C538820D30C","019d6b31-8ca5-7824-b952-4093423d7354","019d6ae6-5d89-74c6-b581-3918d1816346","[{""page_index"":0,""viewing_time"":6960}]","6960","","","","","","","","","","","","","",""
"","","","","","html-keyboard-response","6","37105","0.0-6.0","2683F5C251AC4287B3C32C538820D30C","019d6b31-8ca5-7824-b952-4093423d7354","019d6ae6-5d89-74c6-b581-3918d1816346","","null","
            <div class=""stimulus-container"">
                <img src=""images/instructions/movie_1.png"" class=""exp-image"">
                <div class=""question-area""></div> 
            </div>","null","","","","","","","","","","","",""
"","","","","","html-button-response","7","38345","0.0-7.0","2683F5C251AC4287B3C32C538820D30C","019d6b31-8ca5-7824-b952-4093423d7354","019d6ae6-5d89-74c6-b581-3918d1816346","","1238","
            <div class=""stimulus-container"">
                <img src=""images/instructions/movie_1.png"" class=""exp-image"">
                <div class=""question-area"">
                    <p style=""font-size: 20px; font-weight: bold; margin: 0;"">Was there a person in this image?</p>
                </div>
            </div>","0","example_question","1","","","","","","","","","",""
"","","","","","html-keyboard-response","8","42346","0.0-8.0","2683F5C251AC4287B3C32C538820D30C","019d6b31-8ca5-7824-b952-4093423d7354","019d6ae6-5d89-74c6-b581-3918d1816346","","null","
            <div class=""stimulus-container"">
                <img src=""images/instructions/movie_2.png"" class=""exp-image"">
                <div class=""question-area""></div> 
            </div>","null","","","","","","","","","","","",""
"","","","","","html-button-response","9","42970","0.0-9.0","2683F5C251AC4287B3C32C538820D30C","019d6b31-8ca5-7824-b952-4093423d7354","019d6ae6-5d89-74c6-b581-3918d1816346","","621","
            <div class=""stimulus-container"">
                <img src=""images/instructions/movie_2.png"" class=""exp-image"">
                <div class=""question-area"">
                    <p style=""font-size: 20px; font-weight: bold; margin: 0;"">Was there a person in this image?</p>
                </div>
            </div>","0","example_question","2","","","","","","","","","",""
"","","","","","html-keyboard-response","10","46983","0.0-10.0","2683F5C251AC4287B3C32C538820D30C","019d6b31-8ca5-7824-b952-4093423d7354","019d6ae6-5d89-74c6-b581-3918d1816346","","null","
            <div class=""stimulus-container"">
                <img src=""images/instructions/movie_3.png"" class=""exp-image"">
                <div class=""question-area""></div> 
            </div>","null","","","","","","","","","","","",""
"","","","","","html-button-response","11","47600","0.0-11.0","2683F5C251AC4287B3C32C538820D30C","019d6b31-8ca5-7824-b952-4093423d7354","019d6ae6-5d89-74c6-b581-3918d1816346","","616","
            <div class=""stimulus-container"">
                <img src=""images/instructions/movie_3.png"" class=""exp-image"">
                <div class=""question-area"">
                    <p style=""font-size: 20px; font-weight: bold; margin: 0;"">Was there a person in this image?</p>
                </div>
            </div>","0","example_question","3","","","","","","","","","",""
"","","","","","html-keyboard-response","12","51615","0.0-12.0","2683F5C251AC4287B3C32C538820D30C","019d6b31-8ca5-7824-b952-4093423d7354","019d6ae6-5d89-74c6-b581-3918d1816346","","null","
            <div class=""stimulus-container"">
                <img src=""images/instructions/movie_4.png"" class=""exp-image"">
                <div class=""question-area""></div> 
            </div>","null","","","","","","","","","","","",""
"","","","","","html-button-response","13","52113","0.0-13.0","2683F5C251AC4287B3C32C538820D30C","019d6b31-8ca5-7824-b952-4093423d7354","019d6ae6-5d89-74c6-b581-3918d1816346","","496","
            <div class=""stimulus-container"">
                <img src=""images/instructions/movie_4.png"" class=""exp-image"">
                <div class=""question-area"">
                    <p style=""font-size: 20px; font-weight: bold; margin: 0;"">Was there a person in this image?</p>
                </div>
            </div>","0","example_question","4","","","","","","","","","",""
"","","","","","instructions","14","53325","0.0-14.0","2683F5C251AC4287B3C32C538820D30C","019d6b31-8ca5-7824-b952-4093423d7354","019d6ae6-5d89-74c6-b581-3918d1816346","[{""page_index"":0,""viewing_time"":1212}]","1212","","","","","","","","","","","","","",""
"","","","","","instructions","15","57765","0.0-15.0","2683F5C251AC4287B3C32C538820D30C","019d6b31-8ca5-7824-b952-4093423d7354","019d6ae6-5d89-74c6-b581-3918d1816346","[{""page_index"":0,""viewing_time"":4440}]","4440","","","","","","","","","","","","","",""
"","","","","","html-keyboard-response","16","62770","0.0-16.0","2683F5C251AC4287B3C32C538820D30C","019d6b31-8ca5-7824-b952-4093423d7354","019d6ae6-5d89-74c6-b581-3918d1816346","","null","<div style=""background-color: white; width: 100vw; height: 100vh;""></div>","null","","","","","","","","","","","",""
"","","","","","html-keyboard-response","17","67773","0.0-17.0","2683F5C251AC4287B3C32C538820D30C","019d6b31-8ca5-7824-b952-4093423d7354","019d6ae6-5d89-74c6-b581-3918d1816346","","null","
                <div class=""stimulus-container"">
                    <img src=""semantic_sequence_notimeline/fruits_semantic/fruits_semantic_1.png"" class=""exp-image"">
                    <div class=""question-area""></div> 
                </div>","null","","","","","","","","","","","",""
"","","","","","html-button-response","18","68784","0.0-18.0","2683F5C251AC4287B3C32C538820D30C","019d6b31-8ca5-7824-b952-4093423d7354","019d6ae6-5d89-74c6-b581-3918d1816346","","1011","
                <div class=""stimulus-container"">
                    <img src=""semantic_sequence_notimeline/fruits_semantic/fruits_semantic_1.png"" class=""exp-image"">
                    <div class=""question-area"">
                        <p style=""font-size: 20px; font-weight: bold; margin: 0;"">Is there a person in this image?</p>
                    </div>
                </div>","1","main_experiment_trial","1","fruits_semantic","semantic_sequence_notimeline","chronological","","","","","","",""
"","","","","","html-keyboard-response","19","73801","0.0-19.0","2683F5C251AC4287B3C32C538820D30C","019d6b31-8ca5-7824-b952-4093423d7354","019d6ae6-5d89-74c6-b581-3918d1816346","","null","
                <div class=""stimulus-container"">
                    <img src=""semantic_sequence_notimeline/fruits_semantic/fruits_semantic_2.png"" class=""exp-image"">
                    <div class=""question-area""></div> 
                </div>","null","","","","","","","","","","","",""
"","","","","","html-button-response","20","74278","0.0-20.0","2683F5C251AC4287B3C32C538820D30C","019d6b31-8ca5-7824-b952-4093423d7354","019d6ae6-5d89-74c6-b581-3918d1816346","","476","
                <div class=""stimulus-container"">
                    <img src=""semantic_sequence_notimeline/fruits_semantic/fruits_semantic_2.png"" class=""exp-image"">
                    <div class=""question-area"">
                        <p style=""font-size: 20px; font-weight: bold; margin: 0;"">Is there a person in this image?</p>
                    </div>
                </div>","1","main_experiment_trial","2","fruits_semantic","semantic_sequence_notimeline","chronological","","","","","","",""
"","","","","","html-keyboard-response","21","79286","0.0-21.0","2683F5C251AC4287B3C32C538820D30C","019d6b31-8ca5-7824-b952-4093423d7354","019d6ae6-5d89-74c6-b581-3918d1816346","","null","
                <div class=""stimulus-container"">
                    <img src=""semantic_sequence_notimeline/fruits_semantic/fruits_semantic_3.png"" class=""exp-image"">
                    <div class=""question-area""></div> 
                </div>","null","","","","","","","","","","","",""
"","","","","","html-button-response","22","79768","0.0-22.0","2683F5C251AC4287B3C32C538820D30C","019d6b31-8ca5-7824-b952-4093423d7354","019d6ae6-5d89-74c6-b581-3918d1816346","","480","
                <div class=""stimulus-container"">
                    <img src=""semantic_sequence_notimeline/fruits_semantic/fruits_semantic_3.png"" class=""exp-image"">
                    <div class=""question-area"">
                        <p style=""font-size: 20px; font-weight: bold; margin: 0;"">Is there a person in this image?</p>
                    </div>
                </div>","1","main_experiment_trial","3","fruits_semantic","semantic_sequence_notimeline","chronological","","","","","","",""
"","","","","","html-keyboard-response","23","84773","0.0-23.0","2683F5C251AC4287B3C32C538820D30C","019d6b31-8ca5-7824-b952-4093423d7354","019d6ae6-5d89-74c6-b581-3918d1816346","","null","
                <div class=""stimulus-container"">
                    <img src=""semantic_sequence_notimeline/fruits_semantic/fruits_semantic_4.png"" class=""exp-image"">
                    <div class=""question-area""></div> 
                </div>","null","","","","","","","","","","","",""
"","","","","","html-button-response","24","85182","0.0-24.0","2683F5C251AC4287B3C32C538820D30C","019d6b31-8ca5-7824-b952-4093423d7354","019d6ae6-5d89-74c6-b581-3918d1816346","","408","
                <div class=""stimulus-container"">
                    <img src=""semantic_sequence_notimeline/fruits_semantic/fruits_semantic_4.png"" class=""exp-image"">
                    <div class=""question-area"">
                        <p style=""font-size: 20px; font-weight: bold; margin: 0;"">Is there a person in this image?</p>
                    </div>
                </div>","1","main_experiment_trial","4","fruits_semantic","semantic_sequence_notimeline","chronological","","","","","","",""
"","","","","","html-keyboard-response","25","90183","0.0-25.0","2683F5C251AC4287B3C32C538820D30C","019d6b31-8ca5-7824-b952-4093423d7354","019d6ae6-5d89-74c6-b581-3918d1816346","","null","
                <div class=""stimulus-container"">
                    <img src=""semantic_sequence_notimeline/fruits_semantic/fruits_semantic_5.png"" class=""exp-image"">
                    <div class=""question-area""></div> 
                </div>","null","","","","","","","","","","","",""
"","","","","","html-button-response","26","90702","0.0-26.0","2683F5C251AC4287B3C32C538820D30C","019d6b31-8ca5-7824-b952-4093423d7354","019d6ae6-5d89-74c6-b581-3918d1816346","","519","
                <div class=""stimulus-container"">
                    <img src=""semantic_sequence_notimeline/fruits_semantic/fruits_semantic_5.png"" class=""exp-image"">
                    <div class=""question-area"">
                        <p style=""font-size: 20px; font-weight: bold; margin: 0;"">Is there a person in this image?</p>
                    </div>
                </div>","1","main_experiment_trial","5","fruits_semantic","semantic_sequence_notimeline","chronological","","","","","","",""
"","","","","","html-keyboard-response","27","95714","0.0-27.0","2683F5C251AC4287B3C32C538820D30C","019d6b31-8ca5-7824-b952-4093423d7354","019d6ae6-5d89-74c6-b581-3918d1816346","","null","
                <div class=""stimulus-container"">
                    <img src=""semantic_sequence_notimeline/fruits_semantic/fruits_semantic_6.png"" class=""exp-image"">
                    <div class=""question-area""></div> 
                </div>","null","","","","","","","","","","","",""
"","","","","","html-button-response","28","96183","0.0-28.0","2683F5C251AC4287B3C32C538820D30C","019d6b31-8ca5-7824-b952-4093423d7354","019d6ae6-5d89-74c6-b581-3918d1816346","","467","
                <div class=""stimulus-container"">
                    <img src=""semantic_sequence_notimeline/fruits_semantic/fruits_semantic_6.png"" class=""exp-image"">
                    <div class=""question-area"">
                        <p style=""font-size: 20px; font-weight: bold; margin: 0;"">Is there a person in this image?</p>
                    </div>
                </div>","1","main_experiment_trial","6","fruits_semantic","semantic_sequence_notimeline","chronological","","","","","","",""
"","","","","","html-keyboard-response","29","101187","0.0-29.0","2683F5C251AC4287B3C32C538820D30C","019d6b31-8ca5-7824-b952-4093423d7354","019d6ae6-5d89-74c6-b581-3918d1816346","","null","
                <div class=""stimulus-container"">
                    <img src=""semantic_sequence_notimeline/fruits_semantic/fruits_semantic_7.png"" class=""exp-image"">
                    <div class=""question-area""></div> 
                </div>","null","","","","","","","","","","","",""
"","","","","","html-button-response","30","101691","0.0-30.0","2683F5C251AC4287B3C32C538820D30C","019d6b31-8ca5-7824-b952-4093423d7354","019d6ae6-5d89-74c6-b581-3918d1816346","","503","
                <div class=""stimulus-container"">
                    <img src=""semantic_sequence_notimeline/fruits_semantic/fruits_semantic_7.png"" class=""exp-image"">
                    <div class=""question-area"">
                        <p style=""font-size: 20px; font-weight: bold; margin: 0;"">Is there a person in this image?</p>
                    </div>
                </div>","1","main_experiment_trial","7","fruits_semantic","semantic_sequence_notimeline","chronological","","","","","","",""
"","","","","","html-keyboard-response","31","106708","0.0-31.0","2683F5C251AC4287B3C32C538820D30C","019d6b31-8ca5-7824-b952-4093423d7354","019d6ae6-5d89-74c6-b581-3918d1816346","","null","
                <div class=""stimulus-container"">
                    <img src=""semantic_sequence_notimeline/fruits_semantic/fruits_semantic_8.png"" class=""exp-image"">
                    <div class=""question-area""></div> 
                </div>","null","","","","","","","","","","","",""
"","","","","","html-button-response","32","107263","0.0-32.0","2683F5C251AC4287B3C32C538820D30C","019d6b31-8ca5-7824-b952-4093423d7354","019d6ae6-5d89-74c6-b581-3918d1816346","","555","
                <div class=""stimulus-container"">
                    <img src=""semantic_sequence_notimeline/fruits_semantic/fruits_semantic_8.png"" class=""exp-image"">
                    <div class=""question-area"">
                        <p style=""font-size: 20px; font-weight: bold; margin: 0;"">Is there a person in this image?</p>
                    </div>
                </div>","1","main_experiment_trial","8","fruits_semantic","semantic_sequence_notimeline","chronological","","","","","","",""
"","","","","","html-keyboard-response","33","112270","0.0-33.0","2683F5C251AC4287B3C32C538820D30C","019d6b31-8ca5-7824-b952-4093423d7354","019d6ae6-5d89-74c6-b581-3918d1816346","","null","
                <div class=""stimulus-container"">
                    <img src=""semantic_sequence_notimeline/fruits_semantic/fruits_semantic_9.png"" class=""exp-image"">
                    <div class=""question-area""></div> 
                </div>","null","","","","","","","","","","","",""
"","","","","","html-button-response","34","112691","0.0-34.0","2683F5C251AC4287B3C32C538820D30C","019d6b31-8ca5-7824-b952-4093423d7354","019d6ae6-5d89-74c6-b581-3918d1816346","","419","
                <div class=""stimulus-container"">
                    <img src=""semantic_sequence_notimeline/fruits_semantic/fruits_semantic_9.png"" class=""exp-image"">
                    <div class=""question-area"">
                        <p style=""font-size: 20px; font-weight: bold; margin: 0;"">Is there a person in this image?</p>
                    </div>
                </div>","1","main_experiment_trial","9","fruits_semantic","semantic_sequence_notimeline","chronological","","","","","","",""
"","","","","","html-keyboard-response","35","117693","0.0-35.0","2683F5C251AC4287B3C32C538820D30C","019d6b31-8ca5-7824-b952-4093423d7354","019d6ae6-5d89-74c6-b581-3918d1816346","","null","
                <div class=""stimulus-container"">
                    <img src=""semantic_sequence_notimeline/fruits_semantic/fruits_semantic_ten.png"" class=""exp-image"">
                    <div class=""question-area""></div> 
                </div>","null","","","","","","","","","","","",""
"","","","","","html-button-response","36","118060","0.0-36.0","2683F5C251AC4287B3C32C538820D30C","019d6b31-8ca5-7824-b952-4093423d7354","019d6ae6-5d89-74c6-b581-3918d1816346","","366","
                <div class=""stimulus-container"">
                    <img src=""semantic_sequence_notimeline/fruits_semantic/fruits_semantic_ten.png"" class=""exp-image"">
                    <div class=""question-area"">
                        <p style=""font-size: 20px; font-weight: bold; margin: 0;"">Is there a person in this image?</p>
                    </div>
                </div>","1","main_experiment_trial","ten","fruits_semantic","semantic_sequence_notimeline","chronological","","","","","","",""
"","","","","","html-keyboard-response","37","123075","0.0-37.0","2683F5C251AC4287B3C32C538820D30C","019d6b31-8ca5-7824-b952-4093423d7354","019d6ae6-5d89-74c6-b581-3918d1816346","","null","<div style=""background-color: white; width: 100vw; height: 100vh;""></div>","null","","","","","","","","","","","",""
"","","","","","html-keyboard-response","38","128086","0.0-38.0","2683F5C251AC4287B3C32C538820D30C","019d6b31-8ca5-7824-b952-4093423d7354","019d6ae6-5d89-74c6-b581-3918d1816346","","null","
                <div class=""stimulus-container"">
                    <img src=""semantic_sequence_notimeline/animals_semantic/animals_semantic_1.png"" class=""exp-image"">
                    <div class=""question-area""></div> 
                </div>","null","","","","","","","","","","","",""
"","","","","","html-button-response","39","128891","0.0-39.0","2683F5C251AC4287B3C32C538820D30C","019d6b31-8ca5-7824-b952-4093423d7354","019d6ae6-5d89-74c6-b581-3918d1816346","","803","
                <div class=""stimulus-container"">
                    <img src=""semantic_sequence_notimeline/animals_semantic/animals_semantic_1.png"" class=""exp-image"">
                    <div class=""question-area"">
                        <p style=""font-size: 20px; font-weight: bold; margin: 0;"">Is there a person in this image?</p>
                    </div>
                </div>","1","main_experiment_trial","1","animals_semantic","semantic_sequence_notimeline","chronological","","","","","","",""
"","","","","","html-keyboard-response","40","133899","0.0-40.0","2683F5C251AC4287B3C32C538820D30C","019d6b31-8ca5-7824-b952-4093423d7354","019d6ae6-5d89-74c6-b581-3918d1816346","","null","
                <div class=""stimulus-container"">
                    <img src=""semantic_sequence_notimeline/animals_semantic/animals_semantic_2.png"" class=""exp-image"">
                    <div class=""question-area""></div> 
                </div>","null","","","","","","","","","","","",""
"","","","","","html-button-response","41","134619","0.0-41.0","2683F5C251AC4287B3C32C538820D30C","019d6b31-8ca5-7824-b952-4093423d7354","019d6ae6-5d89-74c6-b581-3918d1816346","","719","
                <div class=""stimulus-container"">
                    <img src=""semantic_sequence_notimeline/animals_semantic/animals_semantic_2.png"" class=""exp-image"">
                    <div class=""question-area"">
                        <p style=""font-size: 20px; font-weight: bold; margin: 0;"">Is there a person in this image?</p>
                    </div>
                </div>","1","main_experiment_trial","2","animals_semantic","semantic_sequence_notimeline","chronological","","","","","","",""
"","","","","","html-keyboard-response","42","139626","0.0-42.0","2683F5C251AC4287B3C32C538820D30C","019d6b31-8ca5-7824-b952-4093423d7354","019d6ae6-5d89-74c6-b581-3918d1816346","","null","
                <div class=""stimulus-container"">
                    <img src=""semantic_sequence_notimeline/animals_semantic/animals_semantic_3.png"" class=""exp-image"">
                    <div class=""question-area""></div> 
                </div>","null","","","","","","","","","","","",""
"","","","","","html-button-response","43","140164","0.0-43.0","2683F5C251AC4287B3C32C538820D30C","019d6b31-8ca5-7824-b952-4093423d7354","019d6ae6-5d89-74c6-b581-3918d1816346","","537","
                <div class=""stimulus-container"">
                    <img src=""semantic_sequence_notimeline/animals_semantic/animals_semantic_3.png"" class=""exp-image"">
                    <div class=""question-area"">
                        <p style=""font-size: 20px; font-weight: bold; margin: 0;"">Is there a person in this image?</p>
                    </div>
                </div>","1","main_experiment_trial","3","animals_semantic","semantic_sequence_notimeline","chronological","","","","","","",""
"","","","","","html-keyboard-response","44","145166","0.0-44.0","2683F5C251AC4287B3C32C538820D30C","019d6b31-8ca5-7824-b952-4093423d7354","019d6ae6-5d89-74c6-b581-3918d1816346","","null","
                <div class=""stimulus-container"">
                    <img src=""semantic_sequence_notimeline/animals_semantic/animals_semantic_4.png"" class=""exp-image"">
                    <div class=""question-area""></div> 
                </div>","null","","","","","","","","","","","",""
"","","","","","html-button-response","45","145851","0.0-45.0","2683F5C251AC4287B3C32C538820D30C","019d6b31-8ca5-7824-b952-4093423d7354","019d6ae6-5d89-74c6-b581-3918d1816346","","684","
                <div class=""stimulus-container"">
                    <img src=""semantic_sequence_notimeline/animals_semantic/animals_semantic_4.png"" class=""exp-image"">
                    <div class=""question-area"">
                        <p style=""font-size: 20px; font-weight: bold; margin: 0;"">Is there a person in this image?</p>
                    </div>
                </div>","1","main_experiment_trial","4","animals_semantic","semantic_sequence_notimeline","chronological","","","","","","",""
"","","","","","html-keyboard-response","46","150860","0.0-46.0","2683F5C251AC4287B3C32C538820D30C","019d6b31-8ca5-7824-b952-4093423d7354","019d6ae6-5d89-74c6-b581-3918d1816346","","null","
                <div class=""stimulus-container"">
                    <img src=""semantic_sequence_notimeline/animals_semantic/animals_semantic_5.png"" class=""exp-image"">
                    <div class=""question-area""></div> 
                </div>","null","","","","","","","","","","","",""
"","","","","","html-button-response","47","151471","0.0-47.0","2683F5C251AC4287B3C32C538820D30C","019d6b31-8ca5-7824-b952-4093423d7354","019d6ae6-5d89-74c6-b581-3918d1816346","","609","
                <div class=""stimulus-container"">
                    <img src=""semantic_sequence_notimeline/animals_semantic/animals_semantic_5.png"" class=""exp-image"">
                    <div class=""question-area"">
                        <p style=""font-size: 20px; font-weight: bold; margin: 0;"">Is there a person in this image?</p>
                    </div>
                </div>","1","main_experiment_trial","5","animals_semantic","semantic_sequence_notimeline","chronological","","","","","","",""
"","","","","","html-keyboard-response","48","156482","0.0-48.0","2683F5C251AC4287B3C32C538820D30C","019d6b31-8ca5-7824-b952-4093423d7354","019d6ae6-5d89-74c6-b581-3918d1816346","","null","
                <div class=""stimulus-container"">
                    <img src=""semantic_sequence_notimeline/animals_semantic/animals_semantic_6.png"" class=""exp-image"">
                    <div class=""question-area""></div> 
                </div>","null","","","","","","","","","","","",""
"","","","","","html-button-response","49","156906","0.0-49.0","2683F5C251AC4287B3C32C538820D30C","019d6b31-8ca5-7824-b952-4093423d7354","019d6ae6-5d89-74c6-b581-3918d1816346","","422","
                <div class=""stimulus-container"">
                    <img src=""semantic_sequence_notimeline/animals_semantic/animals_semantic_6.png"" class=""exp-image"">
                    <div class=""question-area"">
                        <p style=""font-size: 20px; font-weight: bold; margin: 0;"">Is there a person in this image?</p>
                    </div>
                </div>","1","main_experiment_trial","6","animals_semantic","semantic_sequence_notimeline","chronological","","","","","","",""
"","","","","","html-keyboard-response","50","161912","0.0-50.0","2683F5C251AC4287B3C32C538820D30C","019d6b31-8ca5-7824-b952-4093423d7354","019d6ae6-5d89-74c6-b581-3918d1816346","","null","
                <div class=""stimulus-container"">
                    <img src=""semantic_sequence_notimeline/animals_semantic/animals_semantic_7.png"" class=""exp-image"">
                    <div class=""question-area""></div> 
                </div>","null","","","","","","","","","","","",""
"","","","","","html-button-response","51","162394","0.0-51.0","2683F5C251AC4287B3C32C538820D30C","019d6b31-8ca5-7824-b952-4093423d7354","019d6ae6-5d89-74c6-b581-3918d1816346","","482","
                <div class=""stimulus-container"">
                    <img src=""semantic_sequence_notimeline/animals_semantic/animals_semantic_7.png"" class=""exp-image"">
                    <div class=""question-area"">
                        <p style=""font-size: 20px; font-weight: bold; margin: 0;"">Is there a person in this image?</p>
                    </div>
                </div>","1","main_experiment_trial","7","animals_semantic","semantic_sequence_notimeline","chronological","","","","","","",""
"","","","","","html-keyboard-response","52","167400","0.0-52.0","2683F5C251AC4287B3C32C538820D30C","019d6b31-8ca5-7824-b952-4093423d7354","019d6ae6-5d89-74c6-b581-3918d1816346","","null","
                <div class=""stimulus-container"">
                    <img src=""semantic_sequence_notimeline/animals_semantic/animals_semantic_8.png"" class=""exp-image"">
                    <div class=""question-area""></div> 
                </div>","null","","","","","","","","","","","",""
"","","","","","html-button-response","53","167842","0.0-53.0","2683F5C251AC4287B3C32C538820D30C","019d6b31-8ca5-7824-b952-4093423d7354","019d6ae6-5d89-74c6-b581-3918d1816346","","442","
                <div class=""stimulus-container"">
                    <img src=""semantic_sequence_notimeline/animals_semantic/animals_semantic_8.png"" class=""exp-image"">
                    <div class=""question-area"">
                        <p style=""font-size: 20px; font-weight: bold; margin: 0;"">Is there a person in this image?</p>
                    </div>
                </div>","1","main_experiment_trial","8","animals_semantic","semantic_sequence_notimeline","chronological","","","","","","",""
"","","","","","html-keyboard-response","54","172845","0.0-54.0","2683F5C251AC4287B3C32C538820D30C","019d6b31-8ca5-7824-b952-4093423d7354","019d6ae6-5d89-74c6-b581-3918d1816346","","null","
                <div class=""stimulus-container"">
                    <img src=""semantic_sequence_notimeline/animals_semantic/animals_semantic_9.png"" class=""exp-image"">
                    <div class=""question-area""></div> 
                </div>","null","","","","","","","","","","","",""
"","","","","","html-button-response","55","173244","0.0-55.0","2683F5C251AC4287B3C32C538820D30C","019d6b31-8ca5-7824-b952-4093423d7354","019d6ae6-5d89-74c6-b581-3918d1816346","","398","
                <div class=""stimulus-container"">
                    <img src=""semantic_sequence_notimeline/animals_semantic/animals_semantic_9.png"" class=""exp-image"">
                    <div class=""question-area"">
                        <p style=""font-size: 20px; font-weight: bold; margin: 0;"">Is there a person in this image?</p>
                    </div>
                </div>","1","main_experiment_trial","9","animals_semantic","semantic_sequence_notimeline","chronological","","","","","","",""
"","","","","","html-keyboard-response","56","178251","0.0-56.0","2683F5C251AC4287B3C32C538820D30C","019d6b31-8ca5-7824-b952-4093423d7354","019d6ae6-5d89-74c6-b581-3918d1816346","","null","
                <div class=""stimulus-container"">
                    <img src=""semantic_sequence_notimeline/animals_semantic/animals_semantic_ten.png"" class=""exp-image"">
                    <div class=""question-area""></div> 
                </div>","null","","","","","","","","","","","",""
"","","","","","html-button-response","57","179025","0.0-57.0","2683F5C251AC4287B3C32C538820D30C","019d6b31-8ca5-7824-b952-4093423d7354","019d6ae6-5d89-74c6-b581-3918d1816346","","773","
                <div class=""stimulus-container"">
                    <img src=""semantic_sequence_notimeline/animals_semantic/animals_semantic_ten.png"" class=""exp-image"">
                    <div class=""question-area"">
                        <p style=""font-size: 20px; font-weight: bold; margin: 0;"">Is there a person in this image?</p>
                    </div>
                </div>","1","main_experiment_trial","ten","animals_semantic","semantic_sequence_notimeline","chronological","","","","","","",""
"","","","","","html-keyboard-response","58","184036","0.0-58.0","2683F5C251AC4287B3C32C538820D30C","019d6b31-8ca5-7824-b952-4093423d7354","019d6ae6-5d89-74c6-b581-3918d1816346","","null","<div style=""background-color: white; width: 100vw; height: 100vh;""></div>","null","","","","","","","","","","","",""
"","","","","","html-keyboard-response","59","189050","0.0-59.0","2683F5C251AC4287B3C32C538820D30C","019d6b31-8ca5-7824-b952-4093423d7354","019d6ae6-5d89-74c6-b581-3918d1816346","","null","
                <div class=""stimulus-container"">
                    <img src=""semantic_sequence_notimeline/clothing_semantic/clothing_semantic_1.png"" class=""exp-image"">
                    <div class=""question-area""></div> 
                </div>","null","","","","","","","","","","","",""
"","","","","","html-button-response","60","189473","0.0-60.0","2683F5C251AC4287B3C32C538820D30C","019d6b31-8ca5-7824-b952-4093423d7354","019d6ae6-5d89-74c6-b581-3918d1816346","","423","
                <div class=""stimulus-container"">
                    <img src=""semantic_sequence_notimeline/clothing_semantic/clothing_semantic_1.png"" class=""exp-image"">
                    <div class=""question-area"">
                        <p style=""font-size: 20px; font-weight: bold; margin: 0;"">Is there a person in this image?</p>
                    </div>
                </div>","1","main_experiment_trial","1","clothing_semantic","semantic_sequence_notimeline","chronological","","","","","","",""
"","","","","","html-keyboard-response","61","194475","0.0-61.0","2683F5C251AC4287B3C32C538820D30C","019d6b31-8ca5-7824-b952-4093423d7354","019d6ae6-5d89-74c6-b581-3918d1816346","","null","
                <div class=""stimulus-container"">
                    <img src=""semantic_sequence_notimeline/clothing_semantic/clothing_semantic_2.png"" class=""exp-image"">
                    <div class=""question-area""></div> 
                </div>","null","","","","","","","","","","","",""
"","","","","","html-button-response","62","194913","0.0-62.0","2683F5C251AC4287B3C32C538820D30C","019d6b31-8ca5-7824-b952-4093423d7354","019d6ae6-5d89-74c6-b581-3918d1816346","","436","
                <div class=""stimulus-container"">
                    <img src=""semantic_sequence_notimeline/clothing_semantic/clothing_semantic_2.png"" class=""exp-image"">
                    <div class=""question-area"">
                        <p style=""font-size: 20px; font-weight: bold; margin: 0;"">Is there a person in this image?</p>
                    </div>
                </div>","1","main_experiment_trial","2","clothing_semantic","semantic_sequence_notimeline","chronological","","","","","","",""
"","","","","","html-keyboard-response","63","199928","0.0-63.0","2683F5C251AC4287B3C32C538820D30C","019d6b31-8ca5-7824-b952-4093423d7354","019d6ae6-5d89-74c6-b581-3918d1816346","","null","
                <div class=""stimulus-container"">
                    <img src=""semantic_sequence_notimeline/clothing_semantic/clothing_semantic_3.png"" class=""exp-image"">
                    <div class=""question-area""></div> 
                </div>","null","","","","","","","","","","","",""
"","","","","","html-button-response","64","200524","0.0-64.0","2683F5C251AC4287B3C32C538820D30C","019d6b31-8ca5-7824-b952-4093423d7354","019d6ae6-5d89-74c6-b581-3918d1816346","","595","
                <div class=""stimulus-container"">
                    <img src=""semantic_sequence_notimeline/clothing_semantic/clothing_semantic_3.png"" class=""exp-image"">
                    <div class=""question-area"">
                        <p style=""font-size: 20px; font-weight: bold; margin: 0;"">Is there a person in this image?</p>
                    </div>
                </div>","1","main_experiment_trial","3","clothing_semantic","semantic_sequence_notimeline","chronological","","","","","","",""
"","","","","","html-keyboard-response","65","205540","0.0-65.0","2683F5C251AC4287B3C32C538820D30C","019d6b31-8ca5-7824-b952-4093423d7354","019d6ae6-5d89-74c6-b581-3918d1816346","","null","
                <div class=""stimulus-container"">
                    <img src=""semantic_sequence_notimeline/clothing_semantic/clothing_semantic_4.png"" class=""exp-image"">
                    <div class=""question-area""></div> 
                </div>","null","","","","","","","","","","","",""
"","","","","","html-button-response","66","206074","0.0-66.0","2683F5C251AC4287B3C32C538820D30C","019d6b31-8ca5-7824-b952-4093423d7354","019d6ae6-5d89-74c6-b581-3918d1816346","","533","
                <div class=""stimulus-container"">
                    <img src=""semantic_sequence_notimeline/clothing_semantic/clothing_semantic_4.png"" class=""exp-image"">
                    <div class=""question-area"">
                        <p style=""font-size: 20px; font-weight: bold; margin: 0;"">Is there a person in this image?</p>
                    </div>
                </div>","1","main_experiment_trial","4","clothing_semantic","semantic_sequence_notimeline","chronological","","","","","","",""
"","","","","","html-keyboard-response","67","211082","0.0-67.0","2683F5C251AC4287B3C32C538820D30C","019d6b31-8ca5-7824-b952-4093423d7354","019d6ae6-5d89-74c6-b581-3918d1816346","","null","
                <div class=""stimulus-container"">
                    <img src=""semantic_sequence_notimeline/clothing_semantic/clothing_semantic_5.png"" class=""exp-image"">
                    <div class=""question-area""></div> 
                </div>","null","","","","","","","","","","","",""
"","","","","","html-button-response","68","211468","0.0-68.0","2683F5C251AC4287B3C32C538820D30C","019d6b31-8ca5-7824-b952-4093423d7354","019d6ae6-5d89-74c6-b581-3918d1816346","","385","
                <div class=""stimulus-container"">
                    <img src=""semantic_sequence_notimeline/clothing_semantic/clothing_semantic_5.png"" class=""exp-image"">
                    <div class=""question-area"">
                        <p style=""font-size: 20px; font-weight: bold; margin: 0;"">Is there a person in this image?</p>
                    </div>
                </div>","1","main_experiment_trial","5","clothing_semantic","semantic_sequence_notimeline","chronological","","","","","","",""
"","","","","","html-keyboard-response","69","216475","0.0-69.0","2683F5C251AC4287B3C32C538820D30C","019d6b31-8ca5-7824-b952-4093423d7354","019d6ae6-5d89-74c6-b581-3918d1816346","","null","
                <div class=""stimulus-container"">
                    <img src=""semantic_sequence_notimeline/clothing_semantic/clothing_semantic_6.png"" class=""exp-image"">
                    <div class=""question-area""></div> 
                </div>","null","","","","","","","","","","","",""
"","","","","","html-button-response","70","217033","0.0-70.0","2683F5C251AC4287B3C32C538820D30C","019d6b31-8ca5-7824-b952-4093423d7354","019d6ae6-5d89-74c6-b581-3918d1816346","","557","
                <div class=""stimulus-container"">
                    <img src=""semantic_sequence_notimeline/clothing_semantic/clothing_semantic_6.png"" class=""exp-image"">
                    <div class=""question-area"">
                        <p style=""font-size: 20px; font-weight: bold; margin: 0;"">Is there a person in this image?</p>
                    </div>
                </div>","1","main_experiment_trial","6","clothing_semantic","semantic_sequence_notimeline","chronological","","","","","","",""
"","","","","","html-keyboard-response","71","222036","0.0-71.0","2683F5C251AC4287B3C32C538820D30C","019d6b31-8ca5-7824-b952-4093423d7354","019d6ae6-5d89-74c6-b581-3918d1816346","","null","
                <div class=""stimulus-container"">
                    <img src=""semantic_sequence_notimeline/clothing_semantic/clothing_semantic_7.png"" class=""exp-image"">
                    <div class=""question-area""></div> 
                </div>","null","","","","","","","","","","","",""
"","","","","","html-button-response","72","222574","0.0-72.0","2683F5C251AC4287B3C32C538820D30C","019d6b31-8ca5-7824-b952-4093423d7354","019d6ae6-5d89-74c6-b581-3918d1816346","","537","
                <div class=""stimulus-container"">
                    <img src=""semantic_sequence_notimeline/clothing_semantic/clothing_semantic_7.png"" class=""exp-image"">
                    <div class=""question-area"">
                        <p style=""font-size: 20px; font-weight: bold; margin: 0;"">Is there a person in this image?</p>
                    </div>
                </div>","1","main_experiment_trial","7","clothing_semantic","semantic_sequence_notimeline","chronological","","","","","","",""
"","","","","","html-keyboard-response","73","227577","0.0-73.0","2683F5C251AC4287B3C32C538820D30C","019d6b31-8ca5-7824-b952-4093423d7354","019d6ae6-5d89-74c6-b581-3918d1816346","","null","
                <div class=""stimulus-container"">
                    <img src=""semantic_sequence_notimeline/clothing_semantic/clothing_semantic_8.png"" class=""exp-image"">
                    <div class=""question-area""></div> 
                </div>","null","","","","","","","","","","","",""
"","","","","","html-button-response","74","228034","0.0-74.0","2683F5C251AC4287B3C32C538820D30C","019d6b31-8ca5-7824-b952-4093423d7354","019d6ae6-5d89-74c6-b581-3918d1816346","","456","
                <div class=""stimulus-container"">
                    <img src=""semantic_sequence_notimeline/clothing_semantic/clothing_semantic_8.png"" class=""exp-image"">
                    <div class=""question-area"">
                        <p style=""font-size: 20px; font-weight: bold; margin: 0;"">Is there a person in this image?</p>
                    </div>
                </div>","1","main_experiment_trial","8","clothing_semantic","semantic_sequence_notimeline","chronological","","","","","","",""
"","","","","","html-keyboard-response","75","233047","0.0-75.0","2683F5C251AC4287B3C32C538820D30C","019d6b31-8ca5-7824-b952-4093423d7354","019d6ae6-5d89-74c6-b581-3918d1816346","","null","
                <div class=""stimulus-container"">
                    <img src=""semantic_sequence_notimeline/clothing_semantic/clothing_semantic_9.png"" class=""exp-image"">
                    <div class=""question-area""></div> 
                </div>","null","","","","","","","","","","","",""
"","","","","","html-button-response","76","233674","0.0-76.0","2683F5C251AC4287B3C32C538820D30C","019d6b31-8ca5-7824-b952-4093423d7354","019d6ae6-5d89-74c6-b581-3918d1816346","","626","
                <div class=""stimulus-container"">
                    <img src=""semantic_sequence_notimeline/clothing_semantic/clothing_semantic_9.png"" class=""exp-image"">
                    <div class=""question-area"">
                        <p style=""font-size: 20px; font-weight: bold; margin: 0;"">Is there a person in this image?</p>
                    </div>
                </div>","1","main_experiment_trial","9","clothing_semantic","semantic_sequence_notimeline","chronological","","","","","","",""
"","","","","","html-keyboard-response","77","238676","0.0-77.0","2683F5C251AC4287B3C32C538820D30C","019d6b31-8ca5-7824-b952-4093423d7354","019d6ae6-5d89-74c6-b581-3918d1816346","","null","
                <div class=""stimulus-container"">
                    <img src=""semantic_sequence_notimeline/clothing_semantic/clothing_semantic_ten.png"" class=""exp-image"">
                    <div class=""question-area""></div> 
                </div>","null","","","","","","","","","","","",""
"","","","","","html-button-response","78","239150","0.0-78.0","2683F5C251AC4287B3C32C538820D30C","019d6b31-8ca5-7824-b952-4093423d7354","019d6ae6-5d89-74c6-b581-3918d1816346","","473","
                <div class=""stimulus-container"">
                    <img src=""semantic_sequence_notimeline/clothing_semantic/clothing_semantic_ten.png"" class=""exp-image"">
                    <div class=""question-area"">
                        <p style=""font-size: 20px; font-weight: bold; margin: 0;"">Is there a person in this image?</p>
                    </div>
                </div>","1","main_experiment_trial","ten","clothing_semantic","semantic_sequence_notimeline","chronological","","","","","","",""
"","","","","","html-keyboard-response","79","244163","0.0-79.0","2683F5C251AC4287B3C32C538820D30C","019d6b31-8ca5-7824-b952-4093423d7354","019d6ae6-5d89-74c6-b581-3918d1816346","","null","<div style=""background-color: white; width: 100vw; height: 100vh;""></div>","null","","","","","","","","","","","",""
"","","","","","html-keyboard-response","80","249179","0.0-80.0","2683F5C251AC4287B3C32C538820D30C","019d6b31-8ca5-7824-b952-4093423d7354","019d6ae6-5d89-74c6-b581-3918d1816346","","null","
                <div class=""stimulus-container"">
                    <img src=""semantic_sequence_notimeline/transportation_semantic/transportation_semantic_1.png"" class=""exp-image"">
                    <div class=""question-area""></div> 
                </div>","null","","","","","","","","","","","",""
"","","","","","html-button-response","81","250321","0.0-81.0","2683F5C251AC4287B3C32C538820D30C","019d6b31-8ca5-7824-b952-4093423d7354","019d6ae6-5d89-74c6-b581-3918d1816346","","1141","
                <div class=""stimulus-container"">
                    <img src=""semantic_sequence_notimeline/transportation_semantic/transportation_semantic_1.png"" class=""exp-image"">
                    <div class=""question-area"">
                        <p style=""font-size: 20px; font-weight: bold; margin: 0;"">Is there a person in this image?</p>
                    </div>
                </div>","1","main_experiment_trial","1","transportation_semantic","semantic_sequence_notimeline","chronological","","","","","","",""
"","","","","","html-keyboard-response","82","255325","0.0-82.0","2683F5C251AC4287B3C32C538820D30C","019d6b31-8ca5-7824-b952-4093423d7354","019d6ae6-5d89-74c6-b581-3918d1816346","","null","
                <div class=""stimulus-container"">
                    <img src=""semantic_sequence_notimeline/transportation_semantic/transportation_semantic_2.png"" class=""exp-image"">
                    <div class=""question-area""></div> 
                </div>","null","","","","","","","","","","","",""
"","","","","","html-button-response","83","255786","0.0-83.0","2683F5C251AC4287B3C32C538820D30C","019d6b31-8ca5-7824-b952-4093423d7354","019d6ae6-5d89-74c6-b581-3918d1816346","","460","
                <div class=""stimulus-container"">
                    <img src=""semantic_sequence_notimeline/transportation_semantic/transportation_semantic_2.png"" class=""exp-image"">
                    <div class=""question-area"">
                        <p style=""font-size: 20px; font-weight: bold; margin: 0;"">Is there a person in this image?</p>
                    </div>
                </div>","1","main_experiment_trial","2","transportation_semantic","semantic_sequence_notimeline","chronological","","","","","","",""
"","","","","","html-keyboard-response","84","260798","0.0-84.0","2683F5C251AC4287B3C32C538820D30C","019d6b31-8ca5-7824-b952-4093423d7354","019d6ae6-5d89-74c6-b581-3918d1816346","","null","
                <div class=""stimulus-container"">
                    <img src=""semantic_sequence_notimeline/transportation_semantic/transportation_semantic_3.png"" class=""exp-image"">
                    <div class=""question-area""></div> 
                </div>","null","","","","","","","","","","","",""
"","","","","","html-button-response","85","261353","0.0-85.0","2683F5C251AC4287B3C32C538820D30C","019d6b31-8ca5-7824-b952-4093423d7354","019d6ae6-5d89-74c6-b581-3918d1816346","","554","
                <div class=""stimulus-container"">
                    <img src=""semantic_sequence_notimeline/transportation_semantic/transportation_semantic_3.png"" class=""exp-image"">
                    <div class=""question-area"">
                        <p style=""font-size: 20px; font-weight: bold; margin: 0;"">Is there a person in this image?</p>
                    </div>
                </div>","1","main_experiment_trial","3","transportation_semantic","semantic_sequence_notimeline","chronological","","","","","","",""
"","","","","","html-keyboard-response","86","266368","0.0-86.0","2683F5C251AC4287B3C32C538820D30C","019d6b31-8ca5-7824-b952-4093423d7354","019d6ae6-5d89-74c6-b581-3918d1816346","","null","
                <div class=""stimulus-container"">
                    <img src=""semantic_sequence_notimeline/transportation_semantic/transportation_semantic_4.png"" class=""exp-image"">
                    <div class=""question-area""></div> 
                </div>","null","","","","","","","","","","","",""
"","","","","","html-button-response","87","266703","0.0-87.0","2683F5C251AC4287B3C32C538820D30C","019d6b31-8ca5-7824-b952-4093423d7354","019d6ae6-5d89-74c6-b581-3918d1816346","","334","
                <div class=""stimulus-container"">
                    <img src=""semantic_sequence_notimeline/transportation_semantic/transportation_semantic_4.png"" class=""exp-image"">
                    <div class=""question-area"">
                        <p style=""font-size: 20px; font-weight: bold; margin: 0;"">Is there a person in this image?</p>
                    </div>
                </div>","1","main_experiment_trial","4","transportation_semantic","semantic_sequence_notimeline","chronological","","","","","","",""
"","","","","","html-keyboard-response","88","271717","0.0-88.0","2683F5C251AC4287B3C32C538820D30C","019d6b31-8ca5-7824-b952-4093423d7354","019d6ae6-5d89-74c6-b581-3918d1816346","","null","
                <div class=""stimulus-container"">
                    <img src=""semantic_sequence_notimeline/transportation_semantic/transportation_semantic_5.png"" class=""exp-image"">
                    <div class=""question-area""></div> 
                </div>","null","","","","","","","","","","","",""
"","","","","","html-button-response","89","272102","0.0-89.0","2683F5C251AC4287B3C32C538820D30C","019d6b31-8ca5-7824-b952-4093423d7354","019d6ae6-5d89-74c6-b581-3918d1816346","","384","
                <div class=""stimulus-container"">
                    <img src=""semantic_sequence_notimeline/transportation_semantic/transportation_semantic_5.png"" class=""exp-image"">
                    <div class=""question-area"">
                        <p style=""font-size: 20px; font-weight: bold; margin: 0;"">Is there a person in this image?</p>
                    </div>
                </div>","1","main_experiment_trial","5","transportation_semantic","semantic_sequence_notimeline","chronological","","","","","","",""
"","","","","","html-keyboard-response","90","277104","0.0-90.0","2683F5C251AC4287B3C32C538820D30C","019d6b31-8ca5-7824-b952-4093423d7354","019d6ae6-5d89-74c6-b581-3918d1816346","","null","
                <div class=""stimulus-container"">
                    <img src=""semantic_sequence_notimeline/transportation_semantic/transportation_semantic_6.png"" class=""exp-image"">
                    <div class=""question-area""></div> 
                </div>","null","","","","","","","","","","","",""
"","","","","","html-button-response","91","277654","0.0-91.0","2683F5C251AC4287B3C32C538820D30C","019d6b31-8ca5-7824-b952-4093423d7354","019d6ae6-5d89-74c6-b581-3918d1816346","","550","
                <div class=""stimulus-container"">
                    <img src=""semantic_sequence_notimeline/transportation_semantic/transportation_semantic_6.png"" class=""exp-image"">
                    <div class=""question-area"">
                        <p style=""font-size: 20px; font-weight: bold; margin: 0;"">Is there a person in this image?</p>
                    </div>
                </div>","0","main_experiment_trial","6","transportation_semantic","semantic_sequence_notimeline","chronological","","","","","","",""
"","","","","","html-keyboard-response","92","282668","0.0-92.0","2683F5C251AC4287B3C32C538820D30C","019d6b31-8ca5-7824-b952-4093423d7354","019d6ae6-5d89-74c6-b581-3918d1816346","","null","
                <div class=""stimulus-container"">
                    <img src=""semantic_sequence_notimeline/transportation_semantic/transportation_semantic_7.png"" class=""exp-image"">
                    <div class=""question-area""></div> 
                </div>","null","","","","","","","","","","","",""
"","","","","","html-button-response","93","283197","0.0-93.0","2683F5C251AC4287B3C32C538820D30C","019d6b31-8ca5-7824-b952-4093423d7354","019d6ae6-5d89-74c6-b581-3918d1816346","","528","
                <div class=""stimulus-container"">
                    <img src=""semantic_sequence_notimeline/transportation_semantic/transportation_semantic_7.png"" class=""exp-image"">
                    <div class=""question-area"">
                        <p style=""font-size: 20px; font-weight: bold; margin: 0;"">Is there a person in this image?</p>
                    </div>
                </div>","1","main_experiment_trial","7","transportation_semantic","semantic_sequence_notimeline","chronological","","","","","","",""
"","","","","","html-keyboard-response","94","288209","0.0-94.0","2683F5C251AC4287B3C32C538820D30C","019d6b31-8ca5-7824-b952-4093423d7354","019d6ae6-5d89-74c6-b581-3918d1816346","","null","
                <div class=""stimulus-container"">
                    <img src=""semantic_sequence_notimeline/transportation_semantic/transportation_semantic_8.png"" class=""exp-image"">
                    <div class=""question-area""></div> 
                </div>","null","","","","","","","","","","","",""
"","","","","","html-button-response","95","288744","0.0-95.0","2683F5C251AC4287B3C32C538820D30C","019d6b31-8ca5-7824-b952-4093423d7354","019d6ae6-5d89-74c6-b581-3918d1816346","","533","
                <div class=""stimulus-container"">
                    <img src=""semantic_sequence_notimeline/transportation_semantic/transportation_semantic_8.png"" class=""exp-image"">
                    <div class=""question-area"">
                        <p style=""font-size: 20px; font-weight: bold; margin: 0;"">Is there a person in this image?</p>
                    </div>
                </div>","1","main_experiment_trial","8","transportation_semantic","semantic_sequence_notimeline","chronological","","","","","","",""
"","","","","","html-keyboard-response","96","293746","0.0-96.0","2683F5C251AC4287B3C32C538820D30C","019d6b31-8ca5-7824-b952-4093423d7354","019d6ae6-5d89-74c6-b581-3918d1816346","","null","
                <div class=""stimulus-container"">
                    <img src=""semantic_sequence_notimeline/transportation_semantic/transportation_semantic_9.png"" class=""exp-image"">
                    <div class=""question-area""></div> 
                </div>","null","","","","","","","","","","","",""
"","","","","","html-button-response","97","294123","0.0-97.0","2683F5C251AC4287B3C32C538820D30C","019d6b31-8ca5-7824-b952-4093423d7354","019d6ae6-5d89-74c6-b581-3918d1816346","","376","
                <div class=""stimulus-container"">
                    <img src=""semantic_sequence_notimeline/transportation_semantic/transportation_semantic_9.png"" class=""exp-image"">
                    <div class=""question-area"">
                        <p style=""font-size: 20px; font-weight: bold; margin: 0;"">Is there a person in this image?</p>
                    </div>
                </div>","1","main_experiment_trial","9","transportation_semantic","semantic_sequence_notimeline","chronological","","","","","","",""
"","","","","","html-keyboard-response","98","299135","0.0-98.0","2683F5C251AC4287B3C32C538820D30C","019d6b31-8ca5-7824-b952-4093423d7354","019d6ae6-5d89-74c6-b581-3918d1816346","","null","
                <div class=""stimulus-container"">
                    <img src=""semantic_sequence_notimeline/transportation_semantic/transportation_semantic_ten.png"" class=""exp-image"">
                    <div class=""question-area""></div> 
                </div>","null","","","","","","","","","","","",""
"","","","","","html-button-response","99","299873","0.0-99.0","2683F5C251AC4287B3C32C538820D30C","019d6b31-8ca5-7824-b952-4093423d7354","019d6ae6-5d89-74c6-b581-3918d1816346","","737","
                <div class=""stimulus-container"">
                    <img src=""semantic_sequence_notimeline/transportation_semantic/transportation_semantic_ten.png"" class=""exp-image"">
                    <div class=""question-area"">
                        <p style=""font-size: 20px; font-weight: bold; margin: 0;"">Is there a person in this image?</p>
                    </div>
                </div>","1","main_experiment_trial","ten","transportation_semantic","semantic_sequence_notimeline","chronological","","","","","","",""
"","","","","","html-keyboard-response","100","304883","0.0-100.0","2683F5C251AC4287B3C32C538820D30C","019d6b31-8ca5-7824-b952-4093423d7354","019d6ae6-5d89-74c6-b581-3918d1816346","","null","<div style=""background-color: white; width: 100vw; height: 100vh;""></div>","null","","","","","","","","","","","",""
"","","","","","html-keyboard-response","101","309884","0.0-101.0","2683F5C251AC4287B3C32C538820D30C","019d6b31-8ca5-7824-b952-4093423d7354","019d6ae6-5d89-74c6-b581-3918d1816346","","null","
                <div class=""stimulus-container"">
                    <img src=""images/causal_sequence/museum_causal/museum_causal_1.png"" class=""exp-image"">
                    <div class=""question-area""></div> 
                </div>","null","","","","","","","","","","","",""
"","","","","","html-button-response","102","310872","0.0-102.0","2683F5C251AC4287B3C32C538820D30C","019d6b31-8ca5-7824-b952-4093423d7354","019d6ae6-5d89-74c6-b581-3918d1816346","","987","
                <div class=""stimulus-container"">
                    <img src=""images/causal_sequence/museum_causal/museum_causal_1.png"" class=""exp-image"">
                    <div class=""question-area"">
                        <p style=""font-size: 20px; font-weight: bold; margin: 0;"">Is there a person in this image?</p>
                    </div>
                </div>","0","main_experiment_trial","1","museum_causal","causal_sequence","chronological","","","","","","",""
"","","","","","html-keyboard-response","103","315878","0.0-103.0","2683F5C251AC4287B3C32C538820D30C","019d6b31-8ca5-7824-b952-4093423d7354","019d6ae6-5d89-74c6-b581-3918d1816346","","null","
                <div class=""stimulus-container"">
                    <img src=""images/causal_sequence/museum_causal/museum_causal_2.png"" class=""exp-image"">
                    <div class=""question-area""></div> 
                </div>","null","","","","","","","","","","","",""
"","","","","","html-button-response","104","316645","0.0-104.0","2683F5C251AC4287B3C32C538820D30C","019d6b31-8ca5-7824-b952-4093423d7354","019d6ae6-5d89-74c6-b581-3918d1816346","","766","
                <div class=""stimulus-container"">
                    <img src=""images/causal_sequence/museum_causal/museum_causal_2.png"" class=""exp-image"">
                    <div class=""question-area"">
                        <p style=""font-size: 20px; font-weight: bold; margin: 0;"">Is there a person in this image?</p>
                    </div>
                </div>","0","main_experiment_trial","2","museum_causal","causal_sequence","chronological","","","","","","",""
"","","","","","html-keyboard-response","105","321662","0.0-105.0","2683F5C251AC4287B3C32C538820D30C","019d6b31-8ca5-7824-b952-4093423d7354","019d6ae6-5d89-74c6-b581-3918d1816346","","null","
                <div class=""stimulus-container"">
                    <img src=""images/causal_sequence/museum_causal/museum_causal_3.png"" class=""exp-image"">
                    <div class=""question-area""></div> 
                </div>","null","","","","","","","","","","","",""
"","","","","","html-button-response","106","322398","0.0-106.0","2683F5C251AC4287B3C32C538820D30C","019d6b31-8ca5-7824-b952-4093423d7354","019d6ae6-5d89-74c6-b581-3918d1816346","","735","
                <div class=""stimulus-container"">
                    <img src=""images/causal_sequence/museum_causal/museum_causal_3.png"" class=""exp-image"">
                    <div class=""question-area"">
                        <p style=""font-size: 20px; font-weight: bold; margin: 0;"">Is there a person in this image?</p>
                    </div>
                </div>","0","main_experiment_trial","3","museum_causal","causal_sequence","chronological","","","","","","",""
"","","","","","html-keyboard-response","107","327410","0.0-107.0","2683F5C251AC4287B3C32C538820D30C","019d6b31-8ca5-7824-b952-4093423d7354","019d6ae6-5d89-74c6-b581-3918d1816346","","null","
                <div class=""stimulus-container"">
                    <img src=""images/causal_sequence/museum_causal/museum_causal_4.png"" class=""exp-image"">
                    <div class=""question-area""></div> 
                </div>","null","","","","","","","","","","","",""
"","","","","","html-button-response","108","328089","0.0-108.0","2683F5C251AC4287B3C32C538820D30C","019d6b31-8ca5-7824-b952-4093423d7354","019d6ae6-5d89-74c6-b581-3918d1816346","","678","
                <div class=""stimulus-container"">
                    <img src=""images/causal_sequence/museum_causal/museum_causal_4.png"" class=""exp-image"">
                    <div class=""question-area"">
                        <p style=""font-size: 20px; font-weight: bold; margin: 0;"">Is there a person in this image?</p>
                    </div>
                </div>","1","main_experiment_trial","4","museum_causal","causal_sequence","chronological","","","","","","",""
"","","","","","html-keyboard-response","109","333102","0.0-109.0","2683F5C251AC4287B3C32C538820D30C","019d6b31-8ca5-7824-b952-4093423d7354","019d6ae6-5d89-74c6-b581-3918d1816346","","null","
                <div class=""stimulus-container"">
                    <img src=""images/causal_sequence/museum_causal/museum_causal_5.png"" class=""exp-image"">
                    <div class=""question-area""></div> 
                </div>","null","","","","","","","","","","","",""
"","","","","","html-button-response","110","333835","0.0-110.0","2683F5C251AC4287B3C32C538820D30C","019d6b31-8ca5-7824-b952-4093423d7354","019d6ae6-5d89-74c6-b581-3918d1816346","","732","
                <div class=""stimulus-container"">
                    <img src=""images/causal_sequence/museum_causal/museum_causal_5.png"" class=""exp-image"">
                    <div class=""question-area"">
                        <p style=""font-size: 20px; font-weight: bold; margin: 0;"">Is there a person in this image?</p>
                    </div>
                </div>","0","main_experiment_trial","5","museum_causal","causal_sequence","chronological","","","","","","",""
"","","","","","html-keyboard-response","111","338842","0.0-111.0","2683F5C251AC4287B3C32C538820D30C","019d6b31-8ca5-7824-b952-4093423d7354","019d6ae6-5d89-74c6-b581-3918d1816346","","null","
                <div class=""stimulus-container"">
                    <img src=""images/causal_sequence/museum_causal/museum_causal_6.png"" class=""exp-image"">
                    <div class=""question-area""></div> 
                </div>","null","","","","","","","","","","","",""
"","","","","","html-button-response","112","339412","0.0-112.0","2683F5C251AC4287B3C32C538820D30C","019d6b31-8ca5-7824-b952-4093423d7354","019d6ae6-5d89-74c6-b581-3918d1816346","","569","
                <div class=""stimulus-container"">
                    <img src=""images/causal_sequence/museum_causal/museum_causal_6.png"" class=""exp-image"">
                    <div class=""question-area"">
                        <p style=""font-size: 20px; font-weight: bold; margin: 0;"">Is there a person in this image?</p>
                    </div>
                </div>","0","main_experiment_trial","6","museum_causal","causal_sequence","chronological","","","","","","",""
"","","","","","html-keyboard-response","113","344417","0.0-113.0","2683F5C251AC4287B3C32C538820D30C","019d6b31-8ca5-7824-b952-4093423d7354","019d6ae6-5d89-74c6-b581-3918d1816346","","null","
                <div class=""stimulus-container"">
                    <img src=""images/causal_sequence/museum_causal/museum_causal_7.png"" class=""exp-image"">
                    <div class=""question-area""></div> 
                </div>","null","","","","","","","","","","","",""
"","","","","","html-button-response","114","344885","0.0-114.0","2683F5C251AC4287B3C32C538820D30C","019d6b31-8ca5-7824-b952-4093423d7354","019d6ae6-5d89-74c6-b581-3918d1816346","","466","
                <div class=""stimulus-container"">
                    <img src=""images/causal_sequence/museum_causal/museum_causal_7.png"" class=""exp-image"">
                    <div class=""question-area"">
                        <p style=""font-size: 20px; font-weight: bold; margin: 0;"">Is there a person in this image?</p>
                    </div>
                </div>","1","main_experiment_trial","7","museum_causal","causal_sequence","chronological","","","","","","",""
"","","","","","html-keyboard-response","115","349902","0.0-115.0","2683F5C251AC4287B3C32C538820D30C","019d6b31-8ca5-7824-b952-4093423d7354","019d6ae6-5d89-74c6-b581-3918d1816346","","null","
                <div class=""stimulus-container"">
                    <img src=""images/causal_sequence/museum_causal/museum_causal_8.png"" class=""exp-image"">
                    <div class=""question-area""></div> 
                </div>","null","","","","","","","","","","","",""
"","","","","","html-button-response","116","350672","0.0-116.0","2683F5C251AC4287B3C32C538820D30C","019d6b31-8ca5-7824-b952-4093423d7354","019d6ae6-5d89-74c6-b581-3918d1816346","","769","
                <div class=""stimulus-container"">
                    <img src=""images/causal_sequence/museum_causal/museum_causal_8.png"" class=""exp-image"">
                    <div class=""question-area"">
                        <p style=""font-size: 20px; font-weight: bold; margin: 0;"">Is there a person in this image?</p>
                    </div>
                </div>","0","main_experiment_trial","8","museum_causal","causal_sequence","chronological","","","","","","",""
"","","","","","html-keyboard-response","117","355676","0.0-117.0","2683F5C251AC4287B3C32C538820D30C","019d6b31-8ca5-7824-b952-4093423d7354","019d6ae6-5d89-74c6-b581-3918d1816346","","null","
                <div class=""stimulus-container"">
                    <img src=""images/causal_sequence/museum_causal/museum_causal_9.png"" class=""exp-image"">
                    <div class=""question-area""></div> 
                </div>","null","","","","","","","","","","","",""
"","","","","","html-button-response","118","356245","0.0-118.0","2683F5C251AC4287B3C32C538820D30C","019d6b31-8ca5-7824-b952-4093423d7354","019d6ae6-5d89-74c6-b581-3918d1816346","","569","
                <div class=""stimulus-container"">
                    <img src=""images/causal_sequence/museum_causal/museum_causal_9.png"" class=""exp-image"">
                    <div class=""question-area"">
                        <p style=""font-size: 20px; font-weight: bold; margin: 0;"">Is there a person in this image?</p>
                    </div>
                </div>","1","main_experiment_trial","9","museum_causal","causal_sequence","chronological","","","","","","",""
"","","","","","html-keyboard-response","119","361251","0.0-119.0","2683F5C251AC4287B3C32C538820D30C","019d6b31-8ca5-7824-b952-4093423d7354","019d6ae6-5d89-74c6-b581-3918d1816346","","null","
                <div class=""stimulus-container"">
                    <img src=""images/causal_sequence/museum_causal/museum_causal_ten.png"" class=""exp-image"">
                    <div class=""question-area""></div> 
                </div>","null","","","","","","","","","","","",""
"","","","","","html-button-response","120","361966","0.0-120.0","2683F5C251AC4287B3C32C538820D30C","019d6b31-8ca5-7824-b952-4093423d7354","019d6ae6-5d89-74c6-b581-3918d1816346","","715","
                <div class=""stimulus-container"">
                    <img src=""images/causal_sequence/museum_causal/museum_causal_ten.png"" class=""exp-image"">
                    <div class=""question-area"">
                        <p style=""font-size: 20px; font-weight: bold; margin: 0;"">Is there a person in this image?</p>
                    </div>
                </div>","0","main_experiment_trial","ten","museum_causal","causal_sequence","chronological","","","","","","",""
"","","","","","html-keyboard-response","121","366980","0.0-121.0","2683F5C251AC4287B3C32C538820D30C","019d6b31-8ca5-7824-b952-4093423d7354","019d6ae6-5d89-74c6-b581-3918d1816346","","null","<div style=""background-color: white; width: 100vw; height: 100vh;""></div>","null","","","","","","","","","","","",""
"","","","","","html-keyboard-response","122","371984","0.0-122.0","2683F5C251AC4287B3C32C538820D30C","019d6b31-8ca5-7824-b952-4093423d7354","019d6ae6-5d89-74c6-b581-3918d1816346","","null","
                <div class=""stimulus-container"">
                    <img src=""images/causal_sequence/saving_a_cat_causal/saving_a_cat_causal_1.png"" class=""exp-image"">
                    <div class=""question-area""></div> 
                </div>","null","","","","","","","","","","","",""
"","","","","","html-button-response","123","372647","0.0-123.0","2683F5C251AC4287B3C32C538820D30C","019d6b31-8ca5-7824-b952-4093423d7354","019d6ae6-5d89-74c6-b581-3918d1816346","","663","
                <div class=""stimulus-container"">
                    <img src=""images/causal_sequence/saving_a_cat_causal/saving_a_cat_causal_1.png"" class=""exp-image"">
                    <div class=""question-area"">
                        <p style=""font-size: 20px; font-weight: bold; margin: 0;"">Is there a person in this image?</p>
                    </div>
                </div>","0","main_experiment_trial","1","saving_a_cat_causal","causal_sequence","chronological","","","","","","",""
"","","","","","html-keyboard-response","124","377660","0.0-124.0","2683F5C251AC4287B3C32C538820D30C","019d6b31-8ca5-7824-b952-4093423d7354","019d6ae6-5d89-74c6-b581-3918d1816346","","null","
                <div class=""stimulus-container"">
                    <img src=""images/causal_sequence/saving_a_cat_causal/saving_a_cat_causal_2.png"" class=""exp-image"">
                    <div class=""question-area""></div> 
                </div>","null","","","","","","","","","","","",""
"","","","","","html-button-response","125","378167","0.0-125.0","2683F5C251AC4287B3C32C538820D30C","019d6b31-8ca5-7824-b952-4093423d7354","019d6ae6-5d89-74c6-b581-3918d1816346","","506","
                <div class=""stimulus-container"">
                    <img src=""images/causal_sequence/saving_a_cat_causal/saving_a_cat_causal_2.png"" class=""exp-image"">
                    <div class=""question-area"">
                        <p style=""font-size: 20px; font-weight: bold; margin: 0;"">Is there a person in this image?</p>
                    </div>
                </div>","1","main_experiment_trial","2","saving_a_cat_causal","causal_sequence","chronological","","","","","","",""
"","","","","","html-keyboard-response","126","383170","0.0-126.0","2683F5C251AC4287B3C32C538820D30C","019d6b31-8ca5-7824-b952-4093423d7354","019d6ae6-5d89-74c6-b581-3918d1816346","","null","
                <div class=""stimulus-container"">
                    <img src=""images/causal_sequence/saving_a_cat_causal/saving_a_cat_causal_3.png"" class=""exp-image"">
                    <div class=""question-area""></div> 
                </div>","null","","","","","","","","","","","",""
"","","","","","html-button-response","127","383731","0.0-127.0","2683F5C251AC4287B3C32C538820D30C","019d6b31-8ca5-7824-b952-4093423d7354","019d6ae6-5d89-74c6-b581-3918d1816346","","561","
                <div class=""stimulus-container"">
                    <img src=""images/causal_sequence/saving_a_cat_causal/saving_a_cat_causal_3.png"" class=""exp-image"">
                    <div class=""question-area"">
                        <p style=""font-size: 20px; font-weight: bold; margin: 0;"">Is there a person in this image?</p>
                    </div>
                </div>","1","main_experiment_trial","3","saving_a_cat_causal","causal_sequence","chronological","","","","","","",""
"","","","","","html-keyboard-response","128","388737","0.0-128.0","2683F5C251AC4287B3C32C538820D30C","019d6b31-8ca5-7824-b952-4093423d7354","019d6ae6-5d89-74c6-b581-3918d1816346","","null","
                <div class=""stimulus-container"">
                    <img src=""images/causal_sequence/saving_a_cat_causal/saving_a_cat_causal_4.png"" class=""exp-image"">
                    <div class=""question-area""></div> 
                </div>","null","","","","","","","","","","","",""
"","","","","","html-button-response","129","389191","0.0-129.0","2683F5C251AC4287B3C32C538820D30C","019d6b31-8ca5-7824-b952-4093423d7354","019d6ae6-5d89-74c6-b581-3918d1816346","","453","
                <div class=""stimulus-container"">
                    <img src=""images/causal_sequence/saving_a_cat_causal/saving_a_cat_causal_4.png"" class=""exp-image"">
                    <div class=""question-area"">
                        <p style=""font-size: 20px; font-weight: bold; margin: 0;"">Is there a person in this image?</p>
                    </div>
                </div>","0","main_experiment_trial","4","saving_a_cat_causal","causal_sequence","chronological","","","","","","",""
"","","","","","html-keyboard-response","130","394200","0.0-130.0","2683F5C251AC4287B3C32C538820D30C","019d6b31-8ca5-7824-b952-4093423d7354","019d6ae6-5d89-74c6-b581-3918d1816346","","null","
                <div class=""stimulus-container"">
                    <img src=""images/causal_sequence/saving_a_cat_causal/saving_a_cat_causal_5.png"" class=""exp-image"">
                    <div class=""question-area""></div> 
                </div>","null","","","","","","","","","","","",""
"","","","","","html-button-response","131","394750","0.0-131.0","2683F5C251AC4287B3C32C538820D30C","019d6b31-8ca5-7824-b952-4093423d7354","019d6ae6-5d89-74c6-b581-3918d1816346","","548","
                <div class=""stimulus-container"">
                    <img src=""images/causal_sequence/saving_a_cat_causal/saving_a_cat_causal_5.png"" class=""exp-image"">
                    <div class=""question-area"">
                        <p style=""font-size: 20px; font-weight: bold; margin: 0;"">Is there a person in this image?</p>
                    </div>
                </div>","0","main_experiment_trial","5","saving_a_cat_causal","causal_sequence","chronological","","","","","","",""
"","","","","","html-keyboard-response","132","399750","0.0-132.0","2683F5C251AC4287B3C32C538820D30C","019d6b31-8ca5-7824-b952-4093423d7354","019d6ae6-5d89-74c6-b581-3918d1816346","","null","
                <div class=""stimulus-container"">
                    <img src=""images/causal_sequence/saving_a_cat_causal/saving_a_cat_causal_6.png"" class=""exp-image"">
                    <div class=""question-area""></div> 
                </div>","null","","","","","","","","","","","",""
"","","","","","html-button-response","133","400423","0.0-133.0","2683F5C251AC4287B3C32C538820D30C","019d6b31-8ca5-7824-b952-4093423d7354","019d6ae6-5d89-74c6-b581-3918d1816346","","673","
                <div class=""stimulus-container"">
                    <img src=""images/causal_sequence/saving_a_cat_causal/saving_a_cat_causal_6.png"" class=""exp-image"">
                    <div class=""question-area"">
                        <p style=""font-size: 20px; font-weight: bold; margin: 0;"">Is there a person in this image?</p>
                    </div>
                </div>","0","main_experiment_trial","6","saving_a_cat_causal","causal_sequence","chronological","","","","","","",""
"","","","","","html-keyboard-response","134","405431","0.0-134.0","2683F5C251AC4287B3C32C538820D30C","019d6b31-8ca5-7824-b952-4093423d7354","019d6ae6-5d89-74c6-b581-3918d1816346","","null","
                <div class=""stimulus-container"">
                    <img src=""images/causal_sequence/saving_a_cat_causal/saving_a_cat_causal_7.png"" class=""exp-image"">
                    <div class=""question-area""></div> 
                </div>","null","","","","","","","","","","","",""
"","","","","","html-button-response","135","405948","0.0-135.0","2683F5C251AC4287B3C32C538820D30C","019d6b31-8ca5-7824-b952-4093423d7354","019d6ae6-5d89-74c6-b581-3918d1816346","","515","
                <div class=""stimulus-container"">
                    <img src=""images/causal_sequence/saving_a_cat_causal/saving_a_cat_causal_7.png"" class=""exp-image"">
                    <div class=""question-area"">
                        <p style=""font-size: 20px; font-weight: bold; margin: 0;"">Is there a person in this image?</p>
                    </div>
                </div>","0","main_experiment_trial","7","saving_a_cat_causal","causal_sequence","chronological","","","","","","",""
"","","","","","html-keyboard-response","136","410958","0.0-136.0","2683F5C251AC4287B3C32C538820D30C","019d6b31-8ca5-7824-b952-4093423d7354","019d6ae6-5d89-74c6-b581-3918d1816346","","null","
                <div class=""stimulus-container"">
                    <img src=""images/causal_sequence/saving_a_cat_causal/saving_a_cat_causal_8.png"" class=""exp-image"">
                    <div class=""question-area""></div> 
                </div>","null","","","","","","","","","","","",""
"","","","","","html-button-response","137","411619","0.0-137.0","2683F5C251AC4287B3C32C538820D30C","019d6b31-8ca5-7824-b952-4093423d7354","019d6ae6-5d89-74c6-b581-3918d1816346","","661","
                <div class=""stimulus-container"">
                    <img src=""images/causal_sequence/saving_a_cat_causal/saving_a_cat_causal_8.png"" class=""exp-image"">
                    <div class=""question-area"">
                        <p style=""font-size: 20px; font-weight: bold; margin: 0;"">Is there a person in this image?</p>
                    </div>
                </div>","0","main_experiment_trial","8","saving_a_cat_causal","causal_sequence","chronological","","","","","","",""
"","","","","","html-keyboard-response","138","416630","0.0-138.0","2683F5C251AC4287B3C32C538820D30C","019d6b31-8ca5-7824-b952-4093423d7354","019d6ae6-5d89-74c6-b581-3918d1816346","","null","
                <div class=""stimulus-container"">
                    <img src=""images/causal_sequence/saving_a_cat_causal/saving_a_cat_causal_9.png"" class=""exp-image"">
                    <div class=""question-area""></div> 
                </div>","null","","","","","","","","","","","",""
"","","","","","html-button-response","139","417102","0.0-139.0","2683F5C251AC4287B3C32C538820D30C","019d6b31-8ca5-7824-b952-4093423d7354","019d6ae6-5d89-74c6-b581-3918d1816346","","471","
                <div class=""stimulus-container"">
                    <img src=""images/causal_sequence/saving_a_cat_causal/saving_a_cat_causal_9.png"" class=""exp-image"">
                    <div class=""question-area"">
                        <p style=""font-size: 20px; font-weight: bold; margin: 0;"">Is there a person in this image?</p>
                    </div>
                </div>","0","main_experiment_trial","9","saving_a_cat_causal","causal_sequence","chronological","","","","","","",""
"","","","","","html-keyboard-response","140","422113","0.0-140.0","2683F5C251AC4287B3C32C538820D30C","019d6b31-8ca5-7824-b952-4093423d7354","019d6ae6-5d89-74c6-b581-3918d1816346","","null","
                <div class=""stimulus-container"">
                    <img src=""images/causal_sequence/saving_a_cat_causal/saving_a_cat_causal_ten.png"" class=""exp-image"">
                    <div class=""question-area""></div> 
                </div>","null","","","","","","","","","","","",""
"","","","","","html-button-response","141","422637","0.0-141.0","2683F5C251AC4287B3C32C538820D30C","019d6b31-8ca5-7824-b952-4093423d7354","019d6ae6-5d89-74c6-b581-3918d1816346","","523","
                <div class=""stimulus-container"">
                    <img src=""images/causal_sequence/saving_a_cat_causal/saving_a_cat_causal_ten.png"" class=""exp-image"">
                    <div class=""question-area"">
                        <p style=""font-size: 20px; font-weight: bold; margin: 0;"">Is there a person in this image?</p>
                    </div>
                </div>","0","main_experiment_trial","ten","saving_a_cat_causal","causal_sequence","chronological","","","","","","",""
"","","","","","html-keyboard-response","142","427640","0.0-142.0","2683F5C251AC4287B3C32C538820D30C","019d6b31-8ca5-7824-b952-4093423d7354","019d6ae6-5d89-74c6-b581-3918d1816346","","null","<div style=""background-color: white; width: 100vw; height: 100vh;""></div>","null","","","","","","","","","","","",""
"","","","","","html-keyboard-response","143","432649","0.0-143.0","2683F5C251AC4287B3C32C538820D30C","019d6b31-8ca5-7824-b952-4093423d7354","019d6ae6-5d89-74c6-b581-3918d1816346","","null","
                <div class=""stimulus-container"">
                    <img src=""images/causal_sequence/dog_causal/dog_causal_1.png"" class=""exp-image"">
                    <div class=""question-area""></div> 
                </div>","null","","","","","","","","","","","",""
"","","","","","html-button-response","144","433131","0.0-144.0","2683F5C251AC4287B3C32C538820D30C","019d6b31-8ca5-7824-b952-4093423d7354","019d6ae6-5d89-74c6-b581-3918d1816346","","481","
                <div class=""stimulus-container"">
                    <img src=""images/causal_sequence/dog_causal/dog_causal_1.png"" class=""exp-image"">
                    <div class=""question-area"">
                        <p style=""font-size: 20px; font-weight: bold; margin: 0;"">Is there a person in this image?</p>
                    </div>
                </div>","0","main_experiment_trial","1","dog_causal","causal_sequence","chronological","","","","","","",""
"","","","","","html-keyboard-response","145","438132","0.0-145.0","2683F5C251AC4287B3C32C538820D30C","019d6b31-8ca5-7824-b952-4093423d7354","019d6ae6-5d89-74c6-b581-3918d1816346","","null","
                <div class=""stimulus-container"">
                    <img src=""images/causal_sequence/dog_causal/dog_causal_2.png"" class=""exp-image"">
                    <div class=""question-area""></div> 
                </div>","null","","","","","","","","","","","",""
"","","","","","html-button-response","146","438686","0.0-146.0","2683F5C251AC4287B3C32C538820D30C","019d6b31-8ca5-7824-b952-4093423d7354","019d6ae6-5d89-74c6-b581-3918d1816346","","554","
                <div class=""stimulus-container"">
                    <img src=""images/causal_sequence/dog_causal/dog_causal_2.png"" class=""exp-image"">
                    <div class=""question-area"">
                        <p style=""font-size: 20px; font-weight: bold; margin: 0;"">Is there a person in this image?</p>
                    </div>
                </div>","0","main_experiment_trial","2","dog_causal","causal_sequence","chronological","","","","","","",""
"","","","","","html-keyboard-response","147","443690","0.0-147.0","2683F5C251AC4287B3C32C538820D30C","019d6b31-8ca5-7824-b952-4093423d7354","019d6ae6-5d89-74c6-b581-3918d1816346","","null","
                <div class=""stimulus-container"">
                    <img src=""images/causal_sequence/dog_causal/dog_causal_3.png"" class=""exp-image"">
                    <div class=""question-area""></div> 
                </div>","null","","","","","","","","","","","",""
"","","","","","html-button-response","148","444341","0.0-148.0","2683F5C251AC4287B3C32C538820D30C","019d6b31-8ca5-7824-b952-4093423d7354","019d6ae6-5d89-74c6-b581-3918d1816346","","650","
                <div class=""stimulus-container"">
                    <img src=""images/causal_sequence/dog_causal/dog_causal_3.png"" class=""exp-image"">
                    <div class=""question-area"">
                        <p style=""font-size: 20px; font-weight: bold; margin: 0;"">Is there a person in this image?</p>
                    </div>
                </div>","0","main_experiment_trial","3","dog_causal","causal_sequence","chronological","","","","","","",""
"","","","","","html-keyboard-response","149","449347","0.0-149.0","2683F5C251AC4287B3C32C538820D30C","019d6b31-8ca5-7824-b952-4093423d7354","019d6ae6-5d89-74c6-b581-3918d1816346","","null","
                <div class=""stimulus-container"">
                    <img src=""images/causal_sequence/dog_causal/dog_causal_4.png"" class=""exp-image"">
                    <div class=""question-area""></div> 
                </div>","null","","","","","","","","","","","",""
"","","","","","html-button-response","150","449901","0.0-150.0","2683F5C251AC4287B3C32C538820D30C","019d6b31-8ca5-7824-b952-4093423d7354","019d6ae6-5d89-74c6-b581-3918d1816346","","552","
                <div class=""stimulus-container"">
                    <img src=""images/causal_sequence/dog_causal/dog_causal_4.png"" class=""exp-image"">
                    <div class=""question-area"">
                        <p style=""font-size: 20px; font-weight: bold; margin: 0;"">Is there a person in this image?</p>
                    </div>
                </div>","0","main_experiment_trial","4","dog_causal","causal_sequence","chronological","","","","","","",""
"","","","","","html-keyboard-response","151","454902","0.0-151.0","2683F5C251AC4287B3C32C538820D30C","019d6b31-8ca5-7824-b952-4093423d7354","019d6ae6-5d89-74c6-b581-3918d1816346","","null","
                <div class=""stimulus-container"">
                    <img src=""images/causal_sequence/dog_causal/dog_causal_5.png"" class=""exp-image"">
                    <div class=""question-area""></div> 
                </div>","null","","","","","","","","","","","",""
"","","","","","html-button-response","152","455420","0.0-152.0","2683F5C251AC4287B3C32C538820D30C","019d6b31-8ca5-7824-b952-4093423d7354","019d6ae6-5d89-74c6-b581-3918d1816346","","517","
                <div class=""stimulus-container"">
                    <img src=""images/causal_sequence/dog_causal/dog_causal_5.png"" class=""exp-image"">
                    <div class=""question-area"">
                        <p style=""font-size: 20px; font-weight: bold; margin: 0;"">Is there a person in this image?</p>
                    </div>
                </div>","0","main_experiment_trial","5","dog_causal","causal_sequence","chronological","","","","","","",""
"","","","","","html-keyboard-response","153","460435","0.0-153.0","2683F5C251AC4287B3C32C538820D30C","019d6b31-8ca5-7824-b952-4093423d7354","019d6ae6-5d89-74c6-b581-3918d1816346","","null","
                <div class=""stimulus-container"">
                    <img src=""images/causal_sequence/dog_causal/dog_causal_6.png"" class=""exp-image"">
                    <div class=""question-area""></div> 
                </div>","null","","","","","","","","","","","",""
"","","","","","html-button-response","154","460956","0.0-154.0","2683F5C251AC4287B3C32C538820D30C","019d6b31-8ca5-7824-b952-4093423d7354","019d6ae6-5d89-74c6-b581-3918d1816346","","519","
                <div class=""stimulus-container"">
                    <img src=""images/causal_sequence/dog_causal/dog_causal_6.png"" class=""exp-image"">
                    <div class=""question-area"">
                        <p style=""font-size: 20px; font-weight: bold; margin: 0;"">Is there a person in this image?</p>
                    </div>
                </div>","0","main_experiment_trial","6","dog_causal","causal_sequence","chronological","","","","","","",""
"","","","","","html-keyboard-response","155","465964","0.0-155.0","2683F5C251AC4287B3C32C538820D30C","019d6b31-8ca5-7824-b952-4093423d7354","019d6ae6-5d89-74c6-b581-3918d1816346","","null","
                <div class=""stimulus-container"">
                    <img src=""images/causal_sequence/dog_causal/dog_causal_7.png"" class=""exp-image"">
                    <div class=""question-area""></div> 
                </div>","null","","","","","","","","","","","",""
"","","","","","html-button-response","156","466503","0.0-156.0","2683F5C251AC4287B3C32C538820D30C","019d6b31-8ca5-7824-b952-4093423d7354","019d6ae6-5d89-74c6-b581-3918d1816346","","538","
                <div class=""stimulus-container"">
                    <img src=""images/causal_sequence/dog_causal/dog_causal_7.png"" class=""exp-image"">
                    <div class=""question-area"">
                        <p style=""font-size: 20px; font-weight: bold; margin: 0;"">Is there a person in this image?</p>
                    </div>
                </div>","0","main_experiment_trial","7","dog_causal","causal_sequence","chronological","","","","","","",""
"","","","","","html-keyboard-response","157","471511","0.0-157.0","2683F5C251AC4287B3C32C538820D30C","019d6b31-8ca5-7824-b952-4093423d7354","019d6ae6-5d89-74c6-b581-3918d1816346","","null","
                <div class=""stimulus-container"">
                    <img src=""images/causal_sequence/dog_causal/dog_causal_8.png"" class=""exp-image"">
                    <div class=""question-area""></div> 
                </div>","null","","","","","","","","","","","",""
"","","","","","html-button-response","158","472122","0.0-158.0","2683F5C251AC4287B3C32C538820D30C","019d6b31-8ca5-7824-b952-4093423d7354","019d6ae6-5d89-74c6-b581-3918d1816346","","611","
                <div class=""stimulus-container"">
                    <img src=""images/causal_sequence/dog_causal/dog_causal_8.png"" class=""exp-image"">
                    <div class=""question-area"">
                        <p style=""font-size: 20px; font-weight: bold; margin: 0;"">Is there a person in this image?</p>
                    </div>
                </div>","0","main_experiment_trial","8","dog_causal","causal_sequence","chronological","","","","","","",""
"","","","","","html-keyboard-response","159","477135","0.0-159.0","2683F5C251AC4287B3C32C538820D30C","019d6b31-8ca5-7824-b952-4093423d7354","019d6ae6-5d89-74c6-b581-3918d1816346","","null","
                <div class=""stimulus-container"">
                    <img src=""images/causal_sequence/dog_causal/dog_causal_9.png"" class=""exp-image"">
                    <div class=""question-area""></div> 
                </div>","null","","","","","","","","","","","",""
"","","","","","html-button-response","160","477667","0.0-160.0","2683F5C251AC4287B3C32C538820D30C","019d6b31-8ca5-7824-b952-4093423d7354","019d6ae6-5d89-74c6-b581-3918d1816346","","530","
                <div class=""stimulus-container"">
                    <img src=""images/causal_sequence/dog_causal/dog_causal_9.png"" class=""exp-image"">
                    <div class=""question-area"">
                        <p style=""font-size: 20px; font-weight: bold; margin: 0;"">Is there a person in this image?</p>
                    </div>
                </div>","0","main_experiment_trial","9","dog_causal","causal_sequence","chronological","","","","","","",""
"","","","","","html-keyboard-response","161","482673","0.0-161.0","2683F5C251AC4287B3C32C538820D30C","019d6b31-8ca5-7824-b952-4093423d7354","019d6ae6-5d89-74c6-b581-3918d1816346","","null","
                <div class=""stimulus-container"">
                    <img src=""images/causal_sequence/dog_causal/dog_causal_ten.png"" class=""exp-image"">
                    <div class=""question-area""></div> 
                </div>","null","","","","","","","","","","","",""
"","","","","","html-button-response","162","483223","0.0-162.0","2683F5C251AC4287B3C32C538820D30C","019d6b31-8ca5-7824-b952-4093423d7354","019d6ae6-5d89-74c6-b581-3918d1816346","","549","
                <div class=""stimulus-container"">
                    <img src=""images/causal_sequence/dog_causal/dog_causal_ten.png"" class=""exp-image"">
                    <div class=""question-area"">
                        <p style=""font-size: 20px; font-weight: bold; margin: 0;"">Is there a person in this image?</p>
                    </div>
                </div>","0","main_experiment_trial","ten","dog_causal","causal_sequence","chronological","","","","","","",""
"","","","","","html-keyboard-response","163","488236","0.0-163.0","2683F5C251AC4287B3C32C538820D30C","019d6b31-8ca5-7824-b952-4093423d7354","019d6ae6-5d89-74c6-b581-3918d1816346","","null","<div style=""background-color: white; width: 100vw; height: 100vh;""></div>","null","","","","","","","","","","","",""
"","","","","","html-keyboard-response","164","493247","0.0-164.0","2683F5C251AC4287B3C32C538820D30C","019d6b31-8ca5-7824-b952-4093423d7354","019d6ae6-5d89-74c6-b581-3918d1816346","","null","
                <div class=""stimulus-container"">
                    <img src=""images/causal_sequence/package_causal/package_causal_1.png"" class=""exp-image"">
                    <div class=""question-area""></div> 
                </div>","null","","","","","","","","","","","",""
"","","","","","html-button-response","165","493737","0.0-165.0","2683F5C251AC4287B3C32C538820D30C","019d6b31-8ca5-7824-b952-4093423d7354","019d6ae6-5d89-74c6-b581-3918d1816346","","489","
                <div class=""stimulus-container"">
                    <img src=""images/causal_sequence/package_causal/package_causal_1.png"" class=""exp-image"">
                    <div class=""question-area"">
                        <p style=""font-size: 20px; font-weight: bold; margin: 0;"">Is there a person in this image?</p>
                    </div>
                </div>","0","main_experiment_trial","1","package_causal","causal_sequence","chronological","","","","","","",""
"","","","","","html-keyboard-response","166","498754","0.0-166.0","2683F5C251AC4287B3C32C538820D30C","019d6b31-8ca5-7824-b952-4093423d7354","019d6ae6-5d89-74c6-b581-3918d1816346","","null","
                <div class=""stimulus-container"">
                    <img src=""images/causal_sequence/package_causal/package_causal_2.png"" class=""exp-image"">
                    <div class=""question-area""></div> 
                </div>","null","","","","","","","","","","","",""
"","","","","","html-button-response","167","499607","0.0-167.0","2683F5C251AC4287B3C32C538820D30C","019d6b31-8ca5-7824-b952-4093423d7354","019d6ae6-5d89-74c6-b581-3918d1816346","","853","
                <div class=""stimulus-container"">
                    <img src=""images/causal_sequence/package_causal/package_causal_2.png"" class=""exp-image"">
                    <div class=""question-area"">
                        <p style=""font-size: 20px; font-weight: bold; margin: 0;"">Is there a person in this image?</p>
                    </div>
                </div>","0","main_experiment_trial","2","package_causal","causal_sequence","chronological","","","","","","",""
"","","","","","html-keyboard-response","168","504612","0.0-168.0","2683F5C251AC4287B3C32C538820D30C","019d6b31-8ca5-7824-b952-4093423d7354","019d6ae6-5d89-74c6-b581-3918d1816346","","null","
                <div class=""stimulus-container"">
                    <img src=""images/causal_sequence/package_causal/package_causal_3.png"" class=""exp-image"">
                    <div class=""question-area""></div> 
                </div>","null","","","","","","","","","","","",""
"","","","","","html-button-response","169","505565","0.0-169.0","2683F5C251AC4287B3C32C538820D30C","019d6b31-8ca5-7824-b952-4093423d7354","019d6ae6-5d89-74c6-b581-3918d1816346","","952","
                <div class=""stimulus-container"">
                    <img src=""images/causal_sequence/package_causal/package_causal_3.png"" class=""exp-image"">
                    <div class=""question-area"">
                        <p style=""font-size: 20px; font-weight: bold; margin: 0;"">Is there a person in this image?</p>
                    </div>
                </div>","0","main_experiment_trial","3","package_causal","causal_sequence","chronological","","","","","","",""
"","","","","","html-keyboard-response","170","510567","0.0-170.0","2683F5C251AC4287B3C32C538820D30C","019d6b31-8ca5-7824-b952-4093423d7354","019d6ae6-5d89-74c6-b581-3918d1816346","","null","
                <div class=""stimulus-container"">
                    <img src=""images/causal_sequence/package_causal/package_causal_4.png"" class=""exp-image"">
                    <div class=""question-area""></div> 
                </div>","null","","","","","","","","","","","",""
"","","","","","html-button-response","171","511146","0.0-171.0","2683F5C251AC4287B3C32C538820D30C","019d6b31-8ca5-7824-b952-4093423d7354","019d6ae6-5d89-74c6-b581-3918d1816346","","577","
                <div class=""stimulus-container"">
                    <img src=""images/causal_sequence/package_causal/package_causal_4.png"" class=""exp-image"">
                    <div class=""question-area"">
                        <p style=""font-size: 20px; font-weight: bold; margin: 0;"">Is there a person in this image?</p>
                    </div>
                </div>","1","main_experiment_trial","4","package_causal","causal_sequence","chronological","","","","","","",""
"","","","","","html-keyboard-response","172","516157","0.0-172.0","2683F5C251AC4287B3C32C538820D30C","019d6b31-8ca5-7824-b952-4093423d7354","019d6ae6-5d89-74c6-b581-3918d1816346","","null","
                <div class=""stimulus-container"">
                    <img src=""images/causal_sequence/package_causal/package_causal_5.png"" class=""exp-image"">
                    <div class=""question-area""></div> 
                </div>","null","","","","","","","","","","","",""
"","","","","","html-button-response","173","516852","0.0-173.0","2683F5C251AC4287B3C32C538820D30C","019d6b31-8ca5-7824-b952-4093423d7354","019d6ae6-5d89-74c6-b581-3918d1816346","","694","
                <div class=""stimulus-container"">
                    <img src=""images/causal_sequence/package_causal/package_causal_5.png"" class=""exp-image"">
                    <div class=""question-area"">
                        <p style=""font-size: 20px; font-weight: bold; margin: 0;"">Is there a person in this image?</p>
                    </div>
                </div>","0","main_experiment_trial","5","package_causal","causal_sequence","chronological","","","","","","",""
"","","","","","html-keyboard-response","174","521858","0.0-174.0","2683F5C251AC4287B3C32C538820D30C","019d6b31-8ca5-7824-b952-4093423d7354","019d6ae6-5d89-74c6-b581-3918d1816346","","null","
                <div class=""stimulus-container"">
                    <img src=""images/causal_sequence/package_causal/package_causal_6.png"" class=""exp-image"">
                    <div class=""question-area""></div> 
                </div>","null","","","","","","","","","","","",""
"","","","","","html-button-response","175","522381","0.0-175.0","2683F5C251AC4287B3C32C538820D30C","019d6b31-8ca5-7824-b952-4093423d7354","019d6ae6-5d89-74c6-b581-3918d1816346","","522","
                <div class=""stimulus-container"">
                    <img src=""images/causal_sequence/package_causal/package_causal_6.png"" class=""exp-image"">
                    <div class=""question-area"">
                        <p style=""font-size: 20px; font-weight: bold; margin: 0;"">Is there a person in this image?</p>
                    </div>
                </div>","0","main_experiment_trial","6","package_causal","causal_sequence","chronological","","","","","","",""
"","","","","","html-keyboard-response","176","527389","0.0-176.0","2683F5C251AC4287B3C32C538820D30C","019d6b31-8ca5-7824-b952-4093423d7354","019d6ae6-5d89-74c6-b581-3918d1816346","","null","
                <div class=""stimulus-container"">
                    <img src=""images/causal_sequence/package_causal/package_causal_7.png"" class=""exp-image"">
                    <div class=""question-area""></div> 
                </div>","null","","","","","","","","","","","",""
"","","","","","html-button-response","177","528077","0.0-177.0","2683F5C251AC4287B3C32C538820D30C","019d6b31-8ca5-7824-b952-4093423d7354","019d6ae6-5d89-74c6-b581-3918d1816346","","687","
                <div class=""stimulus-container"">
                    <img src=""images/causal_sequence/package_causal/package_causal_7.png"" class=""exp-image"">
                    <div class=""question-area"">
                        <p style=""font-size: 20px; font-weight: bold; margin: 0;"">Is there a person in this image?</p>
                    </div>
                </div>","0","main_experiment_trial","7","package_causal","causal_sequence","chronological","","","","","","",""
