"success","timeout","failed_images","failed_audio","failed_video","trial_type","trial_index","time_elapsed","internal_node_id","subject_id","study_id","session_id","view_history","rt","stimulus","response","task","image_index","folder","sequence_type","valuable_image_index","reward_type","chosen_image_index","target_X","correct_choice"
"true","false","[]","[]","[]","preload","0","4978","0.0-0.0","8C5E80CE7CD6463292A7C0DF01B68697","019cf4ee-8137-7689-9961-63bedada946e","019cf4c8-1de8-79ec-b3bd-d98520647593","","","","","","","","","","","","",""
"","","","","","instructions","1","7581","0.0-1.0","8C5E80CE7CD6463292A7C0DF01B68697","019cf4ee-8137-7689-9961-63bedada946e","019cf4c8-1de8-79ec-b3bd-d98520647593","[{""page_index"":0,""viewing_time"":2602}]","2603","","","","","","","","","","",""
"","","","","","instructions","2","25251","0.0-2.0","8C5E80CE7CD6463292A7C0DF01B68697","019cf4ee-8137-7689-9961-63bedada946e","019cf4c8-1de8-79ec-b3bd-d98520647593","[{""page_index"":0,""viewing_time"":17669}]","17669","","","","","","","","","","",""
"true","","","","","fullscreen","3","28666","0.0-3.0","8C5E80CE7CD6463292A7C0DF01B68697","019cf4ee-8137-7689-9961-63bedada946e","019cf4c8-1de8-79ec-b3bd-d98520647593","","2414","","","","","","","","","","",""
"","","","","","instructions","4","41717","0.0-4.0","8C5E80CE7CD6463292A7C0DF01B68697","019cf4ee-8137-7689-9961-63bedada946e","019cf4c8-1de8-79ec-b3bd-d98520647593","[{""page_index"":0,""viewing_time"":13051}]","13051","","","","","","","","","","",""
"","","","","","instructions","5","54030","0.0-5.0","8C5E80CE7CD6463292A7C0DF01B68697","019cf4ee-8137-7689-9961-63bedada946e","019cf4c8-1de8-79ec-b3bd-d98520647593","[{""page_index"":0,""viewing_time"":12312}]","12312","","","","","","","","","","",""
"","","","","","html-keyboard-response","6","58032","0.0-6.0","8C5E80CE7CD6463292A7C0DF01B68697","019cf4ee-8137-7689-9961-63bedada946e","019cf4c8-1de8-79ec-b3bd-d98520647593","","null","
                <div class=""stimulus-container"">
                    <img src=""images/instructions/movie_1.png"" class=""exp-image"">
                    <div class=""question-area""></div> 
                </div>","null","","","","","","","","",""
"","","","","","html-button-response","7","61033","0.0-7.0","8C5E80CE7CD6463292A7C0DF01B68697","019cf4ee-8137-7689-9961-63bedada946e","019cf4c8-1de8-79ec-b3bd-d98520647593","","null","
                <div class=""stimulus-container"">
                    <img src=""images/instructions/movie_1.png"" class=""exp-image"">
                    <div class=""question-area"">
                        <p style=""font-size: 20px; font-weight: bold; margin: 0;"">Was there a person in this image?</p>
                    </div>
                </div>","null","example_question","1","","","","","","",""
"","","","","","html-keyboard-response","8","65036","0.0-8.0","8C5E80CE7CD6463292A7C0DF01B68697","019cf4ee-8137-7689-9961-63bedada946e","019cf4c8-1de8-79ec-b3bd-d98520647593","","null","
                <div class=""stimulus-container"">
                    <img src=""images/instructions/movie_2.png"" class=""exp-image"">
                    <div class=""question-area""></div> 
                </div>","null","","","","","","","","",""
"","","","","","html-button-response","9","65954","0.0-9.0","8C5E80CE7CD6463292A7C0DF01B68697","019cf4ee-8137-7689-9961-63bedada946e","019cf4c8-1de8-79ec-b3bd-d98520647593","","916","
                <div class=""stimulus-container"">
                    <img src=""images/instructions/movie_2.png"" class=""exp-image"">
                    <div class=""question-area"">
                        <p style=""font-size: 20px; font-weight: bold; margin: 0;"">Was there a person in this image?</p>
                    </div>
                </div>","0","example_question","2","","","","","","",""
"","","","","","html-keyboard-response","10","69956","0.0-10.0","8C5E80CE7CD6463292A7C0DF01B68697","019cf4ee-8137-7689-9961-63bedada946e","019cf4c8-1de8-79ec-b3bd-d98520647593","","null","
                <div class=""stimulus-container"">
                    <img src=""images/instructions/movie_3.png"" class=""exp-image"">
                    <div class=""question-area""></div> 
                </div>","null","","","","","","","","",""
"","","","","","html-button-response","11","71494","0.0-11.0","8C5E80CE7CD6463292A7C0DF01B68697","019cf4ee-8137-7689-9961-63bedada946e","019cf4c8-1de8-79ec-b3bd-d98520647593","","1536","
                <div class=""stimulus-container"">
                    <img src=""images/instructions/movie_3.png"" class=""exp-image"">
                    <div class=""question-area"">
                        <p style=""font-size: 20px; font-weight: bold; margin: 0;"">Was there a person in this image?</p>
                    </div>
                </div>","0","example_question","3","","","","","","",""
"","","","","","html-keyboard-response","12","75496","0.0-12.0","8C5E80CE7CD6463292A7C0DF01B68697","019cf4ee-8137-7689-9961-63bedada946e","019cf4c8-1de8-79ec-b3bd-d98520647593","","null","
                <div class=""stimulus-container"">
                    <img src=""images/instructions/movie_4.png"" class=""exp-image"">
                    <div class=""question-area""></div> 
                </div>","null","","","","","","","","",""
"","","","","","html-button-response","13","76910","0.0-13.0","8C5E80CE7CD6463292A7C0DF01B68697","019cf4ee-8137-7689-9961-63bedada946e","019cf4c8-1de8-79ec-b3bd-d98520647593","","1413","
                <div class=""stimulus-container"">
                    <img src=""images/instructions/movie_4.png"" class=""exp-image"">
                    <div class=""question-area"">
                        <p style=""font-size: 20px; font-weight: bold; margin: 0;"">Was there a person in this image?</p>
                    </div>
                </div>","0","example_question","4","","","","","","",""
"","","","","","instructions","14","79181","0.0-14.0","8C5E80CE7CD6463292A7C0DF01B68697","019cf4ee-8137-7689-9961-63bedada946e","019cf4c8-1de8-79ec-b3bd-d98520647593","[{""page_index"":0,""viewing_time"":2270}]","2270","","","","","","","","","","",""
"","","","","","instructions","15","88183","0.0-15.0","8C5E80CE7CD6463292A7C0DF01B68697","019cf4ee-8137-7689-9961-63bedada946e","019cf4c8-1de8-79ec-b3bd-d98520647593","[{""page_index"":0,""viewing_time"":9002}]","9002","","","","","","","","","","",""
"","","","","","html-keyboard-response","16","89186","0.0-16.0","8C5E80CE7CD6463292A7C0DF01B68697","019cf4ee-8137-7689-9961-63bedada946e","019cf4c8-1de8-79ec-b3bd-d98520647593","","null","<div style=""background-color: white; width: 100vw; height: 100vh;""></div>","null","","","","","","","","",""
"","","","","","html-keyboard-response","17","94189","0.0-17.0","8C5E80CE7CD6463292A7C0DF01B68697","019cf4ee-8137-7689-9961-63bedada946e","019cf4c8-1de8-79ec-b3bd-d98520647593","","null","
                <div class=""stimulus-container"">
                    <img src=""images/schematic_sequence/restaurant_scheme/restaurant_scheme_1.png"" class=""exp-image"">
                    <div class=""question-area""></div> 
                </div>","null","","","","","","","","",""
"","","","","","html-button-response","18","95340","0.0-18.0","8C5E80CE7CD6463292A7C0DF01B68697","019cf4ee-8137-7689-9961-63bedada946e","019cf4c8-1de8-79ec-b3bd-d98520647593","","1142","
                <div class=""stimulus-container"">
                    <img src=""images/schematic_sequence/restaurant_scheme/restaurant_scheme_1.png"" class=""exp-image"">
                    <div class=""question-area"">
                        <p style=""font-size: 20px; font-weight: bold; margin: 0;"">Is there a person in this image?</p>
                    </div>
                </div>","0","main_experiment_trial","1","restaurant_scheme","schematic_sequence","","","","",""
"","","","","","html-keyboard-response","19","100345","0.0-19.0","8C5E80CE7CD6463292A7C0DF01B68697","019cf4ee-8137-7689-9961-63bedada946e","019cf4c8-1de8-79ec-b3bd-d98520647593","","null","
                <div class=""stimulus-container"">
                    <img src=""images/schematic_sequence/restaurant_scheme/restaurant_scheme_2.png"" class=""exp-image"">
                    <div class=""question-area""></div> 
                </div>","null","","","","","","","","",""
"","","","","","html-button-response","20","101664","0.0-20.0","8C5E80CE7CD6463292A7C0DF01B68697","019cf4ee-8137-7689-9961-63bedada946e","019cf4c8-1de8-79ec-b3bd-d98520647593","","1318","
                <div class=""stimulus-container"">
                    <img src=""images/schematic_sequence/restaurant_scheme/restaurant_scheme_2.png"" class=""exp-image"">
                    <div class=""question-area"">
                        <p style=""font-size: 20px; font-weight: bold; margin: 0;"">Is there a person in this image?</p>
                    </div>
                </div>","1","main_experiment_trial","2","restaurant_scheme","schematic_sequence","","","","",""
"","","","","","html-keyboard-response","21","106668","0.0-21.0","8C5E80CE7CD6463292A7C0DF01B68697","019cf4ee-8137-7689-9961-63bedada946e","019cf4c8-1de8-79ec-b3bd-d98520647593","","null","
                <div class=""stimulus-container"">
                    <img src=""images/schematic_sequence/restaurant_scheme/restaurant_scheme_3.png"" class=""exp-image"">
                    <div class=""question-area""></div> 
                </div>","null","","","","","","","","",""
"","","","","","html-button-response","22","107849","0.0-22.0","8C5E80CE7CD6463292A7C0DF01B68697","019cf4ee-8137-7689-9961-63bedada946e","019cf4c8-1de8-79ec-b3bd-d98520647593","","1180","
                <div class=""stimulus-container"">
                    <img src=""images/schematic_sequence/restaurant_scheme/restaurant_scheme_3.png"" class=""exp-image"">
                    <div class=""question-area"">
                        <p style=""font-size: 20px; font-weight: bold; margin: 0;"">Is there a person in this image?</p>
                    </div>
                </div>","1","main_experiment_trial","3","restaurant_scheme","schematic_sequence","","","","",""
"","","","","","html-keyboard-response","23","112852","0.0-23.0","8C5E80CE7CD6463292A7C0DF01B68697","019cf4ee-8137-7689-9961-63bedada946e","019cf4c8-1de8-79ec-b3bd-d98520647593","","null","
                <div class=""stimulus-container"">
                    <img src=""images/schematic_sequence/restaurant_scheme/restaurant_scheme_4.png"" class=""exp-image"">
                    <div class=""question-area""></div> 
                </div>","null","","","","","","","","",""
"","","","","","html-button-response","24","114242","0.0-24.0","8C5E80CE7CD6463292A7C0DF01B68697","019cf4ee-8137-7689-9961-63bedada946e","019cf4c8-1de8-79ec-b3bd-d98520647593","","1388","
                <div class=""stimulus-container"">
                    <img src=""images/schematic_sequence/restaurant_scheme/restaurant_scheme_4.png"" class=""exp-image"">
                    <div class=""question-area"">
                        <p style=""font-size: 20px; font-weight: bold; margin: 0;"">Is there a person in this image?</p>
                    </div>
                </div>","0","main_experiment_trial","4","restaurant_scheme","schematic_sequence","","","","",""
"","","","","","html-keyboard-response","25","119245","0.0-25.0","8C5E80CE7CD6463292A7C0DF01B68697","019cf4ee-8137-7689-9961-63bedada946e","019cf4c8-1de8-79ec-b3bd-d98520647593","","null","
                <div class=""stimulus-container"">
                    <img src=""images/schematic_sequence/restaurant_scheme/restaurant_scheme_5.png"" class=""exp-image"">
                    <div class=""question-area""></div> 
                </div>","null","","","","","","","","",""
"","","","","","html-button-response","26","120358","0.0-26.0","8C5E80CE7CD6463292A7C0DF01B68697","019cf4ee-8137-7689-9961-63bedada946e","019cf4c8-1de8-79ec-b3bd-d98520647593","","1111","
                <div class=""stimulus-container"">
                    <img src=""images/schematic_sequence/restaurant_scheme/restaurant_scheme_5.png"" class=""exp-image"">
                    <div class=""question-area"">
                        <p style=""font-size: 20px; font-weight: bold; margin: 0;"">Is there a person in this image?</p>
                    </div>
                </div>","0","main_experiment_trial","5","restaurant_scheme","schematic_sequence","","","","",""
"","","","","","html-keyboard-response","27","125362","0.0-27.0","8C5E80CE7CD6463292A7C0DF01B68697","019cf4ee-8137-7689-9961-63bedada946e","019cf4c8-1de8-79ec-b3bd-d98520647593","","null","
                <div class=""stimulus-container"">
                    <img src=""images/schematic_sequence/restaurant_scheme/restaurant_scheme_6.png"" class=""exp-image"">
                    <div class=""question-area""></div> 
                </div>","null","","","","","","","","",""
"","","","","","html-button-response","28","126485","0.0-28.0","8C5E80CE7CD6463292A7C0DF01B68697","019cf4ee-8137-7689-9961-63bedada946e","019cf4c8-1de8-79ec-b3bd-d98520647593","","1121","
                <div class=""stimulus-container"">
                    <img src=""images/schematic_sequence/restaurant_scheme/restaurant_scheme_6.png"" class=""exp-image"">
                    <div class=""question-area"">
                        <p style=""font-size: 20px; font-weight: bold; margin: 0;"">Is there a person in this image?</p>
                    </div>
                </div>","1","main_experiment_trial","6","restaurant_scheme","schematic_sequence","","","","",""
"","","","","","html-keyboard-response","29","131488","0.0-29.0","8C5E80CE7CD6463292A7C0DF01B68697","019cf4ee-8137-7689-9961-63bedada946e","019cf4c8-1de8-79ec-b3bd-d98520647593","","null","
                <div class=""stimulus-container"">
                    <img src=""images/schematic_sequence/restaurant_scheme/restaurant_scheme_7.png"" class=""exp-image"">
                    <div class=""question-area""></div> 
                </div>","null","","","","","","","","",""
"","","","","","html-button-response","30","132396","0.0-30.0","8C5E80CE7CD6463292A7C0DF01B68697","019cf4ee-8137-7689-9961-63bedada946e","019cf4c8-1de8-79ec-b3bd-d98520647593","","907","
                <div class=""stimulus-container"">
                    <img src=""images/schematic_sequence/restaurant_scheme/restaurant_scheme_7.png"" class=""exp-image"">
                    <div class=""question-area"">
                        <p style=""font-size: 20px; font-weight: bold; margin: 0;"">Is there a person in this image?</p>
                    </div>
                </div>","1","main_experiment_trial","7","restaurant_scheme","schematic_sequence","","","","",""
"","","","","","html-keyboard-response","31","137398","0.0-31.0","8C5E80CE7CD6463292A7C0DF01B68697","019cf4ee-8137-7689-9961-63bedada946e","019cf4c8-1de8-79ec-b3bd-d98520647593","","null","
                <div class=""stimulus-container"">
                    <img src=""images/schematic_sequence/restaurant_scheme/restaurant_scheme_8.png"" class=""exp-image"">
                    <div class=""question-area""></div> 
                </div>","null","","","","","","","","",""
"","","","","","html-button-response","32","138418","0.0-32.0","8C5E80CE7CD6463292A7C0DF01B68697","019cf4ee-8137-7689-9961-63bedada946e","019cf4c8-1de8-79ec-b3bd-d98520647593","","1019","
                <div class=""stimulus-container"">
                    <img src=""images/schematic_sequence/restaurant_scheme/restaurant_scheme_8.png"" class=""exp-image"">
                    <div class=""question-area"">
                        <p style=""font-size: 20px; font-weight: bold; margin: 0;"">Is there a person in this image?</p>
                    </div>
                </div>","0","main_experiment_trial","8","restaurant_scheme","schematic_sequence","","","","",""
"","","","","","html-keyboard-response","33","143421","0.0-33.0","8C5E80CE7CD6463292A7C0DF01B68697","019cf4ee-8137-7689-9961-63bedada946e","019cf4c8-1de8-79ec-b3bd-d98520647593","","null","
                <div class=""stimulus-container"">
                    <img src=""images/schematic_sequence/restaurant_scheme/restaurant_scheme_9.png"" class=""exp-image"">
                    <div class=""question-area""></div> 
                </div>","null","","","","","","","","",""
"","","","","","html-button-response","34","144486","0.0-34.0","8C5E80CE7CD6463292A7C0DF01B68697","019cf4ee-8137-7689-9961-63bedada946e","019cf4c8-1de8-79ec-b3bd-d98520647593","","1064","
                <div class=""stimulus-container"">
                    <img src=""images/schematic_sequence/restaurant_scheme/restaurant_scheme_9.png"" class=""exp-image"">
                    <div class=""question-area"">
                        <p style=""font-size: 20px; font-weight: bold; margin: 0;"">Is there a person in this image?</p>
                    </div>
                </div>","0","main_experiment_trial","9","restaurant_scheme","schematic_sequence","","","","",""
"","","","","","html-keyboard-response","35","149488","0.0-35.0","8C5E80CE7CD6463292A7C0DF01B68697","019cf4ee-8137-7689-9961-63bedada946e","019cf4c8-1de8-79ec-b3bd-d98520647593","","null","
                <div class=""stimulus-container"">
                    <img src=""images/schematic_sequence/restaurant_scheme/restaurant_scheme_ten.png"" class=""exp-image"">
                    <div class=""question-area""></div> 
                </div>","null","","","","","","","","",""
"","","","","","html-button-response","36","150222","0.0-36.0","8C5E80CE7CD6463292A7C0DF01B68697","019cf4ee-8137-7689-9961-63bedada946e","019cf4c8-1de8-79ec-b3bd-d98520647593","","732","
                <div class=""stimulus-container"">
                    <img src=""images/schematic_sequence/restaurant_scheme/restaurant_scheme_ten.png"" class=""exp-image"">
                    <div class=""question-area"">
                        <p style=""font-size: 20px; font-weight: bold; margin: 0;"">Is there a person in this image?</p>
                    </div>
                </div>","0","main_experiment_trial","ten","restaurant_scheme","schematic_sequence","","","","",""
"","","","","","html-keyboard-response","37","151226","0.0-37.0","8C5E80CE7CD6463292A7C0DF01B68697","019cf4ee-8137-7689-9961-63bedada946e","019cf4c8-1de8-79ec-b3bd-d98520647593","","null","<div style=""background-color: white; width: 100vw; height: 100vh;""></div>","null","","","","","","","","",""
"","","","","","html-keyboard-response","38","156229","0.0-38.0","8C5E80CE7CD6463292A7C0DF01B68697","019cf4ee-8137-7689-9961-63bedada946e","019cf4c8-1de8-79ec-b3bd-d98520647593","","null","
                <div class=""stimulus-container"">
                    <img src=""images/causal_sequence/the_performance_causal/the_performance_causal_1.png"" class=""exp-image"">
                    <div class=""question-area""></div> 
                </div>","null","","","","","","","","",""
"","","","","","html-button-response","39","157314","0.0-39.0","8C5E80CE7CD6463292A7C0DF01B68697","019cf4ee-8137-7689-9961-63bedada946e","019cf4c8-1de8-79ec-b3bd-d98520647593","","1083","
                <div class=""stimulus-container"">
                    <img src=""images/causal_sequence/the_performance_causal/the_performance_causal_1.png"" class=""exp-image"">
                    <div class=""question-area"">
                        <p style=""font-size: 20px; font-weight: bold; margin: 0;"">Is there a person in this image?</p>
                    </div>
                </div>","0","main_experiment_trial","1","the_performance_causal","causal_sequence","","","","",""
"","","","","","html-keyboard-response","40","162317","0.0-40.0","8C5E80CE7CD6463292A7C0DF01B68697","019cf4ee-8137-7689-9961-63bedada946e","019cf4c8-1de8-79ec-b3bd-d98520647593","","null","
                <div class=""stimulus-container"">
                    <img src=""images/causal_sequence/the_performance_causal/the_performance_causal_2.png"" class=""exp-image"">
                    <div class=""question-area""></div> 
                </div>","null","","","","","","","","",""
"","","","","","html-button-response","41","163425","0.0-41.0","8C5E80CE7CD6463292A7C0DF01B68697","019cf4ee-8137-7689-9961-63bedada946e","019cf4c8-1de8-79ec-b3bd-d98520647593","","1106","
                <div class=""stimulus-container"">
                    <img src=""images/causal_sequence/the_performance_causal/the_performance_causal_2.png"" class=""exp-image"">
                    <div class=""question-area"">
                        <p style=""font-size: 20px; font-weight: bold; margin: 0;"">Is there a person in this image?</p>
                    </div>
                </div>","0","main_experiment_trial","2","the_performance_causal","causal_sequence","","","","",""
"","","","","","html-keyboard-response","42","168429","0.0-42.0","8C5E80CE7CD6463292A7C0DF01B68697","019cf4ee-8137-7689-9961-63bedada946e","019cf4c8-1de8-79ec-b3bd-d98520647593","","null","
                <div class=""stimulus-container"">
                    <img src=""images/causal_sequence/the_performance_causal/the_performance_causal_3.png"" class=""exp-image"">
                    <div class=""question-area""></div> 
                </div>","null","","","","","","","","",""
"","","","","","html-button-response","43","169299","0.0-43.0","8C5E80CE7CD6463292A7C0DF01B68697","019cf4ee-8137-7689-9961-63bedada946e","019cf4c8-1de8-79ec-b3bd-d98520647593","","868","
                <div class=""stimulus-container"">
                    <img src=""images/causal_sequence/the_performance_causal/the_performance_causal_3.png"" class=""exp-image"">
                    <div class=""question-area"">
                        <p style=""font-size: 20px; font-weight: bold; margin: 0;"">Is there a person in this image?</p>
                    </div>
                </div>","0","main_experiment_trial","3","the_performance_causal","causal_sequence","","","","",""
"","","","","","html-keyboard-response","44","174302","0.0-44.0","8C5E80CE7CD6463292A7C0DF01B68697","019cf4ee-8137-7689-9961-63bedada946e","019cf4c8-1de8-79ec-b3bd-d98520647593","","null","
                <div class=""stimulus-container"">
                    <img src=""images/causal_sequence/the_performance_causal/the_performance_causal_4.png"" class=""exp-image"">
                    <div class=""question-area""></div> 
                </div>","null","","","","","","","","",""
"","","","","","html-button-response","45","175024","0.0-45.0","8C5E80CE7CD6463292A7C0DF01B68697","019cf4ee-8137-7689-9961-63bedada946e","019cf4c8-1de8-79ec-b3bd-d98520647593","","721","
                <div class=""stimulus-container"">
                    <img src=""images/causal_sequence/the_performance_causal/the_performance_causal_4.png"" class=""exp-image"">
                    <div class=""question-area"">
                        <p style=""font-size: 20px; font-weight: bold; margin: 0;"">Is there a person in this image?</p>
                    </div>
                </div>","0","main_experiment_trial","4","the_performance_causal","causal_sequence","","","","",""
"","","","","","html-keyboard-response","46","180027","0.0-46.0","8C5E80CE7CD6463292A7C0DF01B68697","019cf4ee-8137-7689-9961-63bedada946e","019cf4c8-1de8-79ec-b3bd-d98520647593","","null","
                <div class=""stimulus-container"">
                    <img src=""images/causal_sequence/the_performance_causal/the_performance_causal_5.png"" class=""exp-image"">
                    <div class=""question-area""></div> 
                </div>","null","","","","","","","","",""
"","","","","","html-button-response","47","181486","0.0-47.0","8C5E80CE7CD6463292A7C0DF01B68697","019cf4ee-8137-7689-9961-63bedada946e","019cf4c8-1de8-79ec-b3bd-d98520647593","","1457","
                <div class=""stimulus-container"">
                    <img src=""images/causal_sequence/the_performance_causal/the_performance_causal_5.png"" class=""exp-image"">
                    <div class=""question-area"">
                        <p style=""font-size: 20px; font-weight: bold; margin: 0;"">Is there a person in this image?</p>
                    </div>
                </div>","0","main_experiment_trial","5","the_performance_causal","causal_sequence","","","","",""
"","","","","","html-keyboard-response","48","186488","0.0-48.0","8C5E80CE7CD6463292A7C0DF01B68697","019cf4ee-8137-7689-9961-63bedada946e","019cf4c8-1de8-79ec-b3bd-d98520647593","","null","
                <div class=""stimulus-container"">
                    <img src=""images/causal_sequence/the_performance_causal/the_performance_causal_6.png"" class=""exp-image"">
                    <div class=""question-area""></div> 
                </div>","null","","","","","","","","",""
"","","","","","html-button-response","49","187663","0.0-49.0","8C5E80CE7CD6463292A7C0DF01B68697","019cf4ee-8137-7689-9961-63bedada946e","019cf4c8-1de8-79ec-b3bd-d98520647593","","1173","
                <div class=""stimulus-container"">
                    <img src=""images/causal_sequence/the_performance_causal/the_performance_causal_6.png"" class=""exp-image"">
                    <div class=""question-area"">
                        <p style=""font-size: 20px; font-weight: bold; margin: 0;"">Is there a person in this image?</p>
                    </div>
                </div>","0","main_experiment_trial","6","the_performance_causal","causal_sequence","","","","",""
"","","","","","html-keyboard-response","50","192667","0.0-50.0","8C5E80CE7CD6463292A7C0DF01B68697","019cf4ee-8137-7689-9961-63bedada946e","019cf4c8-1de8-79ec-b3bd-d98520647593","","null","
                <div class=""stimulus-container"">
                    <img src=""images/causal_sequence/the_performance_causal/the_performance_causal_7.png"" class=""exp-image"">
                    <div class=""question-area""></div> 
                </div>","null","","","","","","","","",""
"","","","","","html-button-response","51","193715","0.0-51.0","8C5E80CE7CD6463292A7C0DF01B68697","019cf4ee-8137-7689-9961-63bedada946e","019cf4c8-1de8-79ec-b3bd-d98520647593","","1046","
                <div class=""stimulus-container"">
                    <img src=""images/causal_sequence/the_performance_causal/the_performance_causal_7.png"" class=""exp-image"">
                    <div class=""question-area"">
                        <p style=""font-size: 20px; font-weight: bold; margin: 0;"">Is there a person in this image?</p>
                    </div>
                </div>","0","main_experiment_trial","7","the_performance_causal","causal_sequence","","","","",""
"","","","","","html-keyboard-response","52","198719","0.0-52.0","8C5E80CE7CD6463292A7C0DF01B68697","019cf4ee-8137-7689-9961-63bedada946e","019cf4c8-1de8-79ec-b3bd-d98520647593","","null","
                <div class=""stimulus-container"">
                    <img src=""images/causal_sequence/the_performance_causal/the_performance_causal_8.png"" class=""exp-image"">
                    <div class=""question-area""></div> 
                </div>","null","","","","","","","","",""
"","","","","","html-button-response","53","199798","0.0-53.0","8C5E80CE7CD6463292A7C0DF01B68697","019cf4ee-8137-7689-9961-63bedada946e","019cf4c8-1de8-79ec-b3bd-d98520647593","","1077","
                <div class=""stimulus-container"">
                    <img src=""images/causal_sequence/the_performance_causal/the_performance_causal_8.png"" class=""exp-image"">
                    <div class=""question-area"">
                        <p style=""font-size: 20px; font-weight: bold; margin: 0;"">Is there a person in this image?</p>
                    </div>
                </div>","0","main_experiment_trial","8","the_performance_causal","causal_sequence","","","","",""
"","","","","","html-keyboard-response","54","204801","0.0-54.0","8C5E80CE7CD6463292A7C0DF01B68697","019cf4ee-8137-7689-9961-63bedada946e","019cf4c8-1de8-79ec-b3bd-d98520647593","","null","
                <div class=""stimulus-container"">
                    <img src=""images/causal_sequence/the_performance_causal/the_performance_causal_9.png"" class=""exp-image"">
                    <div class=""question-area""></div> 
                </div>","null","","","","","","","","",""
"","","","","","html-button-response","55","206539","0.0-55.0","8C5E80CE7CD6463292A7C0DF01B68697","019cf4ee-8137-7689-9961-63bedada946e","019cf4c8-1de8-79ec-b3bd-d98520647593","","1736","
                <div class=""stimulus-container"">
                    <img src=""images/causal_sequence/the_performance_causal/the_performance_causal_9.png"" class=""exp-image"">
                    <div class=""question-area"">
                        <p style=""font-size: 20px; font-weight: bold; margin: 0;"">Is there a person in this image?</p>
                    </div>
                </div>","0","main_experiment_trial","9","the_performance_causal","causal_sequence","","","","",""
"","","","","","html-keyboard-response","56","211543","0.0-56.0","8C5E80CE7CD6463292A7C0DF01B68697","019cf4ee-8137-7689-9961-63bedada946e","019cf4c8-1de8-79ec-b3bd-d98520647593","","null","
                <div class=""stimulus-container"">
                    <img src=""images/causal_sequence/the_performance_causal/the_performance_causal_ten.png"" class=""exp-image"">
                    <div class=""question-area""></div> 
                </div>","null","","","","","","","","",""
"","","","","","html-button-response","57","212588","0.0-57.0","8C5E80CE7CD6463292A7C0DF01B68697","019cf4ee-8137-7689-9961-63bedada946e","019cf4c8-1de8-79ec-b3bd-d98520647593","","1043","
                <div class=""stimulus-container"">
                    <img src=""images/causal_sequence/the_performance_causal/the_performance_causal_ten.png"" class=""exp-image"">
                    <div class=""question-area"">
                        <p style=""font-size: 20px; font-weight: bold; margin: 0;"">Is there a person in this image?</p>
                    </div>
                </div>","0","main_experiment_trial","ten","the_performance_causal","causal_sequence","","","","",""
"","","","","","html-keyboard-response","58","213593","0.0-58.0","8C5E80CE7CD6463292A7C0DF01B68697","019cf4ee-8137-7689-9961-63bedada946e","019cf4c8-1de8-79ec-b3bd-d98520647593","","null","<div style=""background-color: white; width: 100vw; height: 100vh;""></div>","null","","","","","","","","",""
"","","","","","html-keyboard-response","59","218598","0.0-59.0","8C5E80CE7CD6463292A7C0DF01B68697","019cf4ee-8137-7689-9961-63bedada946e","019cf4c8-1de8-79ec-b3bd-d98520647593","","null","
                <div class=""stimulus-container"">
                    <img src=""images/schematic_sequence/supermarket_scheme/supermarket_scheme_1.png"" class=""exp-image"">
                    <div class=""question-area""></div> 
                </div>","null","","","","","","","","",""
"","","","","","html-button-response","60","219780","0.0-60.0","8C5E80CE7CD6463292A7C0DF01B68697","019cf4ee-8137-7689-9961-63bedada946e","019cf4c8-1de8-79ec-b3bd-d98520647593","","1181","
                <div class=""stimulus-container"">
                    <img src=""images/schematic_sequence/supermarket_scheme/supermarket_scheme_1.png"" class=""exp-image"">
                    <div class=""question-area"">
                        <p style=""font-size: 20px; font-weight: bold; margin: 0;"">Is there a person in this image?</p>
                    </div>
                </div>","1","main_experiment_trial","1","supermarket_scheme","schematic_sequence","","","","",""
"","","","","","html-keyboard-response","61","224786","0.0-61.0","8C5E80CE7CD6463292A7C0DF01B68697","019cf4ee-8137-7689-9961-63bedada946e","019cf4c8-1de8-79ec-b3bd-d98520647593","","null","
                <div class=""stimulus-container"">
                    <img src=""images/schematic_sequence/supermarket_scheme/supermarket_scheme_2.png"" class=""exp-image"">
                    <div class=""question-area""></div> 
                </div>","null","","","","","","","","",""
"","","","","","html-button-response","62","226182","0.0-62.0","8C5E80CE7CD6463292A7C0DF01B68697","019cf4ee-8137-7689-9961-63bedada946e","019cf4c8-1de8-79ec-b3bd-d98520647593","","1395","
                <div class=""stimulus-container"">
                    <img src=""images/schematic_sequence/supermarket_scheme/supermarket_scheme_2.png"" class=""exp-image"">
                    <div class=""question-area"">
                        <p style=""font-size: 20px; font-weight: bold; margin: 0;"">Is there a person in this image?</p>
                    </div>
                </div>","1","main_experiment_trial","2","supermarket_scheme","schematic_sequence","","","","",""
"","","","","","html-keyboard-response","63","231185","0.0-63.0","8C5E80CE7CD6463292A7C0DF01B68697","019cf4ee-8137-7689-9961-63bedada946e","019cf4c8-1de8-79ec-b3bd-d98520647593","","null","
                <div class=""stimulus-container"">
                    <img src=""images/schematic_sequence/supermarket_scheme/supermarket_scheme_3.png"" class=""exp-image"">
                    <div class=""question-area""></div> 
                </div>","null","","","","","","","","",""
"","","","","","html-button-response","64","231953","0.0-64.0","8C5E80CE7CD6463292A7C0DF01B68697","019cf4ee-8137-7689-9961-63bedada946e","019cf4c8-1de8-79ec-b3bd-d98520647593","","767","
                <div class=""stimulus-container"">
                    <img src=""images/schematic_sequence/supermarket_scheme/supermarket_scheme_3.png"" class=""exp-image"">
                    <div class=""question-area"">
                        <p style=""font-size: 20px; font-weight: bold; margin: 0;"">Is there a person in this image?</p>
                    </div>
                </div>","1","main_experiment_trial","3","supermarket_scheme","schematic_sequence","","","","",""
"","","","","","html-keyboard-response","65","236955","0.0-65.0","8C5E80CE7CD6463292A7C0DF01B68697","019cf4ee-8137-7689-9961-63bedada946e","019cf4c8-1de8-79ec-b3bd-d98520647593","","null","
                <div class=""stimulus-container"">
                    <img src=""images/schematic_sequence/supermarket_scheme/supermarket_scheme_4.png"" class=""exp-image"">
                    <div class=""question-area""></div> 
                </div>","null","","","","","","","","",""
"","","","","","html-button-response","66","237739","0.0-66.0","8C5E80CE7CD6463292A7C0DF01B68697","019cf4ee-8137-7689-9961-63bedada946e","019cf4c8-1de8-79ec-b3bd-d98520647593","","782","
                <div class=""stimulus-container"">
                    <img src=""images/schematic_sequence/supermarket_scheme/supermarket_scheme_4.png"" class=""exp-image"">
                    <div class=""question-area"">
                        <p style=""font-size: 20px; font-weight: bold; margin: 0;"">Is there a person in this image?</p>
                    </div>
                </div>","0","main_experiment_trial","4","supermarket_scheme","schematic_sequence","","","","",""
"","","","","","html-keyboard-response","67","242741","0.0-67.0","8C5E80CE7CD6463292A7C0DF01B68697","019cf4ee-8137-7689-9961-63bedada946e","019cf4c8-1de8-79ec-b3bd-d98520647593","","null","
                <div class=""stimulus-container"">
                    <img src=""images/schematic_sequence/supermarket_scheme/supermarket_scheme_5.png"" class=""exp-image"">
                    <div class=""question-area""></div> 
                </div>","null","","","","","","","","",""
"","","","","","html-button-response","68","243356","0.0-68.0","8C5E80CE7CD6463292A7C0DF01B68697","019cf4ee-8137-7689-9961-63bedada946e","019cf4c8-1de8-79ec-b3bd-d98520647593","","615","
                <div class=""stimulus-container"">
                    <img src=""images/schematic_sequence/supermarket_scheme/supermarket_scheme_5.png"" class=""exp-image"">
                    <div class=""question-area"">
                        <p style=""font-size: 20px; font-weight: bold; margin: 0;"">Is there a person in this image?</p>
                    </div>
                </div>","1","main_experiment_trial","5","supermarket_scheme","schematic_sequence","","","","",""
"","","","","","html-keyboard-response","69","248361","0.0-69.0","8C5E80CE7CD6463292A7C0DF01B68697","019cf4ee-8137-7689-9961-63bedada946e","019cf4c8-1de8-79ec-b3bd-d98520647593","","null","
                <div class=""stimulus-container"">
                    <img src=""images/schematic_sequence/supermarket_scheme/supermarket_scheme_6.png"" class=""exp-image"">
                    <div class=""question-area""></div> 
                </div>","null","","","","","","","","",""
"","","","","","html-button-response","70","249497","0.0-70.0","8C5E80CE7CD6463292A7C0DF01B68697","019cf4ee-8137-7689-9961-63bedada946e","019cf4c8-1de8-79ec-b3bd-d98520647593","","1134","
                <div class=""stimulus-container"">
                    <img src=""images/schematic_sequence/supermarket_scheme/supermarket_scheme_6.png"" class=""exp-image"">
                    <div class=""question-area"">
                        <p style=""font-size: 20px; font-weight: bold; margin: 0;"">Is there a person in this image?</p>
                    </div>
                </div>","0","main_experiment_trial","6","supermarket_scheme","schematic_sequence","","","","",""
"","","","","","html-keyboard-response","71","254499","0.0-71.0","8C5E80CE7CD6463292A7C0DF01B68697","019cf4ee-8137-7689-9961-63bedada946e","019cf4c8-1de8-79ec-b3bd-d98520647593","","null","
                <div class=""stimulus-container"">
                    <img src=""images/schematic_sequence/supermarket_scheme/supermarket_scheme_7.png"" class=""exp-image"">
                    <div class=""question-area""></div> 
                </div>","null","","","","","","","","",""
"","","","","","html-button-response","72","256392","0.0-72.0","8C5E80CE7CD6463292A7C0DF01B68697","019cf4ee-8137-7689-9961-63bedada946e","019cf4c8-1de8-79ec-b3bd-d98520647593","","1892","
                <div class=""stimulus-container"">
                    <img src=""images/schematic_sequence/supermarket_scheme/supermarket_scheme_7.png"" class=""exp-image"">
                    <div class=""question-area"">
                        <p style=""font-size: 20px; font-weight: bold; margin: 0;"">Is there a person in this image?</p>
                    </div>
                </div>","0","main_experiment_trial","7","supermarket_scheme","schematic_sequence","","","","",""
"","","","","","html-keyboard-response","73","261395","0.0-73.0","8C5E80CE7CD6463292A7C0DF01B68697","019cf4ee-8137-7689-9961-63bedada946e","019cf4c8-1de8-79ec-b3bd-d98520647593","","null","
                <div class=""stimulus-container"">
                    <img src=""images/schematic_sequence/supermarket_scheme/supermarket_scheme_8.png"" class=""exp-image"">
                    <div class=""question-area""></div> 
                </div>","null","","","","","","","","",""
"","","","","","html-button-response","74","262397","0.0-74.0","8C5E80CE7CD6463292A7C0DF01B68697","019cf4ee-8137-7689-9961-63bedada946e","019cf4c8-1de8-79ec-b3bd-d98520647593","","1000","
                <div class=""stimulus-container"">
                    <img src=""images/schematic_sequence/supermarket_scheme/supermarket_scheme_8.png"" class=""exp-image"">
                    <div class=""question-area"">
                        <p style=""font-size: 20px; font-weight: bold; margin: 0;"">Is there a person in this image?</p>
                    </div>
                </div>","0","main_experiment_trial","8","supermarket_scheme","schematic_sequence","","","","",""
"","","","","","html-keyboard-response","75","267400","0.0-75.0","8C5E80CE7CD6463292A7C0DF01B68697","019cf4ee-8137-7689-9961-63bedada946e","019cf4c8-1de8-79ec-b3bd-d98520647593","","null","
                <div class=""stimulus-container"">
                    <img src=""images/schematic_sequence/supermarket_scheme/supermarket_scheme_9.png"" class=""exp-image"">
                    <div class=""question-area""></div> 
                </div>","null","","","","","","","","",""
"","","","","","html-button-response","76","268950","0.0-76.0","8C5E80CE7CD6463292A7C0DF01B68697","019cf4ee-8137-7689-9961-63bedada946e","019cf4c8-1de8-79ec-b3bd-d98520647593","","1549","
                <div class=""stimulus-container"">
                    <img src=""images/schematic_sequence/supermarket_scheme/supermarket_scheme_9.png"" class=""exp-image"">
                    <div class=""question-area"">
                        <p style=""font-size: 20px; font-weight: bold; margin: 0;"">Is there a person in this image?</p>
                    </div>
                </div>","0","main_experiment_trial","9","supermarket_scheme","schematic_sequence","","","","",""
"","","","","","html-keyboard-response","77","273954","0.0-77.0","8C5E80CE7CD6463292A7C0DF01B68697","019cf4ee-8137-7689-9961-63bedada946e","019cf4c8-1de8-79ec-b3bd-d98520647593","","null","
                <div class=""stimulus-container"">
                    <img src=""images/schematic_sequence/supermarket_scheme/supermarket_scheme_ten.png"" class=""exp-image"">
                    <div class=""question-area""></div> 
                </div>","null","","","","","","","","",""
"","","","","","html-button-response","78","274950","0.0-78.0","8C5E80CE7CD6463292A7C0DF01B68697","019cf4ee-8137-7689-9961-63bedada946e","019cf4c8-1de8-79ec-b3bd-d98520647593","","994","
                <div class=""stimulus-container"">
                    <img src=""images/schematic_sequence/supermarket_scheme/supermarket_scheme_ten.png"" class=""exp-image"">
                    <div class=""question-area"">
                        <p style=""font-size: 20px; font-weight: bold; margin: 0;"">Is there a person in this image?</p>
                    </div>
                </div>","1","main_experiment_trial","ten","supermarket_scheme","schematic_sequence","","","","",""
"","","","","","html-keyboard-response","79","275952","0.0-79.0","8C5E80CE7CD6463292A7C0DF01B68697","019cf4ee-8137-7689-9961-63bedada946e","019cf4c8-1de8-79ec-b3bd-d98520647593","","null","<div style=""background-color: white; width: 100vw; height: 100vh;""></div>","null","","","","","","","","",""
"","","","","","html-keyboard-response","80","280957","0.0-80.0","8C5E80CE7CD6463292A7C0DF01B68697","019cf4ee-8137-7689-9961-63bedada946e","019cf4c8-1de8-79ec-b3bd-d98520647593","","null","
                <div class=""stimulus-container"">
                    <img src=""images/causal_sequence/coin_causal/coin_causal_1.png"" class=""exp-image"">
                    <div class=""question-area""></div> 
                </div>","null","","","","","","","","",""
"","","","","","html-button-response","81","282819","0.0-81.0","8C5E80CE7CD6463292A7C0DF01B68697","019cf4ee-8137-7689-9961-63bedada946e","019cf4c8-1de8-79ec-b3bd-d98520647593","","1861","
                <div class=""stimulus-container"">
                    <img src=""images/causal_sequence/coin_causal/coin_causal_1.png"" class=""exp-image"">
                    <div class=""question-area"">
                        <p style=""font-size: 20px; font-weight: bold; margin: 0;"">Is there a person in this image?</p>
                    </div>
                </div>","0","main_experiment_trial","1","coin_causal","causal_sequence","","","","",""
"","","","","","html-keyboard-response","82","287822","0.0-82.0","8C5E80CE7CD6463292A7C0DF01B68697","019cf4ee-8137-7689-9961-63bedada946e","019cf4c8-1de8-79ec-b3bd-d98520647593","","null","
                <div class=""stimulus-container"">
                    <img src=""images/causal_sequence/coin_causal/coin_causal_2.png"" class=""exp-image"">
                    <div class=""question-area""></div> 
                </div>","null","","","","","","","","",""
"","","","","","html-button-response","83","289628","0.0-83.0","8C5E80CE7CD6463292A7C0DF01B68697","019cf4ee-8137-7689-9961-63bedada946e","019cf4c8-1de8-79ec-b3bd-d98520647593","","1804","
                <div class=""stimulus-container"">
                    <img src=""images/causal_sequence/coin_causal/coin_causal_2.png"" class=""exp-image"">
                    <div class=""question-area"">
                        <p style=""font-size: 20px; font-weight: bold; margin: 0;"">Is there a person in this image?</p>
                    </div>
                </div>","0","main_experiment_trial","2","coin_causal","causal_sequence","","","","",""
"","","","","","html-keyboard-response","84","294631","0.0-84.0","8C5E80CE7CD6463292A7C0DF01B68697","019cf4ee-8137-7689-9961-63bedada946e","019cf4c8-1de8-79ec-b3bd-d98520647593","","null","
                <div class=""stimulus-container"">
                    <img src=""images/causal_sequence/coin_causal/coin_causal_3.png"" class=""exp-image"">
                    <div class=""question-area""></div> 
                </div>","null","","","","","","","","",""
"","","","","","html-button-response","85","295579","0.0-85.0","8C5E80CE7CD6463292A7C0DF01B68697","019cf4ee-8137-7689-9961-63bedada946e","019cf4c8-1de8-79ec-b3bd-d98520647593","","946","
                <div class=""stimulus-container"">
                    <img src=""images/causal_sequence/coin_causal/coin_causal_3.png"" class=""exp-image"">
                    <div class=""question-area"">
                        <p style=""font-size: 20px; font-weight: bold; margin: 0;"">Is there a person in this image?</p>
                    </div>
                </div>","0","main_experiment_trial","3","coin_causal","causal_sequence","","","","",""
"","","","","","html-keyboard-response","86","300581","0.0-86.0","8C5E80CE7CD6463292A7C0DF01B68697","019cf4ee-8137-7689-9961-63bedada946e","019cf4c8-1de8-79ec-b3bd-d98520647593","","null","
                <div class=""stimulus-container"">
                    <img src=""images/causal_sequence/coin_causal/coin_causal_4.png"" class=""exp-image"">
                    <div class=""question-area""></div> 
                </div>","null","","","","","","","","",""
"","","","","","html-button-response","87","301560","0.0-87.0","8C5E80CE7CD6463292A7C0DF01B68697","019cf4ee-8137-7689-9961-63bedada946e","019cf4c8-1de8-79ec-b3bd-d98520647593","","978","
                <div class=""stimulus-container"">
                    <img src=""images/causal_sequence/coin_causal/coin_causal_4.png"" class=""exp-image"">
                    <div class=""question-area"">
                        <p style=""font-size: 20px; font-weight: bold; margin: 0;"">Is there a person in this image?</p>
                    </div>
                </div>","0","main_experiment_trial","4","coin_causal","causal_sequence","","","","",""
"","","","","","html-keyboard-response","88","306563","0.0-88.0","8C5E80CE7CD6463292A7C0DF01B68697","019cf4ee-8137-7689-9961-63bedada946e","019cf4c8-1de8-79ec-b3bd-d98520647593","","null","
                <div class=""stimulus-container"">
                    <img src=""images/causal_sequence/coin_causal/coin_causal_5.png"" class=""exp-image"">
                    <div class=""question-area""></div> 
                </div>","null","","","","","","","","",""
"","","","","","html-button-response","89","307329","0.0-89.0","8C5E80CE7CD6463292A7C0DF01B68697","019cf4ee-8137-7689-9961-63bedada946e","019cf4c8-1de8-79ec-b3bd-d98520647593","","764","
                <div class=""stimulus-container"">
                    <img src=""images/causal_sequence/coin_causal/coin_causal_5.png"" class=""exp-image"">
                    <div class=""question-area"">
                        <p style=""font-size: 20px; font-weight: bold; margin: 0;"">Is there a person in this image?</p>
                    </div>
                </div>","0","main_experiment_trial","5","coin_causal","causal_sequence","","","","",""
"","","","","","html-keyboard-response","90","312331","0.0-90.0","8C5E80CE7CD6463292A7C0DF01B68697","019cf4ee-8137-7689-9961-63bedada946e","019cf4c8-1de8-79ec-b3bd-d98520647593","","null","
                <div class=""stimulus-container"">
                    <img src=""images/causal_sequence/coin_causal/coin_causal_6.png"" class=""exp-image"">
                    <div class=""question-area""></div> 
                </div>","null","","","","","","","","",""
"","","","","","html-button-response","91","314481","0.0-91.0","8C5E80CE7CD6463292A7C0DF01B68697","019cf4ee-8137-7689-9961-63bedada946e","019cf4c8-1de8-79ec-b3bd-d98520647593","","2149","
                <div class=""stimulus-container"">
                    <img src=""images/causal_sequence/coin_causal/coin_causal_6.png"" class=""exp-image"">
                    <div class=""question-area"">
                        <p style=""font-size: 20px; font-weight: bold; margin: 0;"">Is there a person in this image?</p>
                    </div>
                </div>","0","main_experiment_trial","6","coin_causal","causal_sequence","","","","",""
"","","","","","html-keyboard-response","92","319484","0.0-92.0","8C5E80CE7CD6463292A7C0DF01B68697","019cf4ee-8137-7689-9961-63bedada946e","019cf4c8-1de8-79ec-b3bd-d98520647593","","null","
                <div class=""stimulus-container"">
                    <img src=""images/causal_sequence/coin_causal/coin_causal_7.png"" class=""exp-image"">
                    <div class=""question-area""></div> 
                </div>","null","","","","","","","","",""
"","","","","","html-button-response","93","320505","0.0-93.0","8C5E80CE7CD6463292A7C0DF01B68697","019cf4ee-8137-7689-9961-63bedada946e","019cf4c8-1de8-79ec-b3bd-d98520647593","","1018","
                <div class=""stimulus-container"">
                    <img src=""images/causal_sequence/coin_causal/coin_causal_7.png"" class=""exp-image"">
                    <div class=""question-area"">
                        <p style=""font-size: 20px; font-weight: bold; margin: 0;"">Is there a person in this image?</p>
                    </div>
                </div>","1","main_experiment_trial","7","coin_causal","causal_sequence","","","","",""
"","","","","","html-keyboard-response","94","325508","0.0-94.0","8C5E80CE7CD6463292A7C0DF01B68697","019cf4ee-8137-7689-9961-63bedada946e","019cf4c8-1de8-79ec-b3bd-d98520647593","","null","
                <div class=""stimulus-container"">
                    <img src=""images/causal_sequence/coin_causal/coin_causal_8.png"" class=""exp-image"">
                    <div class=""question-area""></div> 
                </div>","null","","","","","","","","",""
"","","","","","html-button-response","95","326688","0.0-95.0","8C5E80CE7CD6463292A7C0DF01B68697","019cf4ee-8137-7689-9961-63bedada946e","019cf4c8-1de8-79ec-b3bd-d98520647593","","1179","
                <div class=""stimulus-container"">
                    <img src=""images/causal_sequence/coin_causal/coin_causal_8.png"" class=""exp-image"">
                    <div class=""question-area"">
                        <p style=""font-size: 20px; font-weight: bold; margin: 0;"">Is there a person in this image?</p>
                    </div>
                </div>","0","main_experiment_trial","8","coin_causal","causal_sequence","","","","",""
"","","","","","html-keyboard-response","96","331692","0.0-96.0","8C5E80CE7CD6463292A7C0DF01B68697","019cf4ee-8137-7689-9961-63bedada946e","019cf4c8-1de8-79ec-b3bd-d98520647593","","null","
                <div class=""stimulus-container"">
                    <img src=""images/causal_sequence/coin_causal/coin_causal_9.png"" class=""exp-image"">
                    <div class=""question-area""></div> 
                </div>","null","","","","","","","","",""
"","","","","","html-button-response","97","332280","0.0-97.0","8C5E80CE7CD6463292A7C0DF01B68697","019cf4ee-8137-7689-9961-63bedada946e","019cf4c8-1de8-79ec-b3bd-d98520647593","","587","
                <div class=""stimulus-container"">
                    <img src=""images/causal_sequence/coin_causal/coin_causal_9.png"" class=""exp-image"">
                    <div class=""question-area"">
                        <p style=""font-size: 20px; font-weight: bold; margin: 0;"">Is there a person in this image?</p>
                    </div>
                </div>","0","main_experiment_trial","9","coin_causal","causal_sequence","","","","",""
"","","","","","html-keyboard-response","98","337282","0.0-98.0","8C5E80CE7CD6463292A7C0DF01B68697","019cf4ee-8137-7689-9961-63bedada946e","019cf4c8-1de8-79ec-b3bd-d98520647593","","null","
                <div class=""stimulus-container"">
                    <img src=""images/causal_sequence/coin_causal/coin_causal_ten.png"" class=""exp-image"">
                    <div class=""question-area""></div> 
                </div>","null","","","","","","","","",""
"","","","","","html-button-response","99","338413","0.0-99.0","8C5E80CE7CD6463292A7C0DF01B68697","019cf4ee-8137-7689-9961-63bedada946e","019cf4c8-1de8-79ec-b3bd-d98520647593","","1129","
                <div class=""stimulus-container"">
                    <img src=""images/causal_sequence/coin_causal/coin_causal_ten.png"" class=""exp-image"">
                    <div class=""question-area"">
                        <p style=""font-size: 20px; font-weight: bold; margin: 0;"">Is there a person in this image?</p>
                    </div>
                </div>","0","main_experiment_trial","ten","coin_causal","causal_sequence","","","","",""
"","","","","","html-keyboard-response","100","339415","0.0-100.0","8C5E80CE7CD6463292A7C0DF01B68697","019cf4ee-8137-7689-9961-63bedada946e","019cf4c8-1de8-79ec-b3bd-d98520647593","","null","<div style=""background-color: white; width: 100vw; height: 100vh;""></div>","null","","","","","","","","",""
"","","","","","html-keyboard-response","101","344417","0.0-101.0","8C5E80CE7CD6463292A7C0DF01B68697","019cf4ee-8137-7689-9961-63bedada946e","019cf4c8-1de8-79ec-b3bd-d98520647593","","null","
                <div class=""stimulus-container"">
                    <img src=""images/causal_sequence/package_causal/package_causal_1.png"" class=""exp-image"">
                    <div class=""question-area""></div> 
                </div>","null","","","","","","","","",""
"","","","","","html-button-response","102","345024","0.0-102.0","8C5E80CE7CD6463292A7C0DF01B68697","019cf4ee-8137-7689-9961-63bedada946e","019cf4c8-1de8-79ec-b3bd-d98520647593","","605","
                <div class=""stimulus-container"">
                    <img src=""images/causal_sequence/package_causal/package_causal_1.png"" class=""exp-image"">
                    <div class=""question-area"">
                        <p style=""font-size: 20px; font-weight: bold; margin: 0;"">Is there a person in this image?</p>
                    </div>
                </div>","0","main_experiment_trial","1","package_causal","causal_sequence","","","","",""
"","","","","","html-keyboard-response","103","350027","0.0-103.0","8C5E80CE7CD6463292A7C0DF01B68697","019cf4ee-8137-7689-9961-63bedada946e","019cf4c8-1de8-79ec-b3bd-d98520647593","","null","
                <div class=""stimulus-container"">
                    <img src=""images/causal_sequence/package_causal/package_causal_2.png"" class=""exp-image"">
                    <div class=""question-area""></div> 
                </div>","null","","","","","","","","",""
"","","","","","html-button-response","104","350795","0.0-104.0","8C5E80CE7CD6463292A7C0DF01B68697","019cf4ee-8137-7689-9961-63bedada946e","019cf4c8-1de8-79ec-b3bd-d98520647593","","767","
                <div class=""stimulus-container"">
                    <img src=""images/causal_sequence/package_causal/package_causal_2.png"" class=""exp-image"">
                    <div class=""question-area"">
                        <p style=""font-size: 20px; font-weight: bold; margin: 0;"">Is there a person in this image?</p>
                    </div>
                </div>","0","main_experiment_trial","2","package_causal","causal_sequence","","","","",""
"","","","","","html-keyboard-response","105","355797","0.0-105.0","8C5E80CE7CD6463292A7C0DF01B68697","019cf4ee-8137-7689-9961-63bedada946e","019cf4c8-1de8-79ec-b3bd-d98520647593","","null","
                <div class=""stimulus-container"">
                    <img src=""images/causal_sequence/package_causal/package_causal_3.png"" class=""exp-image"">
                    <div class=""question-area""></div> 
                </div>","null","","","","","","","","",""
"","","","","","html-button-response","106","356394","0.0-106.0","8C5E80CE7CD6463292A7C0DF01B68697","019cf4ee-8137-7689-9961-63bedada946e","019cf4c8-1de8-79ec-b3bd-d98520647593","","594","
                <div class=""stimulus-container"">
                    <img src=""images/causal_sequence/package_causal/package_causal_3.png"" class=""exp-image"">
                    <div class=""question-area"">
                        <p style=""font-size: 20px; font-weight: bold; margin: 0;"">Is there a person in this image?</p>
                    </div>
                </div>","0","main_experiment_trial","3","package_causal","causal_sequence","","","","",""
"","","","","","html-keyboard-response","107","361395","0.0-107.0","8C5E80CE7CD6463292A7C0DF01B68697","019cf4ee-8137-7689-9961-63bedada946e","019cf4c8-1de8-79ec-b3bd-d98520647593","","null","
                <div class=""stimulus-container"">
                    <img src=""images/causal_sequence/package_causal/package_causal_4.png"" class=""exp-image"">
                    <div class=""question-area""></div> 
                </div>","null","","","","","","","","",""
"","","","","","html-button-response","108","362581","0.0-108.0","8C5E80CE7CD6463292A7C0DF01B68697","019cf4ee-8137-7689-9961-63bedada946e","019cf4c8-1de8-79ec-b3bd-d98520647593","","1185","
                <div class=""stimulus-container"">
                    <img src=""images/causal_sequence/package_causal/package_causal_4.png"" class=""exp-image"">
                    <div class=""question-area"">
                        <p style=""font-size: 20px; font-weight: bold; margin: 0;"">Is there a person in this image?</p>
                    </div>
                </div>","1","main_experiment_trial","4","package_causal","causal_sequence","","","","",""
"","","","","","html-keyboard-response","109","367585","0.0-109.0","8C5E80CE7CD6463292A7C0DF01B68697","019cf4ee-8137-7689-9961-63bedada946e","019cf4c8-1de8-79ec-b3bd-d98520647593","","null","
                <div class=""stimulus-container"">
                    <img src=""images/causal_sequence/package_causal/package_causal_5.png"" class=""exp-image"">
                    <div class=""question-area""></div> 
                </div>","null","","","","","","","","",""
"","","","","","html-button-response","110","368387","0.0-110.0","8C5E80CE7CD6463292A7C0DF01B68697","019cf4ee-8137-7689-9961-63bedada946e","019cf4c8-1de8-79ec-b3bd-d98520647593","","800","
                <div class=""stimulus-container"">
                    <img src=""images/causal_sequence/package_causal/package_causal_5.png"" class=""exp-image"">
                    <div class=""question-area"">
                        <p style=""font-size: 20px; font-weight: bold; margin: 0;"">Is there a person in this image?</p>
                    </div>
                </div>","0","main_experiment_trial","5","package_causal","causal_sequence","","","","",""
"","","","","","html-keyboard-response","111","373391","0.0-111.0","8C5E80CE7CD6463292A7C0DF01B68697","019cf4ee-8137-7689-9961-63bedada946e","019cf4c8-1de8-79ec-b3bd-d98520647593","","null","
                <div class=""stimulus-container"">
                    <img src=""images/causal_sequence/package_causal/package_causal_6.png"" class=""exp-image"">
                    <div class=""question-area""></div> 
                </div>","null","","","","","","","","",""
"","","","","","html-button-response","112","374319","0.0-112.0","8C5E80CE7CD6463292A7C0DF01B68697","019cf4ee-8137-7689-9961-63bedada946e","019cf4c8-1de8-79ec-b3bd-d98520647593","","927","
                <div class=""stimulus-container"">
                    <img src=""images/causal_sequence/package_causal/package_causal_6.png"" class=""exp-image"">
                    <div class=""question-area"">
                        <p style=""font-size: 20px; font-weight: bold; margin: 0;"">Is there a person in this image?</p>
                    </div>
                </div>","0","main_experiment_trial","6","package_causal","causal_sequence","","","","",""
"","","","","","html-keyboard-response","113","379323","0.0-113.0","8C5E80CE7CD6463292A7C0DF01B68697","019cf4ee-8137-7689-9961-63bedada946e","019cf4c8-1de8-79ec-b3bd-d98520647593","","null","
                <div class=""stimulus-container"">
                    <img src=""images/causal_sequence/package_causal/package_causal_7.png"" class=""exp-image"">
                    <div class=""question-area""></div> 
                </div>","null","","","","","","","","",""
"","","","","","html-button-response","114","380230","0.0-114.0","8C5E80CE7CD6463292A7C0DF01B68697","019cf4ee-8137-7689-9961-63bedada946e","019cf4c8-1de8-79ec-b3bd-d98520647593","","906","
                <div class=""stimulus-container"">
                    <img src=""images/causal_sequence/package_causal/package_causal_7.png"" class=""exp-image"">
                    <div class=""question-area"">
                        <p style=""font-size: 20px; font-weight: bold; margin: 0;"">Is there a person in this image?</p>
                    </div>
                </div>","0","main_experiment_trial","7","package_causal","causal_sequence","","","","",""
"","","","","","html-keyboard-response","115","385234","0.0-115.0","8C5E80CE7CD6463292A7C0DF01B68697","019cf4ee-8137-7689-9961-63bedada946e","019cf4c8-1de8-79ec-b3bd-d98520647593","","null","
                <div class=""stimulus-container"">
                    <img src=""images/causal_sequence/package_causal/package_causal_8.png"" class=""exp-image"">
                    <div class=""question-area""></div> 
                </div>","null","","","","","","","","",""
"","","","","","html-button-response","116","385851","0.0-116.0","8C5E80CE7CD6463292A7C0DF01B68697","019cf4ee-8137-7689-9961-63bedada946e","019cf4c8-1de8-79ec-b3bd-d98520647593","","616","
                <div class=""stimulus-container"">
                    <img src=""images/causal_sequence/package_causal/package_causal_8.png"" class=""exp-image"">
                    <div class=""question-area"">
                        <p style=""font-size: 20px; font-weight: bold; margin: 0;"">Is there a person in this image?</p>
                    </div>
                </div>","0","main_experiment_trial","8","package_causal","causal_sequence","","","","",""
"","","","","","html-keyboard-response","117","390854","0.0-117.0","8C5E80CE7CD6463292A7C0DF01B68697","019cf4ee-8137-7689-9961-63bedada946e","019cf4c8-1de8-79ec-b3bd-d98520647593","","null","
                <div class=""stimulus-container"">
                    <img src=""images/causal_sequence/package_causal/package_causal_9.png"" class=""exp-image"">
                    <div class=""question-area""></div> 
                </div>","null","","","","","","","","",""
"","","","","","html-button-response","118","392073","0.0-118.0","8C5E80CE7CD6463292A7C0DF01B68697","019cf4ee-8137-7689-9961-63bedada946e","019cf4c8-1de8-79ec-b3bd-d98520647593","","1217","
                <div class=""stimulus-container"">
                    <img src=""images/causal_sequence/package_causal/package_causal_9.png"" class=""exp-image"">
                    <div class=""question-area"">
                        <p style=""font-size: 20px; font-weight: bold; margin: 0;"">Is there a person in this image?</p>
                    </div>
                </div>","0","main_experiment_trial","9","package_causal","causal_sequence","","","","",""
"","","","","","html-keyboard-response","119","397074","0.0-119.0","8C5E80CE7CD6463292A7C0DF01B68697","019cf4ee-8137-7689-9961-63bedada946e","019cf4c8-1de8-79ec-b3bd-d98520647593","","null","
                <div class=""stimulus-container"">
                    <img src=""images/causal_sequence/package_causal/package_causal_ten.png"" class=""exp-image"">
                    <div class=""question-area""></div> 
                </div>","null","","","","","","","","",""
"","","","","","html-button-response","120","398007","0.0-120.0","8C5E80CE7CD6463292A7C0DF01B68697","019cf4ee-8137-7689-9961-63bedada946e","019cf4c8-1de8-79ec-b3bd-d98520647593","","932","
                <div class=""stimulus-container"">
                    <img src=""images/causal_sequence/package_causal/package_causal_ten.png"" class=""exp-image"">
                    <div class=""question-area"">
                        <p style=""font-size: 20px; font-weight: bold; margin: 0;"">Is there a person in this image?</p>
                    </div>
                </div>","0","main_experiment_trial","ten","package_causal","causal_sequence","","","","",""
"","","","","","html-keyboard-response","121","399009","0.0-121.0","8C5E80CE7CD6463292A7C0DF01B68697","019cf4ee-8137-7689-9961-63bedada946e","019cf4c8-1de8-79ec-b3bd-d98520647593","","null","<div style=""background-color: white; width: 100vw; height: 100vh;""></div>","null","","","","","","","","",""
"","","","","","html-keyboard-response","122","404013","0.0-122.0","8C5E80CE7CD6463292A7C0DF01B68697","019cf4ee-8137-7689-9961-63bedada946e","019cf4c8-1de8-79ec-b3bd-d98520647593","","null","
                <div class=""stimulus-container"">
                    <img src=""images/schematic_sequence/flight_scheme/flight_scheme_1.png"" class=""exp-image"">
                    <div class=""question-area""></div> 
                </div>","null","","","","","","","","",""
"","","","","","html-button-response","123","405007","0.0-123.0","8C5E80CE7CD6463292A7C0DF01B68697","019cf4ee-8137-7689-9961-63bedada946e","019cf4c8-1de8-79ec-b3bd-d98520647593","","992","
                <div class=""stimulus-container"">
                    <img src=""images/schematic_sequence/flight_scheme/flight_scheme_1.png"" class=""exp-image"">
                    <div class=""question-area"">
                        <p style=""font-size: 20px; font-weight: bold; margin: 0;"">Is there a person in this image?</p>
                    </div>
                </div>","0","main_experiment_trial","1","flight_scheme","schematic_sequence","","","","",""
"","","","","","html-keyboard-response","124","410010","0.0-124.0","8C5E80CE7CD6463292A7C0DF01B68697","019cf4ee-8137-7689-9961-63bedada946e","019cf4c8-1de8-79ec-b3bd-d98520647593","","null","
                <div class=""stimulus-container"">
                    <img src=""images/schematic_sequence/flight_scheme/flight_scheme_2.png"" class=""exp-image"">
                    <div class=""question-area""></div> 
                </div>","null","","","","","","","","",""
"","","","","","html-button-response","125","411787","0.0-125.0","8C5E80CE7CD6463292A7C0DF01B68697","019cf4ee-8137-7689-9961-63bedada946e","019cf4c8-1de8-79ec-b3bd-d98520647593","","1776","
                <div class=""stimulus-container"">
                    <img src=""images/schematic_sequence/flight_scheme/flight_scheme_2.png"" class=""exp-image"">
                    <div class=""question-area"">
                        <p style=""font-size: 20px; font-weight: bold; margin: 0;"">Is there a person in this image?</p>
                    </div>
                </div>","1","main_experiment_trial","2","flight_scheme","schematic_sequence","","","","",""
"","","","","","html-keyboard-response","126","416789","0.0-126.0","8C5E80CE7CD6463292A7C0DF01B68697","019cf4ee-8137-7689-9961-63bedada946e","019cf4c8-1de8-79ec-b3bd-d98520647593","","null","
                <div class=""stimulus-container"">
                    <img src=""images/schematic_sequence/flight_scheme/flight_scheme_3.png"" class=""exp-image"">
                    <div class=""question-area""></div> 
                </div>","null","","","","","","","","",""
"","","","","","html-button-response","127","419792","0.0-127.0","8C5E80CE7CD6463292A7C0DF01B68697","019cf4ee-8137-7689-9961-63bedada946e","019cf4c8-1de8-79ec-b3bd-d98520647593","","null","
                <div class=""stimulus-container"">
                    <img src=""images/schematic_sequence/flight_scheme/flight_scheme_3.png"" class=""exp-image"">
                    <div class=""question-area"">
                        <p style=""font-size: 20px; font-weight: bold; margin: 0;"">Is there a person in this image?</p>
                    </div>
                </div>","null","main_experiment_trial","3","flight_scheme","schematic_sequence","","","","",""
"","","","","","html-keyboard-response","128","424795","0.0-128.0","8C5E80CE7CD6463292A7C0DF01B68697","019cf4ee-8137-7689-9961-63bedada946e","019cf4c8-1de8-79ec-b3bd-d98520647593","","null","
                <div class=""stimulus-container"">
                    <img src=""images/schematic_sequence/flight_scheme/flight_scheme_4.png"" class=""exp-image"">
                    <div class=""question-area""></div> 
                </div>","null","","","","","","","","",""
"","","","","","html-button-response","129","425662","0.0-129.0","8C5E80CE7CD6463292A7C0DF01B68697","019cf4ee-8137-7689-9961-63bedada946e","019cf4c8-1de8-79ec-b3bd-d98520647593","","865","
                <div class=""stimulus-container"">
                    <img src=""images/schematic_sequence/flight_scheme/flight_scheme_4.png"" class=""exp-image"">
                    <div class=""question-area"">
                        <p style=""font-size: 20px; font-weight: bold; margin: 0;"">Is there a person in this image?</p>
                    </div>
                </div>","0","main_experiment_trial","4","flight_scheme","schematic_sequence","","","","",""
"","","","","","html-keyboard-response","130","430664","0.0-130.0","8C5E80CE7CD6463292A7C0DF01B68697","019cf4ee-8137-7689-9961-63bedada946e","019cf4c8-1de8-79ec-b3bd-d98520647593","","null","
                <div class=""stimulus-container"">
                    <img src=""images/schematic_sequence/flight_scheme/flight_scheme_5.png"" class=""exp-image"">
                    <div class=""question-area""></div> 
                </div>","null","","","","","","","","",""
"","","","","","html-button-response","131","431963","0.0-131.0","8C5E80CE7CD6463292A7C0DF01B68697","019cf4ee-8137-7689-9961-63bedada946e","019cf4c8-1de8-79ec-b3bd-d98520647593","","1297","
                <div class=""stimulus-container"">
                    <img src=""images/schematic_sequence/flight_scheme/flight_scheme_5.png"" class=""exp-image"">
                    <div class=""question-area"">
                        <p style=""font-size: 20px; font-weight: bold; margin: 0;"">Is there a person in this image?</p>
                    </div>
                </div>","0","main_experiment_trial","5","flight_scheme","schematic_sequence","","","","",""
"","","","","","html-keyboard-response","132","436967","0.0-132.0","8C5E80CE7CD6463292A7C0DF01B68697","019cf4ee-8137-7689-9961-63bedada946e","019cf4c8-1de8-79ec-b3bd-d98520647593","","null","
                <div class=""stimulus-container"">
                    <img src=""images/schematic_sequence/flight_scheme/flight_scheme_6.png"" class=""exp-image"">
                    <div class=""question-area""></div> 
                </div>","null","","","","","","","","",""
"","","","","","html-button-response","133","438322","0.0-133.0","8C5E80CE7CD6463292A7C0DF01B68697","019cf4ee-8137-7689-9961-63bedada946e","019cf4c8-1de8-79ec-b3bd-d98520647593","","1353","
                <div class=""stimulus-container"">
                    <img src=""images/schematic_sequence/flight_scheme/flight_scheme_6.png"" class=""exp-image"">
                    <div class=""question-area"">
                        <p style=""font-size: 20px; font-weight: bold; margin: 0;"">Is there a person in this image?</p>
                    </div>
                </div>","1","main_experiment_trial","6","flight_scheme","schematic_sequence","","","","",""
"","","","","","html-keyboard-response","134","443323","0.0-134.0","8C5E80CE7CD6463292A7C0DF01B68697","019cf4ee-8137-7689-9961-63bedada946e","019cf4c8-1de8-79ec-b3bd-d98520647593","","null","
                <div class=""stimulus-container"">
                    <img src=""images/schematic_sequence/flight_scheme/flight_scheme_7.png"" class=""exp-image"">
                    <div class=""question-area""></div> 
                </div>","null","","","","","","","","",""
"","","","","","html-button-response","135","444129","0.0-135.0","8C5E80CE7CD6463292A7C0DF01B68697","019cf4ee-8137-7689-9961-63bedada946e","019cf4c8-1de8-79ec-b3bd-d98520647593","","804","
                <div class=""stimulus-container"">
                    <img src=""images/schematic_sequence/flight_scheme/flight_scheme_7.png"" class=""exp-image"">
                    <div class=""question-area"">
                        <p style=""font-size: 20px; font-weight: bold; margin: 0;"">Is there a person in this image?</p>
                    </div>
                </div>","0","main_experiment_trial","7","flight_scheme","schematic_sequence","","","","",""
"","","","","","html-keyboard-response","136","449132","0.0-136.0","8C5E80CE7CD6463292A7C0DF01B68697","019cf4ee-8137-7689-9961-63bedada946e","019cf4c8-1de8-79ec-b3bd-d98520647593","","null","
                <div class=""stimulus-container"">
                    <img src=""images/schematic_sequence/flight_scheme/flight_scheme_8.png"" class=""exp-image"">
                    <div class=""question-area""></div> 
                </div>","null","","","","","","","","",""
"","","","","","html-button-response","137","451048","0.0-137.0","8C5E80CE7CD6463292A7C0DF01B68697","019cf4ee-8137-7689-9961-63bedada946e","019cf4c8-1de8-79ec-b3bd-d98520647593","","1915","
                <div class=""stimulus-container"">
                    <img src=""images/schematic_sequence/flight_scheme/flight_scheme_8.png"" class=""exp-image"">
                    <div class=""question-area"">
                        <p style=""font-size: 20px; font-weight: bold; margin: 0;"">Is there a person in this image?</p>
                    </div>
                </div>","1","main_experiment_trial","8","flight_scheme","schematic_sequence","","","","",""
"","","","","","html-keyboard-response","138","456051","0.0-138.0","8C5E80CE7CD6463292A7C0DF01B68697","019cf4ee-8137-7689-9961-63bedada946e","019cf4c8-1de8-79ec-b3bd-d98520647593","","null","
                <div class=""stimulus-container"">
                    <img src=""images/schematic_sequence/flight_scheme/flight_scheme_9.png"" class=""exp-image"">
                    <div class=""question-area""></div> 
                </div>","null","","","","","","","","",""
"","","","","","html-button-response","139","457105","0.0-139.0","8C5E80CE7CD6463292A7C0DF01B68697","019cf4ee-8137-7689-9961-63bedada946e","019cf4c8-1de8-79ec-b3bd-d98520647593","","1053","
                <div class=""stimulus-container"">
                    <img src=""images/schematic_sequence/flight_scheme/flight_scheme_9.png"" class=""exp-image"">
                    <div class=""question-area"">
                        <p style=""font-size: 20px; font-weight: bold; margin: 0;"">Is there a person in this image?</p>
                    </div>
                </div>","0","main_experiment_trial","9","flight_scheme","schematic_sequence","","","","",""
"","","","","","html-keyboard-response","140","462108","0.0-140.0","8C5E80CE7CD6463292A7C0DF01B68697","019cf4ee-8137-7689-9961-63bedada946e","019cf4c8-1de8-79ec-b3bd-d98520647593","","null","
                <div class=""stimulus-container"">
                    <img src=""images/schematic_sequence/flight_scheme/flight_scheme_ten.png"" class=""exp-image"">
                    <div class=""question-area""></div> 
                </div>","null","","","","","","","","",""
"","","","","","html-button-response","141","463755","0.0-141.0","8C5E80CE7CD6463292A7C0DF01B68697","019cf4ee-8137-7689-9961-63bedada946e","019cf4c8-1de8-79ec-b3bd-d98520647593","","1646","
                <div class=""stimulus-container"">
                    <img src=""images/schematic_sequence/flight_scheme/flight_scheme_ten.png"" class=""exp-image"">
                    <div class=""question-area"">
                        <p style=""font-size: 20px; font-weight: bold; margin: 0;"">Is there a person in this image?</p>
                    </div>
                </div>","0","main_experiment_trial","ten","flight_scheme","schematic_sequence","","","","",""
"","","","","","html-keyboard-response","142","464758","0.0-142.0","8C5E80CE7CD6463292A7C0DF01B68697","019cf4ee-8137-7689-9961-63bedada946e","019cf4c8-1de8-79ec-b3bd-d98520647593","","null","<div style=""background-color: white; width: 100vw; height: 100vh;""></div>","null","","","","","","","","",""
"","","","","","html-keyboard-response","143","469760","0.0-143.0","8C5E80CE7CD6463292A7C0DF01B68697","019cf4ee-8137-7689-9961-63bedada946e","019cf4c8-1de8-79ec-b3bd-d98520647593","","null","
                <div class=""stimulus-container"">
                    <img src=""images/schematic_sequence/hotel_scheme/hotel_scheme_1.png"" class=""exp-image"">
                    <div class=""question-area""></div> 
                </div>","null","","","","","","","","",""
"","","","","","html-button-response","144","470728","0.0-144.0","8C5E80CE7CD6463292A7C0DF01B68697","019cf4ee-8137-7689-9961-63bedada946e","019cf4c8-1de8-79ec-b3bd-d98520647593","","966","
                <div class=""stimulus-container"">
                    <img src=""images/schematic_sequence/hotel_scheme/hotel_scheme_1.png"" class=""exp-image"">
                    <div class=""question-area"">
                        <p style=""font-size: 20px; font-weight: bold; margin: 0;"">Is there a person in this image?</p>
                    </div>
                </div>","1","main_experiment_trial","1","hotel_scheme","schematic_sequence","","","","",""
"","","","","","html-keyboard-response","145","475729","0.0-145.0","8C5E80CE7CD6463292A7C0DF01B68697","019cf4ee-8137-7689-9961-63bedada946e","019cf4c8-1de8-79ec-b3bd-d98520647593","","null","
                <div class=""stimulus-container"">
                    <img src=""images/schematic_sequence/hotel_scheme/hotel_scheme_2.png"" class=""exp-image"">
                    <div class=""question-area""></div> 
                </div>","null","","","","","","","","",""
"","","","","","html-button-response","146","476782","0.0-146.0","8C5E80CE7CD6463292A7C0DF01B68697","019cf4ee-8137-7689-9961-63bedada946e","019cf4c8-1de8-79ec-b3bd-d98520647593","","1051","
                <div class=""stimulus-container"">
                    <img src=""images/schematic_sequence/hotel_scheme/hotel_scheme_2.png"" class=""exp-image"">
                    <div class=""question-area"">
                        <p style=""font-size: 20px; font-weight: bold; margin: 0;"">Is there a person in this image?</p>
                    </div>
                </div>","0","main_experiment_trial","2","hotel_scheme","schematic_sequence","","","","",""
"","","","","","html-keyboard-response","147","481785","0.0-147.0","8C5E80CE7CD6463292A7C0DF01B68697","019cf4ee-8137-7689-9961-63bedada946e","019cf4c8-1de8-79ec-b3bd-d98520647593","","null","
                <div class=""stimulus-container"">
                    <img src=""images/schematic_sequence/hotel_scheme/hotel_scheme_3.png"" class=""exp-image"">
                    <div class=""question-area""></div> 
                </div>","null","","","","","","","","",""
"","","","","","html-button-response","148","482458","0.0-148.0","8C5E80CE7CD6463292A7C0DF01B68697","019cf4ee-8137-7689-9961-63bedada946e","019cf4c8-1de8-79ec-b3bd-d98520647593","","672","
                <div class=""stimulus-container"">
                    <img src=""images/schematic_sequence/hotel_scheme/hotel_scheme_3.png"" class=""exp-image"">
                    <div class=""question-area"">
                        <p style=""font-size: 20px; font-weight: bold; margin: 0;"">Is there a person in this image?</p>
                    </div>
                </div>","0","main_experiment_trial","3","hotel_scheme","schematic_sequence","","","","",""
"","","","","","html-keyboard-response","149","487463","0.0-149.0","8C5E80CE7CD6463292A7C0DF01B68697","019cf4ee-8137-7689-9961-63bedada946e","019cf4c8-1de8-79ec-b3bd-d98520647593","","null","
                <div class=""stimulus-container"">
                    <img src=""images/schematic_sequence/hotel_scheme/hotel_scheme_4.png"" class=""exp-image"">
                    <div class=""question-area""></div> 
                </div>","null","","","","","","","","",""
"","","","","","html-button-response","150","488963","0.0-150.0","8C5E80CE7CD6463292A7C0DF01B68697","019cf4ee-8137-7689-9961-63bedada946e","019cf4c8-1de8-79ec-b3bd-d98520647593","","1499","
                <div class=""stimulus-container"">
                    <img src=""images/schematic_sequence/hotel_scheme/hotel_scheme_4.png"" class=""exp-image"">
                    <div class=""question-area"">
                        <p style=""font-size: 20px; font-weight: bold; margin: 0;"">Is there a person in this image?</p>
                    </div>
                </div>","1","main_experiment_trial","4","hotel_scheme","schematic_sequence","","","","",""
"","","","","","html-keyboard-response","151","493966","0.0-151.0","8C5E80CE7CD6463292A7C0DF01B68697","019cf4ee-8137-7689-9961-63bedada946e","019cf4c8-1de8-79ec-b3bd-d98520647593","","null","
                <div class=""stimulus-container"">
                    <img src=""images/schematic_sequence/hotel_scheme/hotel_scheme_5.png"" class=""exp-image"">
                    <div class=""question-area""></div> 
                </div>","null","","","","","","","","",""
"","","","","","html-button-response","152","495389","0.0-152.0","8C5E80CE7CD6463292A7C0DF01B68697","019cf4ee-8137-7689-9961-63bedada946e","019cf4c8-1de8-79ec-b3bd-d98520647593","","1422","
                <div class=""stimulus-container"">
                    <img src=""images/schematic_sequence/hotel_scheme/hotel_scheme_5.png"" class=""exp-image"">
                    <div class=""question-area"">
                        <p style=""font-size: 20px; font-weight: bold; margin: 0;"">Is there a person in this image?</p>
                    </div>
                </div>","0","main_experiment_trial","5","hotel_scheme","schematic_sequence","","","","",""
"","","","","","html-keyboard-response","153","500392","0.0-153.0","8C5E80CE7CD6463292A7C0DF01B68697","019cf4ee-8137-7689-9961-63bedada946e","019cf4c8-1de8-79ec-b3bd-d98520647593","","null","
                <div class=""stimulus-container"">
                    <img src=""images/schematic_sequence/hotel_scheme/hotel_scheme_6.png"" class=""exp-image"">
                    <div class=""question-area""></div> 
                </div>","null","","","","","","","","",""
"","","","","","html-button-response","154","502040","0.0-154.0","8C5E80CE7CD6463292A7C0DF01B68697","019cf4ee-8137-7689-9961-63bedada946e","019cf4c8-1de8-79ec-b3bd-d98520647593","","1646","
                <div class=""stimulus-container"">
                    <img src=""images/schematic_sequence/hotel_scheme/hotel_scheme_6.png"" class=""exp-image"">
                    <div class=""question-area"">
                        <p style=""font-size: 20px; font-weight: bold; margin: 0;"">Is there a person in this image?</p>
                    </div>
                </div>","0","main_experiment_trial","6","hotel_scheme","schematic_sequence","","","","",""
"","","","","","html-keyboard-response","155","507045","0.0-155.0","8C5E80CE7CD6463292A7C0DF01B68697","019cf4ee-8137-7689-9961-63bedada946e","019cf4c8-1de8-79ec-b3bd-d98520647593","","null","
                <div class=""stimulus-container"">
                    <img src=""images/schematic_sequence/hotel_scheme/hotel_scheme_7.png"" class=""exp-image"">
                    <div class=""question-area""></div> 
                </div>","null","","","","","","","","",""
"","","","","","html-button-response","156","508914","0.0-156.0","8C5E80CE7CD6463292A7C0DF01B68697","019cf4ee-8137-7689-9961-63bedada946e","019cf4c8-1de8-79ec-b3bd-d98520647593","","1867","
                <div class=""stimulus-container"">
                    <img src=""images/schematic_sequence/hotel_scheme/hotel_scheme_7.png"" class=""exp-image"">
                    <div class=""question-area"">
                        <p style=""font-size: 20px; font-weight: bold; margin: 0;"">Is there a person in this image?</p>
                    </div>
                </div>","0","main_experiment_trial","7","hotel_scheme","schematic_sequence","","","","",""
"","","","","","html-keyboard-response","157","513917","0.0-157.0","8C5E80CE7CD6463292A7C0DF01B68697","019cf4ee-8137-7689-9961-63bedada946e","019cf4c8-1de8-79ec-b3bd-d98520647593","","null","
                <div class=""stimulus-container"">
                    <img src=""images/schematic_sequence/hotel_scheme/hotel_scheme_8.png"" class=""exp-image"">
                    <div class=""question-area""></div> 
                </div>","null","","","","","","","","",""
"","","","","","html-button-response","158","516443","0.0-158.0","8C5E80CE7CD6463292A7C0DF01B68697","019cf4ee-8137-7689-9961-63bedada946e","019cf4c8-1de8-79ec-b3bd-d98520647593","","2525","
                <div class=""stimulus-container"">
                    <img src=""images/schematic_sequence/hotel_scheme/hotel_scheme_8.png"" class=""exp-image"">
                    <div class=""question-area"">
                        <p style=""font-size: 20px; font-weight: bold; margin: 0;"">Is there a person in this image?</p>
                    </div>
                </div>","0","main_experiment_trial","8","hotel_scheme","schematic_sequence","","","","",""
"","","","","","html-keyboard-response","159","521445","0.0-159.0","8C5E80CE7CD6463292A7C0DF01B68697","019cf4ee-8137-7689-9961-63bedada946e","019cf4c8-1de8-79ec-b3bd-d98520647593","","null","
                <div class=""stimulus-container"">
                    <img src=""images/schematic_sequence/hotel_scheme/hotel_scheme_9.png"" class=""exp-image"">
                    <div class=""question-area""></div> 
                </div>","null","","","","","","","","",""
"","","","","","html-button-response","160","522130","0.0-160.0","8C5E80CE7CD6463292A7C0DF01B68697","019cf4ee-8137-7689-9961-63bedada946e","019cf4c8-1de8-79ec-b3bd-d98520647593","","684","
                <div class=""stimulus-container"">
                    <img src=""images/schematic_sequence/hotel_scheme/hotel_scheme_9.png"" class=""exp-image"">
                    <div class=""question-area"">
                        <p style=""font-size: 20px; font-weight: bold; margin: 0;"">Is there a person in this image?</p>
                    </div>
                </div>","0","main_experiment_trial","9","hotel_scheme","schematic_sequence","","","","",""
"","","","","","html-keyboard-response","161","527132","0.0-161.0","8C5E80CE7CD6463292A7C0DF01B68697","019cf4ee-8137-7689-9961-63bedada946e","019cf4c8-1de8-79ec-b3bd-d98520647593","","null","
                <div class=""stimulus-container"">
                    <img src=""images/schematic_sequence/hotel_scheme/hotel_scheme_ten.png"" class=""exp-image"">
                    <div class=""question-area""></div> 
                </div>","null","","","","","","","","",""
"","","","","","html-button-response","162","527864","0.0-162.0","8C5E80CE7CD6463292A7C0DF01B68697","019cf4ee-8137-7689-9961-63bedada946e","019cf4c8-1de8-79ec-b3bd-d98520647593","","730","
                <div class=""stimulus-container"">
                    <img src=""images/schematic_sequence/hotel_scheme/hotel_scheme_ten.png"" class=""exp-image"">
                    <div class=""question-area"">
                        <p style=""font-size: 20px; font-weight: bold; margin: 0;"">Is there a person in this image?</p>
                    </div>
                </div>","0","main_experiment_trial","ten","hotel_scheme","schematic_sequence","","","","",""
"","","","","","html-keyboard-response","163","528868","0.0-163.0","8C5E80CE7CD6463292A7C0DF01B68697","019cf4ee-8137-7689-9961-63bedada946e","019cf4c8-1de8-79ec-b3bd-d98520647593","","null","<div style=""background-color: white; width: 100vw; height: 100vh;""></div>","null","","","","","","","","",""
"","","","","","html-keyboard-response","164","533871","0.0-164.0","8C5E80CE7CD6463292A7C0DF01B68697","019cf4ee-8137-7689-9961-63bedada946e","019cf4c8-1de8-79ec-b3bd-d98520647593","","null","
                <div class=""stimulus-container"">
                    <img src=""images/schematic_sequence/dinner_party_scheme/dinner_party_scheme_1.png"" class=""exp-image"">
                    <div class=""question-area""></div> 
                </div>","null","","","","","","","","",""
"","","","","","html-button-response","165","534560","0.0-165.0","8C5E80CE7CD6463292A7C0DF01B68697","019cf4ee-8137-7689-9961-63bedada946e","019cf4c8-1de8-79ec-b3bd-d98520647593","","687","
                <div class=""stimulus-container"">
                    <img src=""images/schematic_sequence/dinner_party_scheme/dinner_party_scheme_1.png"" class=""exp-image"">
                    <div class=""question-area"">
                        <p style=""font-size: 20px; font-weight: bold; margin: 0;"">Is there a person in this image?</p>
                    </div>
                </div>","0","main_experiment_trial","1","dinner_party_scheme","schematic_sequence","","","","",""
"","","","","","html-keyboard-response","166","539562","0.0-166.0","8C5E80CE7CD6463292A7C0DF01B68697","019cf4ee-8137-7689-9961-63bedada946e","019cf4c8-1de8-79ec-b3bd-d98520647593","","null","
                <div class=""stimulus-container"">
                    <img src=""images/schematic_sequence/dinner_party_scheme/dinner_party_scheme_2.png"" class=""exp-image"">
                    <div class=""question-area""></div> 
                </div>","null","","","","","","","","",""
"","","","","","html-button-response","167","540988","0.0-167.0","8C5E80CE7CD6463292A7C0DF01B68697","019cf4ee-8137-7689-9961-63bedada946e","019cf4c8-1de8-79ec-b3bd-d98520647593","","1425","
                <div class=""stimulus-container"">
                    <img src=""images/schematic_sequence/dinner_party_scheme/dinner_party_scheme_2.png"" class=""exp-image"">
                    <div class=""question-area"">
                        <p style=""font-size: 20px; font-weight: bold; margin: 0;"">Is there a person in this image?</p>
                    </div>
                </div>","0","main_experiment_trial","2","dinner_party_scheme","schematic_sequence","","","","",""
"","","","","","html-keyboard-response","168","545990","0.0-168.0","8C5E80CE7CD6463292A7C0DF01B68697","019cf4ee-8137-7689-9961-63bedada946e","019cf4c8-1de8-79ec-b3bd-d98520647593","","null","
                <div class=""stimulus-container"">
                    <img src=""images/schematic_sequence/dinner_party_scheme/dinner_party_scheme_3.png"" class=""exp-image"">
                    <div class=""question-area""></div> 
                </div>","null","","","","","","","","",""
"","","","","","html-button-response","169","546666","0.0-169.0","8C5E80CE7CD6463292A7C0DF01B68697","019cf4ee-8137-7689-9961-63bedada946e","019cf4c8-1de8-79ec-b3bd-d98520647593","","674","
                <div class=""stimulus-container"">
                    <img src=""images/schematic_sequence/dinner_party_scheme/dinner_party_scheme_3.png"" class=""exp-image"">
                    <div class=""question-area"">
                        <p style=""font-size: 20px; font-weight: bold; margin: 0;"">Is there a person in this image?</p>
                    </div>
                </div>","0","main_experiment_trial","3","dinner_party_scheme","schematic_sequence","","","","",""
"","","","","","html-keyboard-response","170","551671","0.0-170.0","8C5E80CE7CD6463292A7C0DF01B68697","019cf4ee-8137-7689-9961-63bedada946e","019cf4c8-1de8-79ec-b3bd-d98520647593","","null","
                <div class=""stimulus-container"">
                    <img src=""images/schematic_sequence/dinner_party_scheme/dinner_party_scheme_4.png"" class=""exp-image"">
                    <div class=""question-area""></div> 
                </div>","null","","","","","","","","",""
"","","","","","html-button-response","171","552196","0.0-171.0","8C5E80CE7CD6463292A7C0DF01B68697","019cf4ee-8137-7689-9961-63bedada946e","019cf4c8-1de8-79ec-b3bd-d98520647593","","523","
                <div class=""stimulus-container"">
                    <img src=""images/schematic_sequence/dinner_party_scheme/dinner_party_scheme_4.png"" class=""exp-image"">
                    <div class=""question-area"">
                        <p style=""font-size: 20px; font-weight: bold; margin: 0;"">Is there a person in this image?</p>
                    </div>
                </div>","0","main_experiment_trial","4","dinner_party_scheme","schematic_sequence","","","","",""
"","","","","","html-keyboard-response","172","557199","0.0-172.0","8C5E80CE7CD6463292A7C0DF01B68697","019cf4ee-8137-7689-9961-63bedada946e","019cf4c8-1de8-79ec-b3bd-d98520647593","","null","
                <div class=""stimulus-container"">
                    <img src=""images/schematic_sequence/dinner_party_scheme/dinner_party_scheme_5.png"" class=""exp-image"">
                    <div class=""question-area""></div> 
                </div>","null","","","","","","","","",""
"","","","","","html-button-response","173","558069","0.0-173.0","8C5E80CE7CD6463292A7C0DF01B68697","019cf4ee-8137-7689-9961-63bedada946e","019cf4c8-1de8-79ec-b3bd-d98520647593","","869","
                <div class=""stimulus-container"">
                    <img src=""images/schematic_sequence/dinner_party_scheme/dinner_party_scheme_5.png"" class=""exp-image"">
                    <div class=""question-area"">
                        <p style=""font-size: 20px; font-weight: bold; margin: 0;"">Is there a person in this image?</p>
                    </div>
                </div>","0","main_experiment_trial","5","dinner_party_scheme","schematic_sequence","","","","",""
"","","","","","html-keyboard-response","174","563073","0.0-174.0","8C5E80CE7CD6463292A7C0DF01B68697","019cf4ee-8137-7689-9961-63bedada946e","019cf4c8-1de8-79ec-b3bd-d98520647593","","null","
                <div class=""stimulus-container"">
                    <img src=""images/schematic_sequence/dinner_party_scheme/dinner_party_scheme_6.png"" class=""exp-image"">
                    <div class=""question-area""></div> 
                </div>","null","","","","","","","","",""
"","","","","","html-button-response","175","565252","0.0-175.0","8C5E80CE7CD6463292A7C0DF01B68697","019cf4ee-8137-7689-9961-63bedada946e","019cf4c8-1de8-79ec-b3bd-d98520647593","","2178","
                <div class=""stimulus-container"">
                    <img src=""images/schematic_sequence/dinner_party_scheme/dinner_party_scheme_6.png"" class=""exp-image"">
                    <div class=""question-area"">
                        <p style=""font-size: 20px; font-weight: bold; margin: 0;"">Is there a person in this image?</p>
                    </div>
                </div>","0","main_experiment_trial","6","dinner_party_scheme","schematic_sequence","","","","",""
"","","","","","html-keyboard-response","176","570255","0.0-176.0","8C5E80CE7CD6463292A7C0DF01B68697","019cf4ee-8137-7689-9961-63bedada946e","019cf4c8-1de8-79ec-b3bd-d98520647593","","null","
                <div class=""stimulus-container"">
                    <img src=""images/schematic_sequence/dinner_party_scheme/dinner_party_scheme_7.png"" class=""exp-image"">
                    <div class=""question-area""></div> 
                </div>","null","","","","","","","","",""
"","","","","","html-button-response","177","571341","0.0-177.0","8C5E80CE7CD6463292A7C0DF01B68697","019cf4ee-8137-7689-9961-63bedada946e","019cf4c8-1de8-79ec-b3bd-d98520647593","","1084","
                <div class=""stimulus-container"">
                    <img src=""images/schematic_sequence/dinner_party_scheme/dinner_party_scheme_7.png"" class=""exp-image"">
                    <div class=""question-area"">
                        <p style=""font-size: 20px; font-weight: bold; margin: 0;"">Is there a person in this image?</p>
                    </div>
                </div>","0","main_experiment_trial","7","dinner_party_scheme","schematic_sequence","","","","",""
"","","","","","html-keyboard-response","178","576344","0.0-178.0","8C5E80CE7CD6463292A7C0DF01B68697","019cf4ee-8137-7689-9961-63bedada946e","019cf4c8-1de8-79ec-b3bd-d98520647593","","null","
                <div class=""stimulus-container"">
                    <img src=""images/schematic_sequence/dinner_party_scheme/dinner_party_scheme_8.png"" class=""exp-image"">
                    <div class=""question-area""></div> 
                </div>","null","","","","","","","","",""
"","","","","","html-button-response","179","577423","0.0-179.0","8C5E80CE7CD6463292A7C0DF01B68697","019cf4ee-8137-7689-9961-63bedada946e","019cf4c8-1de8-79ec-b3bd-d98520647593","","1078","
                <div class=""stimulus-container"">
                    <img src=""images/schematic_sequence/dinner_party_scheme/dinner_party_scheme_8.png"" class=""exp-image"">
                    <div class=""question-area"">
                        <p style=""font-size: 20px; font-weight: bold; margin: 0;"">Is there a person in this image?</p>
                    </div>
                </div>","0","main_experiment_trial","8","dinner_party_scheme","schematic_sequence","","","","",""
"","","","","","html-keyboard-response","180","582426","0.0-180.0","8C5E80CE7CD6463292A7C0DF01B68697","019cf4ee-8137-7689-9961-63bedada946e","019cf4c8-1de8-79ec-b3bd-d98520647593","","null","
                <div class=""stimulus-container"">
                    <img src=""images/schematic_sequence/dinner_party_scheme/dinner_party_scheme_9.png"" class=""exp-image"">
                    <div class=""question-area""></div> 
                </div>","null","","","","","","","","",""
"","","","","","html-button-response","181","583096","0.0-181.0","8C5E80CE7CD6463292A7C0DF01B68697","019cf4ee-8137-7689-9961-63bedada946e","019cf4c8-1de8-79ec-b3bd-d98520647593","","669","
                <div class=""stimulus-container"">
                    <img src=""images/schematic_sequence/dinner_party_scheme/dinner_party_scheme_9.png"" class=""exp-image"">
                    <div class=""question-area"">
                        <p style=""font-size: 20px; font-weight: bold; margin: 0;"">Is there a person in this image?</p>
                    </div>
                </div>","0","main_experiment_trial","9","dinner_party_scheme","schematic_sequence","","","","",""
"","","","","","html-keyboard-response","182","588098","0.0-182.0","8C5E80CE7CD6463292A7C0DF01B68697","019cf4ee-8137-7689-9961-63bedada946e","019cf4c8-1de8-79ec-b3bd-d98520647593","","null","
                <div class=""stimulus-container"">
                    <img src=""images/schematic_sequence/dinner_party_scheme/dinner_party_scheme_ten.png"" class=""exp-image"">
                    <div class=""question-area""></div> 
                </div>","null","","","","","","","","",""
"","","","","","html-button-response","183","589110","0.0-183.0","8C5E80CE7CD6463292A7C0DF01B68697","019cf4ee-8137-7689-9961-63bedada946e","019cf4c8-1de8-79ec-b3bd-d98520647593","","1011","
                <div class=""stimulus-container"">
