"success","timeout","failed_images","failed_audio","failed_video","trial_type","trial_index","time_elapsed","internal_node_id","subject_id","study_id","session_id","view_history","rt","stimulus","response","task","image_index","folder","sequence_type","presentation_order","valuable_image_index","reward_type","distance_from_x","target_X","chosen_image_index","is_x_plus_dist","correct_choice"
"true","false","[]","[]","[]","preload","0","3733","0.0-0.0","DB55122E10AF4147ABF54B62B5FE62C3","019cfcb7-61fe-7793-b78c-220856e03657","019cfc7b-6c7b-7b1b-afe7-acad8efc6711","","","","","","","","","","","","","","","",""
"","","","","","instructions","1","8285","0.0-1.0","DB55122E10AF4147ABF54B62B5FE62C3","019cfcb7-61fe-7793-b78c-220856e03657","019cfc7b-6c7b-7b1b-afe7-acad8efc6711","[{""page_index"":0,""viewing_time"":4551}]","4551","","","","","","","","","","","","","",""
"","","","","","instructions","2","15251","0.0-2.0","DB55122E10AF4147ABF54B62B5FE62C3","019cfcb7-61fe-7793-b78c-220856e03657","019cfc7b-6c7b-7b1b-afe7-acad8efc6711","[{""page_index"":0,""viewing_time"":6964}]","6965","","","","","","","","","","","","","",""
"true","","","","","fullscreen","3","19603","0.0-3.0","DB55122E10AF4147ABF54B62B5FE62C3","019cfcb7-61fe-7793-b78c-220856e03657","019cfc7b-6c7b-7b1b-afe7-acad8efc6711","","3349","","","","","","","","","","","","","",""
"","","","","","instructions","4","31884","0.0-4.0","DB55122E10AF4147ABF54B62B5FE62C3","019cfcb7-61fe-7793-b78c-220856e03657","019cfc7b-6c7b-7b1b-afe7-acad8efc6711","[{""page_index"":0,""viewing_time"":12280}]","12280","","","","","","","","","","","","","",""
"","","","","","instructions","5","37935","0.0-5.0","DB55122E10AF4147ABF54B62B5FE62C3","019cfcb7-61fe-7793-b78c-220856e03657","019cfc7b-6c7b-7b1b-afe7-acad8efc6711","[{""page_index"":0,""viewing_time"":6049}]","6049","","","","","","","","","","","","","",""
"","","","","","html-keyboard-response","6","41938","0.0-6.0","DB55122E10AF4147ABF54B62B5FE62C3","019cfcb7-61fe-7793-b78c-220856e03657","019cfc7b-6c7b-7b1b-afe7-acad8efc6711","","null","
                <div class=""stimulus-container"">
                    <img src=""images/instructions/movie_1.png"" class=""exp-image"">
                    <div class=""question-area""></div> 
                </div>","null","","","","","","","","","","","",""
"","","","","","html-button-response","7","44941","0.0-7.0","DB55122E10AF4147ABF54B62B5FE62C3","019cfcb7-61fe-7793-b78c-220856e03657","019cfc7b-6c7b-7b1b-afe7-acad8efc6711","","null","
                <div class=""stimulus-container"">
                    <img src=""images/instructions/movie_1.png"" class=""exp-image"">
                    <div class=""question-area"">
                        <p style=""font-size: 20px; font-weight: bold; margin: 0;"">Was there a person in this image?</p>
                    </div>
                </div>","null","example_question","1","","","","","","","","","",""
"","","","","","html-keyboard-response","8","48944","0.0-8.0","DB55122E10AF4147ABF54B62B5FE62C3","019cfcb7-61fe-7793-b78c-220856e03657","019cfc7b-6c7b-7b1b-afe7-acad8efc6711","","null","
                <div class=""stimulus-container"">
                    <img src=""images/instructions/movie_2.png"" class=""exp-image"">
                    <div class=""question-area""></div> 
                </div>","null","","","","","","","","","","","",""
"","","","","","html-button-response","9","49768","0.0-9.0","DB55122E10AF4147ABF54B62B5FE62C3","019cfcb7-61fe-7793-b78c-220856e03657","019cfc7b-6c7b-7b1b-afe7-acad8efc6711","","821","
                <div class=""stimulus-container"">
                    <img src=""images/instructions/movie_2.png"" class=""exp-image"">
                    <div class=""question-area"">
                        <p style=""font-size: 20px; font-weight: bold; margin: 0;"">Was there a person in this image?</p>
                    </div>
                </div>","0","example_question","2","","","","","","","","","",""
"","","","","","html-keyboard-response","10","53771","0.0-10.0","DB55122E10AF4147ABF54B62B5FE62C3","019cfcb7-61fe-7793-b78c-220856e03657","019cfc7b-6c7b-7b1b-afe7-acad8efc6711","","null","
                <div class=""stimulus-container"">
                    <img src=""images/instructions/movie_3.png"" class=""exp-image"">
                    <div class=""question-area""></div> 
                </div>","null","","","","","","","","","","","",""
"","","","","","html-button-response","11","54517","0.0-11.0","DB55122E10AF4147ABF54B62B5FE62C3","019cfcb7-61fe-7793-b78c-220856e03657","019cfc7b-6c7b-7b1b-afe7-acad8efc6711","","744","
                <div class=""stimulus-container"">
                    <img src=""images/instructions/movie_3.png"" class=""exp-image"">
                    <div class=""question-area"">
                        <p style=""font-size: 20px; font-weight: bold; margin: 0;"">Was there a person in this image?</p>
                    </div>
                </div>","0","example_question","3","","","","","","","","","",""
"","","","","","html-keyboard-response","12","58520","0.0-12.0","DB55122E10AF4147ABF54B62B5FE62C3","019cfcb7-61fe-7793-b78c-220856e03657","019cfc7b-6c7b-7b1b-afe7-acad8efc6711","","null","
                <div class=""stimulus-container"">
                    <img src=""images/instructions/movie_4.png"" class=""exp-image"">
                    <div class=""question-area""></div> 
                </div>","null","","","","","","","","","","","",""
"","","","","","html-button-response","13","59501","0.0-13.0","DB55122E10AF4147ABF54B62B5FE62C3","019cfcb7-61fe-7793-b78c-220856e03657","019cfc7b-6c7b-7b1b-afe7-acad8efc6711","","979","
                <div class=""stimulus-container"">
                    <img src=""images/instructions/movie_4.png"" class=""exp-image"">
                    <div class=""question-area"">
                        <p style=""font-size: 20px; font-weight: bold; margin: 0;"">Was there a person in this image?</p>
                    </div>
                </div>","0","example_question","4","","","","","","","","","",""
"","","","","","instructions","14","62517","0.0-14.0","DB55122E10AF4147ABF54B62B5FE62C3","019cfcb7-61fe-7793-b78c-220856e03657","019cfc7b-6c7b-7b1b-afe7-acad8efc6711","[{""page_index"":0,""viewing_time"":3015}]","3016","","","","","","","","","","","","","",""
"","","","","","instructions","15","72685","0.0-15.0","DB55122E10AF4147ABF54B62B5FE62C3","019cfcb7-61fe-7793-b78c-220856e03657","019cfc7b-6c7b-7b1b-afe7-acad8efc6711","[{""page_index"":0,""viewing_time"":10166}]","10166","","","","","","","","","","","","","",""
"","","","","","html-keyboard-response","16","77687","0.0-16.0","DB55122E10AF4147ABF54B62B5FE62C3","019cfcb7-61fe-7793-b78c-220856e03657","019cfc7b-6c7b-7b1b-afe7-acad8efc6711","","null","<div style=""background-color: white; width: 100vw; height: 100vh;""></div>","null","","","","","","","","","","","",""
"","","","","","html-keyboard-response","17","82690","0.0-17.0","DB55122E10AF4147ABF54B62B5FE62C3","019cfcb7-61fe-7793-b78c-220856e03657","019cfc7b-6c7b-7b1b-afe7-acad8efc6711","","null","
                <div class=""stimulus-container"">
                    <img src=""images/causal_sequence/dog_causal/dog_causal_1.png"" class=""exp-image"">
                    <div class=""question-area""></div> 
                </div>","null","","","","","","","","","","","",""
"","","","","","html-button-response","18","83902","0.0-18.0","DB55122E10AF4147ABF54B62B5FE62C3","019cfcb7-61fe-7793-b78c-220856e03657","019cfc7b-6c7b-7b1b-afe7-acad8efc6711","","1210","
                <div class=""stimulus-container"">
                    <img src=""images/causal_sequence/dog_causal/dog_causal_1.png"" class=""exp-image"">
                    <div class=""question-area"">
                        <p style=""font-size: 20px; font-weight: bold; margin: 0;"">Is there a person in this image?</p>
                    </div>
                </div>","0","main_experiment_trial","1","dog_causal","causal_sequence","chronological","","","","","","",""
"","","","","","html-keyboard-response","19","88906","0.0-19.0","DB55122E10AF4147ABF54B62B5FE62C3","019cfcb7-61fe-7793-b78c-220856e03657","019cfc7b-6c7b-7b1b-afe7-acad8efc6711","","null","
                <div class=""stimulus-container"">
                    <img src=""images/causal_sequence/dog_causal/dog_causal_2.png"" class=""exp-image"">
                    <div class=""question-area""></div> 
                </div>","null","","","","","","","","","","","",""
"","","","","","html-button-response","20","89868","0.0-20.0","DB55122E10AF4147ABF54B62B5FE62C3","019cfcb7-61fe-7793-b78c-220856e03657","019cfc7b-6c7b-7b1b-afe7-acad8efc6711","","960","
                <div class=""stimulus-container"">
                    <img src=""images/causal_sequence/dog_causal/dog_causal_2.png"" class=""exp-image"">
                    <div class=""question-area"">
                        <p style=""font-size: 20px; font-weight: bold; margin: 0;"">Is there a person in this image?</p>
                    </div>
                </div>","0","main_experiment_trial","2","dog_causal","causal_sequence","chronological","","","","","","",""
"","","","","","html-keyboard-response","21","94871","0.0-21.0","DB55122E10AF4147ABF54B62B5FE62C3","019cfcb7-61fe-7793-b78c-220856e03657","019cfc7b-6c7b-7b1b-afe7-acad8efc6711","","null","
                <div class=""stimulus-container"">
                    <img src=""images/causal_sequence/dog_causal/dog_causal_3.png"" class=""exp-image"">
                    <div class=""question-area""></div> 
                </div>","null","","","","","","","","","","","",""
"","","","","","html-button-response","22","95651","0.0-22.0","DB55122E10AF4147ABF54B62B5FE62C3","019cfcb7-61fe-7793-b78c-220856e03657","019cfc7b-6c7b-7b1b-afe7-acad8efc6711","","778","
                <div class=""stimulus-container"">
                    <img src=""images/causal_sequence/dog_causal/dog_causal_3.png"" class=""exp-image"">
                    <div class=""question-area"">
                        <p style=""font-size: 20px; font-weight: bold; margin: 0;"">Is there a person in this image?</p>
                    </div>
                </div>","0","main_experiment_trial","3","dog_causal","causal_sequence","chronological","","","","","","",""
"","","","","","html-keyboard-response","23","100653","0.0-23.0","DB55122E10AF4147ABF54B62B5FE62C3","019cfcb7-61fe-7793-b78c-220856e03657","019cfc7b-6c7b-7b1b-afe7-acad8efc6711","","null","
                <div class=""stimulus-container"">
                    <img src=""images/causal_sequence/dog_causal/dog_causal_4.png"" class=""exp-image"">
                    <div class=""question-area""></div> 
                </div>","null","","","","","","","","","","","",""
"","","","","","html-button-response","24","101316","0.0-24.0","DB55122E10AF4147ABF54B62B5FE62C3","019cfcb7-61fe-7793-b78c-220856e03657","019cfc7b-6c7b-7b1b-afe7-acad8efc6711","","662","
                <div class=""stimulus-container"">
                    <img src=""images/causal_sequence/dog_causal/dog_causal_4.png"" class=""exp-image"">
                    <div class=""question-area"">
                        <p style=""font-size: 20px; font-weight: bold; margin: 0;"">Is there a person in this image?</p>
                    </div>
                </div>","0","main_experiment_trial","4","dog_causal","causal_sequence","chronological","","","","","","",""
"","","","","","html-keyboard-response","25","106318","0.0-25.0","DB55122E10AF4147ABF54B62B5FE62C3","019cfcb7-61fe-7793-b78c-220856e03657","019cfc7b-6c7b-7b1b-afe7-acad8efc6711","","null","
                <div class=""stimulus-container"">
                    <img src=""images/causal_sequence/dog_causal/dog_causal_5.png"" class=""exp-image"">
                    <div class=""question-area""></div> 
                </div>","null","","","","","","","","","","","",""
"","","","","","html-button-response","26","107601","0.0-26.0","DB55122E10AF4147ABF54B62B5FE62C3","019cfcb7-61fe-7793-b78c-220856e03657","019cfc7b-6c7b-7b1b-afe7-acad8efc6711","","1281","
                <div class=""stimulus-container"">
                    <img src=""images/causal_sequence/dog_causal/dog_causal_5.png"" class=""exp-image"">
                    <div class=""question-area"">
                        <p style=""font-size: 20px; font-weight: bold; margin: 0;"">Is there a person in this image?</p>
                    </div>
                </div>","0","main_experiment_trial","5","dog_causal","causal_sequence","chronological","","","","","","",""
"","","","","","html-keyboard-response","27","112603","0.0-27.0","DB55122E10AF4147ABF54B62B5FE62C3","019cfcb7-61fe-7793-b78c-220856e03657","019cfc7b-6c7b-7b1b-afe7-acad8efc6711","","null","
                <div class=""stimulus-container"">
                    <img src=""images/causal_sequence/dog_causal/dog_causal_6.png"" class=""exp-image"">
                    <div class=""question-area""></div> 
                </div>","null","","","","","","","","","","","",""
"","","","","","html-button-response","28","113385","0.0-28.0","DB55122E10AF4147ABF54B62B5FE62C3","019cfcb7-61fe-7793-b78c-220856e03657","019cfc7b-6c7b-7b1b-afe7-acad8efc6711","","780","
                <div class=""stimulus-container"">
                    <img src=""images/causal_sequence/dog_causal/dog_causal_6.png"" class=""exp-image"">
                    <div class=""question-area"">
                        <p style=""font-size: 20px; font-weight: bold; margin: 0;"">Is there a person in this image?</p>
                    </div>
                </div>","0","main_experiment_trial","6","dog_causal","causal_sequence","chronological","","","","","","",""
"","","","","","html-keyboard-response","29","118388","0.0-29.0","DB55122E10AF4147ABF54B62B5FE62C3","019cfcb7-61fe-7793-b78c-220856e03657","019cfc7b-6c7b-7b1b-afe7-acad8efc6711","","null","
                <div class=""stimulus-container"">
                    <img src=""images/causal_sequence/dog_causal/dog_causal_7.png"" class=""exp-image"">
                    <div class=""question-area""></div> 
                </div>","null","","","","","","","","","","","",""
"","","","","","html-button-response","30","119268","0.0-30.0","DB55122E10AF4147ABF54B62B5FE62C3","019cfcb7-61fe-7793-b78c-220856e03657","019cfc7b-6c7b-7b1b-afe7-acad8efc6711","","878","
                <div class=""stimulus-container"">
                    <img src=""images/causal_sequence/dog_causal/dog_causal_7.png"" class=""exp-image"">
                    <div class=""question-area"">
                        <p style=""font-size: 20px; font-weight: bold; margin: 0;"">Is there a person in this image?</p>
                    </div>
                </div>","0","main_experiment_trial","7","dog_causal","causal_sequence","chronological","","","","","","",""
"","","","","","html-keyboard-response","31","124270","0.0-31.0","DB55122E10AF4147ABF54B62B5FE62C3","019cfcb7-61fe-7793-b78c-220856e03657","019cfc7b-6c7b-7b1b-afe7-acad8efc6711","","null","
                <div class=""stimulus-container"">
                    <img src=""images/causal_sequence/dog_causal/dog_causal_8.png"" class=""exp-image"">
                    <div class=""question-area""></div> 
                </div>","null","","","","","","","","","","","",""
"","","","","","html-button-response","32","125403","0.0-32.0","DB55122E10AF4147ABF54B62B5FE62C3","019cfcb7-61fe-7793-b78c-220856e03657","019cfc7b-6c7b-7b1b-afe7-acad8efc6711","","1131","
                <div class=""stimulus-container"">
                    <img src=""images/causal_sequence/dog_causal/dog_causal_8.png"" class=""exp-image"">
                    <div class=""question-area"">
                        <p style=""font-size: 20px; font-weight: bold; margin: 0;"">Is there a person in this image?</p>
                    </div>
                </div>","0","main_experiment_trial","8","dog_causal","causal_sequence","chronological","","","","","","",""
"","","","","","html-keyboard-response","33","130405","0.0-33.0","DB55122E10AF4147ABF54B62B5FE62C3","019cfcb7-61fe-7793-b78c-220856e03657","019cfc7b-6c7b-7b1b-afe7-acad8efc6711","","null","
                <div class=""stimulus-container"">
                    <img src=""images/causal_sequence/dog_causal/dog_causal_9.png"" class=""exp-image"">
                    <div class=""question-area""></div> 
                </div>","null","","","","","","","","","","","",""
"","","","","","html-button-response","34","131385","0.0-34.0","DB55122E10AF4147ABF54B62B5FE62C3","019cfcb7-61fe-7793-b78c-220856e03657","019cfc7b-6c7b-7b1b-afe7-acad8efc6711","","978","
                <div class=""stimulus-container"">
                    <img src=""images/causal_sequence/dog_causal/dog_causal_9.png"" class=""exp-image"">
                    <div class=""question-area"">
                        <p style=""font-size: 20px; font-weight: bold; margin: 0;"">Is there a person in this image?</p>
                    </div>
                </div>","0","main_experiment_trial","9","dog_causal","causal_sequence","chronological","","","","","","",""
"","","","","","html-keyboard-response","35","136388","0.0-35.0","DB55122E10AF4147ABF54B62B5FE62C3","019cfcb7-61fe-7793-b78c-220856e03657","019cfc7b-6c7b-7b1b-afe7-acad8efc6711","","null","
                <div class=""stimulus-container"">
                    <img src=""images/causal_sequence/dog_causal/dog_causal_ten.png"" class=""exp-image"">
                    <div class=""question-area""></div> 
                </div>","null","","","","","","","","","","","",""
"","","","","","html-button-response","36","137052","0.0-36.0","DB55122E10AF4147ABF54B62B5FE62C3","019cfcb7-61fe-7793-b78c-220856e03657","019cfc7b-6c7b-7b1b-afe7-acad8efc6711","","662","
                <div class=""stimulus-container"">
                    <img src=""images/causal_sequence/dog_causal/dog_causal_ten.png"" class=""exp-image"">
                    <div class=""question-area"">
                        <p style=""font-size: 20px; font-weight: bold; margin: 0;"">Is there a person in this image?</p>
                    </div>
                </div>","0","main_experiment_trial","ten","dog_causal","causal_sequence","chronological","","","","","","",""
"","","","","","html-keyboard-response","37","142055","0.0-37.0","DB55122E10AF4147ABF54B62B5FE62C3","019cfcb7-61fe-7793-b78c-220856e03657","019cfc7b-6c7b-7b1b-afe7-acad8efc6711","","null","<div style=""background-color: white; width: 100vw; height: 100vh;""></div>","null","","","","","","","","","","","",""
"","","","","","html-keyboard-response","38","147058","0.0-38.0","DB55122E10AF4147ABF54B62B5FE62C3","019cfcb7-61fe-7793-b78c-220856e03657","019cfc7b-6c7b-7b1b-afe7-acad8efc6711","","null","
                <div class=""stimulus-container"">
                    <img src=""images/causal_sequence/saving_a_cat_causal/saving_a_cat_causal_1.png"" class=""exp-image"">
                    <div class=""question-area""></div> 
                </div>","null","","","","","","","","","","","",""
"","","","","","html-button-response","39","147636","0.0-39.0","DB55122E10AF4147ABF54B62B5FE62C3","019cfcb7-61fe-7793-b78c-220856e03657","019cfc7b-6c7b-7b1b-afe7-acad8efc6711","","576","
                <div class=""stimulus-container"">
                    <img src=""images/causal_sequence/saving_a_cat_causal/saving_a_cat_causal_1.png"" class=""exp-image"">
                    <div class=""question-area"">
                        <p style=""font-size: 20px; font-weight: bold; margin: 0;"">Is there a person in this image?</p>
                    </div>
                </div>","0","main_experiment_trial","1","saving_a_cat_causal","causal_sequence","chronological","","","","","","",""
"","","","","","html-keyboard-response","40","152638","0.0-40.0","DB55122E10AF4147ABF54B62B5FE62C3","019cfcb7-61fe-7793-b78c-220856e03657","019cfc7b-6c7b-7b1b-afe7-acad8efc6711","","null","
                <div class=""stimulus-container"">
                    <img src=""images/causal_sequence/saving_a_cat_causal/saving_a_cat_causal_2.png"" class=""exp-image"">
                    <div class=""question-area""></div> 
                </div>","null","","","","","","","","","","","",""
"","","","","","html-button-response","41","153801","0.0-41.0","DB55122E10AF4147ABF54B62B5FE62C3","019cfcb7-61fe-7793-b78c-220856e03657","019cfc7b-6c7b-7b1b-afe7-acad8efc6711","","1161","
                <div class=""stimulus-container"">
                    <img src=""images/causal_sequence/saving_a_cat_causal/saving_a_cat_causal_2.png"" class=""exp-image"">
                    <div class=""question-area"">
                        <p style=""font-size: 20px; font-weight: bold; margin: 0;"">Is there a person in this image?</p>
                    </div>
                </div>","1","main_experiment_trial","2","saving_a_cat_causal","causal_sequence","chronological","","","","","","",""
"","","","","","html-keyboard-response","42","158804","0.0-42.0","DB55122E10AF4147ABF54B62B5FE62C3","019cfcb7-61fe-7793-b78c-220856e03657","019cfc7b-6c7b-7b1b-afe7-acad8efc6711","","null","
                <div class=""stimulus-container"">
                    <img src=""images/causal_sequence/saving_a_cat_causal/saving_a_cat_causal_3.png"" class=""exp-image"">
                    <div class=""question-area""></div> 
                </div>","null","","","","","","","","","","","",""
"","","","","","html-button-response","43","159736","0.0-43.0","DB55122E10AF4147ABF54B62B5FE62C3","019cfcb7-61fe-7793-b78c-220856e03657","019cfc7b-6c7b-7b1b-afe7-acad8efc6711","","931","
                <div class=""stimulus-container"">
                    <img src=""images/causal_sequence/saving_a_cat_causal/saving_a_cat_causal_3.png"" class=""exp-image"">
                    <div class=""question-area"">
                        <p style=""font-size: 20px; font-weight: bold; margin: 0;"">Is there a person in this image?</p>
                    </div>
                </div>","1","main_experiment_trial","3","saving_a_cat_causal","causal_sequence","chronological","","","","","","",""
"","","","","","html-keyboard-response","44","164738","0.0-44.0","DB55122E10AF4147ABF54B62B5FE62C3","019cfcb7-61fe-7793-b78c-220856e03657","019cfc7b-6c7b-7b1b-afe7-acad8efc6711","","null","
                <div class=""stimulus-container"">
                    <img src=""images/causal_sequence/saving_a_cat_causal/saving_a_cat_causal_4.png"" class=""exp-image"">
                    <div class=""question-area""></div> 
                </div>","null","","","","","","","","","","","",""
"","","","","","html-button-response","45","165435","0.0-45.0","DB55122E10AF4147ABF54B62B5FE62C3","019cfcb7-61fe-7793-b78c-220856e03657","019cfc7b-6c7b-7b1b-afe7-acad8efc6711","","695","
                <div class=""stimulus-container"">
                    <img src=""images/causal_sequence/saving_a_cat_causal/saving_a_cat_causal_4.png"" class=""exp-image"">
                    <div class=""question-area"">
                        <p style=""font-size: 20px; font-weight: bold; margin: 0;"">Is there a person in this image?</p>
                    </div>
                </div>","0","main_experiment_trial","4","saving_a_cat_causal","causal_sequence","chronological","","","","","","",""
"","","","","","html-keyboard-response","46","170438","0.0-46.0","DB55122E10AF4147ABF54B62B5FE62C3","019cfcb7-61fe-7793-b78c-220856e03657","019cfc7b-6c7b-7b1b-afe7-acad8efc6711","","null","
                <div class=""stimulus-container"">
                    <img src=""images/causal_sequence/saving_a_cat_causal/saving_a_cat_causal_5.png"" class=""exp-image"">
                    <div class=""question-area""></div> 
                </div>","null","","","","","","","","","","","",""
"","","","","","html-button-response","47","171017","0.0-47.0","DB55122E10AF4147ABF54B62B5FE62C3","019cfcb7-61fe-7793-b78c-220856e03657","019cfc7b-6c7b-7b1b-afe7-acad8efc6711","","578","
                <div class=""stimulus-container"">
                    <img src=""images/causal_sequence/saving_a_cat_causal/saving_a_cat_causal_5.png"" class=""exp-image"">
                    <div class=""question-area"">
                        <p style=""font-size: 20px; font-weight: bold; margin: 0;"">Is there a person in this image?</p>
                    </div>
                </div>","0","main_experiment_trial","5","saving_a_cat_causal","causal_sequence","chronological","","","","","","",""
"","","","","","html-keyboard-response","48","176018","0.0-48.0","DB55122E10AF4147ABF54B62B5FE62C3","019cfcb7-61fe-7793-b78c-220856e03657","019cfc7b-6c7b-7b1b-afe7-acad8efc6711","","null","
                <div class=""stimulus-container"">
                    <img src=""images/causal_sequence/saving_a_cat_causal/saving_a_cat_causal_6.png"" class=""exp-image"">
                    <div class=""question-area""></div> 
                </div>","null","","","","","","","","","","","",""
"","","","","","html-button-response","49","177836","0.0-49.0","DB55122E10AF4147ABF54B62B5FE62C3","019cfcb7-61fe-7793-b78c-220856e03657","019cfc7b-6c7b-7b1b-afe7-acad8efc6711","","1815","
                <div class=""stimulus-container"">
                    <img src=""images/causal_sequence/saving_a_cat_causal/saving_a_cat_causal_6.png"" class=""exp-image"">
                    <div class=""question-area"">
                        <p style=""font-size: 20px; font-weight: bold; margin: 0;"">Is there a person in this image?</p>
                    </div>
                </div>","0","main_experiment_trial","6","saving_a_cat_causal","causal_sequence","chronological","","","","","","",""
"","","","","","html-keyboard-response","50","182838","0.0-50.0","DB55122E10AF4147ABF54B62B5FE62C3","019cfcb7-61fe-7793-b78c-220856e03657","019cfc7b-6c7b-7b1b-afe7-acad8efc6711","","null","
                <div class=""stimulus-container"">
                    <img src=""images/causal_sequence/saving_a_cat_causal/saving_a_cat_causal_7.png"" class=""exp-image"">
                    <div class=""question-area""></div> 
                </div>","null","","","","","","","","","","","",""
"","","","","","html-button-response","51","184336","0.0-51.0","DB55122E10AF4147ABF54B62B5FE62C3","019cfcb7-61fe-7793-b78c-220856e03657","019cfc7b-6c7b-7b1b-afe7-acad8efc6711","","1496","
                <div class=""stimulus-container"">
                    <img src=""images/causal_sequence/saving_a_cat_causal/saving_a_cat_causal_7.png"" class=""exp-image"">
                    <div class=""question-area"">
                        <p style=""font-size: 20px; font-weight: bold; margin: 0;"">Is there a person in this image?</p>
                    </div>
                </div>","0","main_experiment_trial","7","saving_a_cat_causal","causal_sequence","chronological","","","","","","",""
"","","","","","html-keyboard-response","52","189338","0.0-52.0","DB55122E10AF4147ABF54B62B5FE62C3","019cfcb7-61fe-7793-b78c-220856e03657","019cfc7b-6c7b-7b1b-afe7-acad8efc6711","","null","
                <div class=""stimulus-container"">
                    <img src=""images/causal_sequence/saving_a_cat_causal/saving_a_cat_causal_8.png"" class=""exp-image"">
                    <div class=""question-area""></div> 
                </div>","null","","","","","","","","","","","",""
"","","","","","html-button-response","53","190019","0.0-53.0","DB55122E10AF4147ABF54B62B5FE62C3","019cfcb7-61fe-7793-b78c-220856e03657","019cfc7b-6c7b-7b1b-afe7-acad8efc6711","","679","
                <div class=""stimulus-container"">
                    <img src=""images/causal_sequence/saving_a_cat_causal/saving_a_cat_causal_8.png"" class=""exp-image"">
                    <div class=""question-area"">
                        <p style=""font-size: 20px; font-weight: bold; margin: 0;"">Is there a person in this image?</p>
                    </div>
                </div>","0","main_experiment_trial","8","saving_a_cat_causal","causal_sequence","chronological","","","","","","",""
"","","","","","html-keyboard-response","54","195021","0.0-54.0","DB55122E10AF4147ABF54B62B5FE62C3","019cfcb7-61fe-7793-b78c-220856e03657","019cfc7b-6c7b-7b1b-afe7-acad8efc6711","","null","
                <div class=""stimulus-container"">
                    <img src=""images/causal_sequence/saving_a_cat_causal/saving_a_cat_causal_9.png"" class=""exp-image"">
                    <div class=""question-area""></div> 
                </div>","null","","","","","","","","","","","",""
"","","","","","html-button-response","55","195736","0.0-55.0","DB55122E10AF4147ABF54B62B5FE62C3","019cfcb7-61fe-7793-b78c-220856e03657","019cfc7b-6c7b-7b1b-afe7-acad8efc6711","","713","
                <div class=""stimulus-container"">
                    <img src=""images/causal_sequence/saving_a_cat_causal/saving_a_cat_causal_9.png"" class=""exp-image"">
                    <div class=""question-area"">
                        <p style=""font-size: 20px; font-weight: bold; margin: 0;"">Is there a person in this image?</p>
                    </div>
                </div>","0","main_experiment_trial","9","saving_a_cat_causal","causal_sequence","chronological","","","","","","",""
"","","","","","html-keyboard-response","56","200739","0.0-56.0","DB55122E10AF4147ABF54B62B5FE62C3","019cfcb7-61fe-7793-b78c-220856e03657","019cfc7b-6c7b-7b1b-afe7-acad8efc6711","","null","
                <div class=""stimulus-container"">
                    <img src=""images/causal_sequence/saving_a_cat_causal/saving_a_cat_causal_ten.png"" class=""exp-image"">
                    <div class=""question-area""></div> 
                </div>","null","","","","","","","","","","","",""
"","","","","","html-button-response","57","201503","0.0-57.0","DB55122E10AF4147ABF54B62B5FE62C3","019cfcb7-61fe-7793-b78c-220856e03657","019cfc7b-6c7b-7b1b-afe7-acad8efc6711","","762","
                <div class=""stimulus-container"">
                    <img src=""images/causal_sequence/saving_a_cat_causal/saving_a_cat_causal_ten.png"" class=""exp-image"">
                    <div class=""question-area"">
                        <p style=""font-size: 20px; font-weight: bold; margin: 0;"">Is there a person in this image?</p>
                    </div>
                </div>","0","main_experiment_trial","ten","saving_a_cat_causal","causal_sequence","chronological","","","","","","",""
"","","","","","html-keyboard-response","58","206506","0.0-58.0","DB55122E10AF4147ABF54B62B5FE62C3","019cfcb7-61fe-7793-b78c-220856e03657","019cfc7b-6c7b-7b1b-afe7-acad8efc6711","","null","<div style=""background-color: white; width: 100vw; height: 100vh;""></div>","null","","","","","","","","","","","",""
"","","","","","html-keyboard-response","59","211509","0.0-59.0","DB55122E10AF4147ABF54B62B5FE62C3","019cfcb7-61fe-7793-b78c-220856e03657","019cfc7b-6c7b-7b1b-afe7-acad8efc6711","","null","
                <div class=""stimulus-container"">
                    <img src=""images/causal_sequence/the_performance_causal/the_performance_causal_1.png"" class=""exp-image"">
                    <div class=""question-area""></div> 
                </div>","null","","","","","","","","","","","",""
"","","","","","html-button-response","60","213120","0.0-60.0","DB55122E10AF4147ABF54B62B5FE62C3","019cfcb7-61fe-7793-b78c-220856e03657","019cfc7b-6c7b-7b1b-afe7-acad8efc6711","","1609","
                <div class=""stimulus-container"">
                    <img src=""images/causal_sequence/the_performance_causal/the_performance_causal_1.png"" class=""exp-image"">
                    <div class=""question-area"">
                        <p style=""font-size: 20px; font-weight: bold; margin: 0;"">Is there a person in this image?</p>
                    </div>
                </div>","0","main_experiment_trial","1","the_performance_causal","causal_sequence","chronological","","","","","","",""
"","","","","","html-keyboard-response","61","218123","0.0-61.0","DB55122E10AF4147ABF54B62B5FE62C3","019cfcb7-61fe-7793-b78c-220856e03657","019cfc7b-6c7b-7b1b-afe7-acad8efc6711","","null","
                <div class=""stimulus-container"">
                    <img src=""images/causal_sequence/the_performance_causal/the_performance_causal_2.png"" class=""exp-image"">
                    <div class=""question-area""></div> 
                </div>","null","","","","","","","","","","","",""
"","","","","","html-button-response","62","219335","0.0-62.0","DB55122E10AF4147ABF54B62B5FE62C3","019cfcb7-61fe-7793-b78c-220856e03657","019cfc7b-6c7b-7b1b-afe7-acad8efc6711","","1211","
                <div class=""stimulus-container"">
                    <img src=""images/causal_sequence/the_performance_causal/the_performance_causal_2.png"" class=""exp-image"">
                    <div class=""question-area"">
                        <p style=""font-size: 20px; font-weight: bold; margin: 0;"">Is there a person in this image?</p>
                    </div>
                </div>","0","main_experiment_trial","2","the_performance_causal","causal_sequence","chronological","","","","","","",""
"","","","","","html-keyboard-response","63","224339","0.0-63.0","DB55122E10AF4147ABF54B62B5FE62C3","019cfcb7-61fe-7793-b78c-220856e03657","019cfc7b-6c7b-7b1b-afe7-acad8efc6711","","null","
                <div class=""stimulus-container"">
                    <img src=""images/causal_sequence/the_performance_causal/the_performance_causal_3.png"" class=""exp-image"">
                    <div class=""question-area""></div> 
                </div>","null","","","","","","","","","","","",""
"","","","","","html-button-response","64","225586","0.0-64.0","DB55122E10AF4147ABF54B62B5FE62C3","019cfcb7-61fe-7793-b78c-220856e03657","019cfc7b-6c7b-7b1b-afe7-acad8efc6711","","1246","
                <div class=""stimulus-container"">
                    <img src=""images/causal_sequence/the_performance_causal/the_performance_causal_3.png"" class=""exp-image"">
                    <div class=""question-area"">
                        <p style=""font-size: 20px; font-weight: bold; margin: 0;"">Is there a person in this image?</p>
                    </div>
                </div>","0","main_experiment_trial","3","the_performance_causal","causal_sequence","chronological","","","","","","",""
"","","","","","html-keyboard-response","65","230589","0.0-65.0","DB55122E10AF4147ABF54B62B5FE62C3","019cfcb7-61fe-7793-b78c-220856e03657","019cfc7b-6c7b-7b1b-afe7-acad8efc6711","","null","
                <div class=""stimulus-container"">
                    <img src=""images/causal_sequence/the_performance_causal/the_performance_causal_4.png"" class=""exp-image"">
                    <div class=""question-area""></div> 
                </div>","null","","","","","","","","","","","",""
"","","","","","html-button-response","66","231804","0.0-66.0","DB55122E10AF4147ABF54B62B5FE62C3","019cfcb7-61fe-7793-b78c-220856e03657","019cfc7b-6c7b-7b1b-afe7-acad8efc6711","","1213","
                <div class=""stimulus-container"">
                    <img src=""images/causal_sequence/the_performance_causal/the_performance_causal_4.png"" class=""exp-image"">
                    <div class=""question-area"">
                        <p style=""font-size: 20px; font-weight: bold; margin: 0;"">Is there a person in this image?</p>
                    </div>
                </div>","0","main_experiment_trial","4","the_performance_causal","causal_sequence","chronological","","","","","","",""
"","","","","","html-keyboard-response","67","236807","0.0-67.0","DB55122E10AF4147ABF54B62B5FE62C3","019cfcb7-61fe-7793-b78c-220856e03657","019cfc7b-6c7b-7b1b-afe7-acad8efc6711","","null","
                <div class=""stimulus-container"">
                    <img src=""images/causal_sequence/the_performance_causal/the_performance_causal_5.png"" class=""exp-image"">
                    <div class=""question-area""></div> 
                </div>","null","","","","","","","","","","","",""
"","","","","","html-button-response","68","237554","0.0-68.0","DB55122E10AF4147ABF54B62B5FE62C3","019cfcb7-61fe-7793-b78c-220856e03657","019cfc7b-6c7b-7b1b-afe7-acad8efc6711","","746","
                <div class=""stimulus-container"">
                    <img src=""images/causal_sequence/the_performance_causal/the_performance_causal_5.png"" class=""exp-image"">
                    <div class=""question-area"">
                        <p style=""font-size: 20px; font-weight: bold; margin: 0;"">Is there a person in this image?</p>
                    </div>
                </div>","0","main_experiment_trial","5","the_performance_causal","causal_sequence","chronological","","","","","","",""
"","","","","","html-keyboard-response","69","242556","0.0-69.0","DB55122E10AF4147ABF54B62B5FE62C3","019cfcb7-61fe-7793-b78c-220856e03657","019cfc7b-6c7b-7b1b-afe7-acad8efc6711","","null","
                <div class=""stimulus-container"">
                    <img src=""images/causal_sequence/the_performance_causal/the_performance_causal_6.png"" class=""exp-image"">
                    <div class=""question-area""></div> 
                </div>","null","","","","","","","","","","","",""
"","","","","","html-button-response","70","243270","0.0-70.0","DB55122E10AF4147ABF54B62B5FE62C3","019cfcb7-61fe-7793-b78c-220856e03657","019cfc7b-6c7b-7b1b-afe7-acad8efc6711","","712","
                <div class=""stimulus-container"">
                    <img src=""images/causal_sequence/the_performance_causal/the_performance_causal_6.png"" class=""exp-image"">
                    <div class=""question-area"">
                        <p style=""font-size: 20px; font-weight: bold; margin: 0;"">Is there a person in this image?</p>
                    </div>
                </div>","0","main_experiment_trial","6","the_performance_causal","causal_sequence","chronological","","","","","","",""
"","","","","","html-keyboard-response","71","248273","0.0-71.0","DB55122E10AF4147ABF54B62B5FE62C3","019cfcb7-61fe-7793-b78c-220856e03657","019cfc7b-6c7b-7b1b-afe7-acad8efc6711","","null","
                <div class=""stimulus-container"">
                    <img src=""images/causal_sequence/the_performance_causal/the_performance_causal_7.png"" class=""exp-image"">
                    <div class=""question-area""></div> 
                </div>","null","","","","","","","","","","","",""
"","","","","","html-button-response","72","249187","0.0-72.0","DB55122E10AF4147ABF54B62B5FE62C3","019cfcb7-61fe-7793-b78c-220856e03657","019cfc7b-6c7b-7b1b-afe7-acad8efc6711","","912","
                <div class=""stimulus-container"">
                    <img src=""images/causal_sequence/the_performance_causal/the_performance_causal_7.png"" class=""exp-image"">
                    <div class=""question-area"">
                        <p style=""font-size: 20px; font-weight: bold; margin: 0;"">Is there a person in this image?</p>
                    </div>
                </div>","0","main_experiment_trial","7","the_performance_causal","causal_sequence","chronological","","","","","","",""
"","","","","","html-keyboard-response","73","254189","0.0-73.0","DB55122E10AF4147ABF54B62B5FE62C3","019cfcb7-61fe-7793-b78c-220856e03657","019cfc7b-6c7b-7b1b-afe7-acad8efc6711","","null","
                <div class=""stimulus-container"">
                    <img src=""images/causal_sequence/the_performance_causal/the_performance_causal_8.png"" class=""exp-image"">
                    <div class=""question-area""></div> 
                </div>","null","","","","","","","","","","","",""
"","","","","","html-button-response","74","255068","0.0-74.0","DB55122E10AF4147ABF54B62B5FE62C3","019cfcb7-61fe-7793-b78c-220856e03657","019cfc7b-6c7b-7b1b-afe7-acad8efc6711","","878","
                <div class=""stimulus-container"">
                    <img src=""images/causal_sequence/the_performance_causal/the_performance_causal_8.png"" class=""exp-image"">
                    <div class=""question-area"">
                        <p style=""font-size: 20px; font-weight: bold; margin: 0;"">Is there a person in this image?</p>
                    </div>
                </div>","0","main_experiment_trial","8","the_performance_causal","causal_sequence","chronological","","","","","","",""
"","","","","","html-keyboard-response","75","260070","0.0-75.0","DB55122E10AF4147ABF54B62B5FE62C3","019cfcb7-61fe-7793-b78c-220856e03657","019cfc7b-6c7b-7b1b-afe7-acad8efc6711","","null","
                <div class=""stimulus-container"">
                    <img src=""images/causal_sequence/the_performance_causal/the_performance_causal_9.png"" class=""exp-image"">
                    <div class=""question-area""></div> 
                </div>","null","","","","","","","","","","","",""
"","","","","","html-button-response","76","260754","0.0-76.0","DB55122E10AF4147ABF54B62B5FE62C3","019cfcb7-61fe-7793-b78c-220856e03657","019cfc7b-6c7b-7b1b-afe7-acad8efc6711","","682","
                <div class=""stimulus-container"">
                    <img src=""images/causal_sequence/the_performance_causal/the_performance_causal_9.png"" class=""exp-image"">
                    <div class=""question-area"">
                        <p style=""font-size: 20px; font-weight: bold; margin: 0;"">Is there a person in this image?</p>
                    </div>
                </div>","0","main_experiment_trial","9","the_performance_causal","causal_sequence","chronological","","","","","","",""
"","","","","","html-keyboard-response","77","265757","0.0-77.0","DB55122E10AF4147ABF54B62B5FE62C3","019cfcb7-61fe-7793-b78c-220856e03657","019cfc7b-6c7b-7b1b-afe7-acad8efc6711","","null","
                <div class=""stimulus-container"">
                    <img src=""images/causal_sequence/the_performance_causal/the_performance_causal_ten.png"" class=""exp-image"">
                    <div class=""question-area""></div> 
                </div>","null","","","","","","","","","","","",""
"","","","","","html-button-response","78","266420","0.0-78.0","DB55122E10AF4147ABF54B62B5FE62C3","019cfcb7-61fe-7793-b78c-220856e03657","019cfc7b-6c7b-7b1b-afe7-acad8efc6711","","662","
                <div class=""stimulus-container"">
                    <img src=""images/causal_sequence/the_performance_causal/the_performance_causal_ten.png"" class=""exp-image"">
                    <div class=""question-area"">
                        <p style=""font-size: 20px; font-weight: bold; margin: 0;"">Is there a person in this image?</p>
                    </div>
                </div>","0","main_experiment_trial","ten","the_performance_causal","causal_sequence","chronological","","","","","","",""
"","","","","","html-keyboard-response","79","271422","0.0-79.0","DB55122E10AF4147ABF54B62B5FE62C3","019cfcb7-61fe-7793-b78c-220856e03657","019cfc7b-6c7b-7b1b-afe7-acad8efc6711","","null","<div style=""background-color: white; width: 100vw; height: 100vh;""></div>","null","","","","","","","","","","","",""
"","","","","","html-keyboard-response","80","276424","0.0-80.0","DB55122E10AF4147ABF54B62B5FE62C3","019cfcb7-61fe-7793-b78c-220856e03657","019cfc7b-6c7b-7b1b-afe7-acad8efc6711","","null","
                <div class=""stimulus-container"">
                    <img src=""images/schematic_sequence/flight_scheme/flight_scheme_1.png"" class=""exp-image"">
                    <div class=""question-area""></div> 
                </div>","null","","","","","","","","","","","",""
"","","","","","html-button-response","81","277903","0.0-81.0","DB55122E10AF4147ABF54B62B5FE62C3","019cfcb7-61fe-7793-b78c-220856e03657","019cfc7b-6c7b-7b1b-afe7-acad8efc6711","","1477","
                <div class=""stimulus-container"">
                    <img src=""images/schematic_sequence/flight_scheme/flight_scheme_1.png"" class=""exp-image"">
                    <div class=""question-area"">
                        <p style=""font-size: 20px; font-weight: bold; margin: 0;"">Is there a person in this image?</p>
                    </div>
                </div>","0","main_experiment_trial","1","flight_scheme","schematic_sequence","chronological","","","","","","",""
"","","","","","html-keyboard-response","82","282905","0.0-82.0","DB55122E10AF4147ABF54B62B5FE62C3","019cfcb7-61fe-7793-b78c-220856e03657","019cfc7b-6c7b-7b1b-afe7-acad8efc6711","","null","
                <div class=""stimulus-container"">
                    <img src=""images/schematic_sequence/flight_scheme/flight_scheme_2.png"" class=""exp-image"">
                    <div class=""question-area""></div> 
                </div>","null","","","","","","","","","","","",""
"","","","","","html-button-response","83","283587","0.0-83.0","DB55122E10AF4147ABF54B62B5FE62C3","019cfcb7-61fe-7793-b78c-220856e03657","019cfc7b-6c7b-7b1b-afe7-acad8efc6711","","680","
                <div class=""stimulus-container"">
                    <img src=""images/schematic_sequence/flight_scheme/flight_scheme_2.png"" class=""exp-image"">
                    <div class=""question-area"">
                        <p style=""font-size: 20px; font-weight: bold; margin: 0;"">Is there a person in this image?</p>
                    </div>
                </div>","1","main_experiment_trial","2","flight_scheme","schematic_sequence","chronological","","","","","","",""
"","","","","","html-keyboard-response","84","288590","0.0-84.0","DB55122E10AF4147ABF54B62B5FE62C3","019cfcb7-61fe-7793-b78c-220856e03657","019cfc7b-6c7b-7b1b-afe7-acad8efc6711","","null","
                <div class=""stimulus-container"">
                    <img src=""images/schematic_sequence/flight_scheme/flight_scheme_3.png"" class=""exp-image"">
                    <div class=""question-area""></div> 
                </div>","null","","","","","","","","","","","",""
"","","","","","html-button-response","85","289419","0.0-85.0","DB55122E10AF4147ABF54B62B5FE62C3","019cfcb7-61fe-7793-b78c-220856e03657","019cfc7b-6c7b-7b1b-afe7-acad8efc6711","","828","
                <div class=""stimulus-container"">
                    <img src=""images/schematic_sequence/flight_scheme/flight_scheme_3.png"" class=""exp-image"">
                    <div class=""question-area"">
                        <p style=""font-size: 20px; font-weight: bold; margin: 0;"">Is there a person in this image?</p>
                    </div>
                </div>","0","main_experiment_trial","3","flight_scheme","schematic_sequence","chronological","","","","","","",""
"","","","","","html-keyboard-response","86","294420","0.0-86.0","DB55122E10AF4147ABF54B62B5FE62C3","019cfcb7-61fe-7793-b78c-220856e03657","019cfc7b-6c7b-7b1b-afe7-acad8efc6711","","null","
                <div class=""stimulus-container"">
                    <img src=""images/schematic_sequence/flight_scheme/flight_scheme_4.png"" class=""exp-image"">
                    <div class=""question-area""></div> 
                </div>","null","","","","","","","","","","","",""
"","","","","","html-button-response","87","295087","0.0-87.0","DB55122E10AF4147ABF54B62B5FE62C3","019cfcb7-61fe-7793-b78c-220856e03657","019cfc7b-6c7b-7b1b-afe7-acad8efc6711","","665","
                <div class=""stimulus-container"">
                    <img src=""images/schematic_sequence/flight_scheme/flight_scheme_4.png"" class=""exp-image"">
                    <div class=""question-area"">
                        <p style=""font-size: 20px; font-weight: bold; margin: 0;"">Is there a person in this image?</p>
                    </div>
                </div>","0","main_experiment_trial","4","flight_scheme","schematic_sequence","chronological","","","","","","",""
"","","","","","html-keyboard-response","88","300090","0.0-88.0","DB55122E10AF4147ABF54B62B5FE62C3","019cfcb7-61fe-7793-b78c-220856e03657","019cfc7b-6c7b-7b1b-afe7-acad8efc6711","","null","
                <div class=""stimulus-container"">
                    <img src=""images/schematic_sequence/flight_scheme/flight_scheme_5.png"" class=""exp-image"">
                    <div class=""question-area""></div> 
                </div>","null","","","","","","","","","","","",""
"","","","","","html-button-response","89","300820","0.0-89.0","DB55122E10AF4147ABF54B62B5FE62C3","019cfcb7-61fe-7793-b78c-220856e03657","019cfc7b-6c7b-7b1b-afe7-acad8efc6711","","728","
                <div class=""stimulus-container"">
                    <img src=""images/schematic_sequence/flight_scheme/flight_scheme_5.png"" class=""exp-image"">
                    <div class=""question-area"">
                        <p style=""font-size: 20px; font-weight: bold; margin: 0;"">Is there a person in this image?</p>
                    </div>
                </div>","0","main_experiment_trial","5","flight_scheme","schematic_sequence","chronological","","","","","","",""
"","","","","","html-keyboard-response","90","305822","0.0-90.0","DB55122E10AF4147ABF54B62B5FE62C3","019cfcb7-61fe-7793-b78c-220856e03657","019cfc7b-6c7b-7b1b-afe7-acad8efc6711","","null","
                <div class=""stimulus-container"">
                    <img src=""images/schematic_sequence/flight_scheme/flight_scheme_6.png"" class=""exp-image"">
                    <div class=""question-area""></div> 
                </div>","null","","","","","","","","","","","",""
"","","","","","html-button-response","91","306321","0.0-91.0","DB55122E10AF4147ABF54B62B5FE62C3","019cfcb7-61fe-7793-b78c-220856e03657","019cfc7b-6c7b-7b1b-afe7-acad8efc6711","","498","
                <div class=""stimulus-container"">
                    <img src=""images/schematic_sequence/flight_scheme/flight_scheme_6.png"" class=""exp-image"">
                    <div class=""question-area"">
                        <p style=""font-size: 20px; font-weight: bold; margin: 0;"">Is there a person in this image?</p>
                    </div>
                </div>","1","main_experiment_trial","6","flight_scheme","schematic_sequence","chronological","","","","","","",""
"","","","","","html-keyboard-response","92","311324","0.0-92.0","DB55122E10AF4147ABF54B62B5FE62C3","019cfcb7-61fe-7793-b78c-220856e03657","019cfc7b-6c7b-7b1b-afe7-acad8efc6711","","null","
                <div class=""stimulus-container"">
                    <img src=""images/schematic_sequence/flight_scheme/flight_scheme_7.png"" class=""exp-image"">
                    <div class=""question-area""></div> 
                </div>","null","","","","","","","","","","","",""
"","","","","","html-button-response","93","311936","0.0-93.0","DB55122E10AF4147ABF54B62B5FE62C3","019cfcb7-61fe-7793-b78c-220856e03657","019cfc7b-6c7b-7b1b-afe7-acad8efc6711","","611","
                <div class=""stimulus-container"">
                    <img src=""images/schematic_sequence/flight_scheme/flight_scheme_7.png"" class=""exp-image"">
                    <div class=""question-area"">
                        <p style=""font-size: 20px; font-weight: bold; margin: 0;"">Is there a person in this image?</p>
                    </div>
                </div>","0","main_experiment_trial","7","flight_scheme","schematic_sequence","chronological","","","","","","",""
"","","","","","html-keyboard-response","94","316939","0.0-94.0","DB55122E10AF4147ABF54B62B5FE62C3","019cfcb7-61fe-7793-b78c-220856e03657","019cfc7b-6c7b-7b1b-afe7-acad8efc6711","","null","
                <div class=""stimulus-container"">
                    <img src=""images/schematic_sequence/flight_scheme/flight_scheme_8.png"" class=""exp-image"">
                    <div class=""question-area""></div> 
                </div>","null","","","","","","","","","","","",""
"","","","","","html-button-response","95","317501","0.0-95.0","DB55122E10AF4147ABF54B62B5FE62C3","019cfcb7-61fe-7793-b78c-220856e03657","019cfc7b-6c7b-7b1b-afe7-acad8efc6711","","561","
                <div class=""stimulus-container"">
                    <img src=""images/schematic_sequence/flight_scheme/flight_scheme_8.png"" class=""exp-image"">
                    <div class=""question-area"">
                        <p style=""font-size: 20px; font-weight: bold; margin: 0;"">Is there a person in this image?</p>
                    </div>
                </div>","1","main_experiment_trial","8","flight_scheme","schematic_sequence","chronological","","","","","","",""
"","","","","","html-keyboard-response","96","322504","0.0-96.0","DB55122E10AF4147ABF54B62B5FE62C3","019cfcb7-61fe-7793-b78c-220856e03657","019cfc7b-6c7b-7b1b-afe7-acad8efc6711","","null","
                <div class=""stimulus-container"">
                    <img src=""images/schematic_sequence/flight_scheme/flight_scheme_9.png"" class=""exp-image"">
                    <div class=""question-area""></div> 
                </div>","null","","","","","","","","","","","",""
"","","","","","html-button-response","97","322937","0.0-97.0","DB55122E10AF4147ABF54B62B5FE62C3","019cfcb7-61fe-7793-b78c-220856e03657","019cfc7b-6c7b-7b1b-afe7-acad8efc6711","","431","
                <div class=""stimulus-container"">
                    <img src=""images/schematic_sequence/flight_scheme/flight_scheme_9.png"" class=""exp-image"">
                    <div class=""question-area"">
                        <p style=""font-size: 20px; font-weight: bold; margin: 0;"">Is there a person in this image?</p>
                    </div>
                </div>","0","main_experiment_trial","9","flight_scheme","schematic_sequence","chronological","","","","","","",""
"","","","","","html-keyboard-response","98","327940","0.0-98.0","DB55122E10AF4147ABF54B62B5FE62C3","019cfcb7-61fe-7793-b78c-220856e03657","019cfc7b-6c7b-7b1b-afe7-acad8efc6711","","null","
                <div class=""stimulus-container"">
                    <img src=""images/schematic_sequence/flight_scheme/flight_scheme_ten.png"" class=""exp-image"">
                    <div class=""question-area""></div> 
                </div>","null","","","","","","","","","","","",""
"","","","","","html-button-response","99","328404","0.0-99.0","DB55122E10AF4147ABF54B62B5FE62C3","019cfcb7-61fe-7793-b78c-220856e03657","019cfc7b-6c7b-7b1b-afe7-acad8efc6711","","463","
                <div class=""stimulus-container"">
                    <img src=""images/schematic_sequence/flight_scheme/flight_scheme_ten.png"" class=""exp-image"">
                    <div class=""question-area"">
                        <p style=""font-size: 20px; font-weight: bold; margin: 0;"">Is there a person in this image?</p>
                    </div>
                </div>","0","main_experiment_trial","ten","flight_scheme","schematic_sequence","chronological","","","","","","",""
"","","","","","html-keyboard-response","100","333407","0.0-100.0","DB55122E10AF4147ABF54B62B5FE62C3","019cfcb7-61fe-7793-b78c-220856e03657","019cfc7b-6c7b-7b1b-afe7-acad8efc6711","","null","<div style=""background-color: white; width: 100vw; height: 100vh;""></div>","null","","","","","","","","","","","",""
"","","","","","html-keyboard-response","101","338410","0.0-101.0","DB55122E10AF4147ABF54B62B5FE62C3","019cfcb7-61fe-7793-b78c-220856e03657","019cfc7b-6c7b-7b1b-afe7-acad8efc6711","","null","
                <div class=""stimulus-container"">
                    <img src=""images/semantic_sequence/visiting_cities_semantic/visiting_cities_semantic_1.png"" class=""exp-image"">
                    <div class=""question-area""></div> 
                </div>","null","","","","","","","","","","","",""
"","","","","","html-button-response","102","338920","0.0-102.0","DB55122E10AF4147ABF54B62B5FE62C3","019cfcb7-61fe-7793-b78c-220856e03657","019cfc7b-6c7b-7b1b-afe7-acad8efc6711","","508","
                <div class=""stimulus-container"">
                    <img src=""images/semantic_sequence/visiting_cities_semantic/visiting_cities_semantic_1.png"" class=""exp-image"">
                    <div class=""question-area"">
                        <p style=""font-size: 20px; font-weight: bold; margin: 0;"">Is there a person in this image?</p>
                    </div>
                </div>","0","main_experiment_trial","1","visiting_cities_semantic","semantic_sequence","chronological","","","","","","",""
"","","","","","html-keyboard-response","103","343922","0.0-103.0","DB55122E10AF4147ABF54B62B5FE62C3","019cfcb7-61fe-7793-b78c-220856e03657","019cfc7b-6c7b-7b1b-afe7-acad8efc6711","","null","
                <div class=""stimulus-container"">
                    <img src=""images/semantic_sequence/visiting_cities_semantic/visiting_cities_semantic_2.png"" class=""exp-image"">
                    <div class=""question-area""></div> 
                </div>","null","","","","","","","","","","","",""
"","","","","","html-button-response","104","344455","0.0-104.0","DB55122E10AF4147ABF54B62B5FE62C3","019cfcb7-61fe-7793-b78c-220856e03657","019cfc7b-6c7b-7b1b-afe7-acad8efc6711","","531","
                <div class=""stimulus-container"">
                    <img src=""images/semantic_sequence/visiting_cities_semantic/visiting_cities_semantic_2.png"" class=""exp-image"">
                    <div class=""question-area"">
                        <p style=""font-size: 20px; font-weight: bold; margin: 0;"">Is there a person in this image?</p>
                    </div>
                </div>","1","main_experiment_trial","2","visiting_cities_semantic","semantic_sequence","chronological","","","","","","",""
"","","","","","html-keyboard-response","105","349456","0.0-105.0","DB55122E10AF4147ABF54B62B5FE62C3","019cfcb7-61fe-7793-b78c-220856e03657","019cfc7b-6c7b-7b1b-afe7-acad8efc6711","","null","
                <div class=""stimulus-container"">
                    <img src=""images/semantic_sequence/visiting_cities_semantic/visiting_cities_semantic_3.png"" class=""exp-image"">
                    <div class=""question-area""></div> 
                </div>","null","","","","","","","","","","","",""
"","","","","","html-button-response","106","349987","0.0-106.0","DB55122E10AF4147ABF54B62B5FE62C3","019cfcb7-61fe-7793-b78c-220856e03657","019cfc7b-6c7b-7b1b-afe7-acad8efc6711","","529","
                <div class=""stimulus-container"">
                    <img src=""images/semantic_sequence/visiting_cities_semantic/visiting_cities_semantic_3.png"" class=""exp-image"">
                    <div class=""question-area"">
                        <p style=""font-size: 20px; font-weight: bold; margin: 0;"">Is there a person in this image?</p>
                    </div>
                </div>","1","main_experiment_trial","3","visiting_cities_semantic","semantic_sequence","chronological","","","","","","",""
"","","","","","html-keyboard-response","107","354990","0.0-107.0","DB55122E10AF4147ABF54B62B5FE62C3","019cfcb7-61fe-7793-b78c-220856e03657","019cfc7b-6c7b-7b1b-afe7-acad8efc6711","","null","
                <div class=""stimulus-container"">
                    <img src=""images/semantic_sequence/visiting_cities_semantic/visiting_cities_semantic_4.png"" class=""exp-image"">
                    <div class=""question-area""></div> 
                </div>","null","","","","","","","","","","","",""
"","","","","","html-button-response","108","355421","0.0-108.0","DB55122E10AF4147ABF54B62B5FE62C3","019cfcb7-61fe-7793-b78c-220856e03657","019cfc7b-6c7b-7b1b-afe7-acad8efc6711","","430","
                <div class=""stimulus-container"">
                    <img src=""images/semantic_sequence/visiting_cities_semantic/visiting_cities_semantic_4.png"" class=""exp-image"">
                    <div class=""question-area"">
                        <p style=""font-size: 20px; font-weight: bold; margin: 0;"">Is there a person in this image?</p>
                    </div>
                </div>","1","main_experiment_trial","4","visiting_cities_semantic","semantic_sequence","chronological","","","","","","",""
"","","","","","html-keyboard-response","109","360423","0.0-109.0","DB55122E10AF4147ABF54B62B5FE62C3","019cfcb7-61fe-7793-b78c-220856e03657","019cfc7b-6c7b-7b1b-afe7-acad8efc6711","","null","
                <div class=""stimulus-container"">
                    <img src=""images/semantic_sequence/visiting_cities_semantic/visiting_cities_semantic_5.png"" class=""exp-image"">
                    <div class=""question-area""></div> 
                </div>","null","","","","","","","","","","","",""
"","","","","","html-button-response","110","363426","0.0-110.0","DB55122E10AF4147ABF54B62B5FE62C3","019cfcb7-61fe-7793-b78c-220856e03657","019cfc7b-6c7b-7b1b-afe7-acad8efc6711","","null","
                <div class=""stimulus-container"">
                    <img src=""images/semantic_sequence/visiting_cities_semantic/visiting_cities_semantic_5.png"" class=""exp-image"">
                    <div class=""question-area"">
                        <p style=""font-size: 20px; font-weight: bold; margin: 0;"">Is there a person in this image?</p>
                    </div>
                </div>","null","main_experiment_trial","5","visiting_cities_semantic","semantic_sequence","chronological","","","","","","",""
"","","","","","html-keyboard-response","111","368428","0.0-111.0","DB55122E10AF4147ABF54B62B5FE62C3","019cfcb7-61fe-7793-b78c-220856e03657","019cfc7b-6c7b-7b1b-afe7-acad8efc6711","","null","
                <div class=""stimulus-container"">
                    <img src=""images/semantic_sequence/visiting_cities_semantic/visiting_cities_semantic_6.png"" class=""exp-image"">
                    <div class=""question-area""></div> 
                </div>","null","","","","","","","","","","","",""
"","","","","","html-button-response","112","369187","0.0-112.0","DB55122E10AF4147ABF54B62B5FE62C3","019cfcb7-61fe-7793-b78c-220856e03657","019cfc7b-6c7b-7b1b-afe7-acad8efc6711","","757","
                <div class=""stimulus-container"">
                    <img src=""images/semantic_sequence/visiting_cities_semantic/visiting_cities_semantic_6.png"" class=""exp-image"">
                    <div class=""question-area"">
                        <p style=""font-size: 20px; font-weight: bold; margin: 0;"">Is there a person in this image?</p>
                    </div>
                </div>","1","main_experiment_trial","6","visiting_cities_semantic","semantic_sequence","chronological","","","","","","",""
"","","","","","html-keyboard-response","113","374190","0.0-113.0","DB55122E10AF4147ABF54B62B5FE62C3","019cfcb7-61fe-7793-b78c-220856e03657","019cfc7b-6c7b-7b1b-afe7-acad8efc6711","","null","
                <div class=""stimulus-container"">
                    <img src=""images/semantic_sequence/visiting_cities_semantic/visiting_cities_semantic_7.png"" class=""exp-image"">
                    <div class=""question-area""></div> 
                </div>","null","","","","","","","","","","","",""
"","","","","","html-button-response","114","374671","0.0-114.0","DB55122E10AF4147ABF54B62B5FE62C3","019cfcb7-61fe-7793-b78c-220856e03657","019cfc7b-6c7b-7b1b-afe7-acad8efc6711","","480","
                <div class=""stimulus-container"">
                    <img src=""images/semantic_sequence/visiting_cities_semantic/visiting_cities_semantic_7.png"" class=""exp-image"">
                    <div class=""question-area"">
                        <p style=""font-size: 20px; font-weight: bold; margin: 0;"">Is there a person in this image?</p>
                    </div>
                </div>","0","main_experiment_trial","7","visiting_cities_semantic","semantic_sequence","chronological","","","","","","",""
"","","","","","html-keyboard-response","115","379673","0.0-115.0","DB55122E10AF4147ABF54B62B5FE62C3","019cfcb7-61fe-7793-b78c-220856e03657","019cfc7b-6c7b-7b1b-afe7-acad8efc6711","","null","
                <div class=""stimulus-container"">
                    <img src=""images/semantic_sequence/visiting_cities_semantic/visiting_cities_semantic_8.png"" class=""exp-image"">
                    <div class=""question-area""></div> 
                </div>","null","","","","","","","","","","","",""
"","","","","","html-button-response","116","380155","0.0-116.0","DB55122E10AF4147ABF54B62B5FE62C3","019cfcb7-61fe-7793-b78c-220856e03657","019cfc7b-6c7b-7b1b-afe7-acad8efc6711","","480","
                <div class=""stimulus-container"">
                    <img src=""images/semantic_sequence/visiting_cities_semantic/visiting_cities_semantic_8.png"" class=""exp-image"">
                    <div class=""question-area"">
                        <p style=""font-size: 20px; font-weight: bold; margin: 0;"">Is there a person in this image?</p>
                    </div>
                </div>","0","main_experiment_trial","8","visiting_cities_semantic","semantic_sequence","chronological","","","","","","",""
"","","","","","html-keyboard-response","117","385158","0.0-117.0","DB55122E10AF4147ABF54B62B5FE62C3","019cfcb7-61fe-7793-b78c-220856e03657","019cfc7b-6c7b-7b1b-afe7-acad8efc6711","","null","
                <div class=""stimulus-container"">
                    <img src=""images/semantic_sequence/visiting_cities_semantic/visiting_cities_semantic_9.png"" class=""exp-image"">
                    <div class=""question-area""></div> 
                </div>","null","","","","","","","","","","","",""
"","","","","","html-button-response","118","385705","0.0-118.0","DB55122E10AF4147ABF54B62B5FE62C3","019cfcb7-61fe-7793-b78c-220856e03657","019cfc7b-6c7b-7b1b-afe7-acad8efc6711","","546","
                <div class=""stimulus-container"">
                    <img src=""images/semantic_sequence/visiting_cities_semantic/visiting_cities_semantic_9.png"" class=""exp-image"">
                    <div class=""question-area"">
                        <p style=""font-size: 20px; font-weight: bold; margin: 0;"">Is there a person in this image?</p>
                    </div>
                </div>","0","main_experiment_trial","9","visiting_cities_semantic","semantic_sequence","chronological","","","","","","",""
"","","","","","html-keyboard-response","119","390707","0.0-119.0","DB55122E10AF4147ABF54B62B5FE62C3","019cfcb7-61fe-7793-b78c-220856e03657","019cfc7b-6c7b-7b1b-afe7-acad8efc6711","","null","
                <div class=""stimulus-container"">
                    <img src=""images/semantic_sequence/visiting_cities_semantic/visiting_cities_semantic_ten.png"" class=""exp-image"">
                    <div class=""question-area""></div> 
                </div>","null","","","","","","","","","","","",""
"","","","","","html-button-response","120","391170","0.0-120.0","DB55122E10AF4147ABF54B62B5FE62C3","019cfcb7-61fe-7793-b78c-220856e03657","019cfc7b-6c7b-7b1b-afe7-acad8efc6711","","461","
                <div class=""stimulus-container"">
                    <img src=""images/semantic_sequence/visiting_cities_semantic/visiting_cities_semantic_ten.png"" class=""exp-image"">
                    <div class=""question-area"">
                        <p style=""font-size: 20px; font-weight: bold; margin: 0;"">Is there a person in this image?</p>
                    </div>
                </div>","0","main_experiment_trial","ten","visiting_cities_semantic","semantic_sequence","chronological","","","","","","",""
"","","","","","html-keyboard-response","121","396172","0.0-121.0","DB55122E10AF4147ABF54B62B5FE62C3","019cfcb7-61fe-7793-b78c-220856e03657","019cfc7b-6c7b-7b1b-afe7-acad8efc6711","","null","<div style=""background-color: white; width: 100vw; height: 100vh;""></div>","null","","","","","","","","","","","",""
"","","","","","html-keyboard-response","122","401175","0.0-122.0","DB55122E10AF4147ABF54B62B5FE62C3","019cfcb7-61fe-7793-b78c-220856e03657","019cfc7b-6c7b-7b1b-afe7-acad8efc6711","","null","
                <div class=""stimulus-container"">
                    <img src=""images/causal_sequence/coin_causal/coin_causal_1.png"" class=""exp-image"">
                    <div class=""question-area""></div> 
                </div>","null","","","","","","","","","","","",""
"","","","","","html-button-response","123","402205","0.0-123.0","DB55122E10AF4147ABF54B62B5FE62C3","019cfcb7-61fe-7793-b78c-220856e03657","019cfc7b-6c7b-7b1b-afe7-acad8efc6711","","1028","
                <div class=""stimulus-container"">
                    <img src=""images/causal_sequence/coin_causal/coin_causal_1.png"" class=""exp-image"">
                    <div class=""question-area"">
                        <p style=""font-size: 20px; font-weight: bold; margin: 0;"">Is there a person in this image?</p>
                    </div>
                </div>","0","main_experiment_trial","1","coin_causal","causal_sequence","chronological","","","","","","",""
"","","","","","html-keyboard-response","124","407208","0.0-124.0","DB55122E10AF4147ABF54B62B5FE62C3","019cfcb7-61fe-7793-b78c-220856e03657","019cfc7b-6c7b-7b1b-afe7-acad8efc6711","","null","
                <div class=""stimulus-container"">
                    <img src=""images/causal_sequence/coin_causal/coin_causal_2.png"" class=""exp-image"">
                    <div class=""question-area""></div> 
                </div>","null","","","","","","","","","","","",""
"","","","","","html-button-response","125","408072","0.0-125.0","DB55122E10AF4147ABF54B62B5FE62C3","019cfcb7-61fe-7793-b78c-220856e03657","019cfc7b-6c7b-7b1b-afe7-acad8efc6711","","863","
                <div class=""stimulus-container"">
                    <img src=""images/causal_sequence/coin_causal/coin_causal_2.png"" class=""exp-image"">
                    <div class=""question-area"">
                        <p style=""font-size: 20px; font-weight: bold; margin: 0;"">Is there a person in this image?</p>
                    </div>
                </div>","0","main_experiment_trial","2","coin_causal","causal_sequence","chronological","","","","","","",""
"","","","","","html-keyboard-response","126","413075","0.0-126.0","DB55122E10AF4147ABF54B62B5FE62C3","019cfcb7-61fe-7793-b78c-220856e03657","019cfc7b-6c7b-7b1b-afe7-acad8efc6711","","null","
                <div class=""stimulus-container"">
                    <img src=""images/causal_sequence/coin_causal/coin_causal_3.png"" class=""exp-image"">
                    <div class=""question-area""></div> 
                </div>","null","","","","","","","","","","","",""
"","","","","","html-button-response","127","413520","0.0-127.0","DB55122E10AF4147ABF54B62B5FE62C3","019cfcb7-61fe-7793-b78c-220856e03657","019cfc7b-6c7b-7b1b-afe7-acad8efc6711","","443","
                <div class=""stimulus-container"">
                    <img src=""images/causal_sequence/coin_causal/coin_causal_3.png"" class=""exp-image"">
                    <div class=""question-area"">
                        <p style=""font-size: 20px; font-weight: bold; margin: 0;"">Is there a person in this image?</p>
                    </div>
                </div>","0","main_experiment_trial","3","coin_causal","causal_sequence","chronological","","","","","","",""
"","","","","","html-keyboard-response","128","418522","0.0-128.0","DB55122E10AF4147ABF54B62B5FE62C3","019cfcb7-61fe-7793-b78c-220856e03657","019cfc7b-6c7b-7b1b-afe7-acad8efc6711","","null","
                <div class=""stimulus-container"">
                    <img src=""images/causal_sequence/coin_causal/coin_causal_4.png"" class=""exp-image"">
                    <div class=""question-area""></div> 
                </div>","null","","","","","","","","","","","",""
"","","","","","html-button-response","129","419022","0.0-129.0","DB55122E10AF4147ABF54B62B5FE62C3","019cfcb7-61fe-7793-b78c-220856e03657","019cfc7b-6c7b-7b1b-afe7-acad8efc6711","","499","
                <div class=""stimulus-container"">
                    <img src=""images/causal_sequence/coin_causal/coin_causal_4.png"" class=""exp-image"">
                    <div class=""question-area"">
                        <p style=""font-size: 20px; font-weight: bold; margin: 0;"">Is there a person in this image?</p>
                    </div>
                </div>","0","main_experiment_trial","4","coin_causal","causal_sequence","chronological","","","","","","",""
"","","","","","html-keyboard-response","130","424024","0.0-130.0","DB55122E10AF4147ABF54B62B5FE62C3","019cfcb7-61fe-7793-b78c-220856e03657","019cfc7b-6c7b-7b1b-afe7-acad8efc6711","","null","
                <div class=""stimulus-container"">
                    <img src=""images/causal_sequence/coin_causal/coin_causal_5.png"" class=""exp-image"">
                    <div class=""question-area""></div> 
                </div>","null","","","","","","","","","","","",""
"","","","","","html-button-response","131","424555","0.0-131.0","DB55122E10AF4147ABF54B62B5FE62C3","019cfcb7-61fe-7793-b78c-220856e03657","019cfc7b-6c7b-7b1b-afe7-acad8efc6711","","529","
                <div class=""stimulus-container"">
                    <img src=""images/causal_sequence/coin_causal/coin_causal_5.png"" class=""exp-image"">
                    <div class=""question-area"">
                        <p style=""font-size: 20px; font-weight: bold; margin: 0;"">Is there a person in this image?</p>
                    </div>
                </div>","0","main_experiment_trial","5","coin_causal","causal_sequence","chronological","","","","","","",""
"","","","","","html-keyboard-response","132","429557","0.0-132.0","DB55122E10AF4147ABF54B62B5FE62C3","019cfcb7-61fe-7793-b78c-220856e03657","019cfc7b-6c7b-7b1b-afe7-acad8efc6711","","null","
                <div class=""stimulus-container"">
                    <img src=""images/causal_sequence/coin_causal/coin_causal_6.png"" class=""exp-image"">
                    <div class=""question-area""></div> 
                </div>","null","","","","","","","","","","","",""
"","","","","","html-button-response","133","430022","0.0-133.0","DB55122E10AF4147ABF54B62B5FE62C3","019cfcb7-61fe-7793-b78c-220856e03657","019cfc7b-6c7b-7b1b-afe7-acad8efc6711","","464","
                <div class=""stimulus-container"">
                    <img src=""images/causal_sequence/coin_causal/coin_causal_6.png"" class=""exp-image"">
                    <div class=""question-area"">
                        <p style=""font-size: 20px; font-weight: bold; margin: 0;"">Is there a person in this image?</p>
                    </div>
                </div>","0","main_experiment_trial","6","coin_causal","causal_sequence","chronological","","","","","","",""
"","","","","","html-keyboard-response","134","435024","0.0-134.0","DB55122E10AF4147ABF54B62B5FE62C3","019cfcb7-61fe-7793-b78c-220856e03657","019cfc7b-6c7b-7b1b-afe7-acad8efc6711","","null","
                <div class=""stimulus-container"">
                    <img src=""images/causal_sequence/coin_causal/coin_causal_7.png"" class=""exp-image"">
                    <div class=""question-area""></div> 
                </div>","null","","","","","","","","","","","",""
"","","","","","html-button-response","135","436055","0.0-135.0","DB55122E10AF4147ABF54B62B5FE62C3","019cfcb7-61fe-7793-b78c-220856e03657","019cfc7b-6c7b-7b1b-afe7-acad8efc6711","","1029","
                <div class=""stimulus-container"">
                    <img src=""images/causal_sequence/coin_causal/coin_causal_7.png"" class=""exp-image"">
                    <div class=""question-area"">
                        <p style=""font-size: 20px; font-weight: bold; margin: 0;"">Is there a person in this image?</p>
                    </div>
                </div>","1","main_experiment_trial","7","coin_causal","causal_sequence","chronological","","","","","","",""
"","","","","","html-keyboard-response","136","441058","0.0-136.0","DB55122E10AF4147ABF54B62B5FE62C3","019cfcb7-61fe-7793-b78c-220856e03657","019cfc7b-6c7b-7b1b-afe7-acad8efc6711","","null","
                <div class=""stimulus-container"">
                    <img src=""images/causal_sequence/coin_causal/coin_causal_8.png"" class=""exp-image"">
                    <div class=""question-area""></div> 
                </div>","null","","","","","","","","","","","",""
"","","","","","html-button-response","137","442338","0.0-137.0","DB55122E10AF4147ABF54B62B5FE62C3","019cfcb7-61fe-7793-b78c-220856e03657","019cfc7b-6c7b-7b1b-afe7-acad8efc6711","","1278","
                <div class=""stimulus-container"">
                    <img src=""images/causal_sequence/coin_causal/coin_causal_8.png"" class=""exp-image"">
                    <div class=""question-area"">
                        <p style=""font-size: 20px; font-weight: bold; margin: 0;"">Is there a person in this image?</p>
                    </div>
                </div>","0","main_experiment_trial","8","coin_causal","causal_sequence","chronological","","","","","","",""
"","","","","","html-keyboard-response","138","447340","0.0-138.0","DB55122E10AF4147ABF54B62B5FE62C3","019cfcb7-61fe-7793-b78c-220856e03657","019cfc7b-6c7b-7b1b-afe7-acad8efc6711","","null","
                <div class=""stimulus-container"">
                    <img src=""images/causal_sequence/coin_causal/coin_causal_9.png"" class=""exp-image"">
                    <div class=""question-area""></div> 
                </div>","null","","","","","","","","","","","",""
"","","","","","html-button-response","139","448572","0.0-139.0","DB55122E10AF4147ABF54B62B5FE62C3","019cfcb7-61fe-7793-b78c-220856e03657","019cfc7b-6c7b-7b1b-afe7-acad8efc6711","","1230","
                <div class=""stimulus-container"">
                    <img src=""images/causal_sequence/coin_causal/coin_causal_9.png"" class=""exp-image"">
                    <div class=""question-area"">
                        <p style=""font-size: 20px; font-weight: bold; margin: 0;"">Is there a person in this image?</p>
                    </div>
                </div>","0","main_experiment_trial","9","coin_causal","causal_sequence","chronological","","","","","","",""
"","","","","","html-keyboard-response","140","453576","0.0-140.0","DB55122E10AF4147ABF54B62B5FE62C3","019cfcb7-61fe-7793-b78c-220856e03657","019cfc7b-6c7b-7b1b-afe7-acad8efc6711","","null","
                <div class=""stimulus-container"">
                    <img src=""images/causal_sequence/coin_causal/coin_causal_ten.png"" class=""exp-image"">
                    <div class=""question-area""></div> 
                </div>","null","","","","","","","","","","","",""
"","","","","","html-button-response","141","454523","0.0-141.0","DB55122E10AF4147ABF54B62B5FE62C3","019cfcb7-61fe-7793-b78c-220856e03657","019cfc7b-6c7b-7b1b-afe7-acad8efc6711","","945","
                <div class=""stimulus-container"">
                    <img src=""images/causal_sequence/coin_causal/coin_causal_ten.png"" class=""exp-image"">
                    <div class=""question-area"">
                        <p style=""font-size: 20px; font-weight: bold; margin: 0;"">Is there a person in this image?</p>
                    </div>
                </div>","0","main_experiment_trial","ten","coin_causal","causal_sequence","chronological","","","","","","",""
"","","","","","html-keyboard-response","142","459525","0.0-142.0","DB55122E10AF4147ABF54B62B5FE62C3","019cfcb7-61fe-7793-b78c-220856e03657","019cfc7b-6c7b-7b1b-afe7-acad8efc6711","","null","<div style=""background-color: white; width: 100vw; height: 100vh;""></div>","null","","","","","","","","","","","",""
"","","","","","html-keyboard-response","143","464527","0.0-143.0","DB55122E10AF4147ABF54B62B5FE62C3","019cfcb7-61fe-7793-b78c-220856e03657","019cfc7b-6c7b-7b1b-afe7-acad8efc6711","","null","
                <div class=""stimulus-container"">
                    <img src=""images/schematic_sequence/supermarket_scheme/supermarket_scheme_1.png"" class=""exp-image"">
                    <div class=""question-area""></div> 
                </div>","null","","","","","","","","","","","",""
"","","","","","html-button-response","144","465340","0.0-144.0","DB55122E10AF4147ABF54B62B5FE62C3","019cfcb7-61fe-7793-b78c-220856e03657","019cfc7b-6c7b-7b1b-afe7-acad8efc6711","","812","
                <div class=""stimulus-container"">
                    <img src=""images/schematic_sequence/supermarket_scheme/supermarket_scheme_1.png"" class=""exp-image"">
                    <div class=""question-area"">
                        <p style=""font-size: 20px; font-weight: bold; margin: 0;"">Is there a person in this image?</p>
                    </div>
                </div>","1","main_experiment_trial","1","supermarket_scheme","schematic_sequence","chronological","","","","","","",""
"","","","","","html-keyboard-response","145","470343","0.0-145.0","DB55122E10AF4147ABF54B62B5FE62C3","019cfcb7-61fe-7793-b78c-220856e03657","019cfc7b-6c7b-7b1b-afe7-acad8efc6711","","null","
                <div class=""stimulus-container"">
                    <img src=""images/schematic_sequence/supermarket_scheme/supermarket_scheme_2.png"" class=""exp-image"">
                    <div class=""question-area""></div> 
                </div>","null","","","","","","","","","","","",""
"","","","","","html-button-response","146","470988","0.0-146.0","DB55122E10AF4147ABF54B62B5FE62C3","019cfcb7-61fe-7793-b78c-220856e03657","019cfc7b-6c7b-7b1b-afe7-acad8efc6711","","644","
                <div class=""stimulus-container"">
                    <img src=""images/schematic_sequence/supermarket_scheme/supermarket_scheme_2.png"" class=""exp-image"">
                    <div class=""question-area"">
                        <p style=""font-size: 20px; font-weight: bold; margin: 0;"">Is there a person in this image?</p>
                    </div>
                </div>","1","main_experiment_trial","2","supermarket_scheme","schematic_sequence","chronological","","","","","","",""
"","","","","","html-keyboard-response","147","475992","0.0-147.0","DB55122E10AF4147ABF54B62B5FE62C3","019cfcb7-61fe-7793-b78c-220856e03657","019cfc7b-6c7b-7b1b-afe7-acad8efc6711","","null","
                <div class=""stimulus-container"">
                    <img src=""images/schematic_sequence/supermarket_scheme/supermarket_scheme_3.png"" class=""exp-image"">
                    <div class=""question-area""></div> 
                </div>","null","","","","","","","","","","","",""
"","","","","","html-button-response","148","476806","0.0-148.0","DB55122E10AF4147ABF54B62B5FE62C3","019cfcb7-61fe-7793-b78c-220856e03657","019cfc7b-6c7b-7b1b-afe7-acad8efc6711","","812","
                <div class=""stimulus-container"">
                    <img src=""images/schematic_sequence/supermarket_scheme/supermarket_scheme_3.png"" class=""exp-image"">
                    <div class=""question-area"">
                        <p style=""font-size: 20px; font-weight: bold; margin: 0;"">Is there a person in this image?</p>
                    </div>
                </div>","1","main_experiment_trial","3","supermarket_scheme","schematic_sequence","chronological","","","","","","",""
"","","","","","html-keyboard-response","149","481809","0.0-149.0","DB55122E10AF4147ABF54B62B5FE62C3","019cfcb7-61fe-7793-b78c-220856e03657","019cfc7b-6c7b-7b1b-afe7-acad8efc6711","","null","
                <div class=""stimulus-container"">
                    <img src=""images/schematic_sequence/supermarket_scheme/supermarket_scheme_4.png"" class=""exp-image"">
                    <div class=""question-area""></div> 
                </div>","null","","","","","","","","","","","",""
"","","","","","html-button-response","150","482671","0.0-150.0","DB55122E10AF4147ABF54B62B5FE62C3","019cfcb7-61fe-7793-b78c-220856e03657","019cfc7b-6c7b-7b1b-afe7-acad8efc6711","","861","
                <div class=""stimulus-container"">
                    <img src=""images/schematic_sequence/supermarket_scheme/supermarket_scheme_4.png"" class=""exp-image"">
                    <div class=""question-area"">
                        <p style=""font-size: 20px; font-weight: bold; margin: 0;"">Is there a person in this image?</p>
                    </div>
                </div>","0","main_experiment_trial","4","supermarket_scheme","schematic_sequence","chronological","","","","","","",""
"","","","","","html-keyboard-response","151","487674","0.0-151.0","DB55122E10AF4147ABF54B62B5FE62C3","019cfcb7-61fe-7793-b78c-220856e03657","019cfc7b-6c7b-7b1b-afe7-acad8efc6711","","null","
                <div class=""stimulus-container"">
                    <img src=""images/schematic_sequence/supermarket_scheme/supermarket_scheme_5.png"" class=""exp-image"">
                    <div class=""question-area""></div> 
                </div>","null","","","","","","","","","","","",""
"","","","","","html-button-response","152","488739","0.0-152.0","DB55122E10AF4147ABF54B62B5FE62C3","019cfcb7-61fe-7793-b78c-220856e03657","019cfc7b-6c7b-7b1b-afe7-acad8efc6711","","1064","
                <div class=""stimulus-container"">
                    <img src=""images/schematic_sequence/supermarket_scheme/supermarket_scheme_5.png"" class=""exp-image"">
                    <div class=""question-area"">
                        <p style=""font-size: 20px; font-weight: bold; margin: 0;"">Is there a person in this image?</p>
                    </div>
                </div>","1","main_experiment_trial","5","supermarket_scheme","schematic_sequence","chronological","","","","","","",""
"","","","","","html-keyboard-response","153","493743","0.0-153.0","DB55122E10AF4147ABF54B62B5FE62C3","019cfcb7-61fe-7793-b78c-220856e03657","019cfc7b-6c7b-7b1b-afe7-acad8efc6711","","null","
                <div class=""stimulus-container"">
                    <img src=""images/schematic_sequence/supermarket_scheme/supermarket_scheme_6.png"" class=""exp-image"">
                    <div class=""question-area""></div> 
                </div>","null","","","","","","","","","","","",""
"","","","","","html-button-response","154","494290","0.0-154.0","DB55122E10AF4147ABF54B62B5FE62C3","019cfcb7-61fe-7793-b78c-220856e03657","019cfc7b-6c7b-7b1b-afe7-acad8efc6711","","545","
                <div class=""stimulus-container"">
                    <img src=""images/schematic_sequence/supermarket_scheme/supermarket_scheme_6.png"" class=""exp-image"">
                    <div class=""question-area"">
                        <p style=""font-size: 20px; font-weight: bold; margin: 0;"">Is there a person in this image?</p>
                    </div>
                </div>","0","main_experiment_trial","6","supermarket_scheme","schematic_sequence","chronological","","","","","","",""
"","","","","","html-keyboard-response","155","499292","0.0-155.0","DB55122E10AF4147ABF54B62B5FE62C3","019cfcb7-61fe-7793-b78c-220856e03657","019cfc7b-6c7b-7b1b-afe7-acad8efc6711","","null","
                <div class=""stimulus-container"">
                    <img src=""images/schematic_sequence/supermarket_scheme/supermarket_scheme_7.png"" class=""exp-image"">
                    <div class=""question-area""></div> 
                </div>","null","","","","","","","","","","","",""
"","","","","","html-button-response","156","500254","0.0-156.0","DB55122E10AF4147ABF54B62B5FE62C3","019cfcb7-61fe-7793-b78c-220856e03657","019cfc7b-6c7b-7b1b-afe7-acad8efc6711","","961","
                <div class=""stimulus-container"">
                    <img src=""images/schematic_sequence/supermarket_scheme/supermarket_scheme_7.png"" class=""exp-image"">
                    <div class=""question-area"">
                        <p style=""font-size: 20px; font-weight: bold; margin: 0;"">Is there a person in this image?</p>
                    </div>
                </div>","0","main_experiment_trial","7","supermarket_scheme","schematic_sequence","chronological","","","","","","",""
"","","","","","html-keyboard-response","157","505257","0.0-157.0","DB55122E10AF4147ABF54B62B5FE62C3","019cfcb7-61fe-7793-b78c-220856e03657","019cfc7b-6c7b-7b1b-afe7-acad8efc6711","","null","
                <div class=""stimulus-container"">
                    <img src=""images/schematic_sequence/supermarket_scheme/supermarket_scheme_8.png"" class=""exp-image"">
                    <div class=""question-area""></div> 
                </div>","null","","","","","","","","","","","",""
"","","","","","html-button-response","158","505688","0.0-158.0","DB55122E10AF4147ABF54B62B5FE62C3","019cfcb7-61fe-7793-b78c-220856e03657","019cfc7b-6c7b-7b1b-afe7-acad8efc6711","","429","
                <div class=""stimulus-container"">
                    <img src=""images/schematic_sequence/supermarket_scheme/supermarket_scheme_8.png"" class=""exp-image"">
                    <div class=""question-area"">
                        <p style=""font-size: 20px; font-weight: bold; margin: 0;"">Is there a person in this image?</p>
                    </div>
                </div>","0","main_experiment_trial","8","supermarket_scheme","schematic_sequence","chronological","","","","","","",""
"","","","","","html-keyboard-response","159","510690","0.0-159.0","DB55122E10AF4147ABF54B62B5FE62C3","019cfcb7-61fe-7793-b78c-220856e03657","019cfc7b-6c7b-7b1b-afe7-acad8efc6711","","null","
                <div class=""stimulus-container"">
                    <img src=""images/schematic_sequence/supermarket_scheme/supermarket_scheme_9.png"" class=""exp-image"">
                    <div class=""question-area""></div> 
                </div>","null","","","","","","","","","","","",""
"","","","","","html-button-response","160","511040","0.0-160.0","DB55122E10AF4147ABF54B62B5FE62C3","019cfcb7-61fe-7793-b78c-220856e03657","019cfc7b-6c7b-7b1b-afe7-acad8efc6711","","348","
                <div class=""stimulus-container"">
                    <img src=""images/schematic_sequence/supermarket_scheme/supermarket_scheme_9.png"" class=""exp-image"">
                    <div class=""question-area"">
                        <p style=""font-size: 20px; font-weight: bold; margin: 0;"">Is there a person in this image?</p>
                    </div>
                </div>","0","main_experiment_trial","9","supermarket_scheme","schematic_sequence","chronological","","","","","","",""
"","","","","","html-keyboard-response","161","516043","0.0-161.0","DB55122E10AF4147ABF54B62B5FE62C3","019cfcb7-61fe-7793-b78c-220856e03657","019cfc7b-6c7b-7b1b-afe7-acad8efc6711","","null","
                <div class=""stimulus-container"">
                    <img src=""images/schematic_sequence/supermarket_scheme/supermarket_scheme_ten.png"" class=""exp-image"">
                    <div class=""question-area""></div> 
                </div>","null","","","","","","","","","","","",""
"","","","","","html-button-response","162","516372","0.0-162.0","DB55122E10AF4147ABF54B62B5FE62C3","019cfcb7-61fe-7793-b78c-220856e03657","019cfc7b-6c7b-7b1b-afe7-acad8efc6711","","327","
                <div class=""stimulus-container"">
                    <img src=""images/schematic_sequence/supermarket_scheme/supermarket_scheme_ten.png"" class=""exp-image"">
                    <div class=""question-area"">
                        <p style=""font-size: 20px; font-weight: bold; margin: 0;"">Is there a person in this image?</p>
                    </div>
                </div>","1","main_experiment_trial","ten","supermarket_scheme","schematic_sequence","chronological","","","","","","",""
"","","","","","html-keyboard-response","163","521375","0.0-163.0","DB55122E10AF4147ABF54B62B5FE62C3","019cfcb7-61fe-7793-b78c-220856e03657","019cfc7b-6c7b-7b1b-afe7-acad8efc6711","","null","<div style=""background-color: white; width: 100vw; height: 100vh;""></div>","null","","","","","","","","","","","",""
"","","","","","html-keyboard-response","164","526378","0.0-164.0","DB55122E10AF4147ABF54B62B5FE62C3","019cfcb7-61fe-7793-b78c-220856e03657","019cfc7b-6c7b-7b1b-afe7-acad8efc6711","","null","
                <div class=""stimulus-container"">
                    <img src=""images/causal_sequence/package_causal/package_causal_1.png"" class=""exp-image"">
                    <div class=""question-area""></div> 
                </div>","null","","","","","","","","","","","",""
"","","","","","html-button-response","165","527058","0.0-165.0","DB55122E10AF4147ABF54B62B5FE62C3","019cfcb7-61fe-7793-b78c-220856e03657","019cfc7b-6c7b-7b1b-afe7-acad8efc6711","","677","
                <div class=""stimulus-container"">
                    <img src=""images/causal_sequence/package_causal/package_causal_1.png"" class=""exp-image"">
                    <div class=""question-area"">
                        <p style=""font-size: 20px; font-weight: bold; margin: 0;"">Is there a person in this image?</p>
                    </div>
                </div>","0","main_experiment_trial","1","package_causal","causal_sequence","chronological","","","","","","",""
"","","","","","html-keyboard-response","166","532061","0.0-166.0","DB55122E10AF4147ABF54B62B5FE62C3","019cfcb7-61fe-7793-b78c-220856e03657","019cfc7b-6c7b-7b1b-afe7-acad8efc6711","","null","
                <div class=""stimulus-container"">
                    <img src=""images/causal_sequence/package_causal/package_causal_2.png"" class=""exp-image"">
                    <div class=""question-area""></div> 
                </div>","null","","","","","","","","","","","",""
"","","","","","html-button-response","167","532607","0.0-167.0","DB55122E10AF4147ABF54B62B5FE62C3","019cfcb7-61fe-7793-b78c-220856e03657","019cfc7b-6c7b-7b1b-afe7-acad8efc6711","","545","
                <div class=""stimulus-container"">
                    <img src=""images/causal_sequence/package_causal/package_causal_2.png"" class=""exp-image"">
                    <div class=""question-area"">
                        <p style=""font-size: 20px; font-weight: bold; margin: 0;"">Is there a person in this image?</p>
                    </div>
                </div>","0","main_experiment_trial","2","package_causal","causal_sequence","chronological","","","","","","",""
"","","","","","html-keyboard-response","168","537610","0.0-168.0","DB55122E10AF4147ABF54B62B5FE62C3","019cfcb7-61fe-7793-b78c-220856e03657","019cfc7b-6c7b-7b1b-afe7-acad8efc6711","","null","
                <div class=""stimulus-container"">
                    <img src=""images/causal_sequence/package_causal/package_causal_3.png"" class=""exp-image"">
                    <div class=""question-area""></div> 
                </div>","null","","","","","","","","","","","",""
"","","","","","html-button-response","169","538107","0.0-169.0","DB55122E10AF4147ABF54B62B5FE62C3","019cfcb7-61fe-7793-b78c-220856e03657","019cfc7b-6c7b-7b1b-afe7-acad8efc6711","","496","
                <div class=""stimulus-container"">
                    <img src=""images/causal_sequence/package_causal/package_causal_3.png"" class=""exp-image"">
                    <div class=""question-area"">
                        <p style=""font-size: 20px; font-weight: bold; margin: 0;"">Is there a person in this image?</p>
                    </div>
                </div>","0","main_experiment_trial","3","package_causal","causal_sequence","chronological","","","","","","",""
"","","","","","html-keyboard-response","170","543109","0.0-170.0","DB55122E10AF4147ABF54B62B5FE62C3","019cfcb7-61fe-7793-b78c-220856e03657","019cfc7b-6c7b-7b1b-afe7-acad8efc6711","","null","
                <div class=""stimulus-container"">
                    <img src=""images/causal_sequence/package_causal/package_causal_4.png"" class=""exp-image"">
                    <div class=""question-area""></div> 
                </div>","null","","","","","","","","","","","",""
"","","","","","html-button-response","171","543807","0.0-171.0","DB55122E10AF4147ABF54B62B5FE62C3","019cfcb7-61fe-7793-b78c-220856e03657","019cfc7b-6c7b-7b1b-afe7-acad8efc6711","","696","
                <div class=""stimulus-container"">
                    <img src=""images/causal_sequence/package_causal/package_causal_4.png"" class=""exp-image"">
                    <div class=""question-area"">
                        <p style=""font-size: 20px; font-weight: bold; margin: 0;"">Is there a person in this image?</p>
                    </div>
                </div>","1","main_experiment_trial","4","package_causal","causal_sequence","chronological","","","","","","",""
"","","","","","html-keyboard-response","172","548810","0.0-172.0","DB55122E10AF4147ABF54B62B5FE62C3","019cfcb7-61fe-7793-b78c-220856e03657","019cfc7b-6c7b-7b1b-afe7-acad8efc6711","","null","
                <div class=""stimulus-container"">
                    <img src=""images/causal_sequence/package_causal/package_causal_5.png"" class=""exp-image"">
                    <div class=""question-area""></div> 
                </div>","null","","","","","","","","","","","",""
"","","","","","html-button-response","173","549338","0.0-173.0","DB55122E10AF4147ABF54B62B5FE62C3","019cfcb7-61fe-7793-b78c-220856e03657","019cfc7b-6c7b-7b1b-afe7-acad8efc6711","","527","
                <div class=""stimulus-container"">
                    <img src=""images/causal_sequence/package_causal/package_causal_5.png"" class=""exp-image"">
                    <div class=""question-area"">
                        <p style=""font-size: 20px; font-weight: bold; margin: 0;"">Is there a person in this image?</p>
                    </div>
                </div>","0","main_experiment_trial","5","package_causal","causal_sequence","chronological","","","","","","",""
"","","","","","html-keyboard-response","174","554341","0.0-174.0","DB55122E10AF4147ABF54B62B5FE62C3","019cfcb7-61fe-7793-b78c-220856e03657","019cfc7b-6c7b-7b1b-afe7-acad8efc6711","","null","
                <div class=""stimulus-container"">
                    <img src=""images/causal_sequence/package_causal/package_causal_6.png"" class=""exp-image"">
                    <div class=""question-area""></div> 
                </div>","null","","","","","","","","","","","",""
"","","","","","html-button-response","175","555005","0.0-175.0","DB55122E10AF4147ABF54B62B5FE62C3","019cfcb7-61fe-7793-b78c-220856e03657","019cfc7b-6c7b-7b1b-afe7-acad8efc6711","","663","
                <div class=""stimulus-container"">
                    <img src=""images/causal_sequence/package_causal/package_causal_6.png"" class=""exp-image"">
                    <div class=""question-area"">
                        <p style=""font-size: 20px; font-weight: bold; margin: 0;"">Is there a person in this image?</p>
                    </div>
                </div>","0","main_experiment_trial","6","package_causal","causal_sequence","chronological","","","","","","",""
"","","","","","html-keyboard-response","176","560008","0.0-176.0","DB55122E10AF4147ABF54B62B5FE62C3","019cfcb7-61fe-7793-b78c-220856e03657","019cfc7b-6c7b-7b1b-afe7-acad8efc6711","","null","
                <div class=""stimulus-container"">
                    <img src=""images/causal_sequence/package_causal/package_causal_7.png"" class=""exp-image"">
                    <div class=""question-area""></div> 
                </div>","null","","","","","","","","","","","",""
"","","","","","html-button-response","177","560557","0.0-177.0","DB55122E10AF4147ABF54B62B5FE62C3","019cfcb7-61fe-7793-b78c-220856e03657","019cfc7b-6c7b-7b1b-afe7-acad8efc6711","","547","
                <div class=""stimulus-container"">
                    <img src=""images/causal_sequence/package_causal/package_causal_7.png"" class=""exp-image"">
                    <div class=""question-area"">
                        <p style=""font-size: 20px; font-weight: bold; margin: 0;"">Is there a person in this image?</p>
                    </div>
                </div>","0","main_experiment_trial","7","package_causal","causal_sequence","chronological","","","","","","",""
"","","","","","html-keyboard-response","178","565559","0.0-178.0","DB55122E10AF4147ABF54B62B5FE62C3","019cfcb7-61fe-7793-b78c-220856e03657","019cfc7b-6c7b-7b1b-afe7-acad8efc6711","","null","
                <div class=""stimulus-container"">
                    <img src=""images/causal_sequence/package_causal/package_causal_8.png"" class=""exp-image"">
