"success","timeout","failed_images","failed_audio","failed_video","trial_type","trial_index","time_elapsed","internal_node_id","subject_id","study_id","session_id","view_history","rt","stimulus","response","task","image_index","folder","sequence_type","presentation_order","valuable_image_index","reward_type","correct_choice","distance_from_x","target_X","chosen_image_index","is_x_plus_dist"
"true","false","[]","[]","[]","preload","0","39659","0.0-0.0","920A1FA2AFDA4AFF8277D9B361205760","019dac63-9341-7049-bc90-2b893e7cb99c","019dac5b-243f-7307-af64-a10f53f1ef70","","","","","","","","","","","","","","","",""
"","","","","","instructions","1","44253","0.0-1.0","920A1FA2AFDA4AFF8277D9B361205760","019dac63-9341-7049-bc90-2b893e7cb99c","019dac5b-243f-7307-af64-a10f53f1ef70","[{""page_index"":0,""viewing_time"":4586}]","4593","","","","","","","","","","","","","",""
"","","","","","instructions","2","48948","0.0-2.0","920A1FA2AFDA4AFF8277D9B361205760","019dac63-9341-7049-bc90-2b893e7cb99c","019dac5b-243f-7307-af64-a10f53f1ef70","[{""page_index"":0,""viewing_time"":4694}]","4694","","","","","","","","","","","","","",""
"true","","","","","fullscreen","3","51153","0.0-3.0","920A1FA2AFDA4AFF8277D9B361205760","019dac63-9341-7049-bc90-2b893e7cb99c","019dac5b-243f-7307-af64-a10f53f1ef70","","1147","","","","","","","","","","","","","",""
"","","","","","instructions","4","59652","0.0-4.0","920A1FA2AFDA4AFF8277D9B361205760","019dac63-9341-7049-bc90-2b893e7cb99c","019dac5b-243f-7307-af64-a10f53f1ef70","[{""page_index"":0,""viewing_time"":8499}]","8499","","","","","","","","","","","","","",""
"","","","","","instructions","5","85180","0.0-5.0","920A1FA2AFDA4AFF8277D9B361205760","019dac63-9341-7049-bc90-2b893e7cb99c","019dac5b-243f-7307-af64-a10f53f1ef70","[{""page_index"":0,""viewing_time"":25527}]","25527","","","","","","","","","","","","","",""
"","","","","","html-keyboard-response","6","89188","0.0-6.0","920A1FA2AFDA4AFF8277D9B361205760","019dac63-9341-7049-bc90-2b893e7cb99c","019dac5b-243f-7307-af64-a10f53f1ef70","","null","
                <div class=""stimulus-container"">
                    <img src=""images/instructions/movie_1.png"" class=""exp-image"">
                    <div class=""question-area""></div> 
                </div>","null","","","","","","","","","","","",""
"","","","","","html-button-response","7","91260","0.0-7.0","920A1FA2AFDA4AFF8277D9B361205760","019dac63-9341-7049-bc90-2b893e7cb99c","019dac5b-243f-7307-af64-a10f53f1ef70","","2071","
                <div class=""stimulus-container"">
                    <img src=""images/instructions/movie_1.png"" class=""exp-image"">
                    <div class=""question-area"">
                        <p style=""font-size: 20px; font-weight: bold; margin: 0;"">Was there a person in this image?</p>
                    </div>
                </div>","0","example_question","1","","","","","","","","","",""
"","","","","","html-keyboard-response","8","95272","0.0-8.0","920A1FA2AFDA4AFF8277D9B361205760","019dac63-9341-7049-bc90-2b893e7cb99c","019dac5b-243f-7307-af64-a10f53f1ef70","","null","
                <div class=""stimulus-container"">
                    <img src=""images/instructions/movie_2.png"" class=""exp-image"">
                    <div class=""question-area""></div> 
                </div>","null","","","","","","","","","","","",""
"","","","","","html-button-response","9","96420","0.0-9.0","920A1FA2AFDA4AFF8277D9B361205760","019dac63-9341-7049-bc90-2b893e7cb99c","019dac5b-243f-7307-af64-a10f53f1ef70","","1147","
                <div class=""stimulus-container"">
                    <img src=""images/instructions/movie_2.png"" class=""exp-image"">
                    <div class=""question-area"">
                        <p style=""font-size: 20px; font-weight: bold; margin: 0;"">Was there a person in this image?</p>
                    </div>
                </div>","0","example_question","2","","","","","","","","","",""
"","","","","","html-keyboard-response","10","100422","0.0-10.0","920A1FA2AFDA4AFF8277D9B361205760","019dac63-9341-7049-bc90-2b893e7cb99c","019dac5b-243f-7307-af64-a10f53f1ef70","","null","
                <div class=""stimulus-container"">
                    <img src=""images/instructions/movie_3.png"" class=""exp-image"">
                    <div class=""question-area""></div> 
                </div>","null","","","","","","","","","","","",""
"","","","","","html-button-response","11","101348","0.0-11.0","920A1FA2AFDA4AFF8277D9B361205760","019dac63-9341-7049-bc90-2b893e7cb99c","019dac5b-243f-7307-af64-a10f53f1ef70","","925","
                <div class=""stimulus-container"">
                    <img src=""images/instructions/movie_3.png"" class=""exp-image"">
                    <div class=""question-area"">
                        <p style=""font-size: 20px; font-weight: bold; margin: 0;"">Was there a person in this image?</p>
                    </div>
                </div>","0","example_question","3","","","","","","","","","",""
"","","","","","html-keyboard-response","12","105350","0.0-12.0","920A1FA2AFDA4AFF8277D9B361205760","019dac63-9341-7049-bc90-2b893e7cb99c","019dac5b-243f-7307-af64-a10f53f1ef70","","null","
                <div class=""stimulus-container"">
                    <img src=""images/instructions/movie_4.png"" class=""exp-image"">
                    <div class=""question-area""></div> 
                </div>","null","","","","","","","","","","","",""
"","","","","","html-button-response","13","106068","0.0-13.0","920A1FA2AFDA4AFF8277D9B361205760","019dac63-9341-7049-bc90-2b893e7cb99c","019dac5b-243f-7307-af64-a10f53f1ef70","","717","
                <div class=""stimulus-container"">
                    <img src=""images/instructions/movie_4.png"" class=""exp-image"">
                    <div class=""question-area"">
                        <p style=""font-size: 20px; font-weight: bold; margin: 0;"">Was there a person in this image?</p>
                    </div>
                </div>","0","example_question","4","","","","","","","","","",""
"","","","","","instructions","14","109684","0.0-14.0","920A1FA2AFDA4AFF8277D9B361205760","019dac63-9341-7049-bc90-2b893e7cb99c","019dac5b-243f-7307-af64-a10f53f1ef70","[{""page_index"":0,""viewing_time"":3615}]","3616","","","","","","","","","","","","","",""
"","","","","","instructions","15","117836","0.0-15.0","920A1FA2AFDA4AFF8277D9B361205760","019dac63-9341-7049-bc90-2b893e7cb99c","019dac5b-243f-7307-af64-a10f53f1ef70","[{""page_index"":0,""viewing_time"":8151}]","8151","","","","","","","","","","","","","",""
"","","","","","html-keyboard-response","16","122841","0.0-16.0","920A1FA2AFDA4AFF8277D9B361205760","019dac63-9341-7049-bc90-2b893e7cb99c","019dac5b-243f-7307-af64-a10f53f1ef70","","null","<div style=""background-color: white; width: 100vw; height: 100vh;""></div>","null","","","","","","","","","","","",""
"","","","","","html-keyboard-response","17","127849","0.0-17.0","920A1FA2AFDA4AFF8277D9B361205760","019dac63-9341-7049-bc90-2b893e7cb99c","019dac5b-243f-7307-af64-a10f53f1ef70","","null","
                <div class=""stimulus-container"">
                    <img src=""images/semantic_sequence/physical_activity_semantic/physical_activity_semantic_1.png"" class=""exp-image"">
                    <div class=""question-area""></div> 
                </div>","null","","","","","","","","","","","",""
"","","","","","html-button-response","18","128564","0.0-18.0","920A1FA2AFDA4AFF8277D9B361205760","019dac63-9341-7049-bc90-2b893e7cb99c","019dac5b-243f-7307-af64-a10f53f1ef70","","713","
                <div class=""stimulus-container"">
                    <img src=""images/semantic_sequence/physical_activity_semantic/physical_activity_semantic_1.png"" class=""exp-image"">
                    <div class=""question-area"">
                        <p style=""font-size: 20px; font-weight: bold; margin: 0;"">Is there a person in this image?</p>
                    </div>
                </div>","0","main_experiment_trial","1","physical_activity_semantic","semantic_sequence","chronological","","","","","","",""
"","","","","","html-keyboard-response","19","133574","0.0-19.0","920A1FA2AFDA4AFF8277D9B361205760","019dac63-9341-7049-bc90-2b893e7cb99c","019dac5b-243f-7307-af64-a10f53f1ef70","","null","
                <div class=""stimulus-container"">
                    <img src=""images/semantic_sequence/physical_activity_semantic/physical_activity_semantic_2.png"" class=""exp-image"">
                    <div class=""question-area""></div> 
                </div>","null","","","","","","","","","","","",""
"","","","","","html-button-response","20","134372","0.0-20.0","920A1FA2AFDA4AFF8277D9B361205760","019dac63-9341-7049-bc90-2b893e7cb99c","019dac5b-243f-7307-af64-a10f53f1ef70","","797","
                <div class=""stimulus-container"">
                    <img src=""images/semantic_sequence/physical_activity_semantic/physical_activity_semantic_2.png"" class=""exp-image"">
                    <div class=""question-area"">
                        <p style=""font-size: 20px; font-weight: bold; margin: 0;"">Is there a person in this image?</p>
                    </div>
                </div>","0","main_experiment_trial","2","physical_activity_semantic","semantic_sequence","chronological","","","","","","",""
"","","","","","html-keyboard-response","21","139376","0.0-21.0","920A1FA2AFDA4AFF8277D9B361205760","019dac63-9341-7049-bc90-2b893e7cb99c","019dac5b-243f-7307-af64-a10f53f1ef70","","null","
                <div class=""stimulus-container"">
                    <img src=""images/semantic_sequence/physical_activity_semantic/physical_activity_semantic_3.png"" class=""exp-image"">
                    <div class=""question-area""></div> 
                </div>","null","","","","","","","","","","","",""
"","","","","","html-button-response","22","141116","0.0-22.0","920A1FA2AFDA4AFF8277D9B361205760","019dac63-9341-7049-bc90-2b893e7cb99c","019dac5b-243f-7307-af64-a10f53f1ef70","","1738","
                <div class=""stimulus-container"">
                    <img src=""images/semantic_sequence/physical_activity_semantic/physical_activity_semantic_3.png"" class=""exp-image"">
                    <div class=""question-area"">
                        <p style=""font-size: 20px; font-weight: bold; margin: 0;"">Is there a person in this image?</p>
                    </div>
                </div>","0","main_experiment_trial","3","physical_activity_semantic","semantic_sequence","chronological","","","","","","",""
"","","","","","html-keyboard-response","23","146118","0.0-23.0","920A1FA2AFDA4AFF8277D9B361205760","019dac63-9341-7049-bc90-2b893e7cb99c","019dac5b-243f-7307-af64-a10f53f1ef70","","null","
                <div class=""stimulus-container"">
                    <img src=""images/semantic_sequence/physical_activity_semantic/physical_activity_semantic_4.png"" class=""exp-image"">
                    <div class=""question-area""></div> 
                </div>","null","","","","","","","","","","","",""
"","","","","","html-button-response","24","146684","0.0-24.0","920A1FA2AFDA4AFF8277D9B361205760","019dac63-9341-7049-bc90-2b893e7cb99c","019dac5b-243f-7307-af64-a10f53f1ef70","","565","
                <div class=""stimulus-container"">
                    <img src=""images/semantic_sequence/physical_activity_semantic/physical_activity_semantic_4.png"" class=""exp-image"">
                    <div class=""question-area"">
                        <p style=""font-size: 20px; font-weight: bold; margin: 0;"">Is there a person in this image?</p>
                    </div>
                </div>","0","main_experiment_trial","4","physical_activity_semantic","semantic_sequence","chronological","","","","","","",""
"","","","","","html-keyboard-response","25","151690","0.0-25.0","920A1FA2AFDA4AFF8277D9B361205760","019dac63-9341-7049-bc90-2b893e7cb99c","019dac5b-243f-7307-af64-a10f53f1ef70","","null","
                <div class=""stimulus-container"">
                    <img src=""images/semantic_sequence/physical_activity_semantic/physical_activity_semantic_5.png"" class=""exp-image"">
                    <div class=""question-area""></div> 
                </div>","null","","","","","","","","","","","",""
"","","","","","html-button-response","26","152804","0.0-26.0","920A1FA2AFDA4AFF8277D9B361205760","019dac63-9341-7049-bc90-2b893e7cb99c","019dac5b-243f-7307-af64-a10f53f1ef70","","1112","
                <div class=""stimulus-container"">
                    <img src=""images/semantic_sequence/physical_activity_semantic/physical_activity_semantic_5.png"" class=""exp-image"">
                    <div class=""question-area"">
                        <p style=""font-size: 20px; font-weight: bold; margin: 0;"">Is there a person in this image?</p>
                    </div>
                </div>","0","main_experiment_trial","5","physical_activity_semantic","semantic_sequence","chronological","","","","","","",""
"","","","","","html-keyboard-response","27","157807","0.0-27.0","920A1FA2AFDA4AFF8277D9B361205760","019dac63-9341-7049-bc90-2b893e7cb99c","019dac5b-243f-7307-af64-a10f53f1ef70","","null","
                <div class=""stimulus-container"">
                    <img src=""images/semantic_sequence/physical_activity_semantic/physical_activity_semantic_6.png"" class=""exp-image"">
                    <div class=""question-area""></div> 
                </div>","null","","","","","","","","","","","",""
"","","","","","html-button-response","28","158556","0.0-28.0","920A1FA2AFDA4AFF8277D9B361205760","019dac63-9341-7049-bc90-2b893e7cb99c","019dac5b-243f-7307-af64-a10f53f1ef70","","748","
                <div class=""stimulus-container"">
                    <img src=""images/semantic_sequence/physical_activity_semantic/physical_activity_semantic_6.png"" class=""exp-image"">
                    <div class=""question-area"">
                        <p style=""font-size: 20px; font-weight: bold; margin: 0;"">Is there a person in this image?</p>
                    </div>
                </div>","0","main_experiment_trial","6","physical_activity_semantic","semantic_sequence","chronological","","","","","","",""
"","","","","","html-keyboard-response","29","163563","0.0-29.0","920A1FA2AFDA4AFF8277D9B361205760","019dac63-9341-7049-bc90-2b893e7cb99c","019dac5b-243f-7307-af64-a10f53f1ef70","","null","
                <div class=""stimulus-container"">
                    <img src=""images/semantic_sequence/physical_activity_semantic/physical_activity_semantic_7.png"" class=""exp-image"">
                    <div class=""question-area""></div> 
                </div>","null","","","","","","","","","","","",""
"","","","","","html-button-response","30","164492","0.0-30.0","920A1FA2AFDA4AFF8277D9B361205760","019dac63-9341-7049-bc90-2b893e7cb99c","019dac5b-243f-7307-af64-a10f53f1ef70","","928","
                <div class=""stimulus-container"">
                    <img src=""images/semantic_sequence/physical_activity_semantic/physical_activity_semantic_7.png"" class=""exp-image"">
                    <div class=""question-area"">
                        <p style=""font-size: 20px; font-weight: bold; margin: 0;"">Is there a person in this image?</p>
                    </div>
                </div>","0","main_experiment_trial","7","physical_activity_semantic","semantic_sequence","chronological","","","","","","",""
"","","","","","html-keyboard-response","31","169507","0.0-31.0","920A1FA2AFDA4AFF8277D9B361205760","019dac63-9341-7049-bc90-2b893e7cb99c","019dac5b-243f-7307-af64-a10f53f1ef70","","null","
                <div class=""stimulus-container"">
                    <img src=""images/semantic_sequence/physical_activity_semantic/physical_activity_semantic_8.png"" class=""exp-image"">
                    <div class=""question-area""></div> 
                </div>","null","","","","","","","","","","","",""
"","","","","","html-button-response","32","170452","0.0-32.0","920A1FA2AFDA4AFF8277D9B361205760","019dac63-9341-7049-bc90-2b893e7cb99c","019dac5b-243f-7307-af64-a10f53f1ef70","","944","
                <div class=""stimulus-container"">
                    <img src=""images/semantic_sequence/physical_activity_semantic/physical_activity_semantic_8.png"" class=""exp-image"">
                    <div class=""question-area"">
                        <p style=""font-size: 20px; font-weight: bold; margin: 0;"">Is there a person in this image?</p>
                    </div>
                </div>","0","main_experiment_trial","8","physical_activity_semantic","semantic_sequence","chronological","","","","","","",""
"","","","","","html-keyboard-response","33","175458","0.0-33.0","920A1FA2AFDA4AFF8277D9B361205760","019dac63-9341-7049-bc90-2b893e7cb99c","019dac5b-243f-7307-af64-a10f53f1ef70","","null","
                <div class=""stimulus-container"">
                    <img src=""images/semantic_sequence/physical_activity_semantic/physical_activity_semantic_9.png"" class=""exp-image"">
                    <div class=""question-area""></div> 
                </div>","null","","","","","","","","","","","",""
"","","","","","html-button-response","34","176267","0.0-34.0","920A1FA2AFDA4AFF8277D9B361205760","019dac63-9341-7049-bc90-2b893e7cb99c","019dac5b-243f-7307-af64-a10f53f1ef70","","809","
                <div class=""stimulus-container"">
                    <img src=""images/semantic_sequence/physical_activity_semantic/physical_activity_semantic_9.png"" class=""exp-image"">
                    <div class=""question-area"">
                        <p style=""font-size: 20px; font-weight: bold; margin: 0;"">Is there a person in this image?</p>
                    </div>
                </div>","0","main_experiment_trial","9","physical_activity_semantic","semantic_sequence","chronological","","","","","","",""
"","","","","","html-keyboard-response","35","181284","0.0-35.0","920A1FA2AFDA4AFF8277D9B361205760","019dac63-9341-7049-bc90-2b893e7cb99c","019dac5b-243f-7307-af64-a10f53f1ef70","","null","
                <div class=""stimulus-container"">
                    <img src=""images/semantic_sequence/physical_activity_semantic/physical_activity_semantic_ten.png"" class=""exp-image"">
                    <div class=""question-area""></div> 
                </div>","null","","","","","","","","","","","",""
"","","","","","html-button-response","36","181899","0.0-36.0","920A1FA2AFDA4AFF8277D9B361205760","019dac63-9341-7049-bc90-2b893e7cb99c","019dac5b-243f-7307-af64-a10f53f1ef70","","615","
                <div class=""stimulus-container"">
                    <img src=""images/semantic_sequence/physical_activity_semantic/physical_activity_semantic_ten.png"" class=""exp-image"">
                    <div class=""question-area"">
                        <p style=""font-size: 20px; font-weight: bold; margin: 0;"">Is there a person in this image?</p>
                    </div>
                </div>","0","main_experiment_trial","ten","physical_activity_semantic","semantic_sequence","chronological","","","","","","",""
"","","","","","html-keyboard-response","37","186914","0.0-37.0","920A1FA2AFDA4AFF8277D9B361205760","019dac63-9341-7049-bc90-2b893e7cb99c","019dac5b-243f-7307-af64-a10f53f1ef70","","null","<div style=""background-color: white; width: 100vw; height: 100vh;""></div>","null","","","","","","","","","","","",""
"","","","","","html-keyboard-response","38","191923","0.0-38.0","920A1FA2AFDA4AFF8277D9B361205760","019dac63-9341-7049-bc90-2b893e7cb99c","019dac5b-243f-7307-af64-a10f53f1ef70","","null","
                <div class=""stimulus-container"">
                    <img src=""images/semantic_sequence/visiting_cities_semantic/visiting_cities_semantic_1.png"" class=""exp-image"">
                    <div class=""question-area""></div> 
                </div>","null","","","","","","","","","","","",""
"","","","","","html-button-response","39","192747","0.0-39.0","920A1FA2AFDA4AFF8277D9B361205760","019dac63-9341-7049-bc90-2b893e7cb99c","019dac5b-243f-7307-af64-a10f53f1ef70","","824","
                <div class=""stimulus-container"">
                    <img src=""images/semantic_sequence/visiting_cities_semantic/visiting_cities_semantic_1.png"" class=""exp-image"">
                    <div class=""question-area"">
                        <p style=""font-size: 20px; font-weight: bold; margin: 0;"">Is there a person in this image?</p>
                    </div>
                </div>","0","main_experiment_trial","1","visiting_cities_semantic","semantic_sequence","chronological","","","","","","",""
"","","","","","html-keyboard-response","40","197756","0.0-40.0","920A1FA2AFDA4AFF8277D9B361205760","019dac63-9341-7049-bc90-2b893e7cb99c","019dac5b-243f-7307-af64-a10f53f1ef70","","null","
                <div class=""stimulus-container"">
                    <img src=""images/semantic_sequence/visiting_cities_semantic/visiting_cities_semantic_2.png"" class=""exp-image"">
                    <div class=""question-area""></div> 
                </div>","null","","","","","","","","","","","",""
"","","","","","html-button-response","41","198467","0.0-41.0","920A1FA2AFDA4AFF8277D9B361205760","019dac63-9341-7049-bc90-2b893e7cb99c","019dac5b-243f-7307-af64-a10f53f1ef70","","710","
                <div class=""stimulus-container"">
                    <img src=""images/semantic_sequence/visiting_cities_semantic/visiting_cities_semantic_2.png"" class=""exp-image"">
                    <div class=""question-area"">
                        <p style=""font-size: 20px; font-weight: bold; margin: 0;"">Is there a person in this image?</p>
                    </div>
                </div>","1","main_experiment_trial","2","visiting_cities_semantic","semantic_sequence","chronological","","","","","","",""
"","","","","","html-keyboard-response","42","203476","0.0-42.0","920A1FA2AFDA4AFF8277D9B361205760","019dac63-9341-7049-bc90-2b893e7cb99c","019dac5b-243f-7307-af64-a10f53f1ef70","","null","
                <div class=""stimulus-container"">
                    <img src=""images/semantic_sequence/visiting_cities_semantic/visiting_cities_semantic_3.png"" class=""exp-image"">
                    <div class=""question-area""></div> 
                </div>","null","","","","","","","","","","","",""
"","","","","","html-button-response","43","204059","0.0-43.0","920A1FA2AFDA4AFF8277D9B361205760","019dac63-9341-7049-bc90-2b893e7cb99c","019dac5b-243f-7307-af64-a10f53f1ef70","","583","
                <div class=""stimulus-container"">
                    <img src=""images/semantic_sequence/visiting_cities_semantic/visiting_cities_semantic_3.png"" class=""exp-image"">
                    <div class=""question-area"">
                        <p style=""font-size: 20px; font-weight: bold; margin: 0;"">Is there a person in this image?</p>
                    </div>
                </div>","1","main_experiment_trial","3","visiting_cities_semantic","semantic_sequence","chronological","","","","","","",""
"","","","","","html-keyboard-response","44","209076","0.0-44.0","920A1FA2AFDA4AFF8277D9B361205760","019dac63-9341-7049-bc90-2b893e7cb99c","019dac5b-243f-7307-af64-a10f53f1ef70","","null","
                <div class=""stimulus-container"">
                    <img src=""images/semantic_sequence/visiting_cities_semantic/visiting_cities_semantic_4.png"" class=""exp-image"">
                    <div class=""question-area""></div> 
                </div>","null","","","","","","","","","","","",""
"","","","","","html-button-response","45","210204","0.0-45.0","920A1FA2AFDA4AFF8277D9B361205760","019dac63-9341-7049-bc90-2b893e7cb99c","019dac5b-243f-7307-af64-a10f53f1ef70","","1127","
                <div class=""stimulus-container"">
                    <img src=""images/semantic_sequence/visiting_cities_semantic/visiting_cities_semantic_4.png"" class=""exp-image"">
                    <div class=""question-area"">
                        <p style=""font-size: 20px; font-weight: bold; margin: 0;"">Is there a person in this image?</p>
                    </div>
                </div>","1","main_experiment_trial","4","visiting_cities_semantic","semantic_sequence","chronological","","","","","","",""
"","","","","","html-keyboard-response","46","215208","0.0-46.0","920A1FA2AFDA4AFF8277D9B361205760","019dac63-9341-7049-bc90-2b893e7cb99c","019dac5b-243f-7307-af64-a10f53f1ef70","","null","
                <div class=""stimulus-container"">
                    <img src=""images/semantic_sequence/visiting_cities_semantic/visiting_cities_semantic_5.png"" class=""exp-image"">
                    <div class=""question-area""></div> 
                </div>","null","","","","","","","","","","","",""
"","","","","","html-button-response","47","216307","0.0-47.0","920A1FA2AFDA4AFF8277D9B361205760","019dac63-9341-7049-bc90-2b893e7cb99c","019dac5b-243f-7307-af64-a10f53f1ef70","","1099","
                <div class=""stimulus-container"">
                    <img src=""images/semantic_sequence/visiting_cities_semantic/visiting_cities_semantic_5.png"" class=""exp-image"">
                    <div class=""question-area"">
                        <p style=""font-size: 20px; font-weight: bold; margin: 0;"">Is there a person in this image?</p>
                    </div>
                </div>","1","main_experiment_trial","5","visiting_cities_semantic","semantic_sequence","chronological","","","","","","",""
"","","","","","html-keyboard-response","48","221310","0.0-48.0","920A1FA2AFDA4AFF8277D9B361205760","019dac63-9341-7049-bc90-2b893e7cb99c","019dac5b-243f-7307-af64-a10f53f1ef70","","null","
                <div class=""stimulus-container"">
                    <img src=""images/semantic_sequence/visiting_cities_semantic/visiting_cities_semantic_6.png"" class=""exp-image"">
                    <div class=""question-area""></div> 
                </div>","null","","","","","","","","","","","",""
"","","","","","html-button-response","49","222091","0.0-49.0","920A1FA2AFDA4AFF8277D9B361205760","019dac63-9341-7049-bc90-2b893e7cb99c","019dac5b-243f-7307-af64-a10f53f1ef70","","781","
                <div class=""stimulus-container"">
                    <img src=""images/semantic_sequence/visiting_cities_semantic/visiting_cities_semantic_6.png"" class=""exp-image"">
                    <div class=""question-area"">
                        <p style=""font-size: 20px; font-weight: bold; margin: 0;"">Is there a person in this image?</p>
                    </div>
                </div>","1","main_experiment_trial","6","visiting_cities_semantic","semantic_sequence","chronological","","","","","","",""
"","","","","","html-keyboard-response","50","227093","0.0-50.0","920A1FA2AFDA4AFF8277D9B361205760","019dac63-9341-7049-bc90-2b893e7cb99c","019dac5b-243f-7307-af64-a10f53f1ef70","","null","
                <div class=""stimulus-container"">
                    <img src=""images/semantic_sequence/visiting_cities_semantic/visiting_cities_semantic_7.png"" class=""exp-image"">
                    <div class=""question-area""></div> 
                </div>","null","","","","","","","","","","","",""
"","","","","","html-button-response","51","227979","0.0-51.0","920A1FA2AFDA4AFF8277D9B361205760","019dac63-9341-7049-bc90-2b893e7cb99c","019dac5b-243f-7307-af64-a10f53f1ef70","","885","
                <div class=""stimulus-container"">
                    <img src=""images/semantic_sequence/visiting_cities_semantic/visiting_cities_semantic_7.png"" class=""exp-image"">
                    <div class=""question-area"">
                        <p style=""font-size: 20px; font-weight: bold; margin: 0;"">Is there a person in this image?</p>
                    </div>
                </div>","0","main_experiment_trial","7","visiting_cities_semantic","semantic_sequence","chronological","","","","","","",""
"","","","","","html-keyboard-response","52","232983","0.0-52.0","920A1FA2AFDA4AFF8277D9B361205760","019dac63-9341-7049-bc90-2b893e7cb99c","019dac5b-243f-7307-af64-a10f53f1ef70","","null","
                <div class=""stimulus-container"">
                    <img src=""images/semantic_sequence/visiting_cities_semantic/visiting_cities_semantic_8.png"" class=""exp-image"">
                    <div class=""question-area""></div> 
                </div>","null","","","","","","","","","","","",""
"","","","","","html-button-response","53","234611","0.0-53.0","920A1FA2AFDA4AFF8277D9B361205760","019dac63-9341-7049-bc90-2b893e7cb99c","019dac5b-243f-7307-af64-a10f53f1ef70","","1628","
                <div class=""stimulus-container"">
                    <img src=""images/semantic_sequence/visiting_cities_semantic/visiting_cities_semantic_8.png"" class=""exp-image"">
                    <div class=""question-area"">
                        <p style=""font-size: 20px; font-weight: bold; margin: 0;"">Is there a person in this image?</p>
                    </div>
                </div>","0","main_experiment_trial","8","visiting_cities_semantic","semantic_sequence","chronological","","","","","","",""
"","","","","","html-keyboard-response","54","239622","0.0-54.0","920A1FA2AFDA4AFF8277D9B361205760","019dac63-9341-7049-bc90-2b893e7cb99c","019dac5b-243f-7307-af64-a10f53f1ef70","","null","
                <div class=""stimulus-container"">
                    <img src=""images/semantic_sequence/visiting_cities_semantic/visiting_cities_semantic_9.png"" class=""exp-image"">
                    <div class=""question-area""></div> 
                </div>","null","","","","","","","","","","","",""
"","","","","","html-button-response","55","240651","0.0-55.0","920A1FA2AFDA4AFF8277D9B361205760","019dac63-9341-7049-bc90-2b893e7cb99c","019dac5b-243f-7307-af64-a10f53f1ef70","","1027","
                <div class=""stimulus-container"">
                    <img src=""images/semantic_sequence/visiting_cities_semantic/visiting_cities_semantic_9.png"" class=""exp-image"">
                    <div class=""question-area"">
                        <p style=""font-size: 20px; font-weight: bold; margin: 0;"">Is there a person in this image?</p>
                    </div>
                </div>","0","main_experiment_trial","9","visiting_cities_semantic","semantic_sequence","chronological","","","","","","",""
"","","","","","html-keyboard-response","56","245655","0.0-56.0","920A1FA2AFDA4AFF8277D9B361205760","019dac63-9341-7049-bc90-2b893e7cb99c","019dac5b-243f-7307-af64-a10f53f1ef70","","null","
                <div class=""stimulus-container"">
                    <img src=""images/semantic_sequence/visiting_cities_semantic/visiting_cities_semantic_ten.png"" class=""exp-image"">
                    <div class=""question-area""></div> 
                </div>","null","","","","","","","","","","","",""
"","","","","","html-button-response","57","246675","0.0-57.0","920A1FA2AFDA4AFF8277D9B361205760","019dac63-9341-7049-bc90-2b893e7cb99c","019dac5b-243f-7307-af64-a10f53f1ef70","","1019","
                <div class=""stimulus-container"">
                    <img src=""images/semantic_sequence/visiting_cities_semantic/visiting_cities_semantic_ten.png"" class=""exp-image"">
                    <div class=""question-area"">
                        <p style=""font-size: 20px; font-weight: bold; margin: 0;"">Is there a person in this image?</p>
                    </div>
                </div>","0","main_experiment_trial","ten","visiting_cities_semantic","semantic_sequence","chronological","","","","","","",""
"","","","","","html-keyboard-response","58","251683","0.0-58.0","920A1FA2AFDA4AFF8277D9B361205760","019dac63-9341-7049-bc90-2b893e7cb99c","019dac5b-243f-7307-af64-a10f53f1ef70","","null","<div style=""background-color: white; width: 100vw; height: 100vh;""></div>","null","","","","","","","","","","","",""
"","","","","","html-keyboard-response","59","256695","0.0-59.0","920A1FA2AFDA4AFF8277D9B361205760","019dac63-9341-7049-bc90-2b893e7cb99c","019dac5b-243f-7307-af64-a10f53f1ef70","","null","
                <div class=""stimulus-container"">
                    <img src=""images/semantic_sequence/self_care_activities_semantic/self_care_activities_semantic_1.png"" class=""exp-image"">
                    <div class=""question-area""></div> 
                </div>","null","","","","","","","","","","","",""
"","","","","","html-button-response","60","258483","0.0-60.0","920A1FA2AFDA4AFF8277D9B361205760","019dac63-9341-7049-bc90-2b893e7cb99c","019dac5b-243f-7307-af64-a10f53f1ef70","","1788","
                <div class=""stimulus-container"">
                    <img src=""images/semantic_sequence/self_care_activities_semantic/self_care_activities_semantic_1.png"" class=""exp-image"">
                    <div class=""question-area"">
                        <p style=""font-size: 20px; font-weight: bold; margin: 0;"">Is there a person in this image?</p>
                    </div>
                </div>","0","main_experiment_trial","1","self_care_activities_semantic","semantic_sequence","chronological","","","","","","",""
"","","","","","html-keyboard-response","61","263488","0.0-61.0","920A1FA2AFDA4AFF8277D9B361205760","019dac63-9341-7049-bc90-2b893e7cb99c","019dac5b-243f-7307-af64-a10f53f1ef70","","null","
                <div class=""stimulus-container"">
                    <img src=""images/semantic_sequence/self_care_activities_semantic/self_care_activities_semantic_2.png"" class=""exp-image"">
                    <div class=""question-area""></div> 
                </div>","null","","","","","","","","","","","",""
"","","","","","html-button-response","62","264371","0.0-62.0","920A1FA2AFDA4AFF8277D9B361205760","019dac63-9341-7049-bc90-2b893e7cb99c","019dac5b-243f-7307-af64-a10f53f1ef70","","882","
                <div class=""stimulus-container"">
                    <img src=""images/semantic_sequence/self_care_activities_semantic/self_care_activities_semantic_2.png"" class=""exp-image"">
                    <div class=""question-area"">
                        <p style=""font-size: 20px; font-weight: bold; margin: 0;"">Is there a person in this image?</p>
                    </div>
                </div>","0","main_experiment_trial","2","self_care_activities_semantic","semantic_sequence","chronological","","","","","","",""
"","","","","","html-keyboard-response","63","269373","0.0-63.0","920A1FA2AFDA4AFF8277D9B361205760","019dac63-9341-7049-bc90-2b893e7cb99c","019dac5b-243f-7307-af64-a10f53f1ef70","","null","
                <div class=""stimulus-container"">
                    <img src=""images/semantic_sequence/self_care_activities_semantic/self_care_activities_semantic_3.png"" class=""exp-image"">
                    <div class=""question-area""></div> 
                </div>","null","","","","","","","","","","","",""
"","","","","","html-button-response","64","270115","0.0-64.0","920A1FA2AFDA4AFF8277D9B361205760","019dac63-9341-7049-bc90-2b893e7cb99c","019dac5b-243f-7307-af64-a10f53f1ef70","","742","
                <div class=""stimulus-container"">
                    <img src=""images/semantic_sequence/self_care_activities_semantic/self_care_activities_semantic_3.png"" class=""exp-image"">
                    <div class=""question-area"">
                        <p style=""font-size: 20px; font-weight: bold; margin: 0;"">Is there a person in this image?</p>
                    </div>
                </div>","0","main_experiment_trial","3","self_care_activities_semantic","semantic_sequence","chronological","","","","","","",""
"","","","","","html-keyboard-response","65","275128","0.0-65.0","920A1FA2AFDA4AFF8277D9B361205760","019dac63-9341-7049-bc90-2b893e7cb99c","019dac5b-243f-7307-af64-a10f53f1ef70","","null","
                <div class=""stimulus-container"">
                    <img src=""images/semantic_sequence/self_care_activities_semantic/self_care_activities_semantic_4.png"" class=""exp-image"">
                    <div class=""question-area""></div> 
                </div>","null","","","","","","","","","","","",""
"","","","","","html-button-response","66","275707","0.0-66.0","920A1FA2AFDA4AFF8277D9B361205760","019dac63-9341-7049-bc90-2b893e7cb99c","019dac5b-243f-7307-af64-a10f53f1ef70","","579","
                <div class=""stimulus-container"">
                    <img src=""images/semantic_sequence/self_care_activities_semantic/self_care_activities_semantic_4.png"" class=""exp-image"">
                    <div class=""question-area"">
                        <p style=""font-size: 20px; font-weight: bold; margin: 0;"">Is there a person in this image?</p>
                    </div>
                </div>","0","main_experiment_trial","4","self_care_activities_semantic","semantic_sequence","chronological","","","","","","",""
"","","","","","html-keyboard-response","67","280712","0.0-67.0","920A1FA2AFDA4AFF8277D9B361205760","019dac63-9341-7049-bc90-2b893e7cb99c","019dac5b-243f-7307-af64-a10f53f1ef70","","null","
                <div class=""stimulus-container"">
                    <img src=""images/semantic_sequence/self_care_activities_semantic/self_care_activities_semantic_5.png"" class=""exp-image"">
                    <div class=""question-area""></div> 
                </div>","null","","","","","","","","","","","",""
"","","","","","html-button-response","68","282539","0.0-68.0","920A1FA2AFDA4AFF8277D9B361205760","019dac63-9341-7049-bc90-2b893e7cb99c","019dac5b-243f-7307-af64-a10f53f1ef70","","1826","
                <div class=""stimulus-container"">
                    <img src=""images/semantic_sequence/self_care_activities_semantic/self_care_activities_semantic_5.png"" class=""exp-image"">
                    <div class=""question-area"">
                        <p style=""font-size: 20px; font-weight: bold; margin: 0;"">Is there a person in this image?</p>
                    </div>
                </div>","0","main_experiment_trial","5","self_care_activities_semantic","semantic_sequence","chronological","","","","","","",""
"","","","","","html-keyboard-response","69","287546","0.0-69.0","920A1FA2AFDA4AFF8277D9B361205760","019dac63-9341-7049-bc90-2b893e7cb99c","019dac5b-243f-7307-af64-a10f53f1ef70","","null","
                <div class=""stimulus-container"">
                    <img src=""images/semantic_sequence/self_care_activities_semantic/self_care_activities_semantic_6.png"" class=""exp-image"">
                    <div class=""question-area""></div> 
                </div>","null","","","","","","","","","","","",""
"","","","","","html-button-response","70","288883","0.0-70.0","920A1FA2AFDA4AFF8277D9B361205760","019dac63-9341-7049-bc90-2b893e7cb99c","019dac5b-243f-7307-af64-a10f53f1ef70","","1336","
                <div class=""stimulus-container"">
                    <img src=""images/semantic_sequence/self_care_activities_semantic/self_care_activities_semantic_6.png"" class=""exp-image"">
                    <div class=""question-area"">
                        <p style=""font-size: 20px; font-weight: bold; margin: 0;"">Is there a person in this image?</p>
                    </div>
                </div>","1","main_experiment_trial","6","self_care_activities_semantic","semantic_sequence","chronological","","","","","","",""
"","","","","","html-keyboard-response","71","293895","0.0-71.0","920A1FA2AFDA4AFF8277D9B361205760","019dac63-9341-7049-bc90-2b893e7cb99c","019dac5b-243f-7307-af64-a10f53f1ef70","","null","
                <div class=""stimulus-container"">
                    <img src=""images/semantic_sequence/self_care_activities_semantic/self_care_activities_semantic_7.png"" class=""exp-image"">
                    <div class=""question-area""></div> 
                </div>","null","","","","","","","","","","","",""
"","","","","","html-button-response","72","294955","0.0-72.0","920A1FA2AFDA4AFF8277D9B361205760","019dac63-9341-7049-bc90-2b893e7cb99c","019dac5b-243f-7307-af64-a10f53f1ef70","","1059","
                <div class=""stimulus-container"">
                    <img src=""images/semantic_sequence/self_care_activities_semantic/self_care_activities_semantic_7.png"" class=""exp-image"">
                    <div class=""question-area"">
                        <p style=""font-size: 20px; font-weight: bold; margin: 0;"">Is there a person in this image?</p>
                    </div>
                </div>","0","main_experiment_trial","7","self_care_activities_semantic","semantic_sequence","chronological","","","","","","",""
"","","","","","html-keyboard-response","73","299957","0.0-73.0","920A1FA2AFDA4AFF8277D9B361205760","019dac63-9341-7049-bc90-2b893e7cb99c","019dac5b-243f-7307-af64-a10f53f1ef70","","null","
                <div class=""stimulus-container"">
                    <img src=""images/semantic_sequence/self_care_activities_semantic/self_care_activities_semantic_8.png"" class=""exp-image"">
                    <div class=""question-area""></div> 
                </div>","null","","","","","","","","","","","",""
"","","","","","html-button-response","74","300899","0.0-74.0","920A1FA2AFDA4AFF8277D9B361205760","019dac63-9341-7049-bc90-2b893e7cb99c","019dac5b-243f-7307-af64-a10f53f1ef70","","941","
                <div class=""stimulus-container"">
                    <img src=""images/semantic_sequence/self_care_activities_semantic/self_care_activities_semantic_8.png"" class=""exp-image"">
                    <div class=""question-area"">
                        <p style=""font-size: 20px; font-weight: bold; margin: 0;"">Is there a person in this image?</p>
                    </div>
                </div>","0","main_experiment_trial","8","self_care_activities_semantic","semantic_sequence","chronological","","","","","","",""
"","","","","","html-keyboard-response","75","305912","0.0-75.0","920A1FA2AFDA4AFF8277D9B361205760","019dac63-9341-7049-bc90-2b893e7cb99c","019dac5b-243f-7307-af64-a10f53f1ef70","","null","
                <div class=""stimulus-container"">
                    <img src=""images/semantic_sequence/self_care_activities_semantic/self_care_activities_semantic_9.png"" class=""exp-image"">
                    <div class=""question-area""></div> 
                </div>","null","","","","","","","","","","","",""
"","","","","","html-button-response","76","306635","0.0-76.0","920A1FA2AFDA4AFF8277D9B361205760","019dac63-9341-7049-bc90-2b893e7cb99c","019dac5b-243f-7307-af64-a10f53f1ef70","","722","
                <div class=""stimulus-container"">
                    <img src=""images/semantic_sequence/self_care_activities_semantic/self_care_activities_semantic_9.png"" class=""exp-image"">
                    <div class=""question-area"">
                        <p style=""font-size: 20px; font-weight: bold; margin: 0;"">Is there a person in this image?</p>
                    </div>
                </div>","0","main_experiment_trial","9","self_care_activities_semantic","semantic_sequence","chronological","","","","","","",""
"","","","","","html-keyboard-response","77","311646","0.0-77.0","920A1FA2AFDA4AFF8277D9B361205760","019dac63-9341-7049-bc90-2b893e7cb99c","019dac5b-243f-7307-af64-a10f53f1ef70","","null","
                <div class=""stimulus-container"">
                    <img src=""images/semantic_sequence/self_care_activities_semantic/self_care_activities_semantic_ten.png"" class=""exp-image"">
                    <div class=""question-area""></div> 
                </div>","null","","","","","","","","","","","",""
"","","","","","html-button-response","78","312363","0.0-78.0","920A1FA2AFDA4AFF8277D9B361205760","019dac63-9341-7049-bc90-2b893e7cb99c","019dac5b-243f-7307-af64-a10f53f1ef70","","716","
                <div class=""stimulus-container"">
                    <img src=""images/semantic_sequence/self_care_activities_semantic/self_care_activities_semantic_ten.png"" class=""exp-image"">
                    <div class=""question-area"">
                        <p style=""font-size: 20px; font-weight: bold; margin: 0;"">Is there a person in this image?</p>
                    </div>
                </div>","0","main_experiment_trial","ten","self_care_activities_semantic","semantic_sequence","chronological","","","","","","",""
"","","","","","html-keyboard-response","79","317369","0.0-79.0","920A1FA2AFDA4AFF8277D9B361205760","019dac63-9341-7049-bc90-2b893e7cb99c","019dac5b-243f-7307-af64-a10f53f1ef70","","null","<div style=""background-color: white; width: 100vw; height: 100vh;""></div>","null","","","","","","","","","","","",""
"","","","","","html-keyboard-response","80","322380","0.0-80.0","920A1FA2AFDA4AFF8277D9B361205760","019dac63-9341-7049-bc90-2b893e7cb99c","019dac5b-243f-7307-af64-a10f53f1ef70","","null","
                <div class=""stimulus-container"">
                    <img src=""images/semantic_sequence/kitchen_operations_semantic/kitchen_operations_semantic_1.png"" class=""exp-image"">
                    <div class=""question-area""></div> 
                </div>","null","","","","","","","","","","","",""
"","","","","","html-button-response","81","323467","0.0-81.0","920A1FA2AFDA4AFF8277D9B361205760","019dac63-9341-7049-bc90-2b893e7cb99c","019dac5b-243f-7307-af64-a10f53f1ef70","","1086","
                <div class=""stimulus-container"">
                    <img src=""images/semantic_sequence/kitchen_operations_semantic/kitchen_operations_semantic_1.png"" class=""exp-image"">
                    <div class=""question-area"">
                        <p style=""font-size: 20px; font-weight: bold; margin: 0;"">Is there a person in this image?</p>
                    </div>
                </div>","0","main_experiment_trial","1","kitchen_operations_semantic","semantic_sequence","chronological","","","","","","",""
"","","","","","html-keyboard-response","82","328480","0.0-82.0","920A1FA2AFDA4AFF8277D9B361205760","019dac63-9341-7049-bc90-2b893e7cb99c","019dac5b-243f-7307-af64-a10f53f1ef70","","null","
                <div class=""stimulus-container"">
                    <img src=""images/semantic_sequence/kitchen_operations_semantic/kitchen_operations_semantic_2.png"" class=""exp-image"">
                    <div class=""question-area""></div> 
                </div>","null","","","","","","","","","","","",""
"","","","","","html-button-response","83","329795","0.0-83.0","920A1FA2AFDA4AFF8277D9B361205760","019dac63-9341-7049-bc90-2b893e7cb99c","019dac5b-243f-7307-af64-a10f53f1ef70","","1314","
                <div class=""stimulus-container"">
                    <img src=""images/semantic_sequence/kitchen_operations_semantic/kitchen_operations_semantic_2.png"" class=""exp-image"">
                    <div class=""question-area"">
                        <p style=""font-size: 20px; font-weight: bold; margin: 0;"">Is there a person in this image?</p>
                    </div>
                </div>","0","main_experiment_trial","2","kitchen_operations_semantic","semantic_sequence","chronological","","","","","","",""
"","","","","","html-keyboard-response","84","334798","0.0-84.0","920A1FA2AFDA4AFF8277D9B361205760","019dac63-9341-7049-bc90-2b893e7cb99c","019dac5b-243f-7307-af64-a10f53f1ef70","","null","
                <div class=""stimulus-container"">
                    <img src=""images/semantic_sequence/kitchen_operations_semantic/kitchen_operations_semantic_3.png"" class=""exp-image"">
                    <div class=""question-area""></div> 
                </div>","null","","","","","","","","","","","",""
"","","","","","html-button-response","85","335723","0.0-85.0","920A1FA2AFDA4AFF8277D9B361205760","019dac63-9341-7049-bc90-2b893e7cb99c","019dac5b-243f-7307-af64-a10f53f1ef70","","924","
                <div class=""stimulus-container"">
                    <img src=""images/semantic_sequence/kitchen_operations_semantic/kitchen_operations_semantic_3.png"" class=""exp-image"">
                    <div class=""question-area"">
                        <p style=""font-size: 20px; font-weight: bold; margin: 0;"">Is there a person in this image?</p>
                    </div>
                </div>","0","main_experiment_trial","3","kitchen_operations_semantic","semantic_sequence","chronological","","","","","","",""
"","","","","","html-keyboard-response","86","340737","0.0-86.0","920A1FA2AFDA4AFF8277D9B361205760","019dac63-9341-7049-bc90-2b893e7cb99c","019dac5b-243f-7307-af64-a10f53f1ef70","","null","
                <div class=""stimulus-container"">
                    <img src=""images/semantic_sequence/kitchen_operations_semantic/kitchen_operations_semantic_4.png"" class=""exp-image"">
                    <div class=""question-area""></div> 
                </div>","null","","","","","","","","","","","",""
"","","","","","html-button-response","87","341639","0.0-87.0","920A1FA2AFDA4AFF8277D9B361205760","019dac63-9341-7049-bc90-2b893e7cb99c","019dac5b-243f-7307-af64-a10f53f1ef70","","901","
                <div class=""stimulus-container"">
                    <img src=""images/semantic_sequence/kitchen_operations_semantic/kitchen_operations_semantic_4.png"" class=""exp-image"">
                    <div class=""question-area"">
                        <p style=""font-size: 20px; font-weight: bold; margin: 0;"">Is there a person in this image?</p>
                    </div>
                </div>","0","main_experiment_trial","4","kitchen_operations_semantic","semantic_sequence","chronological","","","","","","",""
"","","","","","html-keyboard-response","88","346649","0.0-88.0","920A1FA2AFDA4AFF8277D9B361205760","019dac63-9341-7049-bc90-2b893e7cb99c","019dac5b-243f-7307-af64-a10f53f1ef70","","null","
                <div class=""stimulus-container"">
                    <img src=""images/semantic_sequence/kitchen_operations_semantic/kitchen_operations_semantic_5.png"" class=""exp-image"">
                    <div class=""question-area""></div> 
                </div>","null","","","","","","","","","","","",""
"","","","","","html-button-response","89","347955","0.0-89.0","920A1FA2AFDA4AFF8277D9B361205760","019dac63-9341-7049-bc90-2b893e7cb99c","019dac5b-243f-7307-af64-a10f53f1ef70","","1305","
                <div class=""stimulus-container"">
                    <img src=""images/semantic_sequence/kitchen_operations_semantic/kitchen_operations_semantic_5.png"" class=""exp-image"">
                    <div class=""question-area"">
                        <p style=""font-size: 20px; font-weight: bold; margin: 0;"">Is there a person in this image?</p>
                    </div>
                </div>","0","main_experiment_trial","5","kitchen_operations_semantic","semantic_sequence","chronological","","","","","","",""
"","","","","","html-keyboard-response","90","352965","0.0-90.0","920A1FA2AFDA4AFF8277D9B361205760","019dac63-9341-7049-bc90-2b893e7cb99c","019dac5b-243f-7307-af64-a10f53f1ef70","","null","
                <div class=""stimulus-container"">
                    <img src=""images/semantic_sequence/kitchen_operations_semantic/kitchen_operations_semantic_6.png"" class=""exp-image"">
                    <div class=""question-area""></div> 
                </div>","null","","","","","","","","","","","",""
"","","","","","html-button-response","91","354107","0.0-91.0","920A1FA2AFDA4AFF8277D9B361205760","019dac63-9341-7049-bc90-2b893e7cb99c","019dac5b-243f-7307-af64-a10f53f1ef70","","1141","
                <div class=""stimulus-container"">
                    <img src=""images/semantic_sequence/kitchen_operations_semantic/kitchen_operations_semantic_6.png"" class=""exp-image"">
                    <div class=""question-area"">
                        <p style=""font-size: 20px; font-weight: bold; margin: 0;"">Is there a person in this image?</p>
                    </div>
                </div>","0","main_experiment_trial","6","kitchen_operations_semantic","semantic_sequence","chronological","","","","","","",""
"","","","","","html-keyboard-response","92","359116","0.0-92.0","920A1FA2AFDA4AFF8277D9B361205760","019dac63-9341-7049-bc90-2b893e7cb99c","019dac5b-243f-7307-af64-a10f53f1ef70","","null","
                <div class=""stimulus-container"">
                    <img src=""images/semantic_sequence/kitchen_operations_semantic/kitchen_operations_semantic_7.png"" class=""exp-image"">
                    <div class=""question-area""></div> 
                </div>","null","","","","","","","","","","","",""
"","","","","","html-button-response","93","360843","0.0-93.0","920A1FA2AFDA4AFF8277D9B361205760","019dac63-9341-7049-bc90-2b893e7cb99c","019dac5b-243f-7307-af64-a10f53f1ef70","","1726","
                <div class=""stimulus-container"">
                    <img src=""images/semantic_sequence/kitchen_operations_semantic/kitchen_operations_semantic_7.png"" class=""exp-image"">
                    <div class=""question-area"">
                        <p style=""font-size: 20px; font-weight: bold; margin: 0;"">Is there a person in this image?</p>
                    </div>
                </div>","0","main_experiment_trial","7","kitchen_operations_semantic","semantic_sequence","chronological","","","","","","",""
"","","","","","html-keyboard-response","94","365849","0.0-94.0","920A1FA2AFDA4AFF8277D9B361205760","019dac63-9341-7049-bc90-2b893e7cb99c","019dac5b-243f-7307-af64-a10f53f1ef70","","null","
                <div class=""stimulus-container"">
                    <img src=""images/semantic_sequence/kitchen_operations_semantic/kitchen_operations_semantic_8.png"" class=""exp-image"">
                    <div class=""question-area""></div> 
                </div>","null","","","","","","","","","","","",""
"","","","","","html-button-response","95","367275","0.0-95.0","920A1FA2AFDA4AFF8277D9B361205760","019dac63-9341-7049-bc90-2b893e7cb99c","019dac5b-243f-7307-af64-a10f53f1ef70","","1425","
                <div class=""stimulus-container"">
                    <img src=""images/semantic_sequence/kitchen_operations_semantic/kitchen_operations_semantic_8.png"" class=""exp-image"">
                    <div class=""question-area"">
                        <p style=""font-size: 20px; font-weight: bold; margin: 0;"">Is there a person in this image?</p>
                    </div>
                </div>","0","main_experiment_trial","8","kitchen_operations_semantic","semantic_sequence","chronological","","","","","","",""
"","","","","","html-keyboard-response","96","372283","0.0-96.0","920A1FA2AFDA4AFF8277D9B361205760","019dac63-9341-7049-bc90-2b893e7cb99c","019dac5b-243f-7307-af64-a10f53f1ef70","","null","
                <div class=""stimulus-container"">
                    <img src=""images/semantic_sequence/kitchen_operations_semantic/kitchen_operations_semantic_9.png"" class=""exp-image"">
                    <div class=""question-area""></div> 
                </div>","null","","","","","","","","","","","",""
"","","","","","html-button-response","97","373891","0.0-97.0","920A1FA2AFDA4AFF8277D9B361205760","019dac63-9341-7049-bc90-2b893e7cb99c","019dac5b-243f-7307-af64-a10f53f1ef70","","1607","
                <div class=""stimulus-container"">
                    <img src=""images/semantic_sequence/kitchen_operations_semantic/kitchen_operations_semantic_9.png"" class=""exp-image"">
                    <div class=""question-area"">
                        <p style=""font-size: 20px; font-weight: bold; margin: 0;"">Is there a person in this image?</p>
                    </div>
                </div>","0","main_experiment_trial","9","kitchen_operations_semantic","semantic_sequence","chronological","","","","","","",""
"","","","","","html-keyboard-response","98","378900","0.0-98.0","920A1FA2AFDA4AFF8277D9B361205760","019dac63-9341-7049-bc90-2b893e7cb99c","019dac5b-243f-7307-af64-a10f53f1ef70","","null","
                <div class=""stimulus-container"">
                    <img src=""images/semantic_sequence/kitchen_operations_semantic/kitchen_operations_semantic_ten.png"" class=""exp-image"">
                    <div class=""question-area""></div> 
                </div>","null","","","","","","","","","","","",""
"","","","","","html-button-response","99","379883","0.0-99.0","920A1FA2AFDA4AFF8277D9B361205760","019dac63-9341-7049-bc90-2b893e7cb99c","019dac5b-243f-7307-af64-a10f53f1ef70","","982","
                <div class=""stimulus-container"">
                    <img src=""images/semantic_sequence/kitchen_operations_semantic/kitchen_operations_semantic_ten.png"" class=""exp-image"">
                    <div class=""question-area"">
                        <p style=""font-size: 20px; font-weight: bold; margin: 0;"">Is there a person in this image?</p>
                    </div>
                </div>","0","main_experiment_trial","ten","kitchen_operations_semantic","semantic_sequence","chronological","","","","","","",""
"","","","","","html-keyboard-response","100","384888","0.0-100.0","920A1FA2AFDA4AFF8277D9B361205760","019dac63-9341-7049-bc90-2b893e7cb99c","019dac5b-243f-7307-af64-a10f53f1ef70","","null","<div style=""background-color: white; width: 100vw; height: 100vh;""></div>","null","","","","","","","","","","","",""
"","","","","","html-keyboard-response","101","389899","0.0-101.0","920A1FA2AFDA4AFF8277D9B361205760","019dac63-9341-7049-bc90-2b893e7cb99c","019dac5b-243f-7307-af64-a10f53f1ef70","","null","
                <div class=""stimulus-container"">
                    <img src=""images/causal_sequence/coin_causal/coin_causal_1.png"" class=""exp-image"">
                    <div class=""question-area""></div> 
                </div>","null","","","","","","","","","","","",""
"","","","","","html-button-response","102","391547","0.0-102.0","920A1FA2AFDA4AFF8277D9B361205760","019dac63-9341-7049-bc90-2b893e7cb99c","019dac5b-243f-7307-af64-a10f53f1ef70","","1647","
                <div class=""stimulus-container"">
                    <img src=""images/causal_sequence/coin_causal/coin_causal_1.png"" class=""exp-image"">
                    <div class=""question-area"">
                        <p style=""font-size: 20px; font-weight: bold; margin: 0;"">Is there a person in this image?</p>
                    </div>
                </div>","1","main_experiment_trial","1","coin_causal","causal_sequence","chronological","","","","","","",""
"","","","","","html-keyboard-response","103","396550","0.0-103.0","920A1FA2AFDA4AFF8277D9B361205760","019dac63-9341-7049-bc90-2b893e7cb99c","019dac5b-243f-7307-af64-a10f53f1ef70","","null","
                <div class=""stimulus-container"">
                    <img src=""images/causal_sequence/coin_causal/coin_causal_2.png"" class=""exp-image"">
                    <div class=""question-area""></div> 
                </div>","null","","","","","","","","","","","",""
"","","","","","html-button-response","104","398315","0.0-104.0","920A1FA2AFDA4AFF8277D9B361205760","019dac63-9341-7049-bc90-2b893e7cb99c","019dac5b-243f-7307-af64-a10f53f1ef70","","1763","
                <div class=""stimulus-container"">
                    <img src=""images/causal_sequence/coin_causal/coin_causal_2.png"" class=""exp-image"">
                    <div class=""question-area"">
                        <p style=""font-size: 20px; font-weight: bold; margin: 0;"">Is there a person in this image?</p>
                    </div>
                </div>","0","main_experiment_trial","2","coin_causal","causal_sequence","chronological","","","","","","",""
"","","","","","html-keyboard-response","105","403317","0.0-105.0","920A1FA2AFDA4AFF8277D9B361205760","019dac63-9341-7049-bc90-2b893e7cb99c","019dac5b-243f-7307-af64-a10f53f1ef70","","null","
                <div class=""stimulus-container"">
                    <img src=""images/causal_sequence/coin_causal/coin_causal_3.png"" class=""exp-image"">
                    <div class=""question-area""></div> 
                </div>","null","","","","","","","","","","","",""
"","","","","","html-button-response","106","404195","0.0-106.0","920A1FA2AFDA4AFF8277D9B361205760","019dac63-9341-7049-bc90-2b893e7cb99c","019dac5b-243f-7307-af64-a10f53f1ef70","","876","
                <div class=""stimulus-container"">
                    <img src=""images/causal_sequence/coin_causal/coin_causal_3.png"" class=""exp-image"">
                    <div class=""question-area"">
                        <p style=""font-size: 20px; font-weight: bold; margin: 0;"">Is there a person in this image?</p>
                    </div>
                </div>","1","main_experiment_trial","3","coin_causal","causal_sequence","chronological","","","","","","",""
"","","","","","html-keyboard-response","107","409201","0.0-107.0","920A1FA2AFDA4AFF8277D9B361205760","019dac63-9341-7049-bc90-2b893e7cb99c","019dac5b-243f-7307-af64-a10f53f1ef70","","null","
                <div class=""stimulus-container"">
                    <img src=""images/causal_sequence/coin_causal/coin_causal_4.png"" class=""exp-image"">
                    <div class=""question-area""></div> 
                </div>","null","","","","","","","","","","","",""
"","","","","","html-button-response","108","409642","0.0-108.0","920A1FA2AFDA4AFF8277D9B361205760","019dac63-9341-7049-bc90-2b893e7cb99c","019dac5b-243f-7307-af64-a10f53f1ef70","","441","
                <div class=""stimulus-container"">
                    <img src=""images/causal_sequence/coin_causal/coin_causal_4.png"" class=""exp-image"">
                    <div class=""question-area"">
                        <p style=""font-size: 20px; font-weight: bold; margin: 0;"">Is there a person in this image?</p>
                    </div>
                </div>","1","main_experiment_trial","4","coin_causal","causal_sequence","chronological","","","","","","",""
"","","","","","html-keyboard-response","109","414651","0.0-109.0","920A1FA2AFDA4AFF8277D9B361205760","019dac63-9341-7049-bc90-2b893e7cb99c","019dac5b-243f-7307-af64-a10f53f1ef70","","null","
                <div class=""stimulus-container"">
                    <img src=""images/causal_sequence/coin_causal/coin_causal_5.png"" class=""exp-image"">
                    <div class=""question-area""></div> 
                </div>","null","","","","","","","","","","","",""
"","","","","","html-button-response","110","416042","0.0-110.0","920A1FA2AFDA4AFF8277D9B361205760","019dac63-9341-7049-bc90-2b893e7cb99c","019dac5b-243f-7307-af64-a10f53f1ef70","","1390","
                <div class=""stimulus-container"">
                    <img src=""images/causal_sequence/coin_causal/coin_causal_5.png"" class=""exp-image"">
                    <div class=""question-area"">
                        <p style=""font-size: 20px; font-weight: bold; margin: 0;"">Is there a person in this image?</p>
                    </div>
                </div>","0","main_experiment_trial","5","coin_causal","causal_sequence","chronological","","","","","","",""
"","","","","","html-keyboard-response","111","421051","0.0-111.0","920A1FA2AFDA4AFF8277D9B361205760","019dac63-9341-7049-bc90-2b893e7cb99c","019dac5b-243f-7307-af64-a10f53f1ef70","","null","
                <div class=""stimulus-container"">
                    <img src=""images/causal_sequence/coin_causal/coin_causal_6.png"" class=""exp-image"">
                    <div class=""question-area""></div> 
                </div>","null","","","","","","","","","","","",""
"","","","","","html-button-response","112","421834","0.0-112.0","920A1FA2AFDA4AFF8277D9B361205760","019dac63-9341-7049-bc90-2b893e7cb99c","019dac5b-243f-7307-af64-a10f53f1ef70","","782","
                <div class=""stimulus-container"">
                    <img src=""images/causal_sequence/coin_causal/coin_causal_6.png"" class=""exp-image"">
                    <div class=""question-area"">
                        <p style=""font-size: 20px; font-weight: bold; margin: 0;"">Is there a person in this image?</p>
                    </div>
                </div>","0","main_experiment_trial","6","coin_causal","causal_sequence","chronological","","","","","","",""
"","","","","","html-keyboard-response","113","426845","0.0-113.0","920A1FA2AFDA4AFF8277D9B361205760","019dac63-9341-7049-bc90-2b893e7cb99c","019dac5b-243f-7307-af64-a10f53f1ef70","","null","
                <div class=""stimulus-container"">
                    <img src=""images/causal_sequence/coin_causal/coin_causal_7.png"" class=""exp-image"">
                    <div class=""question-area""></div> 
                </div>","null","","","","","","","","","","","",""
"","","","","","html-button-response","114","427458","0.0-114.0","920A1FA2AFDA4AFF8277D9B361205760","019dac63-9341-7049-bc90-2b893e7cb99c","019dac5b-243f-7307-af64-a10f53f1ef70","","613","
                <div class=""stimulus-container"">
                    <img src=""images/causal_sequence/coin_causal/coin_causal_7.png"" class=""exp-image"">
                    <div class=""question-area"">
                        <p style=""font-size: 20px; font-weight: bold; margin: 0;"">Is there a person in this image?</p>
                    </div>
                </div>","1","main_experiment_trial","7","coin_causal","causal_sequence","chronological","","","","","","",""
"","","","","","html-keyboard-response","115","432463","0.0-115.0","920A1FA2AFDA4AFF8277D9B361205760","019dac63-9341-7049-bc90-2b893e7cb99c","019dac5b-243f-7307-af64-a10f53f1ef70","","null","
                <div class=""stimulus-container"">
                    <img src=""images/causal_sequence/coin_causal/coin_causal_8.png"" class=""exp-image"">
                    <div class=""question-area""></div> 
                </div>","null","","","","","","","","","","","",""
"","","","","","html-button-response","116","433466","0.0-116.0","920A1FA2AFDA4AFF8277D9B361205760","019dac63-9341-7049-bc90-2b893e7cb99c","019dac5b-243f-7307-af64-a10f53f1ef70","","1003","
                <div class=""stimulus-container"">
                    <img src=""images/causal_sequence/coin_causal/coin_causal_8.png"" class=""exp-image"">
                    <div class=""question-area"">
                        <p style=""font-size: 20px; font-weight: bold; margin: 0;"">Is there a person in this image?</p>
                    </div>
                </div>","0","main_experiment_trial","8","coin_causal","causal_sequence","chronological","","","","","","",""
"","","","","","html-keyboard-response","117","438476","0.0-117.0","920A1FA2AFDA4AFF8277D9B361205760","019dac63-9341-7049-bc90-2b893e7cb99c","019dac5b-243f-7307-af64-a10f53f1ef70","","null","
                <div class=""stimulus-container"">
                    <img src=""images/causal_sequence/coin_causal/coin_causal_9.png"" class=""exp-image"">
                    <div class=""question-area""></div> 
                </div>","null","","","","","","","","","","","",""
"","","","","","html-button-response","118","439810","0.0-118.0","920A1FA2AFDA4AFF8277D9B361205760","019dac63-9341-7049-bc90-2b893e7cb99c","019dac5b-243f-7307-af64-a10f53f1ef70","","1333","
                <div class=""stimulus-container"">
                    <img src=""images/causal_sequence/coin_causal/coin_causal_9.png"" class=""exp-image"">
                    <div class=""question-area"">
                        <p style=""font-size: 20px; font-weight: bold; margin: 0;"">Is there a person in this image?</p>
                    </div>
                </div>","0","main_experiment_trial","9","coin_causal","causal_sequence","chronological","","","","","","",""
"","","","","","html-keyboard-response","119","444819","0.0-119.0","920A1FA2AFDA4AFF8277D9B361205760","019dac63-9341-7049-bc90-2b893e7cb99c","019dac5b-243f-7307-af64-a10f53f1ef70","","null","
                <div class=""stimulus-container"">
                    <img src=""images/causal_sequence/coin_causal/coin_causal_ten.png"" class=""exp-image"">
                    <div class=""question-area""></div> 
                </div>","null","","","","","","","","","","","",""
"","","","","","html-button-response","120","447826","0.0-120.0","920A1FA2AFDA4AFF8277D9B361205760","019dac63-9341-7049-bc90-2b893e7cb99c","019dac5b-243f-7307-af64-a10f53f1ef70","","null","
                <div class=""stimulus-container"">
                    <img src=""images/causal_sequence/coin_causal/coin_causal_ten.png"" class=""exp-image"">
                    <div class=""question-area"">
                        <p style=""font-size: 20px; font-weight: bold; margin: 0;"">Is there a person in this image?</p>
                    </div>
                </div>","null","main_experiment_trial","ten","coin_causal","causal_sequence","chronological","","","","","","",""
"","","","","","html-keyboard-response","121","452841","0.0-121.0","920A1FA2AFDA4AFF8277D9B361205760","019dac63-9341-7049-bc90-2b893e7cb99c","019dac5b-243f-7307-af64-a10f53f1ef70","","null","<div style=""background-color: white; width: 100vw; height: 100vh;""></div>","null","","","","","","","","","","","",""
"","","","","","html-keyboard-response","122","457851","0.0-122.0","920A1FA2AFDA4AFF8277D9B361205760","019dac63-9341-7049-bc90-2b893e7cb99c","019dac5b-243f-7307-af64-a10f53f1ef70","","null","
                <div class=""stimulus-container"">
                    <img src=""images/causal_sequence/saving_a_cat_causal/saving_a_cat_causal_1.png"" class=""exp-image"">
                    <div class=""question-area""></div> 
                </div>","null","","","","","","","","","","","",""
"","","","","","html-button-response","123","458570","0.0-123.0","920A1FA2AFDA4AFF8277D9B361205760","019dac63-9341-7049-bc90-2b893e7cb99c","019dac5b-243f-7307-af64-a10f53f1ef70","","718","
                <div class=""stimulus-container"">
                    <img src=""images/causal_sequence/saving_a_cat_causal/saving_a_cat_causal_1.png"" class=""exp-image"">
                    <div class=""question-area"">
                        <p style=""font-size: 20px; font-weight: bold; margin: 0;"">Is there a person in this image?</p>
                    </div>
                </div>","0","main_experiment_trial","1","saving_a_cat_causal","causal_sequence","chronological","","","","","","",""
"","","","","","html-keyboard-response","124","463577","0.0-124.0","920A1FA2AFDA4AFF8277D9B361205760","019dac63-9341-7049-bc90-2b893e7cb99c","019dac5b-243f-7307-af64-a10f53f1ef70","","null","
                <div class=""stimulus-container"">
                    <img src=""images/causal_sequence/saving_a_cat_causal/saving_a_cat_causal_2.png"" class=""exp-image"">
                    <div class=""question-area""></div> 
                </div>","null","","","","","","","","","","","",""
"","","","","","html-button-response","125","464938","0.0-125.0","920A1FA2AFDA4AFF8277D9B361205760","019dac63-9341-7049-bc90-2b893e7cb99c","019dac5b-243f-7307-af64-a10f53f1ef70","","1360","
                <div class=""stimulus-container"">
                    <img src=""images/causal_sequence/saving_a_cat_causal/saving_a_cat_causal_2.png"" class=""exp-image"">
                    <div class=""question-area"">
                        <p style=""font-size: 20px; font-weight: bold; margin: 0;"">Is there a person in this image?</p>
                    </div>
                </div>","1","main_experiment_trial","2","saving_a_cat_causal","causal_sequence","chronological","","","","","","",""
"","","","","","html-keyboard-response","126","469951","0.0-126.0","920A1FA2AFDA4AFF8277D9B361205760","019dac63-9341-7049-bc90-2b893e7cb99c","019dac5b-243f-7307-af64-a10f53f1ef70","","null","
                <div class=""stimulus-container"">
                    <img src=""images/causal_sequence/saving_a_cat_causal/saving_a_cat_causal_3.png"" class=""exp-image"">
                    <div class=""question-area""></div> 
                </div>","null","","","","","","","","","","","",""
"","","","","","html-button-response","127","471042","0.0-127.0","920A1FA2AFDA4AFF8277D9B361205760","019dac63-9341-7049-bc90-2b893e7cb99c","019dac5b-243f-7307-af64-a10f53f1ef70","","1090","
                <div class=""stimulus-container"">
                    <img src=""images/causal_sequence/saving_a_cat_causal/saving_a_cat_causal_3.png"" class=""exp-image"">
                    <div class=""question-area"">
                        <p style=""font-size: 20px; font-weight: bold; margin: 0;"">Is there a person in this image?</p>
                    </div>
                </div>","1","main_experiment_trial","3","saving_a_cat_causal","causal_sequence","chronological","","","","","","",""
"","","","","","html-keyboard-response","128","476051","0.0-128.0","920A1FA2AFDA4AFF8277D9B361205760","019dac63-9341-7049-bc90-2b893e7cb99c","019dac5b-243f-7307-af64-a10f53f1ef70","","null","
                <div class=""stimulus-container"">
                    <img src=""images/causal_sequence/saving_a_cat_causal/saving_a_cat_causal_4.png"" class=""exp-image"">
                    <div class=""question-area""></div> 
                </div>","null","","","","","","","","","","","",""
"","","","","","html-button-response","129","477434","0.0-129.0","920A1FA2AFDA4AFF8277D9B361205760","019dac63-9341-7049-bc90-2b893e7cb99c","019dac5b-243f-7307-af64-a10f53f1ef70","","1382","
                <div class=""stimulus-container"">
                    <img src=""images/causal_sequence/saving_a_cat_causal/saving_a_cat_causal_4.png"" class=""exp-image"">
                    <div class=""question-area"">
                        <p style=""font-size: 20px; font-weight: bold; margin: 0;"">Is there a person in this image?</p>
                    </div>
                </div>","0","main_experiment_trial","4","saving_a_cat_causal","causal_sequence","chronological","","","","","","",""
"","","","","","html-keyboard-response","130","482443","0.0-130.0","920A1FA2AFDA4AFF8277D9B361205760","019dac63-9341-7049-bc90-2b893e7cb99c","019dac5b-243f-7307-af64-a10f53f1ef70","","null","
                <div class=""stimulus-container"">
                    <img src=""images/causal_sequence/saving_a_cat_causal/saving_a_cat_causal_5.png"" class=""exp-image"">
                    <div class=""question-area""></div> 
                </div>","null","","","","","","","","","","","",""
"","","","","","html-button-response","131","484474","0.0-131.0","920A1FA2AFDA4AFF8277D9B361205760","019dac63-9341-7049-bc90-2b893e7cb99c","019dac5b-243f-7307-af64-a10f53f1ef70","","2030","
                <div class=""stimulus-container"">
                    <img src=""images/causal_sequence/saving_a_cat_causal/saving_a_cat_causal_5.png"" class=""exp-image"">
                    <div class=""question-area"">
                        <p style=""font-size: 20px; font-weight: bold; margin: 0;"">Is there a person in this image?</p>
                    </div>
                </div>","0","main_experiment_trial","5","saving_a_cat_causal","causal_sequence","chronological","","","","","","",""
"","","","","","html-keyboard-response","132","489487","0.0-132.0","920A1FA2AFDA4AFF8277D9B361205760","019dac63-9341-7049-bc90-2b893e7cb99c","019dac5b-243f-7307-af64-a10f53f1ef70","","null","
                <div class=""stimulus-container"">
                    <img src=""images/causal_sequence/saving_a_cat_causal/saving_a_cat_causal_6.png"" class=""exp-image"">
                    <div class=""question-area""></div> 
                </div>","null","","","","","","","","","","","",""
"","","","","","html-button-response","133","490730","0.0-133.0","920A1FA2AFDA4AFF8277D9B361205760","019dac63-9341-7049-bc90-2b893e7cb99c","019dac5b-243f-7307-af64-a10f53f1ef70","","1243","
                <div class=""stimulus-container"">
                    <img src=""images/causal_sequence/saving_a_cat_causal/saving_a_cat_causal_6.png"" class=""exp-image"">
                    <div class=""question-area"">
                        <p style=""font-size: 20px; font-weight: bold; margin: 0;"">Is there a person in this image?</p>
                    </div>
                </div>","0","main_experiment_trial","6","saving_a_cat_causal","causal_sequence","chronological","","","","","","",""
"","","","","","html-keyboard-response","134","495738","0.0-134.0","920A1FA2AFDA4AFF8277D9B361205760","019dac63-9341-7049-bc90-2b893e7cb99c","019dac5b-243f-7307-af64-a10f53f1ef70","","null","
                <div class=""stimulus-container"">
                    <img src=""images/causal_sequence/saving_a_cat_causal/saving_a_cat_causal_7.png"" class=""exp-image"">
                    <div class=""question-area""></div> 
                </div>","null","","","","","","","","","","","",""
"","","","","","html-button-response","135","497250","0.0-135.0","920A1FA2AFDA4AFF8277D9B361205760","019dac63-9341-7049-bc90-2b893e7cb99c","019dac5b-243f-7307-af64-a10f53f1ef70","","1512","
                <div class=""stimulus-container"">
                    <img src=""images/causal_sequence/saving_a_cat_causal/saving_a_cat_causal_7.png"" class=""exp-image"">
                    <div class=""question-area"">
                        <p style=""font-size: 20px; font-weight: bold; margin: 0;"">Is there a person in this image?</p>
                    </div>
                </div>","0","main_experiment_trial","7","saving_a_cat_causal","causal_sequence","chronological","","","","","","",""
"","","","","","html-keyboard-response","136","502255","0.0-136.0","920A1FA2AFDA4AFF8277D9B361205760","019dac63-9341-7049-bc90-2b893e7cb99c","019dac5b-243f-7307-af64-a10f53f1ef70","","null","
                <div class=""stimulus-container"">
                    <img src=""images/causal_sequence/saving_a_cat_causal/saving_a_cat_causal_8.png"" class=""exp-image"">
                    <div class=""question-area""></div> 
                </div>","null","","","","","","","","","","","",""
"","","","","","html-button-response","137","503074","0.0-137.0","920A1FA2AFDA4AFF8277D9B361205760","019dac63-9341-7049-bc90-2b893e7cb99c","019dac5b-243f-7307-af64-a10f53f1ef70","","818","
                <div class=""stimulus-container"">
                    <img src=""images/causal_sequence/saving_a_cat_causal/saving_a_cat_causal_8.png"" class=""exp-image"">
                    <div class=""question-area"">
                        <p style=""font-size: 20px; font-weight: bold; margin: 0;"">Is there a person in this image?</p>
                    </div>
                </div>","0","main_experiment_trial","8","saving_a_cat_causal","causal_sequence","chronological","","","","","","",""
"","","","","","html-keyboard-response","138","508087","0.0-138.0","920A1FA2AFDA4AFF8277D9B361205760","019dac63-9341-7049-bc90-2b893e7cb99c","019dac5b-243f-7307-af64-a10f53f1ef70","","null","
                <div class=""stimulus-container"">
                    <img src=""images/causal_sequence/saving_a_cat_causal/saving_a_cat_causal_9.png"" class=""exp-image"">
                    <div class=""question-area""></div> 
                </div>","null","","","","","","","","","","","",""
"","","","","","html-button-response","139","510098","0.0-139.0","920A1FA2AFDA4AFF8277D9B361205760","019dac63-9341-7049-bc90-2b893e7cb99c","019dac5b-243f-7307-af64-a10f53f1ef70","","2010","
                <div class=""stimulus-container"">
                    <img src=""images/causal_sequence/saving_a_cat_causal/saving_a_cat_causal_9.png"" class=""exp-image"">
                    <div class=""question-area"">
                        <p style=""font-size: 20px; font-weight: bold; margin: 0;"">Is there a person in this image?</p>
                    </div>
                </div>","0","main_experiment_trial","9","saving_a_cat_causal","causal_sequence","chronological","","","","","","",""
"","","","","","html-keyboard-response","140","515105","0.0-140.0","920A1FA2AFDA4AFF8277D9B361205760","019dac63-9341-7049-bc90-2b893e7cb99c","019dac5b-243f-7307-af64-a10f53f1ef70","","null","
                <div class=""stimulus-container"">
                    <img src=""images/causal_sequence/saving_a_cat_causal/saving_a_cat_causal_ten.png"" class=""exp-image"">
                    <div class=""question-area""></div> 
                </div>","null","","","","","","","","","","","",""
"","","","","","html-button-response","141","517322","0.0-141.0","920A1FA2AFDA4AFF8277D9B361205760","019dac63-9341-7049-bc90-2b893e7cb99c","019dac5b-243f-7307-af64-a10f53f1ef70","","2216","
                <div class=""stimulus-container"">
                    <img src=""images/causal_sequence/saving_a_cat_causal/saving_a_cat_causal_ten.png"" class=""exp-image"">
                    <div class=""question-area"">
                        <p style=""font-size: 20px; font-weight: bold; margin: 0;"">Is there a person in this image?</p>
                    </div>
                </div>","0","main_experiment_trial","ten","saving_a_cat_causal","causal_sequence","chronological","","","","","","",""
"","","","","","html-keyboard-response","142","522328","0.0-142.0","920A1FA2AFDA4AFF8277D9B361205760","019dac63-9341-7049-bc90-2b893e7cb99c","019dac5b-243f-7307-af64-a10f53f1ef70","","null","<div style=""background-color: white; width: 100vw; height: 100vh;""></div>","null","","","","","","","","","","","",""
"","","","","","html-keyboard-response","143","527339","0.0-143.0","920A1FA2AFDA4AFF8277D9B361205760","019dac63-9341-7049-bc90-2b893e7cb99c","019dac5b-243f-7307-af64-a10f53f1ef70","","null","
                <div class=""stimulus-container"">
                    <img src=""images/semantic_sequence/maintaining_a_car_semantic/maintaining_a_car_semantic_1.png"" class=""exp-image"">
                    <div class=""question-area""></div> 
                </div>","null","","","","","","","","","","","",""
"","","","","","html-button-response","144","528874","0.0-144.0","920A1FA2AFDA4AFF8277D9B361205760","019dac63-9341-7049-bc90-2b893e7cb99c","019dac5b-243f-7307-af64-a10f53f1ef70","","1534","
                <div class=""stimulus-container"">
                    <img src=""images/semantic_sequence/maintaining_a_car_semantic/maintaining_a_car_semantic_1.png"" class=""exp-image"">
                    <div class=""question-area"">
                        <p style=""font-size: 20px; font-weight: bold; margin: 0;"">Is there a person in this image?</p>
                    </div>
                </div>","0","main_experiment_trial","1","maintaining_a_car_semantic","semantic_sequence","chronological","","","","","","",""
"","","","","","html-keyboard-response","145","533888","0.0-145.0","920A1FA2AFDA4AFF8277D9B361205760","019dac63-9341-7049-bc90-2b893e7cb99c","019dac5b-243f-7307-af64-a10f53f1ef70","","null","
                <div class=""stimulus-container"">
                    <img src=""images/semantic_sequence/maintaining_a_car_semantic/maintaining_a_car_semantic_2.png"" class=""exp-image"">
                    <div class=""question-area""></div> 
                </div>","null","","","","","","","","","","","",""
"","","","","","html-button-response","146","535762","0.0-146.0","920A1FA2AFDA4AFF8277D9B361205760","019dac63-9341-7049-bc90-2b893e7cb99c","019dac5b-243f-7307-af64-a10f53f1ef70","","1873","
                <div class=""stimulus-container"">
                    <img src=""images/semantic_sequence/maintaining_a_car_semantic/maintaining_a_car_semantic_2.png"" class=""exp-image"">
                    <div class=""question-area"">
                        <p style=""font-size: 20px; font-weight: bold; margin: 0;"">Is there a person in this image?</p>
                    </div>
                </div>","0","main_experiment_trial","2","maintaining_a_car_semantic","semantic_sequence","chronological","","","","","","",""
"","","","","","html-keyboard-response","147","540769","0.0-147.0","920A1FA2AFDA4AFF8277D9B361205760","019dac63-9341-7049-bc90-2b893e7cb99c","019dac5b-243f-7307-af64-a10f53f1ef70","","null","
                <div class=""stimulus-container"">
                    <img src=""images/semantic_sequence/maintaining_a_car_semantic/maintaining_a_car_semantic_3.png"" class=""exp-image"">
                    <div class=""question-area""></div> 
                </div>","null","","","","","","","","","","","",""
"","","","","","html-button-response","148","541714","0.0-148.0","920A1FA2AFDA4AFF8277D9B361205760","019dac63-9341-7049-bc90-2b893e7cb99c","019dac5b-243f-7307-af64-a10f53f1ef70","","944","
                <div class=""stimulus-container"">
                    <img src=""images/semantic_sequence/maintaining_a_car_semantic/maintaining_a_car_semantic_3.png"" class=""exp-image"">
                    <div class=""question-area"">
                        <p style=""font-size: 20px; font-weight: bold; margin: 0;"">Is there a person in this image?</p>
                    </div>
                </div>","0","main_experiment_trial","3","maintaining_a_car_semantic","semantic_sequence","chronological","","","","","","",""
"","","","","","html-keyboard-response","149","546723","0.0-149.0","920A1FA2AFDA4AFF8277D9B361205760","019dac63-9341-7049-bc90-2b893e7cb99c","019dac5b-243f-7307-af64-a10f53f1ef70","","null","
                <div class=""stimulus-container"">
                    <img src=""images/semantic_sequence/maintaining_a_car_semantic/maintaining_a_car_semantic_4.png"" class=""exp-image"">
                    <div class=""question-area""></div> 
                </div>","null","","","","","","","","","","","",""
"","","","","","html-button-response","150","547906","0.0-150.0","920A1FA2AFDA4AFF8277D9B361205760","019dac63-9341-7049-bc90-2b893e7cb99c","019dac5b-243f-7307-af64-a10f53f1ef70","","1182","
                <div class=""stimulus-container"">
                    <img src=""images/semantic_sequence/maintaining_a_car_semantic/maintaining_a_car_semantic_4.png"" class=""exp-image"">
                    <div class=""question-area"">
                        <p style=""font-size: 20px; font-weight: bold; margin: 0;"">Is there a person in this image?</p>
                    </div>
                </div>","0","main_experiment_trial","4","maintaining_a_car_semantic","semantic_sequence","chronological","","","","","","",""
"","","","","","html-keyboard-response","151","552911","0.0-151.0","920A1FA2AFDA4AFF8277D9B361205760","019dac63-9341-7049-bc90-2b893e7cb99c","019dac5b-243f-7307-af64-a10f53f1ef70","","null","
                <div class=""stimulus-container"">
                    <img src=""images/semantic_sequence/maintaining_a_car_semantic/maintaining_a_car_semantic_5.png"" class=""exp-image"">
                    <div class=""question-area""></div> 
                </div>","null","","","","","","","","","","","",""
"","","","","","html-button-response","152","555578","0.0-152.0","920A1FA2AFDA4AFF8277D9B361205760","019dac63-9341-7049-bc90-2b893e7cb99c","019dac5b-243f-7307-af64-a10f53f1ef70","","2666","
                <div class=""stimulus-container"">
                    <img src=""images/semantic_sequence/maintaining_a_car_semantic/maintaining_a_car_semantic_5.png"" class=""exp-image"">
                    <div class=""question-area"">
                        <p style=""font-size: 20px; font-weight: bold; margin: 0;"">Is there a person in this image?</p>
                    </div>
                </div>","0","main_experiment_trial","5","maintaining_a_car_semantic","semantic_sequence","chronological","","","","","","",""
"","","","","","html-keyboard-response","153","560590","0.0-153.0","920A1FA2AFDA4AFF8277D9B361205760","019dac63-9341-7049-bc90-2b893e7cb99c","019dac5b-243f-7307-af64-a10f53f1ef70","","null","
                <div class=""stimulus-container"">
                    <img src=""images/semantic_sequence/maintaining_a_car_semantic/maintaining_a_car_semantic_6.png"" class=""exp-image"">
                    <div class=""question-area""></div> 
                </div>","null","","","","","","","","","","","",""
"","","","","","html-button-response","154","561898","0.0-154.0","920A1FA2AFDA4AFF8277D9B361205760","019dac63-9341-7049-bc90-2b893e7cb99c","019dac5b-243f-7307-af64-a10f53f1ef70","","1307","
                <div class=""stimulus-container"">
                    <img src=""images/semantic_sequence/maintaining_a_car_semantic/maintaining_a_car_semantic_6.png"" class=""exp-image"">
                    <div class=""question-area"">
                        <p style=""font-size: 20px; font-weight: bold; margin: 0;"">Is there a person in this image?</p>
                    </div>
                </div>","0","main_experiment_trial","6","maintaining_a_car_semantic","semantic_sequence","chronological","","","","","","",""
"","","","","","html-keyboard-response","155","566907","0.0-155.0","920A1FA2AFDA4AFF8277D9B361205760","019dac63-9341-7049-bc90-2b893e7cb99c","019dac5b-243f-7307-af64-a10f53f1ef70","","null","
                <div class=""stimulus-container"">
                    <img src=""images/semantic_sequence/maintaining_a_car_semantic/maintaining_a_car_semantic_7.png"" class=""exp-image"">
                    <div class=""question-area""></div> 
                </div>","null","","","","","","","","","","","",""
"","","","","","html-button-response","156","567994","0.0-156.0","920A1FA2AFDA4AFF8277D9B361205760","019dac63-9341-7049-bc90-2b893e7cb99c","019dac5b-243f-7307-af64-a10f53f1ef70","","1086","
                <div class=""stimulus-container"">
                    <img src=""images/semantic_sequence/maintaining_a_car_semantic/maintaining_a_car_semantic_7.png"" class=""exp-image"">
                    <div class=""question-area"">
                        <p style=""font-size: 20px; font-weight: bold; margin: 0;"">Is there a person in this image?</p>
                    </div>
                </div>","0","main_experiment_trial","7","maintaining_a_car_semantic","semantic_sequence","chronological","","","","","","",""
"","","","","","html-keyboard-response","157","573006","0.0-157.0","920A1FA2AFDA4AFF8277D9B361205760","019dac63-9341-7049-bc90-2b893e7cb99c","019dac5b-243f-7307-af64-a10f53f1ef70","","null","
                <div class=""stimulus-container"">
                    <img src=""images/semantic_sequence/maintaining_a_car_semantic/maintaining_a_car_semantic_8.png"" class=""exp-image"">
                    <div class=""question-area""></div> 
                </div>","null","","","","","","","","","","","",""
"","","","","","html-button-response","158","574706","0.0-158.0","920A1FA2AFDA4AFF8277D9B361205760","019dac63-9341-7049-bc90-2b893e7cb99c","019dac5b-243f-7307-af64-a10f53f1ef70","","1698","
                <div class=""stimulus-container"">
                    <img src=""images/semantic_sequence/maintaining_a_car_semantic/maintaining_a_car_semantic_8.png"" class=""exp-image"">
                    <div class=""question-area"">
                        <p style=""font-size: 20px; font-weight: bold; margin: 0;"">Is there a person in this image?</p>
                    </div>
                </div>","0","main_experiment_trial","8","maintaining_a_car_semantic","semantic_sequence","chronological","","","","","","",""
"","","","","","html-keyboard-response","159","579708","0.0-159.0","920A1FA2AFDA4AFF8277D9B361205760","019dac63-9341-7049-bc90-2b893e7cb99c","019dac5b-243f-7307-af64-a10f53f1ef70","","null","
                <div class=""stimulus-container"">
                    <img src=""images/semantic_sequence/maintaining_a_car_semantic/maintaining_a_car_semantic_9.png"" class=""exp-image"">
                    <div class=""question-area""></div> 
                </div>","null","","","","","","","","","","","",""
"","","","","","html-button-response","160","581410","0.0-160.0","920A1FA2AFDA4AFF8277D9B361205760","019dac63-9341-7049-bc90-2b893e7cb99c","019dac5b-243f-7307-af64-a10f53f1ef70","","1701","
                <div class=""stimulus-container"">
                    <img src=""images/semantic_sequence/maintaining_a_car_semantic/maintaining_a_car_semantic_9.png"" class=""exp-image"">
                    <div class=""question-area"">
                        <p style=""font-size: 20px; font-weight: bold; margin: 0;"">Is there a person in this image?</p>
                    </div>
                </div>","0","main_experiment_trial","9","maintaining_a_car_semantic","semantic_sequence","chronological","","","","","","",""
"","","","","","html-keyboard-response","161","586424","0.0-161.0","920A1FA2AFDA4AFF8277D9B361205760","019dac63-9341-7049-bc90-2b893e7cb99c","019dac5b-243f-7307-af64-a10f53f1ef70","","null","
                <div class=""stimulus-container"">
                    <img src=""images/semantic_sequence/maintaining_a_car_semantic/maintaining_a_car_semantic_ten.png"" class=""exp-image"">
                    <div class=""question-area""></div> 
                </div>","null","","","","","","","","","","","",""
"","","","","","html-button-response","162","589073","0.0-162.0","920A1FA2AFDA4AFF8277D9B361205760","019dac63-9341-7049-bc90-2b893e7cb99c","019dac5b-243f-7307-af64-a10f53f1ef70","","2649","
                <div class=""stimulus-container"">
                    <img src=""images/semantic_sequence/maintaining_a_car_semantic/maintaining_a_car_semantic_ten.png"" class=""exp-image"">
                    <div class=""question-area"">
                        <p style=""font-size: 20px; font-weight: bold; margin: 0;"">Is there a person in this image?</p>
                    </div>
                </div>","0","main_experiment_trial","ten","maintaining_a_car_semantic","semantic_sequence","chronological","","","","","","",""
"","","","","","html-keyboard-response","163","594080","0.0-163.0","920A1FA2AFDA4AFF8277D9B361205760","019dac63-9341-7049-bc90-2b893e7cb99c","019dac5b-243f-7307-af64-a10f53f1ef70","","null","<div style=""background-color: white; width: 100vw; height: 100vh;""></div>","null","","","","","","","","","","","",""
"","","","","","html-keyboard-response","164","599090","0.0-164.0","920A1FA2AFDA4AFF8277D9B361205760","019dac63-9341-7049-bc90-2b893e7cb99c","019dac5b-243f-7307-af64-a10f53f1ef70","","null","
                <div class=""stimulus-container"">
                    <img src=""images/causal_sequence/museum_causal/museum_causal_1.png"" class=""exp-image"">
                    <div class=""question-area""></div> 
                </div>","null","","","","","","","","","","","",""
"","","","","","html-button-response","165","600634","0.0-165.0","920A1FA2AFDA4AFF8277D9B361205760","019dac63-9341-7049-bc90-2b893e7cb99c","019dac5b-243f-7307-af64-a10f53f1ef70","","1542","
                <div class=""stimulus-container"">
                    <img src=""images/causal_sequence/museum_causal/museum_causal_1.png"" class=""exp-image"">
                    <div class=""question-area"">
                        <p style=""font-size: 20px; font-weight: bold; margin: 0;"">Is there a person in this image?</p>
                    </div>
                </div>","0","main_experiment_trial","1","museum_causal","causal_sequence","chronological","","","","","","",""
"","","","","","html-keyboard-response","166","605642","0.0-166.0","920A1FA2AFDA4AFF8277D9B361205760","019dac63-9341-7049-bc90-2b893e7cb99c","019dac5b-243f-7307-af64-a10f53f1ef70","","null","
                <div class=""stimulus-container"">
                    <img src=""images/causal_sequence/museum_causal/museum_causal_2.png"" class=""exp-image"">
                    <div class=""question-area""></div> 
                </div>","null","","","","","","","","","","","",""
"","","","","","html-button-response","167","606802","0.0-167.0","920A1FA2AFDA4AFF8277D9B361205760","019dac63-9341-7049-bc90-2b893e7cb99c","019dac5b-243f-7307-af64-a10f53f1ef70","","1159","
                <div class=""stimulus-container"">
                    <img src=""images/causal_sequence/museum_causal/museum_causal_2.png"" class=""exp-image"">
                    <div class=""question-area"">
                        <p style=""font-size: 20px; font-weight: bold; margin: 0;"">Is there a person in this image?</p>
                    </div>
                </div>","0","main_experiment_trial","2","museum_causal","causal_sequence","chronological","","","","","","",""
"","","","","","html-keyboard-response","168","611804","0.0-168.0","920A1FA2AFDA4AFF8277D9B361205760","019dac63-9341-7049-bc90-2b893e7cb99c","019dac5b-243f-7307-af64-a10f53f1ef70","","null","
                <div class=""stimulus-container"">
                    <img src=""images/causal_sequence/museum_causal/museum_causal_3.png"" class=""exp-image"">
                    <div class=""question-area""></div> 
                </div>","null","","","","","","","","","","","",""
"","","","","","html-button-response","169","613625","0.0-169.0","920A1FA2AFDA4AFF8277D9B361205760","019dac63-9341-7049-bc90-2b893e7cb99c","019dac5b-243f-7307-af64-a10f53f1ef70","","1821","
                <div class=""stimulus-container"">
                    <img src=""images/causal_sequence/museum_causal/museum_causal_3.png"" class=""exp-image"">
                    <div class=""question-area"">
                        <p style=""font-size: 20px; font-weight: bold; margin: 0;"">Is there a person in this image?</p>
                    </div>
                </div>","0","main_experiment_trial","3","museum_causal","causal_sequence","chronological","","","","","","",""
"","","","","","html-keyboard-response","170","618631","0.0-170.0","920A1FA2AFDA4AFF8277D9B361205760","019dac63-9341-7049-bc90-2b893e7cb99c","019dac5b-243f-7307-af64-a10f53f1ef70","","null","
                <div class=""stimulus-container"">
                    <img src=""images/causal_sequence/museum_causal/museum_causal_4.png"" class=""exp-image"">
                    <div class=""question-area""></div> 
                </div>","null","","","","","","","","","","","",""
"","","","","","html-button-response","171","619425","0.0-171.0","920A1FA2AFDA4AFF8277D9B361205760","019dac63-9341-7049-bc90-2b893e7cb99c","019dac5b-243f-7307-af64-a10f53f1ef70","","794","
                <div class=""stimulus-container"">
                    <img src=""images/causal_sequence/museum_causal/museum_causal_4.png"" class=""exp-image"">
                    <div class=""question-area"">
                        <p style=""font-size: 20px; font-weight: bold; margin: 0;"">Is there a person in this image?</p>
                    </div>
                </div>","1","main_experiment_trial","4","museum_causal","causal_sequence","chronological","","","","","","",""
"","","","","","html-keyboard-response","172","624439","0.0-172.0","920A1FA2AFDA4AFF8277D9B361205760","019dac63-9341-7049-bc90-2b893e7cb99c","019dac5b-243f-7307-af64-a10f53f1ef70","","null","
                <div class=""stimulus-container"">
                    <img src=""images/causal_sequence/museum_causal/museum_causal_5.png"" class=""exp-image"">
                    <div class=""question-area""></div> 
                </div>","null","","","","","","","","","","","",""
"","","","","","html-button-response","173","625986","0.0-173.0","920A1FA2AFDA4AFF8277D9B361205760","019dac63-9341-7049-bc90-2b893e7cb99c","019dac5b-243f-7307-af64-a10f53f1ef70","","1546","
                <div class=""stimulus-container"">
                    <img src=""images/causal_sequence/museum_causal/museum_causal_5.png"" class=""exp-image"">
                    <div class=""question-area"">
                        <p style=""font-size: 20px; font-weight: bold; margin: 0;"">Is there a person in this image?</p>
                    </div>
                </div>","0","main_experiment_trial","5","museum_causal","causal_sequence","chronological","","","","","","",""
"","","","","","html-keyboard-response","174","630993","0.0-174.0","920A1FA2AFDA4AFF8277D9B361205760","019dac63-9341-7049-bc90-2b893e7cb99c","019dac5b-243f-7307-af64-a10f53f1ef70","","null","
                <div class=""stimulus-container"">
                    <img src=""images/causal_sequence/museum_causal/museum_causal_6.png"" class=""exp-image"">
