"success","timeout","failed_images","failed_audio","failed_video","trial_type","trial_index","time_elapsed","internal_node_id","subject_id","study_id","session_id","view_history","rt","stimulus","response","task","image_index","folder","valuable_image_index","reward_type","valuable_X","chosen_image_index","distance_from_X"
"false","false","[]","[]","[]","preload","0","3833","0.0-0.0","0FD131778B6A42B7A1FF3C1ED3C55BA2","019ce87b-d0ce-7773-a5df-97ce5a960364","019ce875-66c2-7f0b-b5e8-086c75889f84","","","","","","","","","","","",""
"","","","","","instructions","1","19997","0.0-1.0","0FD131778B6A42B7A1FF3C1ED3C55BA2","019ce87b-d0ce-7773-a5df-97ce5a960364","019ce875-66c2-7f0b-b5e8-086c75889f84","[{""page_index"":0,""viewing_time"":16161}]","16162","","","","","","","","","",""
"","","","","","instructions","2","27015","0.0-2.0","0FD131778B6A42B7A1FF3C1ED3C55BA2","019ce87b-d0ce-7773-a5df-97ce5a960364","019ce875-66c2-7f0b-b5e8-086c75889f84","[{""page_index"":0,""viewing_time"":7017}]","7017","","","","","","","","","",""
"true","","","","","fullscreen","3","30115","0.0-3.0","0FD131778B6A42B7A1FF3C1ED3C55BA2","019ce87b-d0ce-7773-a5df-97ce5a960364","019ce875-66c2-7f0b-b5e8-086c75889f84","","2096","","","","","","","","","",""
"","","","","","instructions","4","44580","0.0-4.0","0FD131778B6A42B7A1FF3C1ED3C55BA2","019ce87b-d0ce-7773-a5df-97ce5a960364","019ce875-66c2-7f0b-b5e8-086c75889f84","[{""page_index"":0,""viewing_time"":14465}]","14465","","","","","","","","","",""
"","","","","","instructions","5","65448","0.0-5.0","0FD131778B6A42B7A1FF3C1ED3C55BA2","019ce87b-d0ce-7773-a5df-97ce5a960364","019ce875-66c2-7f0b-b5e8-086c75889f84","[{""page_index"":0,""viewing_time"":20866}]","20867","","","","","","","","","",""
"","","","","","html-keyboard-response","6","69450","0.0-6.0","0FD131778B6A42B7A1FF3C1ED3C55BA2","019ce87b-d0ce-7773-a5df-97ce5a960364","019ce875-66c2-7f0b-b5e8-086c75889f84","","null","
                <div class=""stimulus-container"">
                    <img src=""images/instructions/movie_1.png"" class=""exp-image"">
                    <div class=""question-area""></div> 
                </div>","null","","","","","","","",""
"","","","","","html-button-response","7","71482","0.0-7.0","0FD131778B6A42B7A1FF3C1ED3C55BA2","019ce87b-d0ce-7773-a5df-97ce5a960364","019ce875-66c2-7f0b-b5e8-086c75889f84","","2029","
                <div class=""stimulus-container"">
                    <img src=""images/instructions/movie_1.png"" class=""exp-image"">
                    <div class=""question-area"">
                        <p style=""font-size: 20px; font-weight: bold; margin: 0;"">Was there a person in this image?</p>
                    </div>
                </div>","0","example_question","1","","","","","",""
"","","","","","html-keyboard-response","8","75484","0.0-8.0","0FD131778B6A42B7A1FF3C1ED3C55BA2","019ce87b-d0ce-7773-a5df-97ce5a960364","019ce875-66c2-7f0b-b5e8-086c75889f84","","null","
                <div class=""stimulus-container"">
                    <img src=""images/instructions/movie_2.png"" class=""exp-image"">
                    <div class=""question-area""></div> 
                </div>","null","","","","","","","",""
"","","","","","html-button-response","9","76915","0.0-9.0","0FD131778B6A42B7A1FF3C1ED3C55BA2","019ce87b-d0ce-7773-a5df-97ce5a960364","019ce875-66c2-7f0b-b5e8-086c75889f84","","1430","
                <div class=""stimulus-container"">
                    <img src=""images/instructions/movie_2.png"" class=""exp-image"">
                    <div class=""question-area"">
                        <p style=""font-size: 20px; font-weight: bold; margin: 0;"">Was there a person in this image?</p>
                    </div>
                </div>","0","example_question","2","","","","","",""
"","","","","","html-keyboard-response","10","80918","0.0-10.0","0FD131778B6A42B7A1FF3C1ED3C55BA2","019ce87b-d0ce-7773-a5df-97ce5a960364","019ce875-66c2-7f0b-b5e8-086c75889f84","","null","
                <div class=""stimulus-container"">
                    <img src=""images/instructions/movie_3.png"" class=""exp-image"">
                    <div class=""question-area""></div> 
                </div>","null","","","","","","","",""
"","","","","","html-button-response","11","82049","0.0-11.0","0FD131778B6A42B7A1FF3C1ED3C55BA2","019ce87b-d0ce-7773-a5df-97ce5a960364","019ce875-66c2-7f0b-b5e8-086c75889f84","","1129","
                <div class=""stimulus-container"">
                    <img src=""images/instructions/movie_3.png"" class=""exp-image"">
                    <div class=""question-area"">
                        <p style=""font-size: 20px; font-weight: bold; margin: 0;"">Was there a person in this image?</p>
                    </div>
                </div>","0","example_question","3","","","","","",""
"","","","","","html-keyboard-response","12","86050","0.0-12.0","0FD131778B6A42B7A1FF3C1ED3C55BA2","019ce87b-d0ce-7773-a5df-97ce5a960364","019ce875-66c2-7f0b-b5e8-086c75889f84","","null","
                <div class=""stimulus-container"">
                    <img src=""images/instructions/movie_4.png"" class=""exp-image"">
                    <div class=""question-area""></div> 
                </div>","null","","","","","","","",""
"","","","","","html-button-response","13","86881","0.0-13.0","0FD131778B6A42B7A1FF3C1ED3C55BA2","019ce87b-d0ce-7773-a5df-97ce5a960364","019ce875-66c2-7f0b-b5e8-086c75889f84","","829","
                <div class=""stimulus-container"">
                    <img src=""images/instructions/movie_4.png"" class=""exp-image"">
                    <div class=""question-area"">
                        <p style=""font-size: 20px; font-weight: bold; margin: 0;"">Was there a person in this image?</p>
                    </div>
                </div>","0","example_question","4","","","","","",""
"","","","","","instructions","14","89547","0.0-14.0","0FD131778B6A42B7A1FF3C1ED3C55BA2","019ce87b-d0ce-7773-a5df-97ce5a960364","019ce875-66c2-7f0b-b5e8-086c75889f84","[{""page_index"":0,""viewing_time"":2666}]","2666","","","","","","","","","",""
"","","","","","html-keyboard-response","15","90549","0.0-15.0","0FD131778B6A42B7A1FF3C1ED3C55BA2","019ce87b-d0ce-7773-a5df-97ce5a960364","019ce875-66c2-7f0b-b5e8-086c75889f84","","null","<div style=""background-color: gray; width: 100vw; height: 100vh;""></div>","null","","","","","","","",""
"","","","","","html-keyboard-response","16","95551","0.0-16.0","0FD131778B6A42B7A1FF3C1ED3C55BA2","019ce87b-d0ce-7773-a5df-97ce5a960364","019ce875-66c2-7f0b-b5e8-086c75889f84","","null","
                    <div class=""stimulus-container"">
                        <img src=""images/causal_sequence/dog_causal/dog_causal_1.png"" class=""exp-image"">
                        <div class=""question-area""></div> 
                    </div>","null","","","","","","","",""
"","","","","","html-button-response","17","96832","0.0-17.0","0FD131778B6A42B7A1FF3C1ED3C55BA2","019ce87b-d0ce-7773-a5df-97ce5a960364","019ce875-66c2-7f0b-b5e8-086c75889f84","","1279","
                    <div class=""stimulus-container"">
                        <img src=""images/causal_sequence/dog_causal/dog_causal_1.png"" class=""exp-image"">
                        <div class=""question-area"">
                            <p style=""font-size: 20px; font-weight: bold; margin: 0;"">Is there a person in this image?</p>
                        </div>
                    </div>","0","main_causal_task","1","dog_causal","","","","",""
"","","","","","html-keyboard-response","18","101834","0.0-18.0","0FD131778B6A42B7A1FF3C1ED3C55BA2","019ce87b-d0ce-7773-a5df-97ce5a960364","019ce875-66c2-7f0b-b5e8-086c75889f84","","null","
                    <div class=""stimulus-container"">
                        <img src=""images/causal_sequence/dog_causal/dog_causal_2.png"" class=""exp-image"">
                        <div class=""question-area""></div> 
                    </div>","null","","","","","","","",""
"","","","","","html-button-response","19","102846","0.0-19.0","0FD131778B6A42B7A1FF3C1ED3C55BA2","019ce87b-d0ce-7773-a5df-97ce5a960364","019ce875-66c2-7f0b-b5e8-086c75889f84","","1011","
                    <div class=""stimulus-container"">
                        <img src=""images/causal_sequence/dog_causal/dog_causal_2.png"" class=""exp-image"">
                        <div class=""question-area"">
                            <p style=""font-size: 20px; font-weight: bold; margin: 0;"">Is there a person in this image?</p>
                        </div>
                    </div>","0","main_causal_task","2","dog_causal","","","","",""
"","","","","","html-keyboard-response","20","107848","0.0-20.0","0FD131778B6A42B7A1FF3C1ED3C55BA2","019ce87b-d0ce-7773-a5df-97ce5a960364","019ce875-66c2-7f0b-b5e8-086c75889f84","","null","
                    <div class=""stimulus-container"">
                        <img src=""images/causal_sequence/dog_causal/dog_causal_3.png"" class=""exp-image"">
                        <div class=""question-area""></div> 
                    </div>","null","","","","","","","",""
"","","","","","html-button-response","21","108698","0.0-21.0","0FD131778B6A42B7A1FF3C1ED3C55BA2","019ce87b-d0ce-7773-a5df-97ce5a960364","019ce875-66c2-7f0b-b5e8-086c75889f84","","849","
                    <div class=""stimulus-container"">
                        <img src=""images/causal_sequence/dog_causal/dog_causal_3.png"" class=""exp-image"">
                        <div class=""question-area"">
                            <p style=""font-size: 20px; font-weight: bold; margin: 0;"">Is there a person in this image?</p>
                        </div>
                    </div>","0","main_causal_task","3","dog_causal","","","","",""
"","","","","","html-keyboard-response","22","113700","0.0-22.0","0FD131778B6A42B7A1FF3C1ED3C55BA2","019ce87b-d0ce-7773-a5df-97ce5a960364","019ce875-66c2-7f0b-b5e8-086c75889f84","","null","
                    <div class=""stimulus-container"">
                        <img src=""images/causal_sequence/dog_causal/dog_causal_4.png"" class=""exp-image"">
                        <div class=""question-area""></div> 
                    </div>","null","","","","","","","",""
"","","","","","html-button-response","23","114415","0.0-23.0","0FD131778B6A42B7A1FF3C1ED3C55BA2","019ce87b-d0ce-7773-a5df-97ce5a960364","019ce875-66c2-7f0b-b5e8-086c75889f84","","712","
                    <div class=""stimulus-container"">
                        <img src=""images/causal_sequence/dog_causal/dog_causal_4.png"" class=""exp-image"">
                        <div class=""question-area"">
                            <p style=""font-size: 20px; font-weight: bold; margin: 0;"">Is there a person in this image?</p>
                        </div>
                    </div>","0","main_causal_task","4","dog_causal","","","","",""
"","","","","","html-keyboard-response","24","119416","0.0-24.0","0FD131778B6A42B7A1FF3C1ED3C55BA2","019ce87b-d0ce-7773-a5df-97ce5a960364","019ce875-66c2-7f0b-b5e8-086c75889f84","","null","
                    <div class=""stimulus-container"">
                        <img src=""images/causal_sequence/dog_causal/dog_causal_5.png"" class=""exp-image"">
                        <div class=""question-area""></div> 
                    </div>","null","","","","","","","",""
"","","","","","html-button-response","25","120198","0.0-25.0","0FD131778B6A42B7A1FF3C1ED3C55BA2","019ce87b-d0ce-7773-a5df-97ce5a960364","019ce875-66c2-7f0b-b5e8-086c75889f84","","780","
                    <div class=""stimulus-container"">
                        <img src=""images/causal_sequence/dog_causal/dog_causal_5.png"" class=""exp-image"">
                        <div class=""question-area"">
                            <p style=""font-size: 20px; font-weight: bold; margin: 0;"">Is there a person in this image?</p>
                        </div>
                    </div>","0","main_causal_task","5","dog_causal","","","","",""
"","","","","","html-keyboard-response","26","125199","0.0-26.0","0FD131778B6A42B7A1FF3C1ED3C55BA2","019ce87b-d0ce-7773-a5df-97ce5a960364","019ce875-66c2-7f0b-b5e8-086c75889f84","","null","
                    <div class=""stimulus-container"">
                        <img src=""images/causal_sequence/dog_causal/dog_causal_6.png"" class=""exp-image"">
                        <div class=""question-area""></div> 
                    </div>","null","","","","","","","",""
"","","","","","html-button-response","27","126265","0.0-27.0","0FD131778B6A42B7A1FF3C1ED3C55BA2","019ce87b-d0ce-7773-a5df-97ce5a960364","019ce875-66c2-7f0b-b5e8-086c75889f84","","1064","
                    <div class=""stimulus-container"">
                        <img src=""images/causal_sequence/dog_causal/dog_causal_6.png"" class=""exp-image"">
                        <div class=""question-area"">
                            <p style=""font-size: 20px; font-weight: bold; margin: 0;"">Is there a person in this image?</p>
                        </div>
                    </div>","0","main_causal_task","6","dog_causal","","","","",""
"","","","","","html-keyboard-response","28","131266","0.0-28.0","0FD131778B6A42B7A1FF3C1ED3C55BA2","019ce87b-d0ce-7773-a5df-97ce5a960364","019ce875-66c2-7f0b-b5e8-086c75889f84","","null","
                    <div class=""stimulus-container"">
                        <img src=""images/causal_sequence/dog_causal/dog_causal_7.png"" class=""exp-image"">
                        <div class=""question-area""></div> 
                    </div>","null","","","","","","","",""
"","","","","","html-button-response","29","132347","0.0-29.0","0FD131778B6A42B7A1FF3C1ED3C55BA2","019ce87b-d0ce-7773-a5df-97ce5a960364","019ce875-66c2-7f0b-b5e8-086c75889f84","","1080","
                    <div class=""stimulus-container"">
                        <img src=""images/causal_sequence/dog_causal/dog_causal_7.png"" class=""exp-image"">
                        <div class=""question-area"">
                            <p style=""font-size: 20px; font-weight: bold; margin: 0;"">Is there a person in this image?</p>
                        </div>
                    </div>","0","main_causal_task","7","dog_causal","","","","",""
"","","","","","html-keyboard-response","30","137349","0.0-30.0","0FD131778B6A42B7A1FF3C1ED3C55BA2","019ce87b-d0ce-7773-a5df-97ce5a960364","019ce875-66c2-7f0b-b5e8-086c75889f84","","null","
                    <div class=""stimulus-container"">
                        <img src=""images/causal_sequence/dog_causal/dog_causal_8.png"" class=""exp-image"">
                        <div class=""question-area""></div> 
                    </div>","null","","","","","","","",""
"","","","","","html-button-response","31","137947","0.0-31.0","0FD131778B6A42B7A1FF3C1ED3C55BA2","019ce87b-d0ce-7773-a5df-97ce5a960364","019ce875-66c2-7f0b-b5e8-086c75889f84","","596","
                    <div class=""stimulus-container"">
                        <img src=""images/causal_sequence/dog_causal/dog_causal_8.png"" class=""exp-image"">
                        <div class=""question-area"">
                            <p style=""font-size: 20px; font-weight: bold; margin: 0;"">Is there a person in this image?</p>
                        </div>
                    </div>","0","main_causal_task","8","dog_causal","","","","",""
"","","","","","html-keyboard-response","32","142949","0.0-32.0","0FD131778B6A42B7A1FF3C1ED3C55BA2","019ce87b-d0ce-7773-a5df-97ce5a960364","019ce875-66c2-7f0b-b5e8-086c75889f84","","null","
                    <div class=""stimulus-container"">
                        <img src=""images/causal_sequence/dog_causal/dog_causal_9.png"" class=""exp-image"">
                        <div class=""question-area""></div> 
                    </div>","null","","","","","","","",""
"","","","","","html-button-response","33","143631","0.0-33.0","0FD131778B6A42B7A1FF3C1ED3C55BA2","019ce87b-d0ce-7773-a5df-97ce5a960364","019ce875-66c2-7f0b-b5e8-086c75889f84","","679","
                    <div class=""stimulus-container"">
                        <img src=""images/causal_sequence/dog_causal/dog_causal_9.png"" class=""exp-image"">
                        <div class=""question-area"">
                            <p style=""font-size: 20px; font-weight: bold; margin: 0;"">Is there a person in this image?</p>
                        </div>
                    </div>","0","main_causal_task","9","dog_causal","","","","",""
"","","","","","html-keyboard-response","34","144633","0.0-34.0","0FD131778B6A42B7A1FF3C1ED3C55BA2","019ce87b-d0ce-7773-a5df-97ce5a960364","019ce875-66c2-7f0b-b5e8-086c75889f84","","null","<div style=""background-color: gray; width: 100vw; height: 100vh;""></div>","null","","","","","","","",""
"","","","","","html-keyboard-response","35","149636","0.0-35.0","0FD131778B6A42B7A1FF3C1ED3C55BA2","019ce87b-d0ce-7773-a5df-97ce5a960364","019ce875-66c2-7f0b-b5e8-086c75889f84","","null","
                    <div class=""stimulus-container"">
                        <img src=""images/causal_sequence/package_causal/package_causal_1.png"" class=""exp-image"">
                        <div class=""question-area""></div> 
                    </div>","null","","","","","","","",""
"","","","","","html-button-response","36","150448","0.0-36.0","0FD131778B6A42B7A1FF3C1ED3C55BA2","019ce87b-d0ce-7773-a5df-97ce5a960364","019ce875-66c2-7f0b-b5e8-086c75889f84","","811","
                    <div class=""stimulus-container"">
                        <img src=""images/causal_sequence/package_causal/package_causal_1.png"" class=""exp-image"">
                        <div class=""question-area"">
                            <p style=""font-size: 20px; font-weight: bold; margin: 0;"">Is there a person in this image?</p>
                        </div>
                    </div>","0","main_causal_task","1","package_causal","","","","",""
"","","","","","html-keyboard-response","37","155449","0.0-37.0","0FD131778B6A42B7A1FF3C1ED3C55BA2","019ce87b-d0ce-7773-a5df-97ce5a960364","019ce875-66c2-7f0b-b5e8-086c75889f84","","null","
                    <div class=""stimulus-container"">
                        <img src=""images/causal_sequence/package_causal/package_causal_2.png"" class=""exp-image"">
                        <div class=""question-area""></div> 
                    </div>","null","","","","","","","",""
"","","","","","html-button-response","38","156214","0.0-38.0","0FD131778B6A42B7A1FF3C1ED3C55BA2","019ce87b-d0ce-7773-a5df-97ce5a960364","019ce875-66c2-7f0b-b5e8-086c75889f84","","764","
                    <div class=""stimulus-container"">
                        <img src=""images/causal_sequence/package_causal/package_causal_2.png"" class=""exp-image"">
                        <div class=""question-area"">
                            <p style=""font-size: 20px; font-weight: bold; margin: 0;"">Is there a person in this image?</p>
                        </div>
                    </div>","0","main_causal_task","2","package_causal","","","","",""
"","","","","","html-keyboard-response","39","161215","0.0-39.0","0FD131778B6A42B7A1FF3C1ED3C55BA2","019ce87b-d0ce-7773-a5df-97ce5a960364","019ce875-66c2-7f0b-b5e8-086c75889f84","","null","
                    <div class=""stimulus-container"">
                        <img src=""images/causal_sequence/package_causal/package_causal_3.png"" class=""exp-image"">
                        <div class=""question-area""></div> 
                    </div>","null","","","","","","","",""
"","","","","","html-button-response","40","161747","0.0-40.0","0FD131778B6A42B7A1FF3C1ED3C55BA2","019ce87b-d0ce-7773-a5df-97ce5a960364","019ce875-66c2-7f0b-b5e8-086c75889f84","","531","
                    <div class=""stimulus-container"">
                        <img src=""images/causal_sequence/package_causal/package_causal_3.png"" class=""exp-image"">
                        <div class=""question-area"">
                            <p style=""font-size: 20px; font-weight: bold; margin: 0;"">Is there a person in this image?</p>
                        </div>
                    </div>","0","main_causal_task","3","package_causal","","","","",""
"","","","","","html-keyboard-response","41","166749","0.0-41.0","0FD131778B6A42B7A1FF3C1ED3C55BA2","019ce87b-d0ce-7773-a5df-97ce5a960364","019ce875-66c2-7f0b-b5e8-086c75889f84","","null","
                    <div class=""stimulus-container"">
                        <img src=""images/causal_sequence/package_causal/package_causal_4.png"" class=""exp-image"">
                        <div class=""question-area""></div> 
                    </div>","null","","","","","","","",""
"","","","","","html-button-response","42","168064","0.0-42.0","0FD131778B6A42B7A1FF3C1ED3C55BA2","019ce87b-d0ce-7773-a5df-97ce5a960364","019ce875-66c2-7f0b-b5e8-086c75889f84","","1314","
                    <div class=""stimulus-container"">
                        <img src=""images/causal_sequence/package_causal/package_causal_4.png"" class=""exp-image"">
                        <div class=""question-area"">
                            <p style=""font-size: 20px; font-weight: bold; margin: 0;"">Is there a person in this image?</p>
                        </div>
                    </div>","1","main_causal_task","4","package_causal","","","","",""
"","","","","","html-keyboard-response","43","173066","0.0-43.0","0FD131778B6A42B7A1FF3C1ED3C55BA2","019ce87b-d0ce-7773-a5df-97ce5a960364","019ce875-66c2-7f0b-b5e8-086c75889f84","","null","
                    <div class=""stimulus-container"">
                        <img src=""images/causal_sequence/package_causal/package_causal_5.png"" class=""exp-image"">
                        <div class=""question-area""></div> 
                    </div>","null","","","","","","","",""
"","","","","","html-button-response","44","173930","0.0-44.0","0FD131778B6A42B7A1FF3C1ED3C55BA2","019ce87b-d0ce-7773-a5df-97ce5a960364","019ce875-66c2-7f0b-b5e8-086c75889f84","","863","
                    <div class=""stimulus-container"">
                        <img src=""images/causal_sequence/package_causal/package_causal_5.png"" class=""exp-image"">
                        <div class=""question-area"">
                            <p style=""font-size: 20px; font-weight: bold; margin: 0;"">Is there a person in this image?</p>
                        </div>
                    </div>","0","main_causal_task","5","package_causal","","","","",""
"","","","","","html-keyboard-response","45","178932","0.0-45.0","0FD131778B6A42B7A1FF3C1ED3C55BA2","019ce87b-d0ce-7773-a5df-97ce5a960364","019ce875-66c2-7f0b-b5e8-086c75889f84","","null","
                    <div class=""stimulus-container"">
                        <img src=""images/causal_sequence/package_causal/package_causal_6.png"" class=""exp-image"">
                        <div class=""question-area""></div> 
                    </div>","null","","","","","","","",""
"","","","","","html-button-response","46","179747","0.0-46.0","0FD131778B6A42B7A1FF3C1ED3C55BA2","019ce87b-d0ce-7773-a5df-97ce5a960364","019ce875-66c2-7f0b-b5e8-086c75889f84","","813","
                    <div class=""stimulus-container"">
                        <img src=""images/causal_sequence/package_causal/package_causal_6.png"" class=""exp-image"">
                        <div class=""question-area"">
                            <p style=""font-size: 20px; font-weight: bold; margin: 0;"">Is there a person in this image?</p>
                        </div>
                    </div>","0","main_causal_task","6","package_causal","","","","",""
"","","","","","html-keyboard-response","47","184749","0.0-47.0","0FD131778B6A42B7A1FF3C1ED3C55BA2","019ce87b-d0ce-7773-a5df-97ce5a960364","019ce875-66c2-7f0b-b5e8-086c75889f84","","null","
                    <div class=""stimulus-container"">
                        <img src=""images/causal_sequence/package_causal/package_causal_7.png"" class=""exp-image"">
                        <div class=""question-area""></div> 
                    </div>","null","","","","","","","",""
"","","","","","html-button-response","48","185980","0.0-48.0","0FD131778B6A42B7A1FF3C1ED3C55BA2","019ce87b-d0ce-7773-a5df-97ce5a960364","019ce875-66c2-7f0b-b5e8-086c75889f84","","1229","
                    <div class=""stimulus-container"">
                        <img src=""images/causal_sequence/package_causal/package_causal_7.png"" class=""exp-image"">
                        <div class=""question-area"">
                            <p style=""font-size: 20px; font-weight: bold; margin: 0;"">Is there a person in this image?</p>
                        </div>
                    </div>","0","main_causal_task","7","package_causal","","","","",""
"","","","","","html-keyboard-response","49","190981","0.0-49.0","0FD131778B6A42B7A1FF3C1ED3C55BA2","019ce87b-d0ce-7773-a5df-97ce5a960364","019ce875-66c2-7f0b-b5e8-086c75889f84","","null","
                    <div class=""stimulus-container"">
                        <img src=""images/causal_sequence/package_causal/package_causal_8.png"" class=""exp-image"">
                        <div class=""question-area""></div> 
                    </div>","null","","","","","","","",""
"","","","","","html-button-response","50","191763","0.0-50.0","0FD131778B6A42B7A1FF3C1ED3C55BA2","019ce87b-d0ce-7773-a5df-97ce5a960364","019ce875-66c2-7f0b-b5e8-086c75889f84","","781","
                    <div class=""stimulus-container"">
                        <img src=""images/causal_sequence/package_causal/package_causal_8.png"" class=""exp-image"">
                        <div class=""question-area"">
                            <p style=""font-size: 20px; font-weight: bold; margin: 0;"">Is there a person in this image?</p>
                        </div>
                    </div>","0","main_causal_task","8","package_causal","","","","",""
"","","","","","html-keyboard-response","51","196766","0.0-51.0","0FD131778B6A42B7A1FF3C1ED3C55BA2","019ce87b-d0ce-7773-a5df-97ce5a960364","019ce875-66c2-7f0b-b5e8-086c75889f84","","null","
                    <div class=""stimulus-container"">
                        <img src=""images/causal_sequence/package_causal/package_causal_9.png"" class=""exp-image"">
                        <div class=""question-area""></div> 
                    </div>","null","","","","","","","",""
"","","","","","html-button-response","52","197331","0.0-52.0","0FD131778B6A42B7A1FF3C1ED3C55BA2","019ce87b-d0ce-7773-a5df-97ce5a960364","019ce875-66c2-7f0b-b5e8-086c75889f84","","563","
                    <div class=""stimulus-container"">
                        <img src=""images/causal_sequence/package_causal/package_causal_9.png"" class=""exp-image"">
                        <div class=""question-area"">
                            <p style=""font-size: 20px; font-weight: bold; margin: 0;"">Is there a person in this image?</p>
                        </div>
                    </div>","0","main_causal_task","9","package_causal","","","","",""
"","","","","","html-keyboard-response","53","198333","0.0-53.0","0FD131778B6A42B7A1FF3C1ED3C55BA2","019ce87b-d0ce-7773-a5df-97ce5a960364","019ce875-66c2-7f0b-b5e8-086c75889f84","","null","<div style=""background-color: gray; width: 100vw; height: 100vh;""></div>","null","","","","","","","",""
"","","","","","html-keyboard-response","54","203335","0.0-54.0","0FD131778B6A42B7A1FF3C1ED3C55BA2","019ce87b-d0ce-7773-a5df-97ce5a960364","019ce875-66c2-7f0b-b5e8-086c75889f84","","null","
                    <div class=""stimulus-container"">
                        <img src=""images/causal_sequence/the_performance_causal/the_performance_causal_1.png"" class=""exp-image"">
                        <div class=""question-area""></div> 
                    </div>","null","","","","","","","",""
"","","","","","html-button-response","55","204014","0.0-55.0","0FD131778B6A42B7A1FF3C1ED3C55BA2","019ce87b-d0ce-7773-a5df-97ce5a960364","019ce875-66c2-7f0b-b5e8-086c75889f84","","677","
                    <div class=""stimulus-container"">
                        <img src=""images/causal_sequence/the_performance_causal/the_performance_causal_1.png"" class=""exp-image"">
                        <div class=""question-area"">
                            <p style=""font-size: 20px; font-weight: bold; margin: 0;"">Is there a person in this image?</p>
                        </div>
                    </div>","0","main_causal_task","1","the_performance_causal","","","","",""
"","","","","","html-keyboard-response","56","209016","0.0-56.0","0FD131778B6A42B7A1FF3C1ED3C55BA2","019ce87b-d0ce-7773-a5df-97ce5a960364","019ce875-66c2-7f0b-b5e8-086c75889f84","","null","
                    <div class=""stimulus-container"">
                        <img src=""images/causal_sequence/the_performance_causal/the_performance_causal_2.png"" class=""exp-image"">
                        <div class=""question-area""></div> 
                    </div>","null","","","","","","","",""
"","","","","","html-button-response","57","210112","0.0-57.0","0FD131778B6A42B7A1FF3C1ED3C55BA2","019ce87b-d0ce-7773-a5df-97ce5a960364","019ce875-66c2-7f0b-b5e8-086c75889f84","","1095","
                    <div class=""stimulus-container"">
                        <img src=""images/causal_sequence/the_performance_causal/the_performance_causal_2.png"" class=""exp-image"">
                        <div class=""question-area"">
                            <p style=""font-size: 20px; font-weight: bold; margin: 0;"">Is there a person in this image?</p>
                        </div>
                    </div>","0","main_causal_task","2","the_performance_causal","","","","",""
"","","","","","html-keyboard-response","58","215114","0.0-58.0","0FD131778B6A42B7A1FF3C1ED3C55BA2","019ce87b-d0ce-7773-a5df-97ce5a960364","019ce875-66c2-7f0b-b5e8-086c75889f84","","null","
                    <div class=""stimulus-container"">
                        <img src=""images/causal_sequence/the_performance_causal/the_performance_causal_3.png"" class=""exp-image"">
                        <div class=""question-area""></div> 
                    </div>","null","","","","","","","",""
"","","","","","html-button-response","59","215864","0.0-59.0","0FD131778B6A42B7A1FF3C1ED3C55BA2","019ce87b-d0ce-7773-a5df-97ce5a960364","019ce875-66c2-7f0b-b5e8-086c75889f84","","748","
                    <div class=""stimulus-container"">
                        <img src=""images/causal_sequence/the_performance_causal/the_performance_causal_3.png"" class=""exp-image"">
                        <div class=""question-area"">
                            <p style=""font-size: 20px; font-weight: bold; margin: 0;"">Is there a person in this image?</p>
                        </div>
                    </div>","0","main_causal_task","3","the_performance_causal","","","","",""
"","","","","","html-keyboard-response","60","220866","0.0-60.0","0FD131778B6A42B7A1FF3C1ED3C55BA2","019ce87b-d0ce-7773-a5df-97ce5a960364","019ce875-66c2-7f0b-b5e8-086c75889f84","","null","
                    <div class=""stimulus-container"">
                        <img src=""images/causal_sequence/the_performance_causal/the_performance_causal_4.png"" class=""exp-image"">
                        <div class=""question-area""></div> 
                    </div>","null","","","","","","","",""
"","","","","","html-button-response","61","221697","0.0-61.0","0FD131778B6A42B7A1FF3C1ED3C55BA2","019ce87b-d0ce-7773-a5df-97ce5a960364","019ce875-66c2-7f0b-b5e8-086c75889f84","","830","
                    <div class=""stimulus-container"">
                        <img src=""images/causal_sequence/the_performance_causal/the_performance_causal_4.png"" class=""exp-image"">
                        <div class=""question-area"">
                            <p style=""font-size: 20px; font-weight: bold; margin: 0;"">Is there a person in this image?</p>
                        </div>
                    </div>","0","main_causal_task","4","the_performance_causal","","","","",""
"","","","","","html-keyboard-response","62","226699","0.0-62.0","0FD131778B6A42B7A1FF3C1ED3C55BA2","019ce87b-d0ce-7773-a5df-97ce5a960364","019ce875-66c2-7f0b-b5e8-086c75889f84","","null","
                    <div class=""stimulus-container"">
                        <img src=""images/causal_sequence/the_performance_causal/the_performance_causal_5.png"" class=""exp-image"">
                        <div class=""question-area""></div> 
                    </div>","null","","","","","","","",""
"","","","","","html-button-response","63","227413","0.0-63.0","0FD131778B6A42B7A1FF3C1ED3C55BA2","019ce87b-d0ce-7773-a5df-97ce5a960364","019ce875-66c2-7f0b-b5e8-086c75889f84","","713","
                    <div class=""stimulus-container"">
                        <img src=""images/causal_sequence/the_performance_causal/the_performance_causal_5.png"" class=""exp-image"">
                        <div class=""question-area"">
                            <p style=""font-size: 20px; font-weight: bold; margin: 0;"">Is there a person in this image?</p>
                        </div>
                    </div>","0","main_causal_task","5","the_performance_causal","","","","",""
"","","","","","html-keyboard-response","64","232415","0.0-64.0","0FD131778B6A42B7A1FF3C1ED3C55BA2","019ce87b-d0ce-7773-a5df-97ce5a960364","019ce875-66c2-7f0b-b5e8-086c75889f84","","null","
                    <div class=""stimulus-container"">
                        <img src=""images/causal_sequence/the_performance_causal/the_performance_causal_6.png"" class=""exp-image"">
                        <div class=""question-area""></div> 
                    </div>","null","","","","","","","",""
"","","","","","html-button-response","65","233447","0.0-65.0","0FD131778B6A42B7A1FF3C1ED3C55BA2","019ce87b-d0ce-7773-a5df-97ce5a960364","019ce875-66c2-7f0b-b5e8-086c75889f84","","1031","
                    <div class=""stimulus-container"">
                        <img src=""images/causal_sequence/the_performance_causal/the_performance_causal_6.png"" class=""exp-image"">
                        <div class=""question-area"">
                            <p style=""font-size: 20px; font-weight: bold; margin: 0;"">Is there a person in this image?</p>
                        </div>
                    </div>","0","main_causal_task","6","the_performance_causal","","","","",""
"","","","","","html-keyboard-response","66","238449","0.0-66.0","0FD131778B6A42B7A1FF3C1ED3C55BA2","019ce87b-d0ce-7773-a5df-97ce5a960364","019ce875-66c2-7f0b-b5e8-086c75889f84","","null","
                    <div class=""stimulus-container"">
                        <img src=""images/causal_sequence/the_performance_causal/the_performance_causal_7.png"" class=""exp-image"">
                        <div class=""question-area""></div> 
                    </div>","null","","","","","","","",""
"","","","","","html-button-response","67","239330","0.0-67.0","0FD131778B6A42B7A1FF3C1ED3C55BA2","019ce87b-d0ce-7773-a5df-97ce5a960364","019ce875-66c2-7f0b-b5e8-086c75889f84","","879","
                    <div class=""stimulus-container"">
                        <img src=""images/causal_sequence/the_performance_causal/the_performance_causal_7.png"" class=""exp-image"">
                        <div class=""question-area"">
                            <p style=""font-size: 20px; font-weight: bold; margin: 0;"">Is there a person in this image?</p>
                        </div>
                    </div>","0","main_causal_task","7","the_performance_causal","","","","",""
"","","","","","html-keyboard-response","68","244332","0.0-68.0","0FD131778B6A42B7A1FF3C1ED3C55BA2","019ce87b-d0ce-7773-a5df-97ce5a960364","019ce875-66c2-7f0b-b5e8-086c75889f84","","null","
                    <div class=""stimulus-container"">
                        <img src=""images/causal_sequence/the_performance_causal/the_performance_causal_8.png"" class=""exp-image"">
                        <div class=""question-area""></div> 
                    </div>","null","","","","","","","",""
"","","","","","html-button-response","69","245380","0.0-69.0","0FD131778B6A42B7A1FF3C1ED3C55BA2","019ce87b-d0ce-7773-a5df-97ce5a960364","019ce875-66c2-7f0b-b5e8-086c75889f84","","1047","
                    <div class=""stimulus-container"">
                        <img src=""images/causal_sequence/the_performance_causal/the_performance_causal_8.png"" class=""exp-image"">
                        <div class=""question-area"">
                            <p style=""font-size: 20px; font-weight: bold; margin: 0;"">Is there a person in this image?</p>
                        </div>
                    </div>","0","main_causal_task","8","the_performance_causal","","","","",""
"","","","","","html-keyboard-response","70","250382","0.0-70.0","0FD131778B6A42B7A1FF3C1ED3C55BA2","019ce87b-d0ce-7773-a5df-97ce5a960364","019ce875-66c2-7f0b-b5e8-086c75889f84","","null","
                    <div class=""stimulus-container"">
                        <img src=""images/causal_sequence/the_performance_causal/the_performance_causal_9.png"" class=""exp-image"">
                        <div class=""question-area""></div> 
                    </div>","null","","","","","","","",""
"","","","","","html-button-response","71","251397","0.0-71.0","0FD131778B6A42B7A1FF3C1ED3C55BA2","019ce87b-d0ce-7773-a5df-97ce5a960364","019ce875-66c2-7f0b-b5e8-086c75889f84","","1013","
                    <div class=""stimulus-container"">
                        <img src=""images/causal_sequence/the_performance_causal/the_performance_causal_9.png"" class=""exp-image"">
                        <div class=""question-area"">
                            <p style=""font-size: 20px; font-weight: bold; margin: 0;"">Is there a person in this image?</p>
                        </div>
                    </div>","0","main_causal_task","9","the_performance_causal","","","","",""
"","","","","","html-keyboard-response","72","252398","0.0-72.0","0FD131778B6A42B7A1FF3C1ED3C55BA2","019ce87b-d0ce-7773-a5df-97ce5a960364","019ce875-66c2-7f0b-b5e8-086c75889f84","","null","<div style=""background-color: gray; width: 100vw; height: 100vh;""></div>","null","","","","","","","",""
"","","","","","html-keyboard-response","73","257401","0.0-73.0","0FD131778B6A42B7A1FF3C1ED3C55BA2","019ce87b-d0ce-7773-a5df-97ce5a960364","019ce875-66c2-7f0b-b5e8-086c75889f84","","null","
                    <div class=""stimulus-container"">
                        <img src=""images/causal_sequence/coin_causal/coin_causal_1.png"" class=""exp-image"">
                        <div class=""question-area""></div> 
                    </div>","null","","","","","","","",""
"","","","","","html-button-response","74","258012","0.0-74.0","0FD131778B6A42B7A1FF3C1ED3C55BA2","019ce87b-d0ce-7773-a5df-97ce5a960364","019ce875-66c2-7f0b-b5e8-086c75889f84","","611","
                    <div class=""stimulus-container"">
                        <img src=""images/causal_sequence/coin_causal/coin_causal_1.png"" class=""exp-image"">
                        <div class=""question-area"">
                            <p style=""font-size: 20px; font-weight: bold; margin: 0;"">Is there a person in this image?</p>
                        </div>
                    </div>","0","main_causal_task","1","coin_causal","","","","",""
"","","","","","html-keyboard-response","75","263015","0.0-75.0","0FD131778B6A42B7A1FF3C1ED3C55BA2","019ce87b-d0ce-7773-a5df-97ce5a960364","019ce875-66c2-7f0b-b5e8-086c75889f84","","null","
                    <div class=""stimulus-container"">
                        <img src=""images/causal_sequence/coin_causal/coin_causal_2.png"" class=""exp-image"">
                        <div class=""question-area""></div> 
                    </div>","null","","","","","","","",""
"","","","","","html-button-response","76","263747","0.0-76.0","0FD131778B6A42B7A1FF3C1ED3C55BA2","019ce87b-d0ce-7773-a5df-97ce5a960364","019ce875-66c2-7f0b-b5e8-086c75889f84","","731","
                    <div class=""stimulus-container"">
                        <img src=""images/causal_sequence/coin_causal/coin_causal_2.png"" class=""exp-image"">
                        <div class=""question-area"">
                            <p style=""font-size: 20px; font-weight: bold; margin: 0;"">Is there a person in this image?</p>
                        </div>
                    </div>","0","main_causal_task","2","coin_causal","","","","",""
"","","","","","html-keyboard-response","77","268750","0.0-77.0","0FD131778B6A42B7A1FF3C1ED3C55BA2","019ce87b-d0ce-7773-a5df-97ce5a960364","019ce875-66c2-7f0b-b5e8-086c75889f84","","null","
                    <div class=""stimulus-container"">
                        <img src=""images/causal_sequence/coin_causal/coin_causal_3.png"" class=""exp-image"">
                        <div class=""question-area""></div> 
                    </div>","null","","","","","","","",""
"","","","","","html-button-response","78","269630","0.0-78.0","0FD131778B6A42B7A1FF3C1ED3C55BA2","019ce87b-d0ce-7773-a5df-97ce5a960364","019ce875-66c2-7f0b-b5e8-086c75889f84","","878","
                    <div class=""stimulus-container"">
                        <img src=""images/causal_sequence/coin_causal/coin_causal_3.png"" class=""exp-image"">
                        <div class=""question-area"">
                            <p style=""font-size: 20px; font-weight: bold; margin: 0;"">Is there a person in this image?</p>
                        </div>
                    </div>","0","main_causal_task","3","coin_causal","","","","",""
"","","","","","html-keyboard-response","79","274632","0.0-79.0","0FD131778B6A42B7A1FF3C1ED3C55BA2","019ce87b-d0ce-7773-a5df-97ce5a960364","019ce875-66c2-7f0b-b5e8-086c75889f84","","null","
                    <div class=""stimulus-container"">
                        <img src=""images/causal_sequence/coin_causal/coin_causal_4.png"" class=""exp-image"">
                        <div class=""question-area""></div> 
                    </div>","null","","","","","","","",""
"","","","","","html-button-response","80","275529","0.0-80.0","0FD131778B6A42B7A1FF3C1ED3C55BA2","019ce87b-d0ce-7773-a5df-97ce5a960364","019ce875-66c2-7f0b-b5e8-086c75889f84","","896","
                    <div class=""stimulus-container"">
                        <img src=""images/causal_sequence/coin_causal/coin_causal_4.png"" class=""exp-image"">
                        <div class=""question-area"">
                            <p style=""font-size: 20px; font-weight: bold; margin: 0;"">Is there a person in this image?</p>
                        </div>
                    </div>","0","main_causal_task","4","coin_causal","","","","",""
"","","","","","html-keyboard-response","81","280531","0.0-81.0","0FD131778B6A42B7A1FF3C1ED3C55BA2","019ce87b-d0ce-7773-a5df-97ce5a960364","019ce875-66c2-7f0b-b5e8-086c75889f84","","null","
                    <div class=""stimulus-container"">
                        <img src=""images/causal_sequence/coin_causal/coin_causal_5.png"" class=""exp-image"">
                        <div class=""question-area""></div> 
                    </div>","null","","","","","","","",""
"","","","","","html-button-response","82","281598","0.0-82.0","0FD131778B6A42B7A1FF3C1ED3C55BA2","019ce87b-d0ce-7773-a5df-97ce5a960364","019ce875-66c2-7f0b-b5e8-086c75889f84","","1065","
                    <div class=""stimulus-container"">
                        <img src=""images/causal_sequence/coin_causal/coin_causal_5.png"" class=""exp-image"">
                        <div class=""question-area"">
                            <p style=""font-size: 20px; font-weight: bold; margin: 0;"">Is there a person in this image?</p>
                        </div>
                    </div>","0","main_causal_task","5","coin_causal","","","","",""
"","","","","","html-keyboard-response","83","286600","0.0-83.0","0FD131778B6A42B7A1FF3C1ED3C55BA2","019ce87b-d0ce-7773-a5df-97ce5a960364","019ce875-66c2-7f0b-b5e8-086c75889f84","","null","
                    <div class=""stimulus-container"">
                        <img src=""images/causal_sequence/coin_causal/coin_causal_6.png"" class=""exp-image"">
                        <div class=""question-area""></div> 
                    </div>","null","","","","","","","",""
"","","","","","html-button-response","84","287414","0.0-84.0","0FD131778B6A42B7A1FF3C1ED3C55BA2","019ce87b-d0ce-7773-a5df-97ce5a960364","019ce875-66c2-7f0b-b5e8-086c75889f84","","812","
                    <div class=""stimulus-container"">
                        <img src=""images/causal_sequence/coin_causal/coin_causal_6.png"" class=""exp-image"">
                        <div class=""question-area"">
                            <p style=""font-size: 20px; font-weight: bold; margin: 0;"">Is there a person in this image?</p>
                        </div>
                    </div>","0","main_causal_task","6","coin_causal","","","","",""
"","","","","","html-keyboard-response","85","292416","0.0-85.0","0FD131778B6A42B7A1FF3C1ED3C55BA2","019ce87b-d0ce-7773-a5df-97ce5a960364","019ce875-66c2-7f0b-b5e8-086c75889f84","","null","
                    <div class=""stimulus-container"">
                        <img src=""images/causal_sequence/coin_causal/coin_causal_7.png"" class=""exp-image"">
                        <div class=""question-area""></div> 
                    </div>","null","","","","","","","",""
"","","","","","html-button-response","86","294330","0.0-86.0","0FD131778B6A42B7A1FF3C1ED3C55BA2","019ce87b-d0ce-7773-a5df-97ce5a960364","019ce875-66c2-7f0b-b5e8-086c75889f84","","1912","
                    <div class=""stimulus-container"">
                        <img src=""images/causal_sequence/coin_causal/coin_causal_7.png"" class=""exp-image"">
                        <div class=""question-area"">
                            <p style=""font-size: 20px; font-weight: bold; margin: 0;"">Is there a person in this image?</p>
                        </div>
                    </div>","1","main_causal_task","7","coin_causal","","","","",""
"","","","","","html-keyboard-response","87","299331","0.0-87.0","0FD131778B6A42B7A1FF3C1ED3C55BA2","019ce87b-d0ce-7773-a5df-97ce5a960364","019ce875-66c2-7f0b-b5e8-086c75889f84","","null","
                    <div class=""stimulus-container"">
                        <img src=""images/causal_sequence/coin_causal/coin_causal_8.png"" class=""exp-image"">
                        <div class=""question-area""></div> 
                    </div>","null","","","","","","","",""
"","","","","","html-button-response","88","300497","0.0-88.0","0FD131778B6A42B7A1FF3C1ED3C55BA2","019ce87b-d0ce-7773-a5df-97ce5a960364","019ce875-66c2-7f0b-b5e8-086c75889f84","","1164","
                    <div class=""stimulus-container"">
                        <img src=""images/causal_sequence/coin_causal/coin_causal_8.png"" class=""exp-image"">
                        <div class=""question-area"">
                            <p style=""font-size: 20px; font-weight: bold; margin: 0;"">Is there a person in this image?</p>
                        </div>
                    </div>","0","main_causal_task","8","coin_causal","","","","",""
"","","","","","html-keyboard-response","89","305499","0.0-89.0","0FD131778B6A42B7A1FF3C1ED3C55BA2","019ce87b-d0ce-7773-a5df-97ce5a960364","019ce875-66c2-7f0b-b5e8-086c75889f84","","null","
                    <div class=""stimulus-container"">
                        <img src=""images/causal_sequence/coin_causal/coin_causal_9.png"" class=""exp-image"">
                        <div class=""question-area""></div> 
                    </div>","null","","","","","","","",""
"","","","","","html-button-response","90","306897","0.0-90.0","0FD131778B6A42B7A1FF3C1ED3C55BA2","019ce87b-d0ce-7773-a5df-97ce5a960364","019ce875-66c2-7f0b-b5e8-086c75889f84","","1396","
                    <div class=""stimulus-container"">
                        <img src=""images/causal_sequence/coin_causal/coin_causal_9.png"" class=""exp-image"">
                        <div class=""question-area"">
                            <p style=""font-size: 20px; font-weight: bold; margin: 0;"">Is there a person in this image?</p>
                        </div>
                    </div>","0","main_causal_task","9","coin_causal","","","","",""
"","","","","","html-keyboard-response","91","307898","0.0-91.0","0FD131778B6A42B7A1FF3C1ED3C55BA2","019ce87b-d0ce-7773-a5df-97ce5a960364","019ce875-66c2-7f0b-b5e8-086c75889f84","","null","<div style=""background-color: gray; width: 100vw; height: 100vh;""></div>","null","","","","","","","",""
"","","","","","html-keyboard-response","92","312899","0.0-92.0","0FD131778B6A42B7A1FF3C1ED3C55BA2","019ce87b-d0ce-7773-a5df-97ce5a960364","019ce875-66c2-7f0b-b5e8-086c75889f84","","null","
                    <div class=""stimulus-container"">
                        <img src=""images/causal_sequence/museum_causal/museum_causal_1.png"" class=""exp-image"">
                        <div class=""question-area""></div> 
                    </div>","null","","","","","","","",""
"","","","","","html-button-response","93","314097","0.0-93.0","0FD131778B6A42B7A1FF3C1ED3C55BA2","019ce87b-d0ce-7773-a5df-97ce5a960364","019ce875-66c2-7f0b-b5e8-086c75889f84","","1196","
                    <div class=""stimulus-container"">
                        <img src=""images/causal_sequence/museum_causal/museum_causal_1.png"" class=""exp-image"">
                        <div class=""question-area"">
                            <p style=""font-size: 20px; font-weight: bold; margin: 0;"">Is there a person in this image?</p>
                        </div>
                    </div>","0","main_causal_task","1","museum_causal","","","","",""
"","","","","","html-keyboard-response","94","319099","0.0-94.0","0FD131778B6A42B7A1FF3C1ED3C55BA2","019ce87b-d0ce-7773-a5df-97ce5a960364","019ce875-66c2-7f0b-b5e8-086c75889f84","","null","
                    <div class=""stimulus-container"">
                        <img src=""images/causal_sequence/museum_causal/museum_causal_2.png"" class=""exp-image"">
                        <div class=""question-area""></div> 
                    </div>","null","","","","","","","",""
"","","","","","html-button-response","95","319613","0.0-95.0","0FD131778B6A42B7A1FF3C1ED3C55BA2","019ce87b-d0ce-7773-a5df-97ce5a960364","019ce875-66c2-7f0b-b5e8-086c75889f84","","513","
                    <div class=""stimulus-container"">
                        <img src=""images/causal_sequence/museum_causal/museum_causal_2.png"" class=""exp-image"">
                        <div class=""question-area"">
                            <p style=""font-size: 20px; font-weight: bold; margin: 0;"">Is there a person in this image?</p>
                        </div>
                    </div>","0","main_causal_task","2","museum_causal","","","","",""
"","","","","","html-keyboard-response","96","324616","0.0-96.0","0FD131778B6A42B7A1FF3C1ED3C55BA2","019ce87b-d0ce-7773-a5df-97ce5a960364","019ce875-66c2-7f0b-b5e8-086c75889f84","","null","
                    <div class=""stimulus-container"">
                        <img src=""images/causal_sequence/museum_causal/museum_causal_3.png"" class=""exp-image"">
                        <div class=""question-area""></div> 
                    </div>","null","","","","","","","",""
"","","","","","html-button-response","97","325447","0.0-97.0","0FD131778B6A42B7A1FF3C1ED3C55BA2","019ce87b-d0ce-7773-a5df-97ce5a960364","019ce875-66c2-7f0b-b5e8-086c75889f84","","830","
                    <div class=""stimulus-container"">
                        <img src=""images/causal_sequence/museum_causal/museum_causal_3.png"" class=""exp-image"">
                        <div class=""question-area"">
                            <p style=""font-size: 20px; font-weight: bold; margin: 0;"">Is there a person in this image?</p>
                        </div>
                    </div>","0","main_causal_task","3","museum_causal","","","","",""
"","","","","","html-keyboard-response","98","330449","0.0-98.0","0FD131778B6A42B7A1FF3C1ED3C55BA2","019ce87b-d0ce-7773-a5df-97ce5a960364","019ce875-66c2-7f0b-b5e8-086c75889f84","","null","
                    <div class=""stimulus-container"">
                        <img src=""images/causal_sequence/museum_causal/museum_causal_4.png"" class=""exp-image"">
                        <div class=""question-area""></div> 
                    </div>","null","","","","","","","",""
"","","","","","html-button-response","99","331380","0.0-99.0","0FD131778B6A42B7A1FF3C1ED3C55BA2","019ce87b-d0ce-7773-a5df-97ce5a960364","019ce875-66c2-7f0b-b5e8-086c75889f84","","929","
                    <div class=""stimulus-container"">
                        <img src=""images/causal_sequence/museum_causal/museum_causal_4.png"" class=""exp-image"">
                        <div class=""question-area"">
                            <p style=""font-size: 20px; font-weight: bold; margin: 0;"">Is there a person in this image?</p>
                        </div>
                    </div>","1","main_causal_task","4","museum_causal","","","","",""
"","","","","","html-keyboard-response","100","336381","0.0-100.0","0FD131778B6A42B7A1FF3C1ED3C55BA2","019ce87b-d0ce-7773-a5df-97ce5a960364","019ce875-66c2-7f0b-b5e8-086c75889f84","","null","
                    <div class=""stimulus-container"">
                        <img src=""images/causal_sequence/museum_causal/museum_causal_5.png"" class=""exp-image"">
                        <div class=""question-area""></div> 
                    </div>","null","","","","","","","",""
"","","","","","html-button-response","101","337280","0.0-101.0","0FD131778B6A42B7A1FF3C1ED3C55BA2","019ce87b-d0ce-7773-a5df-97ce5a960364","019ce875-66c2-7f0b-b5e8-086c75889f84","","897","
                    <div class=""stimulus-container"">
                        <img src=""images/causal_sequence/museum_causal/museum_causal_5.png"" class=""exp-image"">
                        <div class=""question-area"">
                            <p style=""font-size: 20px; font-weight: bold; margin: 0;"">Is there a person in this image?</p>
                        </div>
                    </div>","0","main_causal_task","5","museum_causal","","","","",""
"","","","","","html-keyboard-response","102","342282","0.0-102.0","0FD131778B6A42B7A1FF3C1ED3C55BA2","019ce87b-d0ce-7773-a5df-97ce5a960364","019ce875-66c2-7f0b-b5e8-086c75889f84","","null","
                    <div class=""stimulus-container"">
                        <img src=""images/causal_sequence/museum_causal/museum_causal_6.png"" class=""exp-image"">
                        <div class=""question-area""></div> 
                    </div>","null","","","","","","","",""
"","","","","","html-button-response","103","342946","0.0-103.0","0FD131778B6A42B7A1FF3C1ED3C55BA2","019ce87b-d0ce-7773-a5df-97ce5a960364","019ce875-66c2-7f0b-b5e8-086c75889f84","","662","
                    <div class=""stimulus-container"">
                        <img src=""images/causal_sequence/museum_causal/museum_causal_6.png"" class=""exp-image"">
                        <div class=""question-area"">
                            <p style=""font-size: 20px; font-weight: bold; margin: 0;"">Is there a person in this image?</p>
                        </div>
                    </div>","0","main_causal_task","6","museum_causal","","","","",""
"","","","","","html-keyboard-response","104","347949","0.0-104.0","0FD131778B6A42B7A1FF3C1ED3C55BA2","019ce87b-d0ce-7773-a5df-97ce5a960364","019ce875-66c2-7f0b-b5e8-086c75889f84","","null","
                    <div class=""stimulus-container"">
                        <img src=""images/causal_sequence/museum_causal/museum_causal_7.png"" class=""exp-image"">
                        <div class=""question-area""></div> 
                    </div>","null","","","","","","","",""
"","","","","","html-button-response","105","350952","0.0-105.0","0FD131778B6A42B7A1FF3C1ED3C55BA2","019ce87b-d0ce-7773-a5df-97ce5a960364","019ce875-66c2-7f0b-b5e8-086c75889f84","","null","
                    <div class=""stimulus-container"">
                        <img src=""images/causal_sequence/museum_causal/museum_causal_7.png"" class=""exp-image"">
                        <div class=""question-area"">
                            <p style=""font-size: 20px; font-weight: bold; margin: 0;"">Is there a person in this image?</p>
                        </div>
                    </div>","null","main_causal_task","7","museum_causal","","","","",""
"","","","","","html-keyboard-response","106","355954","0.0-106.0","0FD131778B6A42B7A1FF3C1ED3C55BA2","019ce87b-d0ce-7773-a5df-97ce5a960364","019ce875-66c2-7f0b-b5e8-086c75889f84","","null","
                    <div class=""stimulus-container"">
                        <img src=""images/causal_sequence/museum_causal/museum_causal_8.png"" class=""exp-image"">
                        <div class=""question-area""></div> 
                    </div>","null","","","","","","","",""
"","","","","","html-button-response","107","356897","0.0-107.0","0FD131778B6A42B7A1FF3C1ED3C55BA2","019ce87b-d0ce-7773-a5df-97ce5a960364","019ce875-66c2-7f0b-b5e8-086c75889f84","","942","
                    <div class=""stimulus-container"">
                        <img src=""images/causal_sequence/museum_causal/museum_causal_8.png"" class=""exp-image"">
                        <div class=""question-area"">
                            <p style=""font-size: 20px; font-weight: bold; margin: 0;"">Is there a person in this image?</p>
                        </div>
                    </div>","0","main_causal_task","8","museum_causal","","","","",""
"","","","","","html-keyboard-response","108","361899","0.0-108.0","0FD131778B6A42B7A1FF3C1ED3C55BA2","019ce87b-d0ce-7773-a5df-97ce5a960364","019ce875-66c2-7f0b-b5e8-086c75889f84","","null","
                    <div class=""stimulus-container"">
                        <img src=""images/causal_sequence/museum_causal/museum_causal_9.png"" class=""exp-image"">
                        <div class=""question-area""></div> 
                    </div>","null","","","","","","","",""
"","","","","","html-button-response","109","362896","0.0-109.0","0FD131778B6A42B7A1FF3C1ED3C55BA2","019ce87b-d0ce-7773-a5df-97ce5a960364","019ce875-66c2-7f0b-b5e8-086c75889f84","","995","
                    <div class=""stimulus-container"">
                        <img src=""images/causal_sequence/museum_causal/museum_causal_9.png"" class=""exp-image"">
                        <div class=""question-area"">
                            <p style=""font-size: 20px; font-weight: bold; margin: 0;"">Is there a person in this image?</p>
                        </div>
                    </div>","1","main_causal_task","9","museum_causal","","","","",""
"","","","","","html-keyboard-response","110","363898","0.0-110.0","0FD131778B6A42B7A1FF3C1ED3C55BA2","019ce87b-d0ce-7773-a5df-97ce5a960364","019ce875-66c2-7f0b-b5e8-086c75889f84","","null","<div style=""background-color: gray; width: 100vw; height: 100vh;""></div>","null","","","","","","","",""
"","","","","","html-keyboard-response","111","368900","0.0-111.0","0FD131778B6A42B7A1FF3C1ED3C55BA2","019ce87b-d0ce-7773-a5df-97ce5a960364","019ce875-66c2-7f0b-b5e8-086c75889f84","","null","
                    <div class=""stimulus-container"">
                        <img src=""images/causal_sequence/saving_a_cat_causal/saving_a_cat_causal_1.png"" class=""exp-image"">
                        <div class=""question-area""></div> 
                    </div>","null","","","","","","","",""
"","","","","","html-button-response","112","369530","0.0-112.0","0FD131778B6A42B7A1FF3C1ED3C55BA2","019ce87b-d0ce-7773-a5df-97ce5a960364","019ce875-66c2-7f0b-b5e8-086c75889f84","","628","
                    <div class=""stimulus-container"">
                        <img src=""images/causal_sequence/saving_a_cat_causal/saving_a_cat_causal_1.png"" class=""exp-image"">
                        <div class=""question-area"">
                            <p style=""font-size: 20px; font-weight: bold; margin: 0;"">Is there a person in this image?</p>
                        </div>
                    </div>","0","main_causal_task","1","saving_a_cat_causal","","","","",""
"","","","","","html-keyboard-response","113","374532","0.0-113.0","0FD131778B6A42B7A1FF3C1ED3C55BA2","019ce87b-d0ce-7773-a5df-97ce5a960364","019ce875-66c2-7f0b-b5e8-086c75889f84","","null","
                    <div class=""stimulus-container"">
                        <img src=""images/causal_sequence/saving_a_cat_causal/saving_a_cat_causal_2.png"" class=""exp-image"">
                        <div class=""question-area""></div> 
                    </div>","null","","","","","","","",""
"","","","","","html-button-response","114","375329","0.0-114.0","0FD131778B6A42B7A1FF3C1ED3C55BA2","019ce87b-d0ce-7773-a5df-97ce5a960364","019ce875-66c2-7f0b-b5e8-086c75889f84","","796","
                    <div class=""stimulus-container"">
                        <img src=""images/causal_sequence/saving_a_cat_causal/saving_a_cat_causal_2.png"" class=""exp-image"">
                        <div class=""question-area"">
                            <p style=""font-size: 20px; font-weight: bold; margin: 0;"">Is there a person in this image?</p>
                        </div>
                    </div>","1","main_causal_task","2","saving_a_cat_causal","","","","",""
"","","","","","html-keyboard-response","115","380331","0.0-115.0","0FD131778B6A42B7A1FF3C1ED3C55BA2","019ce87b-d0ce-7773-a5df-97ce5a960364","019ce875-66c2-7f0b-b5e8-086c75889f84","","null","
                    <div class=""stimulus-container"">
                        <img src=""images/causal_sequence/saving_a_cat_causal/saving_a_cat_causal_3.png"" class=""exp-image"">
                        <div class=""question-area""></div> 
                    </div>","null","","","","","","","",""
"","","","","","html-button-response","116","381247","0.0-116.0","0FD131778B6A42B7A1FF3C1ED3C55BA2","019ce87b-d0ce-7773-a5df-97ce5a960364","019ce875-66c2-7f0b-b5e8-086c75889f84","","915","
                    <div class=""stimulus-container"">
                        <img src=""images/causal_sequence/saving_a_cat_causal/saving_a_cat_causal_3.png"" class=""exp-image"">
                        <div class=""question-area"">
                            <p style=""font-size: 20px; font-weight: bold; margin: 0;"">Is there a person in this image?</p>
                        </div>
                    </div>","1","main_causal_task","3","saving_a_cat_causal","","","","",""
"","","","","","html-keyboard-response","117","386249","0.0-117.0","0FD131778B6A42B7A1FF3C1ED3C55BA2","019ce87b-d0ce-7773-a5df-97ce5a960364","019ce875-66c2-7f0b-b5e8-086c75889f84","","null","
                    <div class=""stimulus-container"">
                        <img src=""images/causal_sequence/saving_a_cat_causal/saving_a_cat_causal_4.png"" class=""exp-image"">
                        <div class=""question-area""></div> 
                    </div>","null","","","","","","","",""
"","","","","","html-button-response","118","387229","0.0-118.0","0FD131778B6A42B7A1FF3C1ED3C55BA2","019ce87b-d0ce-7773-a5df-97ce5a960364","019ce875-66c2-7f0b-b5e8-086c75889f84","","979","
                    <div class=""stimulus-container"">
                        <img src=""images/causal_sequence/saving_a_cat_causal/saving_a_cat_causal_4.png"" class=""exp-image"">
                        <div class=""question-area"">
                            <p style=""font-size: 20px; font-weight: bold; margin: 0;"">Is there a person in this image?</p>
                        </div>
                    </div>","0","main_causal_task","4","saving_a_cat_causal","","","","",""
"","","","","","html-keyboard-response","119","392231","0.0-119.0","0FD131778B6A42B7A1FF3C1ED3C55BA2","019ce87b-d0ce-7773-a5df-97ce5a960364","019ce875-66c2-7f0b-b5e8-086c75889f84","","null","
                    <div class=""stimulus-container"">
                        <img src=""images/causal_sequence/saving_a_cat_causal/saving_a_cat_causal_5.png"" class=""exp-image"">
                        <div class=""question-area""></div> 
                    </div>","null","","","","","","","",""
"","","","","","html-button-response","120","392713","0.0-120.0","0FD131778B6A42B7A1FF3C1ED3C55BA2","019ce87b-d0ce-7773-a5df-97ce5a960364","019ce875-66c2-7f0b-b5e8-086c75889f84","","481","
                    <div class=""stimulus-container"">
                        <img src=""images/causal_sequence/saving_a_cat_causal/saving_a_cat_causal_5.png"" class=""exp-image"">
                        <div class=""question-area"">
                            <p style=""font-size: 20px; font-weight: bold; margin: 0;"">Is there a person in this image?</p>
                        </div>
                    </div>","0","main_causal_task","5","saving_a_cat_causal","","","","",""
"","","","","","html-keyboard-response","121","397715","0.0-121.0","0FD131778B6A42B7A1FF3C1ED3C55BA2","019ce87b-d0ce-7773-a5df-97ce5a960364","019ce875-66c2-7f0b-b5e8-086c75889f84","","null","
                    <div class=""stimulus-container"">
                        <img src=""images/causal_sequence/saving_a_cat_causal/saving_a_cat_causal_6.png"" class=""exp-image"">
                        <div class=""question-area""></div> 
                    </div>","null","","","","","","","",""
"","","","","","html-button-response","122","398163","0.0-122.0","0FD131778B6A42B7A1FF3C1ED3C55BA2","019ce87b-d0ce-7773-a5df-97ce5a960364","019ce875-66c2-7f0b-b5e8-086c75889f84","","446","
                    <div class=""stimulus-container"">
                        <img src=""images/causal_sequence/saving_a_cat_causal/saving_a_cat_causal_6.png"" class=""exp-image"">
                        <div class=""question-area"">
                            <p style=""font-size: 20px; font-weight: bold; margin: 0;"">Is there a person in this image?</p>
                        </div>
                    </div>","0","main_causal_task","6","saving_a_cat_causal","","","","",""
"","","","","","html-keyboard-response","123","403165","0.0-123.0","0FD131778B6A42B7A1FF3C1ED3C55BA2","019ce87b-d0ce-7773-a5df-97ce5a960364","019ce875-66c2-7f0b-b5e8-086c75889f84","","null","
                    <div class=""stimulus-container"">
                        <img src=""images/causal_sequence/saving_a_cat_causal/saving_a_cat_causal_7.png"" class=""exp-image"">
                        <div class=""question-area""></div> 
                    </div>","null","","","","","","","",""
"","","","","","html-button-response","124","403797","0.0-124.0","0FD131778B6A42B7A1FF3C1ED3C55BA2","019ce87b-d0ce-7773-a5df-97ce5a960364","019ce875-66c2-7f0b-b5e8-086c75889f84","","630","
                    <div class=""stimulus-container"">
                        <img src=""images/causal_sequence/saving_a_cat_causal/saving_a_cat_causal_7.png"" class=""exp-image"">
                        <div class=""question-area"">
                            <p style=""font-size: 20px; font-weight: bold; margin: 0;"">Is there a person in this image?</p>
                        </div>
                    </div>","0","main_causal_task","7","saving_a_cat_causal","","","","",""
"","","","","","html-keyboard-response","125","408798","0.0-125.0","0FD131778B6A42B7A1FF3C1ED3C55BA2","019ce87b-d0ce-7773-a5df-97ce5a960364","019ce875-66c2-7f0b-b5e8-086c75889f84","","null","
                    <div class=""stimulus-container"">
                        <img src=""images/causal_sequence/saving_a_cat_causal/saving_a_cat_causal_8.png"" class=""exp-image"">
                        <div class=""question-area""></div> 
                    </div>","null","","","","","","","",""
"","","","","","html-button-response","126","409329","0.0-126.0","0FD131778B6A42B7A1FF3C1ED3C55BA2","019ce87b-d0ce-7773-a5df-97ce5a960364","019ce875-66c2-7f0b-b5e8-086c75889f84","","530","
                    <div class=""stimulus-container"">
                        <img src=""images/causal_sequence/saving_a_cat_causal/saving_a_cat_causal_8.png"" class=""exp-image"">
                        <div class=""question-area"">
                            <p style=""font-size: 20px; font-weight: bold; margin: 0;"">Is there a person in this image?</p>
                        </div>
                    </div>","0","main_causal_task","8","saving_a_cat_causal","","","","",""
"","","","","","html-keyboard-response","127","414331","0.0-127.0","0FD131778B6A42B7A1FF3C1ED3C55BA2","019ce87b-d0ce-7773-a5df-97ce5a960364","019ce875-66c2-7f0b-b5e8-086c75889f84","","null","
                    <div class=""stimulus-container"">
                        <img src=""images/causal_sequence/saving_a_cat_causal/saving_a_cat_causal_9.png"" class=""exp-image"">
                        <div class=""question-area""></div> 
                    </div>","null","","","","","","","",""
"","","","","","html-button-response","128","414929","0.0-128.0","0FD131778B6A42B7A1FF3C1ED3C55BA2","019ce87b-d0ce-7773-a5df-97ce5a960364","019ce875-66c2-7f0b-b5e8-086c75889f84","","596","
                    <div class=""stimulus-container"">
                        <img src=""images/causal_sequence/saving_a_cat_causal/saving_a_cat_causal_9.png"" class=""exp-image"">
                        <div class=""question-area"">
                            <p style=""font-size: 20px; font-weight: bold; margin: 0;"">Is there a person in this image?</p>
                        </div>
                    </div>","0","main_causal_task","9","saving_a_cat_causal","","","","",""
"","","","","","instructions","129","419780","0.0-129.0","0FD131778B6A42B7A1FF3C1ED3C55BA2","019ce87b-d0ce-7773-a5df-97ce5a960364","019ce875-66c2-7f0b-b5e8-086c75889f84","[{""page_index"":0,""viewing_time"":4850}]","4851","","","","","","","","","",""
"","","","","","instructions","130","427445","0.0-130.0","0FD131778B6A42B7A1FF3C1ED3C55BA2","019ce87b-d0ce-7773-a5df-97ce5a960364","019ce875-66c2-7f0b-b5e8-086c75889f84","[{""page_index"":0,""viewing_time"":7665}]","7665","","","","","","","","","",""
"","","","","","html-button-response","131","431313","0.0-131.0-0.0","0FD131778B6A42B7A1FF3C1ED3C55BA2","019ce87b-d0ce-7773-a5df-97ce5a960364","019ce875-66c2-7f0b-b5e8-086c75889f84","","3866","
                <div style=""margin-bottom:20px;""><h3>Example: Valuable Image</h3></div>
                <div class=""stimulus-container"" style=""display: flex; align-items: center; justify-content: center; gap: 30px;"">
                    <img src=""images/instructions/movie_1.png"" class=""exp-image"">
                    <div style=""font-size: 35px; font-weight: bold; color: green; border: 5px solid green; padding: 20px; border-radius: 15px; background-color: #f0fff0;"">
                        WORTH<br>$1
                    </div>
                </div>
                <div class=""question-area""><p>Was there a person in this image?</p></div>","0","","","","","","","",""
"","","","","","html-button-response","132","434996","0.0-131.0-1.0","0FD131778B6A42B7A1FF3C1ED3C55BA2","019ce87b-d0ce-7773-a5df-97ce5a960364","019ce875-66c2-7f0b-b5e8-086c75889f84","","3681","
                <div style=""margin-bottom:20px;""><h3>Example: Neutral Image</h3></div>
                <div class=""stimulus-container"" style=""display: flex; align-items: center; justify-content: center; gap: 30px;"">
                    <img src=""images/instructions/movie_2.png"" class=""exp-image"">
                    <div style=""font-size: 35px; font-weight: bold; color: grey; border: 5px solid grey; padding: 20px; border-radius: 15px; background-color: #f0f0f0;"">
                        NEUTRAL<br>VALUE
                    </div>
                </div>
                <div class=""question-area""><p>Was there a person in this image?</p></div>","0","","","","","","","",""
"","","","","","html-keyboard-response","133","442999","0.0-132.0","0FD131778B6A42B7A1FF3C1ED3C55BA2","019ce87b-d0ce-7773-a5df-97ce5a960364","019ce875-66c2-7f0b-b5e8-086c75889f84","","null","
            <div class=""stimulus-container"" style=""display: flex; align-items: center; justify-content: center; gap: 30px;"">
                <img src=""images/causal_sequence/coin_causal/coin_causal_5.png"" class=""exp-image"">
                <div style=""font-size: 40px; font-weight: bold; color: green; border: 5px solid green; padding: 25px; border-radius: 15px; background-color: #f0fff0;"">
                    WORTH<br>$1
                </div>
            </div>
            <div class=""question-area""></div>","null","","","","","","","",""
"","","","","","html-button-response","134","446002","0.0-133.0","0FD131778B6A42B7A1FF3C1ED3C55BA2","019ce87b-d0ce-7773-a5df-97ce5a960364","019ce875-66c2-7f0b-b5e8-086c75889f84","","null","
            <div class=""stimulus-container"" style=""display: flex; align-items: center; justify-content: center; gap: 30px;"">
                <img src=""images/causal_sequence/coin_causal/coin_causal_5.png"" class=""exp-image"">
                <div style=""font-size: 40px; font-weight: bold; color: green; border: 5px solid green; padding: 25px; border-radius: 15px; background-color: #f0fff0;"">
                    WORTH<br>$1
                </div>
            </div>
            <div class=""question-area"">
                <p style=""font-size: 20px; font-weight: bold; margin: 0;"">Was there a person in this image?</p>
            </div>","null","part2_value_learning","","coin_causal","5","valuable","","",""
"","","","","","html-keyboard-response","135","454005","0.0-134.0","0FD131778B6A42B7A1FF3C1ED3C55BA2","019ce87b-d0ce-7773-a5df-97ce5a960364","019ce875-66c2-7f0b-b5e8-086c75889f84","","null","
            <div class=""stimulus-container"" style=""display: flex; align-items: center; justify-content: center; gap: 30px;"">
                <img src=""images/causal_sequence/package_causal/package_causal_5.png"" class=""exp-image"">
                <div style=""font-size: 40px; font-weight: bold; color: green; border: 5px solid green; padding: 25px; border-radius: 15px; background-color: #f0fff0;"">
                    WORTH<br>$1
                </div>
            </div>
            <div class=""question-area""></div>","null","","","","","","","",""
"","","","","","html-button-response","136","454662","0.0-135.0","0FD131778B6A42B7A1FF3C1ED3C55BA2","019ce87b-d0ce-7773-a5df-97ce5a960364","019ce875-66c2-7f0b-b5e8-086c75889f84","","656","
            <div class=""stimulus-container"" style=""display: flex; align-items: center; justify-content: center; gap: 30px;"">
                <img src=""images/causal_sequence/package_causal/package_causal_5.png"" class=""exp-image"">
                <div style=""font-size: 40px; font-weight: bold; color: green; border: 5px solid green; padding: 25px; border-radius: 15px; background-color: #f0fff0;"">
                    WORTH<br>$1
                </div>
            </div>
            <div class=""question-area"">
                <p style=""font-size: 20px; font-weight: bold; margin: 0;"">Was there a person in this image?</p>
            </div>","0","part2_value_learning","","package_causal","5","valuable","","",""
"","","","","","html-keyboard-response","137","462664","0.0-136.0","0FD131778B6A42B7A1FF3C1ED3C55BA2","019ce87b-d0ce-7773-a5df-97ce5a960364","019ce875-66c2-7f0b-b5e8-086c75889f84","","null","
            <div class=""stimulus-container"" style=""display: flex; align-items: center; justify-content: center; gap: 30px;"">
                <img src=""images/causal_sequence/museum_causal/museum_causal_4.png"" class=""exp-image"">
                <div style=""font-size: 40px; font-weight: bold; color: green; border: 5px solid green; padding: 25px; border-radius: 15px; background-color: #f0fff0;"">
                    WORTH<br>$1
                </div>
            </div>
            <div class=""question-area""></div>","null","","","","","","","",""
"","","","","","html-button-response","138","464145","0.0-137.0","0FD131778B6A42B7A1FF3C1ED3C55BA2","019ce87b-d0ce-7773-a5df-97ce5a960364","019ce875-66c2-7f0b-b5e8-086c75889f84","","1480","
            <div class=""stimulus-container"" style=""display: flex; align-items: center; justify-content: center; gap: 30px;"">
                <img src=""images/causal_sequence/museum_causal/museum_causal_4.png"" class=""exp-image"">
                <div style=""font-size: 40px; font-weight: bold; color: green; border: 5px solid green; padding: 25px; border-radius: 15px; background-color: #f0fff0;"">
                    WORTH<br>$1
                </div>
            </div>
            <div class=""question-area"">
                <p style=""font-size: 20px; font-weight: bold; margin: 0;"">Was there a person in this image?</p>
            </div>","1","part2_value_learning","","museum_causal","4","valuable","","",""
"","","","","","html-keyboard-response","139","472148","0.0-138.0","0FD131778B6A42B7A1FF3C1ED3C55BA2","019ce87b-d0ce-7773-a5df-97ce5a960364","019ce875-66c2-7f0b-b5e8-086c75889f84","","null","
            <div class=""stimulus-container"" style=""display: flex; align-items: center; justify-content: center; gap: 30px;"">
                <img src=""images/causal_sequence/saving_a_cat_causal/saving_a_cat_causal_7.png"" class=""exp-image"">
                <div style=""font-size: 40px; font-weight: bold; color: grey; border: 5px solid grey; padding: 25px; border-radius: 15px; background-color: #f0f0f0;"">
                    NEUTRAL<br>VALUE
                </div>
            </div>
            <div class=""question-area""></div>","null","","","","","","","",""
"","","","","","html-button-response","140","473479","0.0-139.0","0FD131778B6A42B7A1FF3C1ED3C55BA2","019ce87b-d0ce-7773-a5df-97ce5a960364","019ce875-66c2-7f0b-b5e8-086c75889f84","","1329","
            <div class=""stimulus-container"" style=""display: flex; align-items: center; justify-content: center; gap: 30px;"">
                <img src=""images/causal_sequence/saving_a_cat_causal/saving_a_cat_causal_7.png"" class=""exp-image"">
                <div style=""font-size: 40px; font-weight: bold; color: grey; border: 5px solid grey; padding: 25px; border-radius: 15px; background-color: #f0f0f0;"">
                    NEUTRAL<br>VALUE
                </div>
            </div>
            <div class=""question-area"">
                <p style=""font-size: 20px; font-weight: bold; margin: 0;"">Was there a person in this image?</p>
            </div>","0","part2_value_learning","","saving_a_cat_causal","7","neutral","","",""
"","","","","","html-keyboard-response","141","481482","0.0-140.0","0FD131778B6A42B7A1FF3C1ED3C55BA2","019ce87b-d0ce-7773-a5df-97ce5a960364","019ce875-66c2-7f0b-b5e8-086c75889f84","","null","
            <div class=""stimulus-container"" style=""display: flex; align-items: center; justify-content: center; gap: 30px;"">
                <img src=""images/causal_sequence/dog_causal/dog_causal_7.png"" class=""exp-image"">
                <div style=""font-size: 40px; font-weight: bold; color: grey; border: 5px solid grey; padding: 25px; border-radius: 15px; background-color: #f0f0f0;"">
                    NEUTRAL<br>VALUE
                </div>
            </div>
            <div class=""question-area""></div>","null","","","","","","","",""
"","","","","","html-button-response","142","482212","0.0-141.0","0FD131778B6A42B7A1FF3C1ED3C55BA2","019ce87b-d0ce-7773-a5df-97ce5a960364","019ce875-66c2-7f0b-b5e8-086c75889f84","","728","
            <div class=""stimulus-container"" style=""display: flex; align-items: center; justify-content: center; gap: 30px;"">
                <img src=""images/causal_sequence/dog_causal/dog_causal_7.png"" class=""exp-image"">
                <div style=""font-size: 40px; font-weight: bold; color: grey; border: 5px solid grey; padding: 25px; border-radius: 15px; background-color: #f0f0f0;"">
                    NEUTRAL<br>VALUE
                </div>
            </div>
            <div class=""question-area"">
                <p style=""font-size: 20px; font-weight: bold; margin: 0;"">Was there a person in this image?</p>
            </div>","0","part2_value_learning","","dog_causal","7","neutral","","",""
"","","","","","html-keyboard-response","143","490215","0.0-142.0","0FD131778B6A42B7A1FF3C1ED3C55BA2","019ce87b-d0ce-7773-a5df-97ce5a960364","019ce875-66c2-7f0b-b5e8-086c75889f84","","null","
            <div class=""stimulus-container"" style=""display: flex; align-items: center; justify-content: center; gap: 30px;"">
                <img src=""images/causal_sequence/the_performance_causal/the_performance_causal_4.png"" class=""exp-image"">
                <div style=""font-size: 40px; font-weight: bold; color: grey; border: 5px solid grey; padding: 25px; border-radius: 15px; background-color: #f0f0f0;"">
                    NEUTRAL<br>VALUE
                </div>
            </div>
            <div class=""question-area""></div>","null","","","","","","","",""
"","","","","","html-button-response","144","490829","0.0-143.0","0FD131778B6A42B7A1FF3C1ED3C55BA2","019ce87b-d0ce-7773-a5df-97ce5a960364","019ce875-66c2-7f0b-b5e8-086c75889f84","","612","
            <div class=""stimulus-container"" style=""display: flex; align-items: center; justify-content: center; gap: 30px;"">
                <img src=""images/causal_sequence/the_performance_causal/the_performance_causal_4.png"" class=""exp-image"">
                <div style=""font-size: 40px; font-weight: bold; color: grey; border: 5px solid grey; padding: 25px; border-radius: 15px; background-color: #f0f0f0;"">
                    NEUTRAL<br>VALUE
                </div>
            </div>
            <div class=""question-area"">
                <p style=""font-size: 20px; font-weight: bold; margin: 0;"">Was there a person in this image?</p>
            </div>","0","part2_value_learning","","the_performance_causal","4","neutral","","",""
"","","","","","instructions","145","505161","0.0-144.0","0FD131778B6A42B7A1FF3C1ED3C55BA2","019ce87b-d0ce-7773-a5df-97ce5a960364","019ce875-66c2-7f0b-b5e8-086c75889f84","[{""page_index"":0,""viewing_time"":14331}]","14331","","","","","","","","","",""
"","","","","","html-keyboard-response","146","515165","0.0-145.0-0.0","0FD131778B6A42B7A1FF3C1ED3C55BA2","019ce87b-d0ce-7773-a5df-97ce5a960364","019ce875-66c2-7f0b-b5e8-086c75889f84","","null","
                        <div style=""font-family: Arial; margin-bottom: 20px;""><h3>Which image is more valuable?</h3></div>
                        <div class=""stimulus-container"" style=""display: flex; width: 1100px; justify-content: center; gap: 50px;"">
                            <img src=""images/causal_sequence/package_causal/package_causal_4.png"" class=""exp-image"">
                            <img src=""images/causal_sequence/package_causal/package_causal_6.png"" class=""exp-image"">
                        </div>","null","","","","","","","",""
"","","","","","html-button-response","147","516961","0.0-145.0-1.0","0FD131778B6A42B7A1FF3C1ED3C55BA2","019ce87b-d0ce-7773-a5df-97ce5a960364","019ce875-66c2-7f0b-b5e8-086c75889f84","","1793","
                        <div style=""font-family: Arial; margin-bottom: 20px;""><h3>Which image is more valuable?</h3></div>
                        <div class=""stimulus-container"" style=""display: flex; width: 1100px; justify-content: center; gap: 50px;"">
                            <img src=""images/causal_sequence/package_causal/package_causal_4.png"" class=""exp-image"">
                            <img src=""images/causal_sequence/package_causal/package_causal_6.png"" class=""exp-image"">
                        </div>","1","part3_final_choice","","package_causal","","valuable","5","6","1"
"","","","","","html-keyboard-response","148","526963","0.0-146.0-0.0","0FD131778B6A42B7A1FF3C1ED3C55BA2","019ce87b-d0ce-7773-a5df-97ce5a960364","019ce875-66c2-7f0b-b5e8-086c75889f84","","null","
                        <div style=""font-family: Arial; margin-bottom: 20px;""><h3>Which image is more valuable?</h3></div>
                        <div class=""stimulus-container"" style=""display: flex; width: 1100px; justify-content: center; gap: 50px;"">
                            <img src=""images/causal_sequence/dog_causal/dog_causal_6.png"" class=""exp-image"">
                            <img src=""images/causal_sequence/dog_causal/dog_causal_8.png"" class=""exp-image"">
                        </div>","null","","","","","","","",""
"","","","","","html-button-response","149","529279","0.0-146.0-1.0","0FD131778B6A42B7A1FF3C1ED3C55BA2","019ce87b-d0ce-7773-a5df-97ce5a960364","019ce875-66c2-7f0b-b5e8-086c75889f84","","2314","
                        <div style=""font-family: Arial; margin-bottom: 20px;""><h3>Which image is more valuable?</h3></div>
                        <div class=""stimulus-container"" style=""display: flex; width: 1100px; justify-content: center; gap: 50px;"">
                            <img src=""images/causal_sequence/dog_causal/dog_causal_6.png"" class=""exp-image"">
                            <img src=""images/causal_sequence/dog_causal/dog_causal_8.png"" class=""exp-image"">
                        </div>","0","part3_final_choice","","dog_causal","","neutral","7","6","-1"
"","","","","","html-keyboard-response","150","539281","0.0-147.0-0.0","0FD131778B6A42B7A1FF3C1ED3C55BA2","019ce87b-d0ce-7773-a5df-97ce5a960364","019ce875-66c2-7f0b-b5e8-086c75889f84","","null","
                        <div style=""font-family: Arial; margin-bottom: 20px;""><h3>Which image is more valuable?</h3></div>
                        <div class=""stimulus-container"" style=""display: flex; width: 1100px; justify-content: center; gap: 50px;"">
                            <img src=""images/causal_sequence/the_performance_causal/the_performance_causal_3.png"" class=""exp-image"">
                            <img src=""images/causal_sequence/the_performance_causal/the_performance_causal_5.png"" class=""exp-image"">
                        </div>","null","","","","","","","",""
"","","","","","html-button-response","151","540079","0.0-147.0-1.0","0FD131778B6A42B7A1FF3C1ED3C55BA2","019ce87b-d0ce-7773-a5df-97ce5a960364","019ce875-66c2-7f0b-b5e8-086c75889f84","","796","
                        <div style=""font-family: Arial; margin-bottom: 20px;""><h3>Which image is more valuable?</h3></div>
                        <div class=""stimulus-container"" style=""display: flex; width: 1100px; justify-content: center; gap: 50px;"">
                            <img src=""images/causal_sequence/the_performance_causal/the_performance_causal_3.png"" class=""exp-image"">
                            <img src=""images/causal_sequence/the_performance_causal/the_performance_causal_5.png"" class=""exp-image"">
                        </div>","0","part3_final_choice","","the_performance_causal","","neutral","4","3","-1"
"","","","","","html-keyboard-response","152","550081","0.0-148.0-0.0","0FD131778B6A42B7A1FF3C1ED3C55BA2","019ce87b-d0ce-7773-a5df-97ce5a960364","019ce875-66c2-7f0b-b5e8-086c75889f84","","null","
                        <div style=""font-family: Arial; margin-bottom: 20px;""><h3>Which image is more valuable?</h3></div>
                        <div class=""stimulus-container"" style=""display: flex; width: 1100px; justify-content: center; gap: 50px;"">
                            <img src=""images/causal_sequence/coin_causal/coin_causal_6.png"" class=""exp-image"">
                            <img src=""images/causal_sequence/coin_causal/coin_causal_4.png"" class=""exp-image"">
                        </div>","null","","","","","","","",""
"","","","","","html-button-response","153","550711","0.0-148.0-1.0","0FD131778B6A42B7A1FF3C1ED3C55BA2","019ce87b-d0ce-7773-a5df-97ce5a960364","019ce875-66c2-7f0b-b5e8-086c75889f84","","629","
                        <div style=""font-family: Arial; margin-bottom: 20px;""><h3>Which image is more valuable?</h3></div>
                        <div class=""stimulus-container"" style=""display: flex; width: 1100px; justify-content: center; gap: 50px;"">
                            <img src=""images/causal_sequence/coin_causal/coin_causal_6.png"" class=""exp-image"">
                            <img src=""images/causal_sequence/coin_causal/coin_causal_4.png"" class=""exp-image"">
                        </div>","0","part3_final_choice","","coin_causal","","valuable","5","6","1"
"","","","","","html-keyboard-response","154","560713","0.0-149.0-0.0","0FD131778B6A42B7A1FF3C1ED3C55BA2","019ce87b-d0ce-7773-a5df-97ce5a960364","019ce875-66c2-7f0b-b5e8-086c75889f84","","null","
                        <div style=""font-family: Arial; margin-bottom: 20px;""><h3>Which image is more valuable?</h3></div>
                        <div class=""stimulus-container"" style=""display: flex; width: 1100px; justify-content: center; gap: 50px;"">
                            <img src=""images/causal_sequence/saving_a_cat_causal/saving_a_cat_causal_8.png"" class=""exp-image"">
                            <img src=""images/causal_sequence/saving_a_cat_causal/saving_a_cat_causal_6.png"" class=""exp-image"">
                        </div>","null","","","","","","","",""
"","","","","","html-button-response","155","561679","0.0-149.0-1.0","0FD131778B6A42B7A1FF3C1ED3C55BA2","019ce87b-d0ce-7773-a5df-97ce5a960364","019ce875-66c2-7f0b-b5e8-086c75889f84","","965","
                        <div style=""font-family: Arial; margin-bottom: 20px;""><h3>Which image is more valuable?</h3></div>
                        <div class=""stimulus-container"" style=""display: flex; width: 1100px; justify-content: center; gap: 50px;"">
                            <img src=""images/causal_sequence/saving_a_cat_causal/saving_a_cat_causal_8.png"" class=""exp-image"">
                            <img src=""images/causal_sequence/saving_a_cat_causal/saving_a_cat_causal_6.png"" class=""exp-image"">
                        </div>","1","part3_final_choice","","saving_a_cat_causal","","neutral","7","6","-1"
"","","","","","html-keyboard-response","156","571682","0.0-150.0-0.0","0FD131778B6A42B7A1FF3C1ED3C55BA2","019ce87b-d0ce-7773-a5df-97ce5a960364","019ce875-66c2-7f0b-b5e8-086c75889f84","","null","
                        <div style=""font-family: Arial; margin-bottom: 20px;""><h3>Which image is more valuable?</h3></div>
                        <div class=""stimulus-container"" style=""display: flex; width: 1100px; justify-content: center; gap: 50px;"">
                            <img src=""images/causal_sequence/museum_causal/museum_causal_5.png"" class=""exp-image"">
                            <img src=""images/causal_sequence/museum_causal/museum_causal_3.png"" class=""exp-image"">
                        </div>","null","","","","","","","",""
"","","","","","html-button-response","157","572411","0.0-150.0-1.0","0FD131778B6A42B7A1FF3C1ED3C55BA2","019ce87b-d0ce-7773-a5df-97ce5a960364","019ce875-66c2-7f0b-b5e8-086c75889f84","","728","
                        <div style=""font-family: Arial; margin-bottom: 20px;""><h3>Which image is more valuable?</h3></div>
                        <div class=""stimulus-container"" style=""display: flex; width: 1100px; justify-content: center; gap: 50px;"">
                            <img src=""images/causal_sequence/museum_causal/museum_causal_5.png"" class=""exp-image"">
                            <img src=""images/causal_sequence/museum_causal/museum_causal_3.png"" class=""exp-image"">
                        </div>","0","part3_final_choice","","museum_causal","","valuable","4","5","1"
"","","","","","survey-text","158","691664","0.0-151.0","0FD131778B6A42B7A1FF3C1ED3C55BA2","019ce87b-d0ce-7773-a5df-97ce5a960364","019ce875-66c2-7f0b-b5e8-086c75889f84","","119226","","{""gender"":""MALE"",""age"":""32"",""decision_strategy"":""from memory in the prior when they showed me the value of each photo"",""consistency_check"":""Same logic for each set of photos""}","demographics_and_strategy","","","","","","",""
"","","","","","instructions","159","696712","0.0-152.0","0FD131778B6A42B7A1FF3C1ED3C55BA2","019ce87b-d0ce-7773-a5df-97ce5a960364","019ce875-66c2-7f0b-b5e8-086c75889f84","[{""page_index"":0,""viewing_time"":5047}]","5048","","","","","","","","","",""
