"success","timeout","failed_images","failed_audio","failed_video","trial_type","trial_index","time_elapsed","internal_node_id","subject_id","study_id","session_id","view_history","rt","stimulus","response","task","image_index","folder","sequence_type","valuable_image_index","reward_type","chosen_image_index","target_X","correct_choice"
"true","false","[]","[]","[]","preload","0","4941","0.0-0.0","E2AA49B142CB4B6888391400B93B1A49","019cf81e-3afa-75fa-8205-bbeafbb9c266","019cf80d-4266-7117-8a51-54e13c84aca4","","","","","","","","","","","","",""
"","","","","","instructions","1","10087","0.0-1.0","E2AA49B142CB4B6888391400B93B1A49","019cf81e-3afa-75fa-8205-bbeafbb9c266","019cf80d-4266-7117-8a51-54e13c84aca4","[{""page_index"":0,""viewing_time"":5145}]","5145","","","","","","","","","","",""
"","","","","","instructions","2","14010","0.0-2.0","E2AA49B142CB4B6888391400B93B1A49","019cf81e-3afa-75fa-8205-bbeafbb9c266","019cf80d-4266-7117-8a51-54e13c84aca4","[{""page_index"":0,""viewing_time"":3922}]","3922","","","","","","","","","","",""
"true","","","","","fullscreen","3","17619","0.0-3.0","E2AA49B142CB4B6888391400B93B1A49","019cf81e-3afa-75fa-8205-bbeafbb9c266","019cf80d-4266-7117-8a51-54e13c84aca4","","2594","","","","","","","","","","",""
"","","","","","instructions","4","32489","0.0-4.0","E2AA49B142CB4B6888391400B93B1A49","019cf81e-3afa-75fa-8205-bbeafbb9c266","019cf80d-4266-7117-8a51-54e13c84aca4","[{""page_index"":0,""viewing_time"":14869}]","14869","","","","","","","","","","",""
"","","","","","instructions","5","39131","0.0-5.0","E2AA49B142CB4B6888391400B93B1A49","019cf81e-3afa-75fa-8205-bbeafbb9c266","019cf80d-4266-7117-8a51-54e13c84aca4","[{""page_index"":0,""viewing_time"":6642}]","6643","","","","","","","","","","",""
"","","","","","html-keyboard-response","6","43141","0.0-6.0","E2AA49B142CB4B6888391400B93B1A49","019cf81e-3afa-75fa-8205-bbeafbb9c266","019cf80d-4266-7117-8a51-54e13c84aca4","","null","
                <div class=""stimulus-container"">
                    <img src=""images/instructions/movie_1.png"" class=""exp-image"">
                    <div class=""question-area""></div> 
                </div>","null","","","","","","","","",""
"","","","","","html-button-response","7","46146","0.0-7.0","E2AA49B142CB4B6888391400B93B1A49","019cf81e-3afa-75fa-8205-bbeafbb9c266","019cf80d-4266-7117-8a51-54e13c84aca4","","null","
                <div class=""stimulus-container"">
                    <img src=""images/instructions/movie_1.png"" class=""exp-image"">
                    <div class=""question-area"">
                        <p style=""font-size: 20px; font-weight: bold; margin: 0;"">Was there a person in this image?</p>
                    </div>
                </div>","null","example_question","1","","","","","","",""
"","","","","","html-keyboard-response","8","50151","0.0-8.0","E2AA49B142CB4B6888391400B93B1A49","019cf81e-3afa-75fa-8205-bbeafbb9c266","019cf80d-4266-7117-8a51-54e13c84aca4","","null","
                <div class=""stimulus-container"">
                    <img src=""images/instructions/movie_2.png"" class=""exp-image"">
                    <div class=""question-area""></div> 
                </div>","null","","","","","","","","",""
"","","","","","html-button-response","9","51824","0.0-9.0","E2AA49B142CB4B6888391400B93B1A49","019cf81e-3afa-75fa-8205-bbeafbb9c266","019cf80d-4266-7117-8a51-54e13c84aca4","","1673","
                <div class=""stimulus-container"">
                    <img src=""images/instructions/movie_2.png"" class=""exp-image"">
                    <div class=""question-area"">
                        <p style=""font-size: 20px; font-weight: bold; margin: 0;"">Was there a person in this image?</p>
                    </div>
                </div>","1","example_question","2","","","","","","",""
"","","","","","html-keyboard-response","10","55826","0.0-10.0","E2AA49B142CB4B6888391400B93B1A49","019cf81e-3afa-75fa-8205-bbeafbb9c266","019cf80d-4266-7117-8a51-54e13c84aca4","","null","
                <div class=""stimulus-container"">
                    <img src=""images/instructions/movie_3.png"" class=""exp-image"">
                    <div class=""question-area""></div> 
                </div>","null","","","","","","","","",""
"","","","","","html-button-response","11","57265","0.0-11.0","E2AA49B142CB4B6888391400B93B1A49","019cf81e-3afa-75fa-8205-bbeafbb9c266","019cf80d-4266-7117-8a51-54e13c84aca4","","1438","
                <div class=""stimulus-container"">
                    <img src=""images/instructions/movie_3.png"" class=""exp-image"">
                    <div class=""question-area"">
                        <p style=""font-size: 20px; font-weight: bold; margin: 0;"">Was there a person in this image?</p>
                    </div>
                </div>","0","example_question","3","","","","","","",""
"","","","","","html-keyboard-response","12","61272","0.0-12.0","E2AA49B142CB4B6888391400B93B1A49","019cf81e-3afa-75fa-8205-bbeafbb9c266","019cf80d-4266-7117-8a51-54e13c84aca4","","null","
                <div class=""stimulus-container"">
                    <img src=""images/instructions/movie_4.png"" class=""exp-image"">
                    <div class=""question-area""></div> 
                </div>","null","","","","","","","","",""
"","","","","","html-button-response","13","62359","0.0-13.0","E2AA49B142CB4B6888391400B93B1A49","019cf81e-3afa-75fa-8205-bbeafbb9c266","019cf80d-4266-7117-8a51-54e13c84aca4","","1086","
                <div class=""stimulus-container"">
                    <img src=""images/instructions/movie_4.png"" class=""exp-image"">
                    <div class=""question-area"">
                        <p style=""font-size: 20px; font-weight: bold; margin: 0;"">Was there a person in this image?</p>
                    </div>
                </div>","0","example_question","4","","","","","","",""
"","","","","","instructions","14","64341","0.0-14.0","E2AA49B142CB4B6888391400B93B1A49","019cf81e-3afa-75fa-8205-bbeafbb9c266","019cf80d-4266-7117-8a51-54e13c84aca4","[{""page_index"":0,""viewing_time"":1982}]","1982","","","","","","","","","","",""
"","","","","","instructions","15","73926","0.0-15.0","E2AA49B142CB4B6888391400B93B1A49","019cf81e-3afa-75fa-8205-bbeafbb9c266","019cf80d-4266-7117-8a51-54e13c84aca4","[{""page_index"":0,""viewing_time"":9584}]","9584","","","","","","","","","","",""
"","","","","","html-keyboard-response","16","74929","0.0-16.0","E2AA49B142CB4B6888391400B93B1A49","019cf81e-3afa-75fa-8205-bbeafbb9c266","019cf80d-4266-7117-8a51-54e13c84aca4","","null","<div style=""background-color: white; width: 100vw; height: 100vh;""></div>","null","","","","","","","","",""
"","","","","","html-keyboard-response","17","79941","0.0-17.0","E2AA49B142CB4B6888391400B93B1A49","019cf81e-3afa-75fa-8205-bbeafbb9c266","019cf80d-4266-7117-8a51-54e13c84aca4","","null","
                <div class=""stimulus-container"">
                    <img src=""images/schematic_sequence/hotel_scheme/hotel_scheme_1.png"" class=""exp-image"">
                    <div class=""question-area""></div> 
                </div>","null","","","","","","","","",""
"","","","","","html-button-response","18","81701","0.0-18.0","E2AA49B142CB4B6888391400B93B1A49","019cf81e-3afa-75fa-8205-bbeafbb9c266","019cf80d-4266-7117-8a51-54e13c84aca4","","1758","
                <div class=""stimulus-container"">
                    <img src=""images/schematic_sequence/hotel_scheme/hotel_scheme_1.png"" class=""exp-image"">
                    <div class=""question-area"">
                        <p style=""font-size: 20px; font-weight: bold; margin: 0;"">Is there a person in this image?</p>
                    </div>
                </div>","1","main_experiment_trial","1","hotel_scheme","schematic_sequence","","","","",""
"","","","","","html-keyboard-response","19","86708","0.0-19.0","E2AA49B142CB4B6888391400B93B1A49","019cf81e-3afa-75fa-8205-bbeafbb9c266","019cf80d-4266-7117-8a51-54e13c84aca4","","null","
                <div class=""stimulus-container"">
                    <img src=""images/schematic_sequence/hotel_scheme/hotel_scheme_2.png"" class=""exp-image"">
                    <div class=""question-area""></div> 
                </div>","null","","","","","","","","",""
"","","","","","html-button-response","20","87795","0.0-20.0","E2AA49B142CB4B6888391400B93B1A49","019cf81e-3afa-75fa-8205-bbeafbb9c266","019cf80d-4266-7117-8a51-54e13c84aca4","","1086","
                <div class=""stimulus-container"">
                    <img src=""images/schematic_sequence/hotel_scheme/hotel_scheme_2.png"" class=""exp-image"">
                    <div class=""question-area"">
                        <p style=""font-size: 20px; font-weight: bold; margin: 0;"">Is there a person in this image?</p>
                    </div>
                </div>","0","main_experiment_trial","2","hotel_scheme","schematic_sequence","","","","",""
"","","","","","html-keyboard-response","21","92802","0.0-21.0","E2AA49B142CB4B6888391400B93B1A49","019cf81e-3afa-75fa-8205-bbeafbb9c266","019cf80d-4266-7117-8a51-54e13c84aca4","","null","
                <div class=""stimulus-container"">
                    <img src=""images/schematic_sequence/hotel_scheme/hotel_scheme_3.png"" class=""exp-image"">
                    <div class=""question-area""></div> 
                </div>","null","","","","","","","","",""
"","","","","","html-button-response","22","93920","0.0-22.0","E2AA49B142CB4B6888391400B93B1A49","019cf81e-3afa-75fa-8205-bbeafbb9c266","019cf80d-4266-7117-8a51-54e13c84aca4","","1118","
                <div class=""stimulus-container"">
                    <img src=""images/schematic_sequence/hotel_scheme/hotel_scheme_3.png"" class=""exp-image"">
                    <div class=""question-area"">
                        <p style=""font-size: 20px; font-weight: bold; margin: 0;"">Is there a person in this image?</p>
                    </div>
                </div>","0","main_experiment_trial","3","hotel_scheme","schematic_sequence","","","","",""
"","","","","","html-keyboard-response","23","98922","0.0-23.0","E2AA49B142CB4B6888391400B93B1A49","019cf81e-3afa-75fa-8205-bbeafbb9c266","019cf80d-4266-7117-8a51-54e13c84aca4","","null","
                <div class=""stimulus-container"">
                    <img src=""images/schematic_sequence/hotel_scheme/hotel_scheme_4.png"" class=""exp-image"">
                    <div class=""question-area""></div> 
                </div>","null","","","","","","","","",""
"","","","","","html-button-response","24","100065","0.0-24.0","E2AA49B142CB4B6888391400B93B1A49","019cf81e-3afa-75fa-8205-bbeafbb9c266","019cf80d-4266-7117-8a51-54e13c84aca4","","1141","
                <div class=""stimulus-container"">
                    <img src=""images/schematic_sequence/hotel_scheme/hotel_scheme_4.png"" class=""exp-image"">
                    <div class=""question-area"">
                        <p style=""font-size: 20px; font-weight: bold; margin: 0;"">Is there a person in this image?</p>
                    </div>
                </div>","1","main_experiment_trial","4","hotel_scheme","schematic_sequence","","","","",""
"","","","","","html-keyboard-response","25","105070","0.0-25.0","E2AA49B142CB4B6888391400B93B1A49","019cf81e-3afa-75fa-8205-bbeafbb9c266","019cf80d-4266-7117-8a51-54e13c84aca4","","null","
                <div class=""stimulus-container"">
                    <img src=""images/schematic_sequence/hotel_scheme/hotel_scheme_5.png"" class=""exp-image"">
                    <div class=""question-area""></div> 
                </div>","null","","","","","","","","",""
"","","","","","html-button-response","26","106661","0.0-26.0","E2AA49B142CB4B6888391400B93B1A49","019cf81e-3afa-75fa-8205-bbeafbb9c266","019cf80d-4266-7117-8a51-54e13c84aca4","","1590","
                <div class=""stimulus-container"">
                    <img src=""images/schematic_sequence/hotel_scheme/hotel_scheme_5.png"" class=""exp-image"">
                    <div class=""question-area"">
                        <p style=""font-size: 20px; font-weight: bold; margin: 0;"">Is there a person in this image?</p>
                    </div>
                </div>","0","main_experiment_trial","5","hotel_scheme","schematic_sequence","","","","",""
"","","","","","html-keyboard-response","27","111662","0.0-27.0","E2AA49B142CB4B6888391400B93B1A49","019cf81e-3afa-75fa-8205-bbeafbb9c266","019cf80d-4266-7117-8a51-54e13c84aca4","","null","
                <div class=""stimulus-container"">
                    <img src=""images/schematic_sequence/hotel_scheme/hotel_scheme_6.png"" class=""exp-image"">
                    <div class=""question-area""></div> 
                </div>","null","","","","","","","","",""
"","","","","","html-button-response","28","112657","0.0-28.0","E2AA49B142CB4B6888391400B93B1A49","019cf81e-3afa-75fa-8205-bbeafbb9c266","019cf80d-4266-7117-8a51-54e13c84aca4","","994","
                <div class=""stimulus-container"">
                    <img src=""images/schematic_sequence/hotel_scheme/hotel_scheme_6.png"" class=""exp-image"">
                    <div class=""question-area"">
                        <p style=""font-size: 20px; font-weight: bold; margin: 0;"">Is there a person in this image?</p>
                    </div>
                </div>","0","main_experiment_trial","6","hotel_scheme","schematic_sequence","","","","",""
"","","","","","html-keyboard-response","29","117662","0.0-29.0","E2AA49B142CB4B6888391400B93B1A49","019cf81e-3afa-75fa-8205-bbeafbb9c266","019cf80d-4266-7117-8a51-54e13c84aca4","","null","
                <div class=""stimulus-container"">
                    <img src=""images/schematic_sequence/hotel_scheme/hotel_scheme_7.png"" class=""exp-image"">
                    <div class=""question-area""></div> 
                </div>","null","","","","","","","","",""
"","","","","","html-button-response","30","118649","0.0-30.0","E2AA49B142CB4B6888391400B93B1A49","019cf81e-3afa-75fa-8205-bbeafbb9c266","019cf80d-4266-7117-8a51-54e13c84aca4","","986","
                <div class=""stimulus-container"">
                    <img src=""images/schematic_sequence/hotel_scheme/hotel_scheme_7.png"" class=""exp-image"">
                    <div class=""question-area"">
                        <p style=""font-size: 20px; font-weight: bold; margin: 0;"">Is there a person in this image?</p>
                    </div>
                </div>","0","main_experiment_trial","7","hotel_scheme","schematic_sequence","","","","",""
"","","","","","html-keyboard-response","31","123663","0.0-31.0","E2AA49B142CB4B6888391400B93B1A49","019cf81e-3afa-75fa-8205-bbeafbb9c266","019cf80d-4266-7117-8a51-54e13c84aca4","","null","
                <div class=""stimulus-container"">
                    <img src=""images/schematic_sequence/hotel_scheme/hotel_scheme_8.png"" class=""exp-image"">
                    <div class=""question-area""></div> 
                </div>","null","","","","","","","","",""
"","","","","","html-button-response","32","124802","0.0-32.0","E2AA49B142CB4B6888391400B93B1A49","019cf81e-3afa-75fa-8205-bbeafbb9c266","019cf80d-4266-7117-8a51-54e13c84aca4","","1138","
                <div class=""stimulus-container"">
                    <img src=""images/schematic_sequence/hotel_scheme/hotel_scheme_8.png"" class=""exp-image"">
                    <div class=""question-area"">
                        <p style=""font-size: 20px; font-weight: bold; margin: 0;"">Is there a person in this image?</p>
                    </div>
                </div>","0","main_experiment_trial","8","hotel_scheme","schematic_sequence","","","","",""
"","","","","","html-keyboard-response","33","129803","0.0-33.0","E2AA49B142CB4B6888391400B93B1A49","019cf81e-3afa-75fa-8205-bbeafbb9c266","019cf80d-4266-7117-8a51-54e13c84aca4","","null","
                <div class=""stimulus-container"">
                    <img src=""images/schematic_sequence/hotel_scheme/hotel_scheme_9.png"" class=""exp-image"">
                    <div class=""question-area""></div> 
                </div>","null","","","","","","","","",""
"","","","","","html-button-response","34","130414","0.0-34.0","E2AA49B142CB4B6888391400B93B1A49","019cf81e-3afa-75fa-8205-bbeafbb9c266","019cf80d-4266-7117-8a51-54e13c84aca4","","610","
                <div class=""stimulus-container"">
                    <img src=""images/schematic_sequence/hotel_scheme/hotel_scheme_9.png"" class=""exp-image"">
                    <div class=""question-area"">
                        <p style=""font-size: 20px; font-weight: bold; margin: 0;"">Is there a person in this image?</p>
                    </div>
                </div>","0","main_experiment_trial","9","hotel_scheme","schematic_sequence","","","","",""
"","","","","","html-keyboard-response","35","135427","0.0-35.0","E2AA49B142CB4B6888391400B93B1A49","019cf81e-3afa-75fa-8205-bbeafbb9c266","019cf80d-4266-7117-8a51-54e13c84aca4","","null","
                <div class=""stimulus-container"">
                    <img src=""images/schematic_sequence/hotel_scheme/hotel_scheme_ten.png"" class=""exp-image"">
                    <div class=""question-area""></div> 
                </div>","null","","","","","","","","",""
"","","","","","html-button-response","36","136158","0.0-36.0","E2AA49B142CB4B6888391400B93B1A49","019cf81e-3afa-75fa-8205-bbeafbb9c266","019cf80d-4266-7117-8a51-54e13c84aca4","","729","
                <div class=""stimulus-container"">
                    <img src=""images/schematic_sequence/hotel_scheme/hotel_scheme_ten.png"" class=""exp-image"">
                    <div class=""question-area"">
                        <p style=""font-size: 20px; font-weight: bold; margin: 0;"">Is there a person in this image?</p>
                    </div>
                </div>","0","main_experiment_trial","ten","hotel_scheme","schematic_sequence","","","","",""
"","","","","","html-keyboard-response","37","137160","0.0-37.0","E2AA49B142CB4B6888391400B93B1A49","019cf81e-3afa-75fa-8205-bbeafbb9c266","019cf80d-4266-7117-8a51-54e13c84aca4","","null","<div style=""background-color: white; width: 100vw; height: 100vh;""></div>","null","","","","","","","","",""
"","","","","","html-keyboard-response","38","142163","0.0-38.0","E2AA49B142CB4B6888391400B93B1A49","019cf81e-3afa-75fa-8205-bbeafbb9c266","019cf80d-4266-7117-8a51-54e13c84aca4","","null","
                <div class=""stimulus-container"">
                    <img src=""images/semantic_sequence/housework_semantic/housework_semantic_1.png"" class=""exp-image"">
                    <div class=""question-area""></div> 
                </div>","null","","","","","","","","",""
"","","","","","html-button-response","39","143503","0.0-39.0","E2AA49B142CB4B6888391400B93B1A49","019cf81e-3afa-75fa-8205-bbeafbb9c266","019cf80d-4266-7117-8a51-54e13c84aca4","","1339","
                <div class=""stimulus-container"">
                    <img src=""images/semantic_sequence/housework_semantic/housework_semantic_1.png"" class=""exp-image"">
                    <div class=""question-area"">
                        <p style=""font-size: 20px; font-weight: bold; margin: 0;"">Is there a person in this image?</p>
                    </div>
                </div>","0","main_experiment_trial","1","housework_semantic","semantic_sequence","","","","",""
"","","","","","html-keyboard-response","40","148512","0.0-40.0","E2AA49B142CB4B6888391400B93B1A49","019cf81e-3afa-75fa-8205-bbeafbb9c266","019cf80d-4266-7117-8a51-54e13c84aca4","","null","
                <div class=""stimulus-container"">
                    <img src=""images/semantic_sequence/housework_semantic/housework_semantic_2.png"" class=""exp-image"">
                    <div class=""question-area""></div> 
                </div>","null","","","","","","","","",""
"","","","","","html-button-response","41","149748","0.0-41.0","E2AA49B142CB4B6888391400B93B1A49","019cf81e-3afa-75fa-8205-bbeafbb9c266","019cf80d-4266-7117-8a51-54e13c84aca4","","1235","
                <div class=""stimulus-container"">
                    <img src=""images/semantic_sequence/housework_semantic/housework_semantic_2.png"" class=""exp-image"">
                    <div class=""question-area"">
                        <p style=""font-size: 20px; font-weight: bold; margin: 0;"">Is there a person in this image?</p>
                    </div>
                </div>","0","main_experiment_trial","2","housework_semantic","semantic_sequence","","","","",""
"","","","","","html-keyboard-response","42","154761","0.0-42.0","E2AA49B142CB4B6888391400B93B1A49","019cf81e-3afa-75fa-8205-bbeafbb9c266","019cf80d-4266-7117-8a51-54e13c84aca4","","null","
                <div class=""stimulus-container"">
                    <img src=""images/semantic_sequence/housework_semantic/housework_semantic_3.png"" class=""exp-image"">
                    <div class=""question-area""></div> 
                </div>","null","","","","","","","","",""
"","","","","","html-button-response","43","156081","0.0-43.0","E2AA49B142CB4B6888391400B93B1A49","019cf81e-3afa-75fa-8205-bbeafbb9c266","019cf80d-4266-7117-8a51-54e13c84aca4","","1318","
                <div class=""stimulus-container"">
                    <img src=""images/semantic_sequence/housework_semantic/housework_semantic_3.png"" class=""exp-image"">
                    <div class=""question-area"">
                        <p style=""font-size: 20px; font-weight: bold; margin: 0;"">Is there a person in this image?</p>
                    </div>
                </div>","0","main_experiment_trial","3","housework_semantic","semantic_sequence","","","","",""
"","","","","","html-keyboard-response","44","161088","0.0-44.0","E2AA49B142CB4B6888391400B93B1A49","019cf81e-3afa-75fa-8205-bbeafbb9c266","019cf80d-4266-7117-8a51-54e13c84aca4","","null","
                <div class=""stimulus-container"">
                    <img src=""images/semantic_sequence/housework_semantic/housework_semantic_4.png"" class=""exp-image"">
                    <div class=""question-area""></div> 
                </div>","null","","","","","","","","",""
"","","","","","html-button-response","45","162050","0.0-45.0","E2AA49B142CB4B6888391400B93B1A49","019cf81e-3afa-75fa-8205-bbeafbb9c266","019cf80d-4266-7117-8a51-54e13c84aca4","","961","
                <div class=""stimulus-container"">
                    <img src=""images/semantic_sequence/housework_semantic/housework_semantic_4.png"" class=""exp-image"">
                    <div class=""question-area"">
                        <p style=""font-size: 20px; font-weight: bold; margin: 0;"">Is there a person in this image?</p>
                    </div>
                </div>","0","main_experiment_trial","4","housework_semantic","semantic_sequence","","","","",""
"","","","","","html-keyboard-response","46","167065","0.0-46.0","E2AA49B142CB4B6888391400B93B1A49","019cf81e-3afa-75fa-8205-bbeafbb9c266","019cf80d-4266-7117-8a51-54e13c84aca4","","null","
                <div class=""stimulus-container"">
                    <img src=""images/semantic_sequence/housework_semantic/housework_semantic_5.png"" class=""exp-image"">
                    <div class=""question-area""></div> 
                </div>","null","","","","","","","","",""
"","","","","","html-button-response","47","168036","0.0-47.0","E2AA49B142CB4B6888391400B93B1A49","019cf81e-3afa-75fa-8205-bbeafbb9c266","019cf80d-4266-7117-8a51-54e13c84aca4","","968","
                <div class=""stimulus-container"">
                    <img src=""images/semantic_sequence/housework_semantic/housework_semantic_5.png"" class=""exp-image"">
                    <div class=""question-area"">
                        <p style=""font-size: 20px; font-weight: bold; margin: 0;"">Is there a person in this image?</p>
                    </div>
                </div>","0","main_experiment_trial","5","housework_semantic","semantic_sequence","","","","",""
"","","","","","html-keyboard-response","48","173038","0.0-48.0","E2AA49B142CB4B6888391400B93B1A49","019cf81e-3afa-75fa-8205-bbeafbb9c266","019cf80d-4266-7117-8a51-54e13c84aca4","","null","
                <div class=""stimulus-container"">
                    <img src=""images/semantic_sequence/housework_semantic/housework_semantic_6.png"" class=""exp-image"">
                    <div class=""question-area""></div> 
                </div>","null","","","","","","","","",""
"","","","","","html-button-response","49","174147","0.0-49.0","E2AA49B142CB4B6888391400B93B1A49","019cf81e-3afa-75fa-8205-bbeafbb9c266","019cf80d-4266-7117-8a51-54e13c84aca4","","1108","
                <div class=""stimulus-container"">
                    <img src=""images/semantic_sequence/housework_semantic/housework_semantic_6.png"" class=""exp-image"">
                    <div class=""question-area"">
                        <p style=""font-size: 20px; font-weight: bold; margin: 0;"">Is there a person in this image?</p>
                    </div>
                </div>","0","main_experiment_trial","6","housework_semantic","semantic_sequence","","","","",""
"","","","","","html-keyboard-response","50","179156","0.0-50.0","E2AA49B142CB4B6888391400B93B1A49","019cf81e-3afa-75fa-8205-bbeafbb9c266","019cf80d-4266-7117-8a51-54e13c84aca4","","null","
                <div class=""stimulus-container"">
                    <img src=""images/semantic_sequence/housework_semantic/housework_semantic_7.png"" class=""exp-image"">
                    <div class=""question-area""></div> 
                </div>","null","","","","","","","","",""
"","","","","","html-button-response","51","179999","0.0-51.0","E2AA49B142CB4B6888391400B93B1A49","019cf81e-3afa-75fa-8205-bbeafbb9c266","019cf80d-4266-7117-8a51-54e13c84aca4","","841","
                <div class=""stimulus-container"">
                    <img src=""images/semantic_sequence/housework_semantic/housework_semantic_7.png"" class=""exp-image"">
                    <div class=""question-area"">
                        <p style=""font-size: 20px; font-weight: bold; margin: 0;"">Is there a person in this image?</p>
                    </div>
                </div>","0","main_experiment_trial","7","housework_semantic","semantic_sequence","","","","",""
"","","","","","html-keyboard-response","52","185015","0.0-52.0","E2AA49B142CB4B6888391400B93B1A49","019cf81e-3afa-75fa-8205-bbeafbb9c266","019cf80d-4266-7117-8a51-54e13c84aca4","","null","
                <div class=""stimulus-container"">
                    <img src=""images/semantic_sequence/housework_semantic/housework_semantic_8.png"" class=""exp-image"">
                    <div class=""question-area""></div> 
                </div>","null","","","","","","","","",""
"","","","","","html-button-response","53","185850","0.0-53.0","E2AA49B142CB4B6888391400B93B1A49","019cf81e-3afa-75fa-8205-bbeafbb9c266","019cf80d-4266-7117-8a51-54e13c84aca4","","834","
                <div class=""stimulus-container"">
                    <img src=""images/semantic_sequence/housework_semantic/housework_semantic_8.png"" class=""exp-image"">
                    <div class=""question-area"">
                        <p style=""font-size: 20px; font-weight: bold; margin: 0;"">Is there a person in this image?</p>
                    </div>
                </div>","0","main_experiment_trial","8","housework_semantic","semantic_sequence","","","","",""
"","","","","","html-keyboard-response","54","190855","0.0-54.0","E2AA49B142CB4B6888391400B93B1A49","019cf81e-3afa-75fa-8205-bbeafbb9c266","019cf80d-4266-7117-8a51-54e13c84aca4","","null","
                <div class=""stimulus-container"">
                    <img src=""images/semantic_sequence/housework_semantic/housework_semantic_9.png"" class=""exp-image"">
                    <div class=""question-area""></div> 
                </div>","null","","","","","","","","",""
"","","","","","html-button-response","55","191277","0.0-55.0","E2AA49B142CB4B6888391400B93B1A49","019cf81e-3afa-75fa-8205-bbeafbb9c266","019cf80d-4266-7117-8a51-54e13c84aca4","","421","
                <div class=""stimulus-container"">
                    <img src=""images/semantic_sequence/housework_semantic/housework_semantic_9.png"" class=""exp-image"">
                    <div class=""question-area"">
                        <p style=""font-size: 20px; font-weight: bold; margin: 0;"">Is there a person in this image?</p>
                    </div>
                </div>","0","main_experiment_trial","9","housework_semantic","semantic_sequence","","","","",""
"","","","","","html-keyboard-response","56","196289","0.0-56.0","E2AA49B142CB4B6888391400B93B1A49","019cf81e-3afa-75fa-8205-bbeafbb9c266","019cf80d-4266-7117-8a51-54e13c84aca4","","null","
                <div class=""stimulus-container"">
                    <img src=""images/semantic_sequence/housework_semantic/housework_semantic_ten.png"" class=""exp-image"">
                    <div class=""question-area""></div> 
                </div>","null","","","","","","","","",""
"","","","","","html-button-response","57","197142","0.0-57.0","E2AA49B142CB4B6888391400B93B1A49","019cf81e-3afa-75fa-8205-bbeafbb9c266","019cf80d-4266-7117-8a51-54e13c84aca4","","852","
                <div class=""stimulus-container"">
                    <img src=""images/semantic_sequence/housework_semantic/housework_semantic_ten.png"" class=""exp-image"">
                    <div class=""question-area"">
                        <p style=""font-size: 20px; font-weight: bold; margin: 0;"">Is there a person in this image?</p>
                    </div>
                </div>","0","main_experiment_trial","ten","housework_semantic","semantic_sequence","","","","",""
"","","","","","html-keyboard-response","58","198147","0.0-58.0","E2AA49B142CB4B6888391400B93B1A49","019cf81e-3afa-75fa-8205-bbeafbb9c266","019cf80d-4266-7117-8a51-54e13c84aca4","","null","<div style=""background-color: white; width: 100vw; height: 100vh;""></div>","null","","","","","","","","",""
"","","","","","html-keyboard-response","59","203149","0.0-59.0","E2AA49B142CB4B6888391400B93B1A49","019cf81e-3afa-75fa-8205-bbeafbb9c266","019cf80d-4266-7117-8a51-54e13c84aca4","","null","
                <div class=""stimulus-container"">
                    <img src=""images/semantic_sequence/redecorating_a_house_semantic/redecorating_a_house_semantic_1.png"" class=""exp-image"">
                    <div class=""question-area""></div> 
                </div>","null","","","","","","","","",""
"","","","","","html-button-response","60","203400","0.0-60.0","E2AA49B142CB4B6888391400B93B1A49","019cf81e-3afa-75fa-8205-bbeafbb9c266","019cf80d-4266-7117-8a51-54e13c84aca4","","249","
                <div class=""stimulus-container"">
                    <img src=""images/semantic_sequence/redecorating_a_house_semantic/redecorating_a_house_semantic_1.png"" class=""exp-image"">
                    <div class=""question-area"">
                        <p style=""font-size: 20px; font-weight: bold; margin: 0;"">Is there a person in this image?</p>
                    </div>
                </div>","0","main_experiment_trial","1","redecorating_a_house_semantic","semantic_sequence","","","","",""
"","","","","","html-keyboard-response","61","208403","0.0-61.0","E2AA49B142CB4B6888391400B93B1A49","019cf81e-3afa-75fa-8205-bbeafbb9c266","019cf80d-4266-7117-8a51-54e13c84aca4","","null","
                <div class=""stimulus-container"">
                    <img src=""images/semantic_sequence/redecorating_a_house_semantic/redecorating_a_house_semantic_2.png"" class=""exp-image"">
                    <div class=""question-area""></div> 
                </div>","null","","","","","","","","",""
"","","","","","html-button-response","62","209012","0.0-62.0","E2AA49B142CB4B6888391400B93B1A49","019cf81e-3afa-75fa-8205-bbeafbb9c266","019cf80d-4266-7117-8a51-54e13c84aca4","","607","
                <div class=""stimulus-container"">
                    <img src=""images/semantic_sequence/redecorating_a_house_semantic/redecorating_a_house_semantic_2.png"" class=""exp-image"">
                    <div class=""question-area"">
                        <p style=""font-size: 20px; font-weight: bold; margin: 0;"">Is there a person in this image?</p>
                    </div>
                </div>","0","main_experiment_trial","2","redecorating_a_house_semantic","semantic_sequence","","","","",""
"","","","","","html-keyboard-response","63","214022","0.0-63.0","E2AA49B142CB4B6888391400B93B1A49","019cf81e-3afa-75fa-8205-bbeafbb9c266","019cf80d-4266-7117-8a51-54e13c84aca4","","null","
                <div class=""stimulus-container"">
                    <img src=""images/semantic_sequence/redecorating_a_house_semantic/redecorating_a_house_semantic_3.png"" class=""exp-image"">
                    <div class=""question-area""></div> 
                </div>","null","","","","","","","","",""
"","","","","","html-button-response","64","214952","0.0-64.0","E2AA49B142CB4B6888391400B93B1A49","019cf81e-3afa-75fa-8205-bbeafbb9c266","019cf80d-4266-7117-8a51-54e13c84aca4","","928","
                <div class=""stimulus-container"">
                    <img src=""images/semantic_sequence/redecorating_a_house_semantic/redecorating_a_house_semantic_3.png"" class=""exp-image"">
                    <div class=""question-area"">
                        <p style=""font-size: 20px; font-weight: bold; margin: 0;"">Is there a person in this image?</p>
                    </div>
                </div>","0","main_experiment_trial","3","redecorating_a_house_semantic","semantic_sequence","","","","",""
"","","","","","html-keyboard-response","65","219958","0.0-65.0","E2AA49B142CB4B6888391400B93B1A49","019cf81e-3afa-75fa-8205-bbeafbb9c266","019cf80d-4266-7117-8a51-54e13c84aca4","","null","
                <div class=""stimulus-container"">
                    <img src=""images/semantic_sequence/redecorating_a_house_semantic/redecorating_a_house_semantic_4.png"" class=""exp-image"">
                    <div class=""question-area""></div> 
                </div>","null","","","","","","","","",""
"","","","","","html-button-response","66","220621","0.0-66.0","E2AA49B142CB4B6888391400B93B1A49","019cf81e-3afa-75fa-8205-bbeafbb9c266","019cf80d-4266-7117-8a51-54e13c84aca4","","661","
                <div class=""stimulus-container"">
                    <img src=""images/semantic_sequence/redecorating_a_house_semantic/redecorating_a_house_semantic_4.png"" class=""exp-image"">
                    <div class=""question-area"">
                        <p style=""font-size: 20px; font-weight: bold; margin: 0;"">Is there a person in this image?</p>
                    </div>
                </div>","0","main_experiment_trial","4","redecorating_a_house_semantic","semantic_sequence","","","","",""
"","","","","","html-keyboard-response","67","225639","0.0-67.0","E2AA49B142CB4B6888391400B93B1A49","019cf81e-3afa-75fa-8205-bbeafbb9c266","019cf80d-4266-7117-8a51-54e13c84aca4","","null","
                <div class=""stimulus-container"">
                    <img src=""images/semantic_sequence/redecorating_a_house_semantic/redecorating_a_house_semantic_5.png"" class=""exp-image"">
                    <div class=""question-area""></div> 
                </div>","null","","","","","","","","",""
"","","","","","html-button-response","68","226090","0.0-68.0","E2AA49B142CB4B6888391400B93B1A49","019cf81e-3afa-75fa-8205-bbeafbb9c266","019cf80d-4266-7117-8a51-54e13c84aca4","","450","
                <div class=""stimulus-container"">
                    <img src=""images/semantic_sequence/redecorating_a_house_semantic/redecorating_a_house_semantic_5.png"" class=""exp-image"">
                    <div class=""question-area"">
                        <p style=""font-size: 20px; font-weight: bold; margin: 0;"">Is there a person in this image?</p>
                    </div>
                </div>","0","main_experiment_trial","5","redecorating_a_house_semantic","semantic_sequence","","","","",""
"","","","","","html-keyboard-response","69","231099","0.0-69.0","E2AA49B142CB4B6888391400B93B1A49","019cf81e-3afa-75fa-8205-bbeafbb9c266","019cf80d-4266-7117-8a51-54e13c84aca4","","null","
                <div class=""stimulus-container"">
                    <img src=""images/semantic_sequence/redecorating_a_house_semantic/redecorating_a_house_semantic_6.png"" class=""exp-image"">
                    <div class=""question-area""></div> 
                </div>","null","","","","","","","","",""
"","","","","","html-button-response","70","231935","0.0-70.0","E2AA49B142CB4B6888391400B93B1A49","019cf81e-3afa-75fa-8205-bbeafbb9c266","019cf80d-4266-7117-8a51-54e13c84aca4","","834","
                <div class=""stimulus-container"">
                    <img src=""images/semantic_sequence/redecorating_a_house_semantic/redecorating_a_house_semantic_6.png"" class=""exp-image"">
                    <div class=""question-area"">
                        <p style=""font-size: 20px; font-weight: bold; margin: 0;"">Is there a person in this image?</p>
                    </div>
                </div>","0","main_experiment_trial","6","redecorating_a_house_semantic","semantic_sequence","","","","",""
"","","","","","html-keyboard-response","71","236943","0.0-71.0","E2AA49B142CB4B6888391400B93B1A49","019cf81e-3afa-75fa-8205-bbeafbb9c266","019cf80d-4266-7117-8a51-54e13c84aca4","","null","
                <div class=""stimulus-container"">
                    <img src=""images/semantic_sequence/redecorating_a_house_semantic/redecorating_a_house_semantic_7.png"" class=""exp-image"">
                    <div class=""question-area""></div> 
                </div>","null","","","","","","","","",""
"","","","","","html-button-response","72","237104","0.0-72.0","E2AA49B142CB4B6888391400B93B1A49","019cf81e-3afa-75fa-8205-bbeafbb9c266","019cf80d-4266-7117-8a51-54e13c84aca4","","159","
                <div class=""stimulus-container"">
                    <img src=""images/semantic_sequence/redecorating_a_house_semantic/redecorating_a_house_semantic_7.png"" class=""exp-image"">
                    <div class=""question-area"">
                        <p style=""font-size: 20px; font-weight: bold; margin: 0;"">Is there a person in this image?</p>
                    </div>
                </div>","0","main_experiment_trial","7","redecorating_a_house_semantic","semantic_sequence","","","","",""
"","","","","","html-keyboard-response","73","242112","0.0-73.0","E2AA49B142CB4B6888391400B93B1A49","019cf81e-3afa-75fa-8205-bbeafbb9c266","019cf80d-4266-7117-8a51-54e13c84aca4","","null","
                <div class=""stimulus-container"">
                    <img src=""images/semantic_sequence/redecorating_a_house_semantic/redecorating_a_house_semantic_8.png"" class=""exp-image"">
                    <div class=""question-area""></div> 
                </div>","null","","","","","","","","",""
"","","","","","html-button-response","74","242287","0.0-74.0","E2AA49B142CB4B6888391400B93B1A49","019cf81e-3afa-75fa-8205-bbeafbb9c266","019cf80d-4266-7117-8a51-54e13c84aca4","","174","
                <div class=""stimulus-container"">
                    <img src=""images/semantic_sequence/redecorating_a_house_semantic/redecorating_a_house_semantic_8.png"" class=""exp-image"">
                    <div class=""question-area"">
                        <p style=""font-size: 20px; font-weight: bold; margin: 0;"">Is there a person in this image?</p>
                    </div>
                </div>","0","main_experiment_trial","8","redecorating_a_house_semantic","semantic_sequence","","","","",""
"","","","","","html-keyboard-response","75","247292","0.0-75.0","E2AA49B142CB4B6888391400B93B1A49","019cf81e-3afa-75fa-8205-bbeafbb9c266","019cf80d-4266-7117-8a51-54e13c84aca4","","null","
                <div class=""stimulus-container"">
                    <img src=""images/semantic_sequence/redecorating_a_house_semantic/redecorating_a_house_semantic_9.png"" class=""exp-image"">
                    <div class=""question-area""></div> 
                </div>","null","","","","","","","","",""
"","","","","","html-button-response","76","247568","0.0-76.0","E2AA49B142CB4B6888391400B93B1A49","019cf81e-3afa-75fa-8205-bbeafbb9c266","019cf80d-4266-7117-8a51-54e13c84aca4","","275","
                <div class=""stimulus-container"">
                    <img src=""images/semantic_sequence/redecorating_a_house_semantic/redecorating_a_house_semantic_9.png"" class=""exp-image"">
                    <div class=""question-area"">
                        <p style=""font-size: 20px; font-weight: bold; margin: 0;"">Is there a person in this image?</p>
                    </div>
                </div>","0","main_experiment_trial","9","redecorating_a_house_semantic","semantic_sequence","","","","",""
"","","","","","html-keyboard-response","77","252583","0.0-77.0","E2AA49B142CB4B6888391400B93B1A49","019cf81e-3afa-75fa-8205-bbeafbb9c266","019cf80d-4266-7117-8a51-54e13c84aca4","","null","
                <div class=""stimulus-container"">
                    <img src=""images/semantic_sequence/redecorating_a_house_semantic/redecorating_a_house_semantic_ten.png"" class=""exp-image"">
                    <div class=""question-area""></div> 
                </div>","null","","","","","","","","",""
"","","","","","html-button-response","78","252970","0.0-78.0","E2AA49B142CB4B6888391400B93B1A49","019cf81e-3afa-75fa-8205-bbeafbb9c266","019cf80d-4266-7117-8a51-54e13c84aca4","","386","
                <div class=""stimulus-container"">
                    <img src=""images/semantic_sequence/redecorating_a_house_semantic/redecorating_a_house_semantic_ten.png"" class=""exp-image"">
                    <div class=""question-area"">
                        <p style=""font-size: 20px; font-weight: bold; margin: 0;"">Is there a person in this image?</p>
                    </div>
                </div>","0","main_experiment_trial","ten","redecorating_a_house_semantic","semantic_sequence","","","","",""
"","","","","","html-keyboard-response","79","253978","0.0-79.0","E2AA49B142CB4B6888391400B93B1A49","019cf81e-3afa-75fa-8205-bbeafbb9c266","019cf80d-4266-7117-8a51-54e13c84aca4","","null","<div style=""background-color: white; width: 100vw; height: 100vh;""></div>","null","","","","","","","","",""
"","","","","","html-keyboard-response","80","258989","0.0-80.0","E2AA49B142CB4B6888391400B93B1A49","019cf81e-3afa-75fa-8205-bbeafbb9c266","019cf80d-4266-7117-8a51-54e13c84aca4","","null","
                <div class=""stimulus-container"">
                    <img src=""images/schematic_sequence/supermarket_scheme/supermarket_scheme_1.png"" class=""exp-image"">
                    <div class=""question-area""></div> 
                </div>","null","","","","","","","","",""
"","","","","","html-button-response","81","259633","0.0-81.0","E2AA49B142CB4B6888391400B93B1A49","019cf81e-3afa-75fa-8205-bbeafbb9c266","019cf80d-4266-7117-8a51-54e13c84aca4","","643","
                <div class=""stimulus-container"">
                    <img src=""images/schematic_sequence/supermarket_scheme/supermarket_scheme_1.png"" class=""exp-image"">
                    <div class=""question-area"">
                        <p style=""font-size: 20px; font-weight: bold; margin: 0;"">Is there a person in this image?</p>
                    </div>
                </div>","1","main_experiment_trial","1","supermarket_scheme","schematic_sequence","","","","",""
"","","","","","html-keyboard-response","82","264641","0.0-82.0","E2AA49B142CB4B6888391400B93B1A49","019cf81e-3afa-75fa-8205-bbeafbb9c266","019cf80d-4266-7117-8a51-54e13c84aca4","","null","
                <div class=""stimulus-container"">
                    <img src=""images/schematic_sequence/supermarket_scheme/supermarket_scheme_2.png"" class=""exp-image"">
                    <div class=""question-area""></div> 
                </div>","null","","","","","","","","",""
"","","","","","html-button-response","83","264814","0.0-83.0","E2AA49B142CB4B6888391400B93B1A49","019cf81e-3afa-75fa-8205-bbeafbb9c266","019cf80d-4266-7117-8a51-54e13c84aca4","","172","
                <div class=""stimulus-container"">
                    <img src=""images/schematic_sequence/supermarket_scheme/supermarket_scheme_2.png"" class=""exp-image"">
                    <div class=""question-area"">
                        <p style=""font-size: 20px; font-weight: bold; margin: 0;"">Is there a person in this image?</p>
                    </div>
                </div>","1","main_experiment_trial","2","supermarket_scheme","schematic_sequence","","","","",""
"","","","","","html-keyboard-response","84","269816","0.0-84.0","E2AA49B142CB4B6888391400B93B1A49","019cf81e-3afa-75fa-8205-bbeafbb9c266","019cf80d-4266-7117-8a51-54e13c84aca4","","null","
                <div class=""stimulus-container"">
                    <img src=""images/schematic_sequence/supermarket_scheme/supermarket_scheme_3.png"" class=""exp-image"">
                    <div class=""question-area""></div> 
                </div>","null","","","","","","","","",""
"","","","","","html-button-response","85","270466","0.0-85.0","E2AA49B142CB4B6888391400B93B1A49","019cf81e-3afa-75fa-8205-bbeafbb9c266","019cf80d-4266-7117-8a51-54e13c84aca4","","648","
                <div class=""stimulus-container"">
                    <img src=""images/schematic_sequence/supermarket_scheme/supermarket_scheme_3.png"" class=""exp-image"">
                    <div class=""question-area"">
                        <p style=""font-size: 20px; font-weight: bold; margin: 0;"">Is there a person in this image?</p>
                    </div>
                </div>","1","main_experiment_trial","3","supermarket_scheme","schematic_sequence","","","","",""
"","","","","","html-keyboard-response","86","275481","0.0-86.0","E2AA49B142CB4B6888391400B93B1A49","019cf81e-3afa-75fa-8205-bbeafbb9c266","019cf80d-4266-7117-8a51-54e13c84aca4","","null","
                <div class=""stimulus-container"">
                    <img src=""images/schematic_sequence/supermarket_scheme/supermarket_scheme_4.png"" class=""exp-image"">
                    <div class=""question-area""></div> 
                </div>","null","","","","","","","","",""
"","","","","","html-button-response","87","276086","0.0-87.0","E2AA49B142CB4B6888391400B93B1A49","019cf81e-3afa-75fa-8205-bbeafbb9c266","019cf80d-4266-7117-8a51-54e13c84aca4","","604","
                <div class=""stimulus-container"">
                    <img src=""images/schematic_sequence/supermarket_scheme/supermarket_scheme_4.png"" class=""exp-image"">
                    <div class=""question-area"">
                        <p style=""font-size: 20px; font-weight: bold; margin: 0;"">Is there a person in this image?</p>
                    </div>
                </div>","0","main_experiment_trial","4","supermarket_scheme","schematic_sequence","","","","",""
"","","","","","html-keyboard-response","88","281088","0.0-88.0","E2AA49B142CB4B6888391400B93B1A49","019cf81e-3afa-75fa-8205-bbeafbb9c266","019cf80d-4266-7117-8a51-54e13c84aca4","","null","
                <div class=""stimulus-container"">
                    <img src=""images/schematic_sequence/supermarket_scheme/supermarket_scheme_5.png"" class=""exp-image"">
                    <div class=""question-area""></div> 
                </div>","null","","","","","","","","",""
"","","","","","html-button-response","89","281712","0.0-89.0","E2AA49B142CB4B6888391400B93B1A49","019cf81e-3afa-75fa-8205-bbeafbb9c266","019cf80d-4266-7117-8a51-54e13c84aca4","","623","
                <div class=""stimulus-container"">
                    <img src=""images/schematic_sequence/supermarket_scheme/supermarket_scheme_5.png"" class=""exp-image"">
                    <div class=""question-area"">
                        <p style=""font-size: 20px; font-weight: bold; margin: 0;"">Is there a person in this image?</p>
                    </div>
                </div>","1","main_experiment_trial","5","supermarket_scheme","schematic_sequence","","","","",""
"","","","","","html-keyboard-response","90","286737","0.0-90.0","E2AA49B142CB4B6888391400B93B1A49","019cf81e-3afa-75fa-8205-bbeafbb9c266","019cf80d-4266-7117-8a51-54e13c84aca4","","null","
                <div class=""stimulus-container"">
                    <img src=""images/schematic_sequence/supermarket_scheme/supermarket_scheme_6.png"" class=""exp-image"">
                    <div class=""question-area""></div> 
                </div>","null","","","","","","","","",""
"","","","","","html-button-response","91","287718","0.0-91.0","E2AA49B142CB4B6888391400B93B1A49","019cf81e-3afa-75fa-8205-bbeafbb9c266","019cf80d-4266-7117-8a51-54e13c84aca4","","978","
                <div class=""stimulus-container"">
                    <img src=""images/schematic_sequence/supermarket_scheme/supermarket_scheme_6.png"" class=""exp-image"">
                    <div class=""question-area"">
                        <p style=""font-size: 20px; font-weight: bold; margin: 0;"">Is there a person in this image?</p>
                    </div>
                </div>","0","main_experiment_trial","6","supermarket_scheme","schematic_sequence","","","","",""
"","","","","","html-keyboard-response","92","292726","0.0-92.0","E2AA49B142CB4B6888391400B93B1A49","019cf81e-3afa-75fa-8205-bbeafbb9c266","019cf80d-4266-7117-8a51-54e13c84aca4","","null","
                <div class=""stimulus-container"">
                    <img src=""images/schematic_sequence/supermarket_scheme/supermarket_scheme_7.png"" class=""exp-image"">
                    <div class=""question-area""></div> 
                </div>","null","","","","","","","","",""
"","","","","","html-button-response","93","293392","0.0-93.0","E2AA49B142CB4B6888391400B93B1A49","019cf81e-3afa-75fa-8205-bbeafbb9c266","019cf80d-4266-7117-8a51-54e13c84aca4","","665","
                <div class=""stimulus-container"">
                    <img src=""images/schematic_sequence/supermarket_scheme/supermarket_scheme_7.png"" class=""exp-image"">
                    <div class=""question-area"">
                        <p style=""font-size: 20px; font-weight: bold; margin: 0;"">Is there a person in this image?</p>
                    </div>
                </div>","0","main_experiment_trial","7","supermarket_scheme","schematic_sequence","","","","",""
"","","","","","html-keyboard-response","94","298406","0.0-94.0","E2AA49B142CB4B6888391400B93B1A49","019cf81e-3afa-75fa-8205-bbeafbb9c266","019cf80d-4266-7117-8a51-54e13c84aca4","","null","
                <div class=""stimulus-container"">
                    <img src=""images/schematic_sequence/supermarket_scheme/supermarket_scheme_8.png"" class=""exp-image"">
                    <div class=""question-area""></div> 
                </div>","null","","","","","","","","",""
"","","","","","html-button-response","95","299078","0.0-95.0","E2AA49B142CB4B6888391400B93B1A49","019cf81e-3afa-75fa-8205-bbeafbb9c266","019cf80d-4266-7117-8a51-54e13c84aca4","","671","
                <div class=""stimulus-container"">
                    <img src=""images/schematic_sequence/supermarket_scheme/supermarket_scheme_8.png"" class=""exp-image"">
                    <div class=""question-area"">
                        <p style=""font-size: 20px; font-weight: bold; margin: 0;"">Is there a person in this image?</p>
                    </div>
                </div>","0","main_experiment_trial","8","supermarket_scheme","schematic_sequence","","","","",""
"","","","","","html-keyboard-response","96","304087","0.0-96.0","E2AA49B142CB4B6888391400B93B1A49","019cf81e-3afa-75fa-8205-bbeafbb9c266","019cf80d-4266-7117-8a51-54e13c84aca4","","null","
                <div class=""stimulus-container"">
                    <img src=""images/schematic_sequence/supermarket_scheme/supermarket_scheme_9.png"" class=""exp-image"">
                    <div class=""question-area""></div> 
                </div>","null","","","","","","","","",""
"","","","","","html-button-response","97","304570","0.0-97.0","E2AA49B142CB4B6888391400B93B1A49","019cf81e-3afa-75fa-8205-bbeafbb9c266","019cf80d-4266-7117-8a51-54e13c84aca4","","481","
                <div class=""stimulus-container"">
                    <img src=""images/schematic_sequence/supermarket_scheme/supermarket_scheme_9.png"" class=""exp-image"">
                    <div class=""question-area"">
                        <p style=""font-size: 20px; font-weight: bold; margin: 0;"">Is there a person in this image?</p>
                    </div>
                </div>","0","main_experiment_trial","9","supermarket_scheme","schematic_sequence","","","","",""
"","","","","","html-keyboard-response","98","309575","0.0-98.0","E2AA49B142CB4B6888391400B93B1A49","019cf81e-3afa-75fa-8205-bbeafbb9c266","019cf80d-4266-7117-8a51-54e13c84aca4","","null","
                <div class=""stimulus-container"">
                    <img src=""images/schematic_sequence/supermarket_scheme/supermarket_scheme_ten.png"" class=""exp-image"">
                    <div class=""question-area""></div> 
                </div>","null","","","","","","","","",""
"","","","","","html-button-response","99","310354","0.0-99.0","E2AA49B142CB4B6888391400B93B1A49","019cf81e-3afa-75fa-8205-bbeafbb9c266","019cf80d-4266-7117-8a51-54e13c84aca4","","777","
                <div class=""stimulus-container"">
                    <img src=""images/schematic_sequence/supermarket_scheme/supermarket_scheme_ten.png"" class=""exp-image"">
                    <div class=""question-area"">
                        <p style=""font-size: 20px; font-weight: bold; margin: 0;"">Is there a person in this image?</p>
                    </div>
                </div>","1","main_experiment_trial","ten","supermarket_scheme","schematic_sequence","","","","",""
"","","","","","html-keyboard-response","100","311357","0.0-100.0","E2AA49B142CB4B6888391400B93B1A49","019cf81e-3afa-75fa-8205-bbeafbb9c266","019cf80d-4266-7117-8a51-54e13c84aca4","","null","<div style=""background-color: white; width: 100vw; height: 100vh;""></div>","null","","","","","","","","",""
"","","","","","html-keyboard-response","101","316372","0.0-101.0","E2AA49B142CB4B6888391400B93B1A49","019cf81e-3afa-75fa-8205-bbeafbb9c266","019cf80d-4266-7117-8a51-54e13c84aca4","","null","
                <div class=""stimulus-container"">
                    <img src=""images/semantic_sequence/kitchen_operations_semantic/kitchen_operations_semantic_1.png"" class=""exp-image"">
                    <div class=""question-area""></div> 
                </div>","null","","","","","","","","",""
"","","","","","html-button-response","102","317031","0.0-102.0","E2AA49B142CB4B6888391400B93B1A49","019cf81e-3afa-75fa-8205-bbeafbb9c266","019cf80d-4266-7117-8a51-54e13c84aca4","","656","
                <div class=""stimulus-container"">
                    <img src=""images/semantic_sequence/kitchen_operations_semantic/kitchen_operations_semantic_1.png"" class=""exp-image"">
                    <div class=""question-area"">
                        <p style=""font-size: 20px; font-weight: bold; margin: 0;"">Is there a person in this image?</p>
                    </div>
                </div>","0","main_experiment_trial","1","kitchen_operations_semantic","semantic_sequence","","","","",""
"","","","","","html-keyboard-response","103","322047","0.0-103.0","E2AA49B142CB4B6888391400B93B1A49","019cf81e-3afa-75fa-8205-bbeafbb9c266","019cf80d-4266-7117-8a51-54e13c84aca4","","null","
                <div class=""stimulus-container"">
                    <img src=""images/semantic_sequence/kitchen_operations_semantic/kitchen_operations_semantic_2.png"" class=""exp-image"">
                    <div class=""question-area""></div> 
                </div>","null","","","","","","","","",""
"","","","","","html-button-response","104","322825","0.0-104.0","E2AA49B142CB4B6888391400B93B1A49","019cf81e-3afa-75fa-8205-bbeafbb9c266","019cf80d-4266-7117-8a51-54e13c84aca4","","777","
                <div class=""stimulus-container"">
                    <img src=""images/semantic_sequence/kitchen_operations_semantic/kitchen_operations_semantic_2.png"" class=""exp-image"">
                    <div class=""question-area"">
                        <p style=""font-size: 20px; font-weight: bold; margin: 0;"">Is there a person in this image?</p>
                    </div>
                </div>","0","main_experiment_trial","2","kitchen_operations_semantic","semantic_sequence","","","","",""
"","","","","","html-keyboard-response","105","327833","0.0-105.0","E2AA49B142CB4B6888391400B93B1A49","019cf81e-3afa-75fa-8205-bbeafbb9c266","019cf80d-4266-7117-8a51-54e13c84aca4","","null","
                <div class=""stimulus-container"">
                    <img src=""images/semantic_sequence/kitchen_operations_semantic/kitchen_operations_semantic_3.png"" class=""exp-image"">
                    <div class=""question-area""></div> 
                </div>","null","","","","","","","","",""
"","","","","","html-button-response","106","328744","0.0-106.0","E2AA49B142CB4B6888391400B93B1A49","019cf81e-3afa-75fa-8205-bbeafbb9c266","019cf80d-4266-7117-8a51-54e13c84aca4","","910","
                <div class=""stimulus-container"">
                    <img src=""images/semantic_sequence/kitchen_operations_semantic/kitchen_operations_semantic_3.png"" class=""exp-image"">
                    <div class=""question-area"">
                        <p style=""font-size: 20px; font-weight: bold; margin: 0;"">Is there a person in this image?</p>
                    </div>
                </div>","0","main_experiment_trial","3","kitchen_operations_semantic","semantic_sequence","","","","",""
"","","","","","html-keyboard-response","107","333753","0.0-107.0","E2AA49B142CB4B6888391400B93B1A49","019cf81e-3afa-75fa-8205-bbeafbb9c266","019cf80d-4266-7117-8a51-54e13c84aca4","","null","
                <div class=""stimulus-container"">
                    <img src=""images/semantic_sequence/kitchen_operations_semantic/kitchen_operations_semantic_4.png"" class=""exp-image"">
                    <div class=""question-area""></div> 
                </div>","null","","","","","","","","",""
"","","","","","html-button-response","108","334426","0.0-108.0","E2AA49B142CB4B6888391400B93B1A49","019cf81e-3afa-75fa-8205-bbeafbb9c266","019cf80d-4266-7117-8a51-54e13c84aca4","","670","
                <div class=""stimulus-container"">
                    <img src=""images/semantic_sequence/kitchen_operations_semantic/kitchen_operations_semantic_4.png"" class=""exp-image"">
                    <div class=""question-area"">
                        <p style=""font-size: 20px; font-weight: bold; margin: 0;"">Is there a person in this image?</p>
                    </div>
                </div>","0","main_experiment_trial","4","kitchen_operations_semantic","semantic_sequence","","","","",""
"","","","","","html-keyboard-response","109","339438","0.0-109.0","E2AA49B142CB4B6888391400B93B1A49","019cf81e-3afa-75fa-8205-bbeafbb9c266","019cf80d-4266-7117-8a51-54e13c84aca4","","null","
                <div class=""stimulus-container"">
                    <img src=""images/semantic_sequence/kitchen_operations_semantic/kitchen_operations_semantic_5.png"" class=""exp-image"">
                    <div class=""question-area""></div> 
                </div>","null","","","","","","","","",""
"","","","","","html-button-response","110","340110","0.0-110.0","E2AA49B142CB4B6888391400B93B1A49","019cf81e-3afa-75fa-8205-bbeafbb9c266","019cf80d-4266-7117-8a51-54e13c84aca4","","670","
                <div class=""stimulus-container"">
                    <img src=""images/semantic_sequence/kitchen_operations_semantic/kitchen_operations_semantic_5.png"" class=""exp-image"">
                    <div class=""question-area"">
                        <p style=""font-size: 20px; font-weight: bold; margin: 0;"">Is there a person in this image?</p>
                    </div>
                </div>","0","main_experiment_trial","5","kitchen_operations_semantic","semantic_sequence","","","","",""
"","","","","","html-keyboard-response","111","345115","0.0-111.0","E2AA49B142CB4B6888391400B93B1A49","019cf81e-3afa-75fa-8205-bbeafbb9c266","019cf80d-4266-7117-8a51-54e13c84aca4","","null","
                <div class=""stimulus-container"">
                    <img src=""images/semantic_sequence/kitchen_operations_semantic/kitchen_operations_semantic_6.png"" class=""exp-image"">
                    <div class=""question-area""></div> 
                </div>","null","","","","","","","","",""
"","","","","","html-button-response","112","345794","0.0-112.0","E2AA49B142CB4B6888391400B93B1A49","019cf81e-3afa-75fa-8205-bbeafbb9c266","019cf80d-4266-7117-8a51-54e13c84aca4","","677","
                <div class=""stimulus-container"">
                    <img src=""images/semantic_sequence/kitchen_operations_semantic/kitchen_operations_semantic_6.png"" class=""exp-image"">
                    <div class=""question-area"">
                        <p style=""font-size: 20px; font-weight: bold; margin: 0;"">Is there a person in this image?</p>
                    </div>
                </div>","0","main_experiment_trial","6","kitchen_operations_semantic","semantic_sequence","","","","",""
"","","","","","html-keyboard-response","113","350797","0.0-113.0","E2AA49B142CB4B6888391400B93B1A49","019cf81e-3afa-75fa-8205-bbeafbb9c266","019cf80d-4266-7117-8a51-54e13c84aca4","","null","
                <div class=""stimulus-container"">
                    <img src=""images/semantic_sequence/kitchen_operations_semantic/kitchen_operations_semantic_7.png"" class=""exp-image"">
                    <div class=""question-area""></div> 
                </div>","null","","","","","","","","",""
"","","","","","html-button-response","114","351543","0.0-114.0","E2AA49B142CB4B6888391400B93B1A49","019cf81e-3afa-75fa-8205-bbeafbb9c266","019cf80d-4266-7117-8a51-54e13c84aca4","","745","
                <div class=""stimulus-container"">
                    <img src=""images/semantic_sequence/kitchen_operations_semantic/kitchen_operations_semantic_7.png"" class=""exp-image"">
                    <div class=""question-area"">
                        <p style=""font-size: 20px; font-weight: bold; margin: 0;"">Is there a person in this image?</p>
                    </div>
                </div>","0","main_experiment_trial","7","kitchen_operations_semantic","semantic_sequence","","","","",""
"","","","","","html-keyboard-response","115","356546","0.0-115.0","E2AA49B142CB4B6888391400B93B1A49","019cf81e-3afa-75fa-8205-bbeafbb9c266","019cf80d-4266-7117-8a51-54e13c84aca4","","null","
                <div class=""stimulus-container"">
                    <img src=""images/semantic_sequence/kitchen_operations_semantic/kitchen_operations_semantic_8.png"" class=""exp-image"">
                    <div class=""question-area""></div> 
                </div>","null","","","","","","","","",""
"","","","","","html-button-response","116","357469","0.0-116.0","E2AA49B142CB4B6888391400B93B1A49","019cf81e-3afa-75fa-8205-bbeafbb9c266","019cf80d-4266-7117-8a51-54e13c84aca4","","922","
                <div class=""stimulus-container"">
                    <img src=""images/semantic_sequence/kitchen_operations_semantic/kitchen_operations_semantic_8.png"" class=""exp-image"">
                    <div class=""question-area"">
                        <p style=""font-size: 20px; font-weight: bold; margin: 0;"">Is there a person in this image?</p>
                    </div>
                </div>","1","main_experiment_trial","8","kitchen_operations_semantic","semantic_sequence","","","","",""
"","","","","","html-keyboard-response","117","362479","0.0-117.0","E2AA49B142CB4B6888391400B93B1A49","019cf81e-3afa-75fa-8205-bbeafbb9c266","019cf80d-4266-7117-8a51-54e13c84aca4","","null","
                <div class=""stimulus-container"">
                    <img src=""images/semantic_sequence/kitchen_operations_semantic/kitchen_operations_semantic_9.png"" class=""exp-image"">
                    <div class=""question-area""></div> 
                </div>","null","","","","","","","","",""
"","","","","","html-button-response","118","363197","0.0-118.0","E2AA49B142CB4B6888391400B93B1A49","019cf81e-3afa-75fa-8205-bbeafbb9c266","019cf80d-4266-7117-8a51-54e13c84aca4","","717","
                <div class=""stimulus-container"">
                    <img src=""images/semantic_sequence/kitchen_operations_semantic/kitchen_operations_semantic_9.png"" class=""exp-image"">
                    <div class=""question-area"">
                        <p style=""font-size: 20px; font-weight: bold; margin: 0;"">Is there a person in this image?</p>
                    </div>
                </div>","0","main_experiment_trial","9","kitchen_operations_semantic","semantic_sequence","","","","",""
"","","","","","html-keyboard-response","119","368207","0.0-119.0","E2AA49B142CB4B6888391400B93B1A49","019cf81e-3afa-75fa-8205-bbeafbb9c266","019cf80d-4266-7117-8a51-54e13c84aca4","","null","
                <div class=""stimulus-container"">
                    <img src=""images/semantic_sequence/kitchen_operations_semantic/kitchen_operations_semantic_ten.png"" class=""exp-image"">
                    <div class=""question-area""></div> 
                </div>","null","","","","","","","","",""
"","","","","","html-button-response","120","368554","0.0-120.0","E2AA49B142CB4B6888391400B93B1A49","019cf81e-3afa-75fa-8205-bbeafbb9c266","019cf80d-4266-7117-8a51-54e13c84aca4","","346","
                <div class=""stimulus-container"">
                    <img src=""images/semantic_sequence/kitchen_operations_semantic/kitchen_operations_semantic_ten.png"" class=""exp-image"">
                    <div class=""question-area"">
                        <p style=""font-size: 20px; font-weight: bold; margin: 0;"">Is there a person in this image?</p>
                    </div>
                </div>","0","main_experiment_trial","ten","kitchen_operations_semantic","semantic_sequence","","","","",""
"","","","","","html-keyboard-response","121","369578","0.0-121.0","E2AA49B142CB4B6888391400B93B1A49","019cf81e-3afa-75fa-8205-bbeafbb9c266","019cf80d-4266-7117-8a51-54e13c84aca4","","null","<div style=""background-color: white; width: 100vw; height: 100vh;""></div>","null","","","","","","","","",""
"","","","","","html-keyboard-response","122","374593","0.0-122.0","E2AA49B142CB4B6888391400B93B1A49","019cf81e-3afa-75fa-8205-bbeafbb9c266","019cf80d-4266-7117-8a51-54e13c84aca4","","null","
                <div class=""stimulus-container"">
                    <img src=""images/schematic_sequence/flight_scheme/flight_scheme_1.png"" class=""exp-image"">
                    <div class=""question-area""></div> 
                </div>","null","","","","","","","","",""
"","","","","","html-button-response","123","375876","0.0-123.0","E2AA49B142CB4B6888391400B93B1A49","019cf81e-3afa-75fa-8205-bbeafbb9c266","019cf80d-4266-7117-8a51-54e13c84aca4","","1282","
                <div class=""stimulus-container"">
                    <img src=""images/schematic_sequence/flight_scheme/flight_scheme_1.png"" class=""exp-image"">
                    <div class=""question-area"">
                        <p style=""font-size: 20px; font-weight: bold; margin: 0;"">Is there a person in this image?</p>
                    </div>
                </div>","0","main_experiment_trial","1","flight_scheme","schematic_sequence","","","","",""
"","","","","","html-keyboard-response","124","380884","0.0-124.0","E2AA49B142CB4B6888391400B93B1A49","019cf81e-3afa-75fa-8205-bbeafbb9c266","019cf80d-4266-7117-8a51-54e13c84aca4","","null","
                <div class=""stimulus-container"">
                    <img src=""images/schematic_sequence/flight_scheme/flight_scheme_2.png"" class=""exp-image"">
                    <div class=""question-area""></div> 
                </div>","null","","","","","","","","",""
"","","","","","html-button-response","125","382377","0.0-125.0","E2AA49B142CB4B6888391400B93B1A49","019cf81e-3afa-75fa-8205-bbeafbb9c266","019cf80d-4266-7117-8a51-54e13c84aca4","","1492","
                <div class=""stimulus-container"">
                    <img src=""images/schematic_sequence/flight_scheme/flight_scheme_2.png"" class=""exp-image"">
                    <div class=""question-area"">
                        <p style=""font-size: 20px; font-weight: bold; margin: 0;"">Is there a person in this image?</p>
                    </div>
                </div>","1","main_experiment_trial","2","flight_scheme","schematic_sequence","","","","",""
"","","","","","html-keyboard-response","126","387379","0.0-126.0","E2AA49B142CB4B6888391400B93B1A49","019cf81e-3afa-75fa-8205-bbeafbb9c266","019cf80d-4266-7117-8a51-54e13c84aca4","","null","
                <div class=""stimulus-container"">
                    <img src=""images/schematic_sequence/flight_scheme/flight_scheme_3.png"" class=""exp-image"">
                    <div class=""question-area""></div> 
                </div>","null","","","","","","","","",""
"","","","","","html-button-response","127","387989","0.0-127.0","E2AA49B142CB4B6888391400B93B1A49","019cf81e-3afa-75fa-8205-bbeafbb9c266","019cf80d-4266-7117-8a51-54e13c84aca4","","610","
                <div class=""stimulus-container"">
                    <img src=""images/schematic_sequence/flight_scheme/flight_scheme_3.png"" class=""exp-image"">
                    <div class=""question-area"">
                        <p style=""font-size: 20px; font-weight: bold; margin: 0;"">Is there a person in this image?</p>
                    </div>
                </div>","0","main_experiment_trial","3","flight_scheme","schematic_sequence","","","","",""
"","","","","","html-keyboard-response","128","392998","0.0-128.0","E2AA49B142CB4B6888391400B93B1A49","019cf81e-3afa-75fa-8205-bbeafbb9c266","019cf80d-4266-7117-8a51-54e13c84aca4","","null","
                <div class=""stimulus-container"">
                    <img src=""images/schematic_sequence/flight_scheme/flight_scheme_4.png"" class=""exp-image"">
                    <div class=""question-area""></div> 
                </div>","null","","","","","","","","",""
"","","","","","html-button-response","129","393668","0.0-129.0","E2AA49B142CB4B6888391400B93B1A49","019cf81e-3afa-75fa-8205-bbeafbb9c266","019cf80d-4266-7117-8a51-54e13c84aca4","","669","
                <div class=""stimulus-container"">
                    <img src=""images/schematic_sequence/flight_scheme/flight_scheme_4.png"" class=""exp-image"">
                    <div class=""question-area"">
                        <p style=""font-size: 20px; font-weight: bold; margin: 0;"">Is there a person in this image?</p>
                    </div>
                </div>","0","main_experiment_trial","4","flight_scheme","schematic_sequence","","","","",""
"","","","","","html-keyboard-response","130","398677","0.0-130.0","E2AA49B142CB4B6888391400B93B1A49","019cf81e-3afa-75fa-8205-bbeafbb9c266","019cf80d-4266-7117-8a51-54e13c84aca4","","null","
                <div class=""stimulus-container"">
                    <img src=""images/schematic_sequence/flight_scheme/flight_scheme_5.png"" class=""exp-image"">
                    <div class=""question-area""></div> 
                </div>","null","","","","","","","","",""
"","","","","","html-button-response","131","399328","0.0-131.0","E2AA49B142CB4B6888391400B93B1A49","019cf81e-3afa-75fa-8205-bbeafbb9c266","019cf80d-4266-7117-8a51-54e13c84aca4","","650","
                <div class=""stimulus-container"">
                    <img src=""images/schematic_sequence/flight_scheme/flight_scheme_5.png"" class=""exp-image"">
                    <div class=""question-area"">
                        <p style=""font-size: 20px; font-weight: bold; margin: 0;"">Is there a person in this image?</p>
                    </div>
                </div>","0","main_experiment_trial","5","flight_scheme","schematic_sequence","","","","",""
"","","","","","html-keyboard-response","132","404337","0.0-132.0","E2AA49B142CB4B6888391400B93B1A49","019cf81e-3afa-75fa-8205-bbeafbb9c266","019cf80d-4266-7117-8a51-54e13c84aca4","","null","
                <div class=""stimulus-container"">
                    <img src=""images/schematic_sequence/flight_scheme/flight_scheme_6.png"" class=""exp-image"">
                    <div class=""question-area""></div> 
                </div>","null","","","","","","","","",""
"","","","","","html-button-response","133","404909","0.0-133.0","E2AA49B142CB4B6888391400B93B1A49","019cf81e-3afa-75fa-8205-bbeafbb9c266","019cf80d-4266-7117-8a51-54e13c84aca4","","570","
                <div class=""stimulus-container"">
                    <img src=""images/schematic_sequence/flight_scheme/flight_scheme_6.png"" class=""exp-image"">
                    <div class=""question-area"">
                        <p style=""font-size: 20px; font-weight: bold; margin: 0;"">Is there a person in this image?</p>
                    </div>
                </div>","1","main_experiment_trial","6","flight_scheme","schematic_sequence","","","","",""
"","","","","","html-keyboard-response","134","409922","0.0-134.0","E2AA49B142CB4B6888391400B93B1A49","019cf81e-3afa-75fa-8205-bbeafbb9c266","019cf80d-4266-7117-8a51-54e13c84aca4","","null","
                <div class=""stimulus-container"">
                    <img src=""images/schematic_sequence/flight_scheme/flight_scheme_7.png"" class=""exp-image"">
                    <div class=""question-area""></div> 
                </div>","null","","","","","","","","",""
"","","","","","html-button-response","135","410559","0.0-135.0","E2AA49B142CB4B6888391400B93B1A49","019cf81e-3afa-75fa-8205-bbeafbb9c266","019cf80d-4266-7117-8a51-54e13c84aca4","","636","
                <div class=""stimulus-container"">
                    <img src=""images/schematic_sequence/flight_scheme/flight_scheme_7.png"" class=""exp-image"">
                    <div class=""question-area"">
                        <p style=""font-size: 20px; font-weight: bold; margin: 0;"">Is there a person in this image?</p>
                    </div>
                </div>","1","main_experiment_trial","7","flight_scheme","schematic_sequence","","","","",""
"","","","","","html-keyboard-response","136","415561","0.0-136.0","E2AA49B142CB4B6888391400B93B1A49","019cf81e-3afa-75fa-8205-bbeafbb9c266","019cf80d-4266-7117-8a51-54e13c84aca4","","null","
                <div class=""stimulus-container"">
                    <img src=""images/schematic_sequence/flight_scheme/flight_scheme_8.png"" class=""exp-image"">
                    <div class=""question-area""></div> 
                </div>","null","","","","","","","","",""
"","","","","","html-button-response","137","415996","0.0-137.0","E2AA49B142CB4B6888391400B93B1A49","019cf81e-3afa-75fa-8205-bbeafbb9c266","019cf80d-4266-7117-8a51-54e13c84aca4","","433","
                <div class=""stimulus-container"">
                    <img src=""images/schematic_sequence/flight_scheme/flight_scheme_8.png"" class=""exp-image"">
                    <div class=""question-area"">
                        <p style=""font-size: 20px; font-weight: bold; margin: 0;"">Is there a person in this image?</p>
                    </div>
                </div>","1","main_experiment_trial","8","flight_scheme","schematic_sequence","","","","",""
"","","","","","html-keyboard-response","138","421005","0.0-138.0","E2AA49B142CB4B6888391400B93B1A49","019cf81e-3afa-75fa-8205-bbeafbb9c266","019cf80d-4266-7117-8a51-54e13c84aca4","","null","
                <div class=""stimulus-container"">
                    <img src=""images/schematic_sequence/flight_scheme/flight_scheme_9.png"" class=""exp-image"">
                    <div class=""question-area""></div> 
                </div>","null","","","","","","","","",""
"","","","","","html-button-response","139","422197","0.0-139.0","E2AA49B142CB4B6888391400B93B1A49","019cf81e-3afa-75fa-8205-bbeafbb9c266","019cf80d-4266-7117-8a51-54e13c84aca4","","1190","
                <div class=""stimulus-container"">
                    <img src=""images/schematic_sequence/flight_scheme/flight_scheme_9.png"" class=""exp-image"">
                    <div class=""question-area"">
                        <p style=""font-size: 20px; font-weight: bold; margin: 0;"">Is there a person in this image?</p>
                    </div>
                </div>","0","main_experiment_trial","9","flight_scheme","schematic_sequence","","","","",""
"","","","","","html-keyboard-response","140","427206","0.0-140.0","E2AA49B142CB4B6888391400B93B1A49","019cf81e-3afa-75fa-8205-bbeafbb9c266","019cf80d-4266-7117-8a51-54e13c84aca4","","null","
                <div class=""stimulus-container"">
                    <img src=""images/schematic_sequence/flight_scheme/flight_scheme_ten.png"" class=""exp-image"">
                    <div class=""question-area""></div> 
                </div>","null","","","","","","","","",""
"","","","","","html-button-response","141","427894","0.0-141.0","E2AA49B142CB4B6888391400B93B1A49","019cf81e-3afa-75fa-8205-bbeafbb9c266","019cf80d-4266-7117-8a51-54e13c84aca4","","686","
                <div class=""stimulus-container"">
                    <img src=""images/schematic_sequence/flight_scheme/flight_scheme_ten.png"" class=""exp-image"">
                    <div class=""question-area"">
                        <p style=""font-size: 20px; font-weight: bold; margin: 0;"">Is there a person in this image?</p>
                    </div>
                </div>","0","main_experiment_trial","ten","flight_scheme","schematic_sequence","","","","",""
"","","","","","html-keyboard-response","142","428905","0.0-142.0","E2AA49B142CB4B6888391400B93B1A49","019cf81e-3afa-75fa-8205-bbeafbb9c266","019cf80d-4266-7117-8a51-54e13c84aca4","","null","<div style=""background-color: white; width: 100vw; height: 100vh;""></div>","null","","","","","","","","",""
"","","","","","html-keyboard-response","143","433916","0.0-143.0","E2AA49B142CB4B6888391400B93B1A49","019cf81e-3afa-75fa-8205-bbeafbb9c266","019cf80d-4266-7117-8a51-54e13c84aca4","","null","
                <div class=""stimulus-container"">
                    <img src=""images/schematic_sequence/dinner_party_scheme/dinner_party_scheme_1.png"" class=""exp-image"">
                    <div class=""question-area""></div> 
                </div>","null","","","","","","","","",""
"","","","","","html-button-response","144","434514","0.0-144.0","E2AA49B142CB4B6888391400B93B1A49","019cf81e-3afa-75fa-8205-bbeafbb9c266","019cf80d-4266-7117-8a51-54e13c84aca4","","595","
                <div class=""stimulus-container"">
                    <img src=""images/schematic_sequence/dinner_party_scheme/dinner_party_scheme_1.png"" class=""exp-image"">
                    <div class=""question-area"">
                        <p style=""font-size: 20px; font-weight: bold; margin: 0;"">Is there a person in this image?</p>
                    </div>
                </div>","0","main_experiment_trial","1","dinner_party_scheme","schematic_sequence","","","","",""
"","","","","","html-keyboard-response","145","439520","0.0-145.0","E2AA49B142CB4B6888391400B93B1A49","019cf81e-3afa-75fa-8205-bbeafbb9c266","019cf80d-4266-7117-8a51-54e13c84aca4","","null","
                <div class=""stimulus-container"">
                    <img src=""images/schematic_sequence/dinner_party_scheme/dinner_party_scheme_2.png"" class=""exp-image"">
                    <div class=""question-area""></div> 
                </div>","null","","","","","","","","",""
"","","","","","html-button-response","146","440233","0.0-146.0","E2AA49B142CB4B6888391400B93B1A49","019cf81e-3afa-75fa-8205-bbeafbb9c266","019cf80d-4266-7117-8a51-54e13c84aca4","","712","
                <div class=""stimulus-container"">
                    <img src=""images/schematic_sequence/dinner_party_scheme/dinner_party_scheme_2.png"" class=""exp-image"">
                    <div class=""question-area"">
                        <p style=""font-size: 20px; font-weight: bold; margin: 0;"">Is there a person in this image?</p>
                    </div>
                </div>","0","main_experiment_trial","2","dinner_party_scheme","schematic_sequence","","","","",""
"","","","","","html-keyboard-response","147","445248","0.0-147.0","E2AA49B142CB4B6888391400B93B1A49","019cf81e-3afa-75fa-8205-bbeafbb9c266","019cf80d-4266-7117-8a51-54e13c84aca4","","null","
                <div class=""stimulus-container"">
                    <img src=""images/schematic_sequence/dinner_party_scheme/dinner_party_scheme_3.png"" class=""exp-image"">
                    <div class=""question-area""></div> 
                </div>","null","","","","","","","","",""
"","","","","","html-button-response","148","446751","0.0-148.0","E2AA49B142CB4B6888391400B93B1A49","019cf81e-3afa-75fa-8205-bbeafbb9c266","019cf80d-4266-7117-8a51-54e13c84aca4","","1502","
                <div class=""stimulus-container"">
                    <img src=""images/schematic_sequence/dinner_party_scheme/dinner_party_scheme_3.png"" class=""exp-image"">
                    <div class=""question-area"">
                        <p style=""font-size: 20px; font-weight: bold; margin: 0;"">Is there a person in this image?</p>
                    </div>
                </div>","0","main_experiment_trial","3","dinner_party_scheme","schematic_sequence","","","","",""
"","","","","","html-keyboard-response","149","451760","0.0-149.0","E2AA49B142CB4B6888391400B93B1A49","019cf81e-3afa-75fa-8205-bbeafbb9c266","019cf80d-4266-7117-8a51-54e13c84aca4","","null","
                <div class=""stimulus-container"">
                    <img src=""images/schematic_sequence/dinner_party_scheme/dinner_party_scheme_4.png"" class=""exp-image"">
                    <div class=""question-area""></div> 
                </div>","null","","","","","","","","",""
"","","","","","html-button-response","150","452654","0.0-150.0","E2AA49B142CB4B6888391400B93B1A49","019cf81e-3afa-75fa-8205-bbeafbb9c266","019cf80d-4266-7117-8a51-54e13c84aca4","","892","
                <div class=""stimulus-container"">
                    <img src=""images/schematic_sequence/dinner_party_scheme/dinner_party_scheme_4.png"" class=""exp-image"">
                    <div class=""question-area"">
                        <p style=""font-size: 20px; font-weight: bold; margin: 0;"">Is there a person in this image?</p>
                    </div>
                </div>","0","main_experiment_trial","4","dinner_party_scheme","schematic_sequence","","","","",""
"","","","","","html-keyboard-response","151","457672","0.0-151.0","E2AA49B142CB4B6888391400B93B1A49","019cf81e-3afa-75fa-8205-bbeafbb9c266","019cf80d-4266-7117-8a51-54e13c84aca4","","null","
                <div class=""stimulus-container"">
                    <img src=""images/schematic_sequence/dinner_party_scheme/dinner_party_scheme_5.png"" class=""exp-image"">
                    <div class=""question-area""></div> 
                </div>","null","","","","","","","","",""
"","","","","","html-button-response","152","458332","0.0-152.0","E2AA49B142CB4B6888391400B93B1A49","019cf81e-3afa-75fa-8205-bbeafbb9c266","019cf80d-4266-7117-8a51-54e13c84aca4","","659","
                <div class=""stimulus-container"">
                    <img src=""images/schematic_sequence/dinner_party_scheme/dinner_party_scheme_5.png"" class=""exp-image"">
                    <div class=""question-area"">
                        <p style=""font-size: 20px; font-weight: bold; margin: 0;"">Is there a person in this image?</p>
                    </div>
                </div>","0","main_experiment_trial","5","dinner_party_scheme","schematic_sequence","","","","",""
"","","","","","html-keyboard-response","153","463339","0.0-153.0","E2AA49B142CB4B6888391400B93B1A49","019cf81e-3afa-75fa-8205-bbeafbb9c266","019cf80d-4266-7117-8a51-54e13c84aca4","","null","
                <div class=""stimulus-container"">
                    <img src=""images/schematic_sequence/dinner_party_scheme/dinner_party_scheme_6.png"" class=""exp-image"">
                    <div class=""question-area""></div> 
                </div>","null","","","","","","","","",""
"","","","","","html-button-response","154","464253","0.0-154.0","E2AA49B142CB4B6888391400B93B1A49","019cf81e-3afa-75fa-8205-bbeafbb9c266","019cf80d-4266-7117-8a51-54e13c84aca4","","913","
                <div class=""stimulus-container"">
                    <img src=""images/schematic_sequence/dinner_party_scheme/dinner_party_scheme_6.png"" class=""exp-image"">
                    <div class=""question-area"">
                        <p style=""font-size: 20px; font-weight: bold; margin: 0;"">Is there a person in this image?</p>
                    </div>
                </div>","0","main_experiment_trial","6","dinner_party_scheme","schematic_sequence","","","","",""
"","","","","","html-keyboard-response","155","469260","0.0-155.0","E2AA49B142CB4B6888391400B93B1A49","019cf81e-3afa-75fa-8205-bbeafbb9c266","019cf80d-4266-7117-8a51-54e13c84aca4","","null","
                <div class=""stimulus-container"">
                    <img src=""images/schematic_sequence/dinner_party_scheme/dinner_party_scheme_7.png"" class=""exp-image"">
                    <div class=""question-area""></div> 
                </div>","null","","","","","","","","",""
"","","","","","html-button-response","156","469913","0.0-156.0","E2AA49B142CB4B6888391400B93B1A49","019cf81e-3afa-75fa-8205-bbeafbb9c266","019cf80d-4266-7117-8a51-54e13c84aca4","","651","
                <div class=""stimulus-container"">
                    <img src=""images/schematic_sequence/dinner_party_scheme/dinner_party_scheme_7.png"" class=""exp-image"">
                    <div class=""question-area"">
                        <p style=""font-size: 20px; font-weight: bold; margin: 0;"">Is there a person in this image?</p>
                    </div>
                </div>","0","main_experiment_trial","7","dinner_party_scheme","schematic_sequence","","","","",""
"","","","","","html-keyboard-response","157","474920","0.0-157.0","E2AA49B142CB4B6888391400B93B1A49","019cf81e-3afa-75fa-8205-bbeafbb9c266","019cf80d-4266-7117-8a51-54e13c84aca4","","null","
                <div class=""stimulus-container"">
                    <img src=""images/schematic_sequence/dinner_party_scheme/dinner_party_scheme_8.png"" class=""exp-image"">
                    <div class=""question-area""></div> 
                </div>","null","","","","","","","","",""
"","","","","","html-button-response","158","475592","0.0-158.0","E2AA49B142CB4B6888391400B93B1A49","019cf81e-3afa-75fa-8205-bbeafbb9c266","019cf80d-4266-7117-8a51-54e13c84aca4","","671","
                <div class=""stimulus-container"">
                    <img src=""images/schematic_sequence/dinner_party_scheme/dinner_party_scheme_8.png"" class=""exp-image"">
                    <div class=""question-area"">
                        <p style=""font-size: 20px; font-weight: bold; margin: 0;"">Is there a person in this image?</p>
                    </div>
                </div>","0","main_experiment_trial","8","dinner_party_scheme","schematic_sequence","","","","",""
"","","","","","html-keyboard-response","159","480598","0.0-159.0","E2AA49B142CB4B6888391400B93B1A49","019cf81e-3afa-75fa-8205-bbeafbb9c266","019cf80d-4266-7117-8a51-54e13c84aca4","","null","
                <div class=""stimulus-container"">
                    <img src=""images/schematic_sequence/dinner_party_scheme/dinner_party_scheme_9.png"" class=""exp-image"">
                    <div class=""question-area""></div> 
                </div>","null","","","","","","","","",""
"","","","","","html-button-response","160","481319","0.0-160.0","E2AA49B142CB4B6888391400B93B1A49","019cf81e-3afa-75fa-8205-bbeafbb9c266","019cf80d-4266-7117-8a51-54e13c84aca4","","719","
                <div class=""stimulus-container"">
                    <img src=""images/schematic_sequence/dinner_party_scheme/dinner_party_scheme_9.png"" class=""exp-image"">
                    <div class=""question-area"">
                        <p style=""font-size: 20px; font-weight: bold; margin: 0;"">Is there a person in this image?</p>
                    </div>
                </div>","0","main_experiment_trial","9","dinner_party_scheme","schematic_sequence","","","","",""
"","","","","","html-keyboard-response","161","486328","0.0-161.0","E2AA49B142CB4B6888391400B93B1A49","019cf81e-3afa-75fa-8205-bbeafbb9c266","019cf80d-4266-7117-8a51-54e13c84aca4","","null","
                <div class=""stimulus-container"">
                    <img src=""images/schematic_sequence/dinner_party_scheme/dinner_party_scheme_ten.png"" class=""exp-image"">
                    <div class=""question-area""></div> 
                </div>","null","","","","","","","","",""
"","","","","","html-button-response","162","487236","0.0-162.0","E2AA49B142CB4B6888391400B93B1A49","019cf81e-3afa-75fa-8205-bbeafbb9c266","019cf80d-4266-7117-8a51-54e13c84aca4","","906","
                <div class=""stimulus-container"">
                    <img src=""images/schematic_sequence/dinner_party_scheme/dinner_party_scheme_ten.png"" class=""exp-image"">
                    <div class=""question-area"">
                        <p style=""font-size: 20px; font-weight: bold; margin: 0;"">Is there a person in this image?</p>
                    </div>
                </div>","0","main_experiment_trial","ten","dinner_party_scheme","schematic_sequence","","","","",""
"","","","","","html-keyboard-response","163","488243","0.0-163.0","E2AA49B142CB4B6888391400B93B1A49","019cf81e-3afa-75fa-8205-bbeafbb9c266","019cf80d-4266-7117-8a51-54e13c84aca4","","null","<div style=""background-color: white; width: 100vw; height: 100vh;""></div>","null","","","","","","","","",""
"","","","","","html-keyboard-response","164","493261","0.0-164.0","E2AA49B142CB4B6888391400B93B1A49","019cf81e-3afa-75fa-8205-bbeafbb9c266","019cf80d-4266-7117-8a51-54e13c84aca4","","null","
                <div class=""stimulus-container"">
                    <img src=""images/semantic_sequence/creative_activities_semantic/creative_activities_semantic_1.png"" class=""exp-image"">
                    <div class=""question-area""></div> 
                </div>","null","","","","","","","","",""
"","","","","","html-button-response","165","493891","0.0-165.0","E2AA49B142CB4B6888391400B93B1A49","019cf81e-3afa-75fa-8205-bbeafbb9c266","019cf80d-4266-7117-8a51-54e13c84aca4","","629","
                <div class=""stimulus-container"">
                    <img src=""images/semantic_sequence/creative_activities_semantic/creative_activities_semantic_1.png"" class=""exp-image"">
                    <div class=""question-area"">
                        <p style=""font-size: 20px; font-weight: bold; margin: 0;"">Is there a person in this image?</p>
                    </div>
                </div>","0","main_experiment_trial","1","creative_activities_semantic","semantic_sequence","","","","",""
"","","","","","html-keyboard-response","166","498900","0.0-166.0","E2AA49B142CB4B6888391400B93B1A49","019cf81e-3afa-75fa-8205-bbeafbb9c266","019cf80d-4266-7117-8a51-54e13c84aca4","","null","
                <div class=""stimulus-container"">
                    <img src=""images/semantic_sequence/creative_activities_semantic/creative_activities_semantic_2.png"" class=""exp-image"">
                    <div class=""question-area""></div> 
                </div>","null","","","","","","","","",""
"","","","","","html-button-response","167","500134","0.0-167.0","E2AA49B142CB4B6888391400B93B1A49","019cf81e-3afa-75fa-8205-bbeafbb9c266","019cf80d-4266-7117-8a51-54e13c84aca4","","1233","
                <div class=""stimulus-container"">
                    <img src=""images/semantic_sequence/creative_activities_semantic/creative_activities_semantic_2.png"" class=""exp-image"">
                    <div class=""question-area"">
                        <p style=""font-size: 20px; font-weight: bold; margin: 0;"">Is there a person in this image?</p>
                    </div>
                </div>","0","main_experiment_trial","2","creative_activities_semantic","semantic_sequence","","","","",""
"","","","","","html-keyboard-response","168","505152","0.0-168.0","E2AA49B142CB4B6888391400B93B1A49","019cf81e-3afa-75fa-8205-bbeafbb9c266","019cf80d-4266-7117-8a51-54e13c84aca4","","null","
                <div class=""stimulus-container"">
                    <img src=""images/semantic_sequence/creative_activities_semantic/creative_activities_semantic_3.png"" class=""exp-image"">
                    <div class=""question-area""></div> 
                </div>","null","","","","","","","","",""
"","","","","","html-button-response","169","505813","0.0-169.0","E2AA49B142CB4B6888391400B93B1A49","019cf81e-3afa-75fa-8205-bbeafbb9c266","019cf80d-4266-7117-8a51-54e13c84aca4","","659","
                <div class=""stimulus-container"">
                    <img src=""images/semantic_sequence/creative_activities_semantic/creative_activities_semantic_3.png"" class=""exp-image"">
                    <div class=""question-area"">
                        <p style=""font-size: 20px; font-weight: bold; margin: 0;"">Is there a person in this image?</p>
                    </div>
                </div>","0","main_experiment_trial","3","creative_activities_semantic","semantic_sequence","","","","",""
"","","","","","html-keyboard-response","170","510821","0.0-170.0","E2AA49B142CB4B6888391400B93B1A49","019cf81e-3afa-75fa-8205-bbeafbb9c266","019cf80d-4266-7117-8a51-54e13c84aca4","","null","
                <div class=""stimulus-container"">
                    <img src=""images/semantic_sequence/creative_activities_semantic/creative_activities_semantic_4.png"" class=""exp-image"">
                    <div class=""question-area""></div> 
                </div>","null","","","","","","","","",""
"","","","","","html-button-response","171","512192","0.0-171.0","E2AA49B142CB4B6888391400B93B1A49","019cf81e-3afa-75fa-8205-bbeafbb9c266","019cf80d-4266-7117-8a51-54e13c84aca4","","1369","
                <div class=""stimulus-container"">
                    <img src=""images/semantic_sequence/creative_activities_semantic/creative_activities_semantic_4.png"" class=""exp-image"">
                    <div class=""question-area"">
                        <p style=""font-size: 20px; font-weight: bold; margin: 0;"">Is there a person in this image?</p>
                    </div>
                </div>","0","main_experiment_trial","4","creative_activities_semantic","semantic_sequence","","","","",""
"","","","","","html-keyboard-response","172","517200","0.0-172.0","E2AA49B142CB4B6888391400B93B1A49","019cf81e-3afa-75fa-8205-bbeafbb9c266","019cf80d-4266-7117-8a51-54e13c84aca4","","null","
                <div class=""stimulus-container"">
                    <img src=""images/semantic_sequence/creative_activities_semantic/creative_activities_semantic_5.png"" class=""exp-image"">
                    <div class=""question-area""></div> 
                </div>","null","","","","","","","","",""
"","","","","","html-button-response","173","518185","0.0-173.0","E2AA49B142CB4B6888391400B93B1A49","019cf81e-3afa-75fa-8205-bbeafbb9c266","019cf80d-4266-7117-8a51-54e13c84aca4","","983","
                <div class=""stimulus-container"">
                    <img src=""images/semantic_sequence/creative_activities_semantic/creative_activities_semantic_5.png"" class=""exp-image"">
                    <div class=""question-area"">
                        <p style=""font-size: 20px; font-weight: bold; margin: 0;"">Is there a person in this image?</p>
                    </div>
                </div>","0","main_experiment_trial","5","creative_activities_semantic","semantic_sequence","","","","",""
"","","","","","html-keyboard-response","174","523194","0.0-174.0","E2AA49B142CB4B6888391400B93B1A49","019cf81e-3afa-75fa-8205-bbeafbb9c266","019cf80d-4266-7117-8a51-54e13c84aca4","","null","
                <div class=""stimulus-container"">
                    <img src=""images/semantic_sequence/creative_activities_semantic/creative_activities_semantic_6.png"" class=""exp-image"">
                    <div class=""question-area""></div> 
                </div>","null","","","","","","","","",""
"","","","","","html-button-response","175","524073","0.0-175.0","E2AA49B142CB4B6888391400B93B1A49","019cf81e-3afa-75fa-8205-bbeafbb9c266","019cf80d-4266-7117-8a51-54e13c84aca4","","878","
                <div class=""stimulus-container"">
                    <img src=""images/semantic_sequence/creative_activities_semantic/creative_activities_semantic_6.png"" class=""exp-image"">
                    <div class=""question-area"">
                        <p style=""font-size: 20px; font-weight: bold; margin: 0;"">Is there a person in this image?</p>
                    </div>
                </div>","0","main_experiment_trial","6","creative_activities_semantic","semantic_sequence","","","","",""
"","","","","","html-keyboard-response","176","529077","0.0-176.0","E2AA49B142CB4B6888391400B93B1A49","019cf81e-3afa-75fa-8205-bbeafbb9c266","019cf80d-4266-7117-8a51-54e13c84aca4","","null","
                <div class=""stimulus-container"">
                    <img src=""images/semantic_sequence/creative_activities_semantic/creative_activities_semantic_7.png"" class=""exp-image"">
                    <div class=""question-area""></div> 
                </div>","null","","","","","","","","",""
"","","","","","html-button-response","177","530371","0.0-177.0","E2AA49B142CB4B6888391400B93B1A49","019cf81e-3afa-75fa-8205-bbeafbb9c266","019cf80d-4266-7117-8a51-54e13c84aca4","","1290","
                <div class=""stimulus-container"">
                    <img src=""images/semantic_sequence/creative_activities_semantic/creative_activities_semantic_7.png"" class=""exp-image"">
                    <div class=""question-area"">
                        <p style=""font-size: 20px; font-weight: bold; margin: 0;"">Is there a person in this image?</p>
                    </div>
                </div>","0","main_experiment_trial","7","creative_activities_semantic","semantic_sequence","","","","",""
"","","","","","html-keyboard-response","178","535382","0.0-178.0","E2AA49B142CB4B6888391400B93B1A49","019cf81e-3afa-75fa-8205-bbeafbb9c266","019cf80d-4266-7117-8a51-54e13c84aca4","","null","
                <div class=""stimulus-container"">
                    <img src=""images/semantic_sequence/creative_activities_semantic/creative_activities_semantic_8.png"" class=""exp-image"">
                    <div class=""question-area""></div> 
                </div>","null","","","","","","","","",""
"","","","","","html-button-response","179","536434","0.0-179.0","E2AA49B142CB4B6888391400B93B1A49","019cf81e-3afa-75fa-8205-bbeafbb9c266","019cf80d-4266-7117-8a51-54e13c84aca4","","1051","
                <div class=""stimulus-container"">
                    <img src=""images/semantic_sequence/creative_activities_semantic/creative_activities_semantic_8.png"" class=""exp-image"">
                    <div class=""question-area"">
                        <p style=""font-size: 20px; font-weight: bold; margin: 0;"">Is there a person in this image?</p>
                    </div>
                </div>","0","main_experiment_trial","8","creative_activities_semantic","semantic_sequence","","","","",""
