"success","timeout","failed_images","failed_audio","failed_video","trial_type","trial_index","time_elapsed","internal_node_id","subject_id","study_id","session_id","view_history","rt","stimulus","response","task","image_index","folder","valuable_image_index","reward_type","valuable_X","chosen_image_index","distance_from_X"
"false","false","[]","[]","[]","preload","0","372","0.0-0.0","CF5EC965C8AF4814AD6710C96FAC6770","019ce87c-856e-7e10-a939-1952c2c7da36","019ce875-66c2-7f0b-b5e8-086c75889f84","","","","","","","","","","","",""
"","","","","","instructions","1","2172","0.0-1.0","CF5EC965C8AF4814AD6710C96FAC6770","019ce87c-856e-7e10-a939-1952c2c7da36","019ce875-66c2-7f0b-b5e8-086c75889f84","[{""page_index"":0,""viewing_time"":1799}]","1799","","","","","","","","","",""
"","","","","","instructions","2","47011","0.0-2.0","CF5EC965C8AF4814AD6710C96FAC6770","019ce87c-856e-7e10-a939-1952c2c7da36","019ce875-66c2-7f0b-b5e8-086c75889f84","[{""page_index"":0,""viewing_time"":44838}]","44838","","","","","","","","","",""
"true","","","","","fullscreen","3","49472","0.0-3.0","CF5EC965C8AF4814AD6710C96FAC6770","019ce87c-856e-7e10-a939-1952c2c7da36","019ce875-66c2-7f0b-b5e8-086c75889f84","","1457","","","","","","","","","",""
"","","","","","instructions","4","50988","0.0-4.0","CF5EC965C8AF4814AD6710C96FAC6770","019ce87c-856e-7e10-a939-1952c2c7da36","019ce875-66c2-7f0b-b5e8-086c75889f84","[{""page_index"":0,""viewing_time"":1516}]","1516","","","","","","","","","",""
"","","","","","instructions","5","52511","0.0-5.0","CF5EC965C8AF4814AD6710C96FAC6770","019ce87c-856e-7e10-a939-1952c2c7da36","019ce875-66c2-7f0b-b5e8-086c75889f84","[{""page_index"":0,""viewing_time"":1522}]","1522","","","","","","","","","",""
"","","","","","html-keyboard-response","6","56513","0.0-6.0","CF5EC965C8AF4814AD6710C96FAC6770","019ce87c-856e-7e10-a939-1952c2c7da36","019ce875-66c2-7f0b-b5e8-086c75889f84","","null","
                <div class=""stimulus-container"">
                    <img src=""images/instructions/movie_1.png"" class=""exp-image"">
                    <div class=""question-area""></div> 
                </div>","null","","","","","","","",""
"","","","","","html-button-response","7","59519","0.0-7.0","CF5EC965C8AF4814AD6710C96FAC6770","019ce87c-856e-7e10-a939-1952c2c7da36","019ce875-66c2-7f0b-b5e8-086c75889f84","","null","
                <div class=""stimulus-container"">
                    <img src=""images/instructions/movie_1.png"" class=""exp-image"">
                    <div class=""question-area"">
                        <p style=""font-size: 20px; font-weight: bold; margin: 0;"">Was there a person in this image?</p>
                    </div>
                </div>","null","example_question","1","","","","","",""
"","","","","","html-keyboard-response","8","63519","0.0-8.0","CF5EC965C8AF4814AD6710C96FAC6770","019ce87c-856e-7e10-a939-1952c2c7da36","019ce875-66c2-7f0b-b5e8-086c75889f84","","null","
                <div class=""stimulus-container"">
                    <img src=""images/instructions/movie_2.png"" class=""exp-image"">
                    <div class=""question-area""></div> 
                </div>","null","","","","","","","",""
"","","","","","html-button-response","9","66520","0.0-9.0","CF5EC965C8AF4814AD6710C96FAC6770","019ce87c-856e-7e10-a939-1952c2c7da36","019ce875-66c2-7f0b-b5e8-086c75889f84","","null","
                <div class=""stimulus-container"">
                    <img src=""images/instructions/movie_2.png"" class=""exp-image"">
                    <div class=""question-area"">
                        <p style=""font-size: 20px; font-weight: bold; margin: 0;"">Was there a person in this image?</p>
                    </div>
                </div>","null","example_question","2","","","","","",""
"","","","","","html-keyboard-response","10","70521","0.0-10.0","CF5EC965C8AF4814AD6710C96FAC6770","019ce87c-856e-7e10-a939-1952c2c7da36","019ce875-66c2-7f0b-b5e8-086c75889f84","","null","
                <div class=""stimulus-container"">
                    <img src=""images/instructions/movie_3.png"" class=""exp-image"">
                    <div class=""question-area""></div> 
                </div>","null","","","","","","","",""
"","","","","","html-button-response","11","71777","0.0-11.0","CF5EC965C8AF4814AD6710C96FAC6770","019ce87c-856e-7e10-a939-1952c2c7da36","019ce875-66c2-7f0b-b5e8-086c75889f84","","1255","
                <div class=""stimulus-container"">
                    <img src=""images/instructions/movie_3.png"" class=""exp-image"">
                    <div class=""question-area"">
                        <p style=""font-size: 20px; font-weight: bold; margin: 0;"">Was there a person in this image?</p>
                    </div>
                </div>","0","example_question","3","","","","","",""
"","","","","","html-keyboard-response","12","75779","0.0-12.0","CF5EC965C8AF4814AD6710C96FAC6770","019ce87c-856e-7e10-a939-1952c2c7da36","019ce875-66c2-7f0b-b5e8-086c75889f84","","null","
                <div class=""stimulus-container"">
                    <img src=""images/instructions/movie_4.png"" class=""exp-image"">
                    <div class=""question-area""></div> 
                </div>","null","","","","","","","",""
"","","","","","html-button-response","13","77147","0.0-13.0","CF5EC965C8AF4814AD6710C96FAC6770","019ce87c-856e-7e10-a939-1952c2c7da36","019ce875-66c2-7f0b-b5e8-086c75889f84","","1367","
                <div class=""stimulus-container"">
                    <img src=""images/instructions/movie_4.png"" class=""exp-image"">
                    <div class=""question-area"">
                        <p style=""font-size: 20px; font-weight: bold; margin: 0;"">Was there a person in this image?</p>
                    </div>
                </div>","0","example_question","4","","","","","",""
"","","","","","instructions","14","78601","0.0-14.0","CF5EC965C8AF4814AD6710C96FAC6770","019ce87c-856e-7e10-a939-1952c2c7da36","019ce875-66c2-7f0b-b5e8-086c75889f84","[{""page_index"":0,""viewing_time"":1454}]","1455","","","","","","","","","",""
"","","","","","html-keyboard-response","15","79603","0.0-15.0","CF5EC965C8AF4814AD6710C96FAC6770","019ce87c-856e-7e10-a939-1952c2c7da36","019ce875-66c2-7f0b-b5e8-086c75889f84","","null","<div style=""background-color: gray; width: 100vw; height: 100vh;""></div>","null","","","","","","","",""
"","","","","","html-keyboard-response","16","84604","0.0-16.0","CF5EC965C8AF4814AD6710C96FAC6770","019ce87c-856e-7e10-a939-1952c2c7da36","019ce875-66c2-7f0b-b5e8-086c75889f84","","null","
                    <div class=""stimulus-container"">
                        <img src=""images/causal_sequence/package_causal/package_causal_1.png"" class=""exp-image"">
                        <div class=""question-area""></div> 
                    </div>","null","","","","","","","",""
"","","","","","html-button-response","17","87300","0.0-17.0","CF5EC965C8AF4814AD6710C96FAC6770","019ce87c-856e-7e10-a939-1952c2c7da36","019ce875-66c2-7f0b-b5e8-086c75889f84","","2695","
                    <div class=""stimulus-container"">
                        <img src=""images/causal_sequence/package_causal/package_causal_1.png"" class=""exp-image"">
                        <div class=""question-area"">
                            <p style=""font-size: 20px; font-weight: bold; margin: 0;"">Is there a person in this image?</p>
                        </div>
                    </div>","0","main_causal_task","1","package_causal","","","","",""
"","","","","","html-keyboard-response","18","92301","0.0-18.0","CF5EC965C8AF4814AD6710C96FAC6770","019ce87c-856e-7e10-a939-1952c2c7da36","019ce875-66c2-7f0b-b5e8-086c75889f84","","null","
                    <div class=""stimulus-container"">
                        <img src=""images/causal_sequence/package_causal/package_causal_2.png"" class=""exp-image"">
                        <div class=""question-area""></div> 
                    </div>","null","","","","","","","",""
"","","","","","html-button-response","19","95190","0.0-19.0","CF5EC965C8AF4814AD6710C96FAC6770","019ce87c-856e-7e10-a939-1952c2c7da36","019ce875-66c2-7f0b-b5e8-086c75889f84","","2888","
                    <div class=""stimulus-container"">
                        <img src=""images/causal_sequence/package_causal/package_causal_2.png"" class=""exp-image"">
                        <div class=""question-area"">
                            <p style=""font-size: 20px; font-weight: bold; margin: 0;"">Is there a person in this image?</p>
                        </div>
                    </div>","1","main_causal_task","2","package_causal","","","","",""
"","","","","","html-keyboard-response","20","100193","0.0-20.0","CF5EC965C8AF4814AD6710C96FAC6770","019ce87c-856e-7e10-a939-1952c2c7da36","019ce875-66c2-7f0b-b5e8-086c75889f84","","null","
                    <div class=""stimulus-container"">
                        <img src=""images/causal_sequence/package_causal/package_causal_3.png"" class=""exp-image"">
                        <div class=""question-area""></div> 
                    </div>","null","","","","","","","",""
"","","","","","html-button-response","21","102076","0.0-21.0","CF5EC965C8AF4814AD6710C96FAC6770","019ce87c-856e-7e10-a939-1952c2c7da36","019ce875-66c2-7f0b-b5e8-086c75889f84","","1882","
                    <div class=""stimulus-container"">
                        <img src=""images/causal_sequence/package_causal/package_causal_3.png"" class=""exp-image"">
                        <div class=""question-area"">
                            <p style=""font-size: 20px; font-weight: bold; margin: 0;"">Is there a person in this image?</p>
                        </div>
                    </div>","0","main_causal_task","3","package_causal","","","","",""
"","","","","","html-keyboard-response","22","107078","0.0-22.0","CF5EC965C8AF4814AD6710C96FAC6770","019ce87c-856e-7e10-a939-1952c2c7da36","019ce875-66c2-7f0b-b5e8-086c75889f84","","null","
                    <div class=""stimulus-container"">
                        <img src=""images/causal_sequence/package_causal/package_causal_4.png"" class=""exp-image"">
                        <div class=""question-area""></div> 
                    </div>","null","","","","","","","",""
"","","","","","html-button-response","23","108068","0.0-23.0","CF5EC965C8AF4814AD6710C96FAC6770","019ce87c-856e-7e10-a939-1952c2c7da36","019ce875-66c2-7f0b-b5e8-086c75889f84","","989","
                    <div class=""stimulus-container"">
                        <img src=""images/causal_sequence/package_causal/package_causal_4.png"" class=""exp-image"">
                        <div class=""question-area"">
                            <p style=""font-size: 20px; font-weight: bold; margin: 0;"">Is there a person in this image?</p>
                        </div>
                    </div>","1","main_causal_task","4","package_causal","","","","",""
"","","","","","html-keyboard-response","24","113069","0.0-24.0","CF5EC965C8AF4814AD6710C96FAC6770","019ce87c-856e-7e10-a939-1952c2c7da36","019ce875-66c2-7f0b-b5e8-086c75889f84","","null","
                    <div class=""stimulus-container"">
                        <img src=""images/causal_sequence/package_causal/package_causal_5.png"" class=""exp-image"">
                        <div class=""question-area""></div> 
                    </div>","null","","","","","","","",""
"","","","","","html-button-response","25","113702","0.0-25.0","CF5EC965C8AF4814AD6710C96FAC6770","019ce87c-856e-7e10-a939-1952c2c7da36","019ce875-66c2-7f0b-b5e8-086c75889f84","","632","
                    <div class=""stimulus-container"">
                        <img src=""images/causal_sequence/package_causal/package_causal_5.png"" class=""exp-image"">
                        <div class=""question-area"">
                            <p style=""font-size: 20px; font-weight: bold; margin: 0;"">Is there a person in this image?</p>
                        </div>
                    </div>","0","main_causal_task","5","package_causal","","","","",""
"","","","","","html-keyboard-response","26","118703","0.0-26.0","CF5EC965C8AF4814AD6710C96FAC6770","019ce87c-856e-7e10-a939-1952c2c7da36","019ce875-66c2-7f0b-b5e8-086c75889f84","","null","
                    <div class=""stimulus-container"">
                        <img src=""images/causal_sequence/package_causal/package_causal_6.png"" class=""exp-image"">
                        <div class=""question-area""></div> 
                    </div>","null","","","","","","","",""
"","","","","","html-button-response","27","119308","0.0-27.0","CF5EC965C8AF4814AD6710C96FAC6770","019ce87c-856e-7e10-a939-1952c2c7da36","019ce875-66c2-7f0b-b5e8-086c75889f84","","604","
                    <div class=""stimulus-container"">
                        <img src=""images/causal_sequence/package_causal/package_causal_6.png"" class=""exp-image"">
                        <div class=""question-area"">
                            <p style=""font-size: 20px; font-weight: bold; margin: 0;"">Is there a person in this image?</p>
                        </div>
                    </div>","0","main_causal_task","6","package_causal","","","","",""
"","","","","","html-keyboard-response","28","124308","0.0-28.0","CF5EC965C8AF4814AD6710C96FAC6770","019ce87c-856e-7e10-a939-1952c2c7da36","019ce875-66c2-7f0b-b5e8-086c75889f84","","null","
                    <div class=""stimulus-container"">
                        <img src=""images/causal_sequence/package_causal/package_causal_7.png"" class=""exp-image"">
                        <div class=""question-area""></div> 
                    </div>","null","","","","","","","",""
"","","","","","html-button-response","29","126495","0.0-29.0","CF5EC965C8AF4814AD6710C96FAC6770","019ce87c-856e-7e10-a939-1952c2c7da36","019ce875-66c2-7f0b-b5e8-086c75889f84","","2186","
                    <div class=""stimulus-container"">
                        <img src=""images/causal_sequence/package_causal/package_causal_7.png"" class=""exp-image"">
                        <div class=""question-area"">
                            <p style=""font-size: 20px; font-weight: bold; margin: 0;"">Is there a person in this image?</p>
                        </div>
                    </div>","0","main_causal_task","7","package_causal","","","","",""
"","","","","","html-keyboard-response","30","131496","0.0-30.0","CF5EC965C8AF4814AD6710C96FAC6770","019ce87c-856e-7e10-a939-1952c2c7da36","019ce875-66c2-7f0b-b5e8-086c75889f84","","null","
                    <div class=""stimulus-container"">
                        <img src=""images/causal_sequence/package_causal/package_causal_8.png"" class=""exp-image"">
                        <div class=""question-area""></div> 
                    </div>","null","","","","","","","",""
"","","","","","html-button-response","31","132476","0.0-31.0","CF5EC965C8AF4814AD6710C96FAC6770","019ce87c-856e-7e10-a939-1952c2c7da36","019ce875-66c2-7f0b-b5e8-086c75889f84","","979","
                    <div class=""stimulus-container"">
                        <img src=""images/causal_sequence/package_causal/package_causal_8.png"" class=""exp-image"">
                        <div class=""question-area"">
                            <p style=""font-size: 20px; font-weight: bold; margin: 0;"">Is there a person in this image?</p>
                        </div>
                    </div>","0","main_causal_task","8","package_causal","","","","",""
"","","","","","html-keyboard-response","32","137478","0.0-32.0","CF5EC965C8AF4814AD6710C96FAC6770","019ce87c-856e-7e10-a939-1952c2c7da36","019ce875-66c2-7f0b-b5e8-086c75889f84","","null","
                    <div class=""stimulus-container"">
                        <img src=""images/causal_sequence/package_causal/package_causal_9.png"" class=""exp-image"">
                        <div class=""question-area""></div> 
                    </div>","null","","","","","","","",""
"","","","","","html-button-response","33","138252","0.0-33.0","CF5EC965C8AF4814AD6710C96FAC6770","019ce87c-856e-7e10-a939-1952c2c7da36","019ce875-66c2-7f0b-b5e8-086c75889f84","","774","
                    <div class=""stimulus-container"">
                        <img src=""images/causal_sequence/package_causal/package_causal_9.png"" class=""exp-image"">
                        <div class=""question-area"">
                            <p style=""font-size: 20px; font-weight: bold; margin: 0;"">Is there a person in this image?</p>
                        </div>
                    </div>","0","main_causal_task","9","package_causal","","","","",""
"","","","","","html-keyboard-response","34","139254","0.0-34.0","CF5EC965C8AF4814AD6710C96FAC6770","019ce87c-856e-7e10-a939-1952c2c7da36","019ce875-66c2-7f0b-b5e8-086c75889f84","","null","<div style=""background-color: gray; width: 100vw; height: 100vh;""></div>","null","","","","","","","",""
"","","","","","html-keyboard-response","35","144254","0.0-35.0","CF5EC965C8AF4814AD6710C96FAC6770","019ce87c-856e-7e10-a939-1952c2c7da36","019ce875-66c2-7f0b-b5e8-086c75889f84","","null","
                    <div class=""stimulus-container"">
                        <img src=""images/causal_sequence/the_performance_causal/the_performance_causal_1.png"" class=""exp-image"">
                        <div class=""question-area""></div> 
                    </div>","null","","","","","","","",""
"","","","","","html-button-response","36","145498","0.0-36.0","CF5EC965C8AF4814AD6710C96FAC6770","019ce87c-856e-7e10-a939-1952c2c7da36","019ce875-66c2-7f0b-b5e8-086c75889f84","","1243","
                    <div class=""stimulus-container"">
                        <img src=""images/causal_sequence/the_performance_causal/the_performance_causal_1.png"" class=""exp-image"">
                        <div class=""question-area"">
                            <p style=""font-size: 20px; font-weight: bold; margin: 0;"">Is there a person in this image?</p>
                        </div>
                    </div>","0","main_causal_task","1","the_performance_causal","","","","",""
"","","","","","html-keyboard-response","37","150500","0.0-37.0","CF5EC965C8AF4814AD6710C96FAC6770","019ce87c-856e-7e10-a939-1952c2c7da36","019ce875-66c2-7f0b-b5e8-086c75889f84","","null","
                    <div class=""stimulus-container"">
                        <img src=""images/causal_sequence/the_performance_causal/the_performance_causal_2.png"" class=""exp-image"">
                        <div class=""question-area""></div> 
                    </div>","null","","","","","","","",""
"","","","","","html-button-response","38","151236","0.0-38.0","CF5EC965C8AF4814AD6710C96FAC6770","019ce87c-856e-7e10-a939-1952c2c7da36","019ce875-66c2-7f0b-b5e8-086c75889f84","","735","
                    <div class=""stimulus-container"">
                        <img src=""images/causal_sequence/the_performance_causal/the_performance_causal_2.png"" class=""exp-image"">
                        <div class=""question-area"">
                            <p style=""font-size: 20px; font-weight: bold; margin: 0;"">Is there a person in this image?</p>
                        </div>
                    </div>","0","main_causal_task","2","the_performance_causal","","","","",""
"","","","","","html-keyboard-response","39","156238","0.0-39.0","CF5EC965C8AF4814AD6710C96FAC6770","019ce87c-856e-7e10-a939-1952c2c7da36","019ce875-66c2-7f0b-b5e8-086c75889f84","","null","
                    <div class=""stimulus-container"">
                        <img src=""images/causal_sequence/the_performance_causal/the_performance_causal_3.png"" class=""exp-image"">
                        <div class=""question-area""></div> 
                    </div>","null","","","","","","","",""
"","","","","","html-button-response","40","159239","0.0-40.0","CF5EC965C8AF4814AD6710C96FAC6770","019ce87c-856e-7e10-a939-1952c2c7da36","019ce875-66c2-7f0b-b5e8-086c75889f84","","null","
                    <div class=""stimulus-container"">
                        <img src=""images/causal_sequence/the_performance_causal/the_performance_causal_3.png"" class=""exp-image"">
                        <div class=""question-area"">
                            <p style=""font-size: 20px; font-weight: bold; margin: 0;"">Is there a person in this image?</p>
                        </div>
                    </div>","null","main_causal_task","3","the_performance_causal","","","","",""
"","","","","","html-keyboard-response","41","164240","0.0-41.0","CF5EC965C8AF4814AD6710C96FAC6770","019ce87c-856e-7e10-a939-1952c2c7da36","019ce875-66c2-7f0b-b5e8-086c75889f84","","null","
                    <div class=""stimulus-container"">
                        <img src=""images/causal_sequence/the_performance_causal/the_performance_causal_4.png"" class=""exp-image"">
                        <div class=""question-area""></div> 
                    </div>","null","","","","","","","",""
"","","","","","html-button-response","42","167241","0.0-42.0","CF5EC965C8AF4814AD6710C96FAC6770","019ce87c-856e-7e10-a939-1952c2c7da36","019ce875-66c2-7f0b-b5e8-086c75889f84","","null","
                    <div class=""stimulus-container"">
                        <img src=""images/causal_sequence/the_performance_causal/the_performance_causal_4.png"" class=""exp-image"">
                        <div class=""question-area"">
                            <p style=""font-size: 20px; font-weight: bold; margin: 0;"">Is there a person in this image?</p>
                        </div>
                    </div>","null","main_causal_task","4","the_performance_causal","","","","",""
"","","","","","html-keyboard-response","43","172241","0.0-43.0","CF5EC965C8AF4814AD6710C96FAC6770","019ce87c-856e-7e10-a939-1952c2c7da36","019ce875-66c2-7f0b-b5e8-086c75889f84","","null","
                    <div class=""stimulus-container"">
                        <img src=""images/causal_sequence/the_performance_causal/the_performance_causal_5.png"" class=""exp-image"">
                        <div class=""question-area""></div> 
                    </div>","null","","","","","","","",""
"","","","","","html-button-response","44","175243","0.0-44.0","CF5EC965C8AF4814AD6710C96FAC6770","019ce87c-856e-7e10-a939-1952c2c7da36","019ce875-66c2-7f0b-b5e8-086c75889f84","","null","
                    <div class=""stimulus-container"">
                        <img src=""images/causal_sequence/the_performance_causal/the_performance_causal_5.png"" class=""exp-image"">
                        <div class=""question-area"">
                            <p style=""font-size: 20px; font-weight: bold; margin: 0;"">Is there a person in this image?</p>
                        </div>
                    </div>","null","main_causal_task","5","the_performance_causal","","","","",""
"","","","","","html-keyboard-response","45","180245","0.0-45.0","CF5EC965C8AF4814AD6710C96FAC6770","019ce87c-856e-7e10-a939-1952c2c7da36","019ce875-66c2-7f0b-b5e8-086c75889f84","","null","
                    <div class=""stimulus-container"">
                        <img src=""images/causal_sequence/the_performance_causal/the_performance_causal_6.png"" class=""exp-image"">
                        <div class=""question-area""></div> 
                    </div>","null","","","","","","","",""
"","","","","","html-button-response","46","182692","0.0-46.0","CF5EC965C8AF4814AD6710C96FAC6770","019ce87c-856e-7e10-a939-1952c2c7da36","019ce875-66c2-7f0b-b5e8-086c75889f84","","2447","
                    <div class=""stimulus-container"">
                        <img src=""images/causal_sequence/the_performance_causal/the_performance_causal_6.png"" class=""exp-image"">
                        <div class=""question-area"">
                            <p style=""font-size: 20px; font-weight: bold; margin: 0;"">Is there a person in this image?</p>
                        </div>
                    </div>","0","main_causal_task","6","the_performance_causal","","","","",""
"","","","","","html-keyboard-response","47","187692","0.0-47.0","CF5EC965C8AF4814AD6710C96FAC6770","019ce87c-856e-7e10-a939-1952c2c7da36","019ce875-66c2-7f0b-b5e8-086c75889f84","","null","
                    <div class=""stimulus-container"">
                        <img src=""images/causal_sequence/the_performance_causal/the_performance_causal_7.png"" class=""exp-image"">
                        <div class=""question-area""></div> 
                    </div>","null","","","","","","","",""
"","","","","","html-button-response","48","189095","0.0-48.0","CF5EC965C8AF4814AD6710C96FAC6770","019ce87c-856e-7e10-a939-1952c2c7da36","019ce875-66c2-7f0b-b5e8-086c75889f84","","1403","
                    <div class=""stimulus-container"">
                        <img src=""images/causal_sequence/the_performance_causal/the_performance_causal_7.png"" class=""exp-image"">
                        <div class=""question-area"">
                            <p style=""font-size: 20px; font-weight: bold; margin: 0;"">Is there a person in this image?</p>
                        </div>
                    </div>","0","main_causal_task","7","the_performance_causal","","","","",""
"","","","","","html-keyboard-response","49","194097","0.0-49.0","CF5EC965C8AF4814AD6710C96FAC6770","019ce87c-856e-7e10-a939-1952c2c7da36","019ce875-66c2-7f0b-b5e8-086c75889f84","","null","
                    <div class=""stimulus-container"">
                        <img src=""images/causal_sequence/the_performance_causal/the_performance_causal_8.png"" class=""exp-image"">
                        <div class=""question-area""></div> 
                    </div>","null","","","","","","","",""
"","","","","","html-button-response","50","194851","0.0-50.0","CF5EC965C8AF4814AD6710C96FAC6770","019ce87c-856e-7e10-a939-1952c2c7da36","019ce875-66c2-7f0b-b5e8-086c75889f84","","754","
                    <div class=""stimulus-container"">
                        <img src=""images/causal_sequence/the_performance_causal/the_performance_causal_8.png"" class=""exp-image"">
                        <div class=""question-area"">
                            <p style=""font-size: 20px; font-weight: bold; margin: 0;"">Is there a person in this image?</p>
                        </div>
                    </div>","0","main_causal_task","8","the_performance_causal","","","","",""
"","","","","","html-keyboard-response","51","199852","0.0-51.0","CF5EC965C8AF4814AD6710C96FAC6770","019ce87c-856e-7e10-a939-1952c2c7da36","019ce875-66c2-7f0b-b5e8-086c75889f84","","null","
                    <div class=""stimulus-container"">
                        <img src=""images/causal_sequence/the_performance_causal/the_performance_causal_9.png"" class=""exp-image"">
                        <div class=""question-area""></div> 
                    </div>","null","","","","","","","",""
"","","","","","html-button-response","52","200476","0.0-52.0","CF5EC965C8AF4814AD6710C96FAC6770","019ce87c-856e-7e10-a939-1952c2c7da36","019ce875-66c2-7f0b-b5e8-086c75889f84","","622","
                    <div class=""stimulus-container"">
                        <img src=""images/causal_sequence/the_performance_causal/the_performance_causal_9.png"" class=""exp-image"">
                        <div class=""question-area"">
                            <p style=""font-size: 20px; font-weight: bold; margin: 0;"">Is there a person in this image?</p>
                        </div>
                    </div>","0","main_causal_task","9","the_performance_causal","","","","",""
"","","","","","html-keyboard-response","53","201477","0.0-53.0","CF5EC965C8AF4814AD6710C96FAC6770","019ce87c-856e-7e10-a939-1952c2c7da36","019ce875-66c2-7f0b-b5e8-086c75889f84","","null","<div style=""background-color: gray; width: 100vw; height: 100vh;""></div>","null","","","","","","","",""
"","","","","","html-keyboard-response","54","206479","0.0-54.0","CF5EC965C8AF4814AD6710C96FAC6770","019ce87c-856e-7e10-a939-1952c2c7da36","019ce875-66c2-7f0b-b5e8-086c75889f84","","null","
                    <div class=""stimulus-container"">
                        <img src=""images/causal_sequence/saving_a_cat_causal/saving_a_cat_causal_1.png"" class=""exp-image"">
                        <div class=""question-area""></div> 
                    </div>","null","","","","","","","",""
"","","","","","html-button-response","55","208055","0.0-55.0","CF5EC965C8AF4814AD6710C96FAC6770","019ce87c-856e-7e10-a939-1952c2c7da36","019ce875-66c2-7f0b-b5e8-086c75889f84","","1576","
                    <div class=""stimulus-container"">
                        <img src=""images/causal_sequence/saving_a_cat_causal/saving_a_cat_causal_1.png"" class=""exp-image"">
                        <div class=""question-area"">
                            <p style=""font-size: 20px; font-weight: bold; margin: 0;"">Is there a person in this image?</p>
                        </div>
                    </div>","0","main_causal_task","1","saving_a_cat_causal","","","","",""
"","","","","","html-keyboard-response","56","213056","0.0-56.0","CF5EC965C8AF4814AD6710C96FAC6770","019ce87c-856e-7e10-a939-1952c2c7da36","019ce875-66c2-7f0b-b5e8-086c75889f84","","null","
                    <div class=""stimulus-container"">
                        <img src=""images/causal_sequence/saving_a_cat_causal/saving_a_cat_causal_2.png"" class=""exp-image"">
                        <div class=""question-area""></div> 
                    </div>","null","","","","","","","",""
"","","","","","html-button-response","57","216057","0.0-57.0","CF5EC965C8AF4814AD6710C96FAC6770","019ce87c-856e-7e10-a939-1952c2c7da36","019ce875-66c2-7f0b-b5e8-086c75889f84","","null","
                    <div class=""stimulus-container"">
                        <img src=""images/causal_sequence/saving_a_cat_causal/saving_a_cat_causal_2.png"" class=""exp-image"">
                        <div class=""question-area"">
                            <p style=""font-size: 20px; font-weight: bold; margin: 0;"">Is there a person in this image?</p>
                        </div>
                    </div>","null","main_causal_task","2","saving_a_cat_causal","","","","",""
"","","","","","html-keyboard-response","58","221060","0.0-58.0","CF5EC965C8AF4814AD6710C96FAC6770","019ce87c-856e-7e10-a939-1952c2c7da36","019ce875-66c2-7f0b-b5e8-086c75889f84","","null","
                    <div class=""stimulus-container"">
                        <img src=""images/causal_sequence/saving_a_cat_causal/saving_a_cat_causal_3.png"" class=""exp-image"">
                        <div class=""question-area""></div> 
                    </div>","null","","","","","","","",""
"","","","","","html-button-response","59","222027","0.0-59.0","CF5EC965C8AF4814AD6710C96FAC6770","019ce87c-856e-7e10-a939-1952c2c7da36","019ce875-66c2-7f0b-b5e8-086c75889f84","","966","
                    <div class=""stimulus-container"">
                        <img src=""images/causal_sequence/saving_a_cat_causal/saving_a_cat_causal_3.png"" class=""exp-image"">
                        <div class=""question-area"">
                            <p style=""font-size: 20px; font-weight: bold; margin: 0;"">Is there a person in this image?</p>
                        </div>
                    </div>","1","main_causal_task","3","saving_a_cat_causal","","","","",""
"","","","","","html-keyboard-response","60","227028","0.0-60.0","CF5EC965C8AF4814AD6710C96FAC6770","019ce87c-856e-7e10-a939-1952c2c7da36","019ce875-66c2-7f0b-b5e8-086c75889f84","","null","
                    <div class=""stimulus-container"">
                        <img src=""images/causal_sequence/saving_a_cat_causal/saving_a_cat_causal_4.png"" class=""exp-image"">
                        <div class=""question-area""></div> 
                    </div>","null","","","","","","","",""
"","","","","","html-button-response","61","230032","0.0-61.0","CF5EC965C8AF4814AD6710C96FAC6770","019ce87c-856e-7e10-a939-1952c2c7da36","019ce875-66c2-7f0b-b5e8-086c75889f84","","null","
                    <div class=""stimulus-container"">
                        <img src=""images/causal_sequence/saving_a_cat_causal/saving_a_cat_causal_4.png"" class=""exp-image"">
                        <div class=""question-area"">
                            <p style=""font-size: 20px; font-weight: bold; margin: 0;"">Is there a person in this image?</p>
                        </div>
                    </div>","null","main_causal_task","4","saving_a_cat_causal","","","","",""
"","","","","","html-keyboard-response","62","235033","0.0-62.0","CF5EC965C8AF4814AD6710C96FAC6770","019ce87c-856e-7e10-a939-1952c2c7da36","019ce875-66c2-7f0b-b5e8-086c75889f84","","null","
                    <div class=""stimulus-container"">
                        <img src=""images/causal_sequence/saving_a_cat_causal/saving_a_cat_causal_5.png"" class=""exp-image"">
                        <div class=""question-area""></div> 
                    </div>","null","","","","","","","",""
"","","","","","html-button-response","63","235805","0.0-63.0","CF5EC965C8AF4814AD6710C96FAC6770","019ce87c-856e-7e10-a939-1952c2c7da36","019ce875-66c2-7f0b-b5e8-086c75889f84","","771","
                    <div class=""stimulus-container"">
                        <img src=""images/causal_sequence/saving_a_cat_causal/saving_a_cat_causal_5.png"" class=""exp-image"">
                        <div class=""question-area"">
                            <p style=""font-size: 20px; font-weight: bold; margin: 0;"">Is there a person in this image?</p>
                        </div>
                    </div>","0","main_causal_task","5","saving_a_cat_causal","","","","",""
"","","","","","html-keyboard-response","64","240806","0.0-64.0","CF5EC965C8AF4814AD6710C96FAC6770","019ce87c-856e-7e10-a939-1952c2c7da36","019ce875-66c2-7f0b-b5e8-086c75889f84","","null","
                    <div class=""stimulus-container"">
                        <img src=""images/causal_sequence/saving_a_cat_causal/saving_a_cat_causal_6.png"" class=""exp-image"">
                        <div class=""question-area""></div> 
                    </div>","null","","","","","","","",""
"","","","","","html-button-response","65","241637","0.0-65.0","CF5EC965C8AF4814AD6710C96FAC6770","019ce87c-856e-7e10-a939-1952c2c7da36","019ce875-66c2-7f0b-b5e8-086c75889f84","","830","
                    <div class=""stimulus-container"">
                        <img src=""images/causal_sequence/saving_a_cat_causal/saving_a_cat_causal_6.png"" class=""exp-image"">
                        <div class=""question-area"">
                            <p style=""font-size: 20px; font-weight: bold; margin: 0;"">Is there a person in this image?</p>
                        </div>
                    </div>","0","main_causal_task","6","saving_a_cat_causal","","","","",""
"","","","","","html-keyboard-response","66","246637","0.0-66.0","CF5EC965C8AF4814AD6710C96FAC6770","019ce87c-856e-7e10-a939-1952c2c7da36","019ce875-66c2-7f0b-b5e8-086c75889f84","","null","
                    <div class=""stimulus-container"">
                        <img src=""images/causal_sequence/saving_a_cat_causal/saving_a_cat_causal_7.png"" class=""exp-image"">
                        <div class=""question-area""></div> 
                    </div>","null","","","","","","","",""
"","","","","","html-button-response","67","249637","0.0-67.0","CF5EC965C8AF4814AD6710C96FAC6770","019ce87c-856e-7e10-a939-1952c2c7da36","019ce875-66c2-7f0b-b5e8-086c75889f84","","null","
                    <div class=""stimulus-container"">
                        <img src=""images/causal_sequence/saving_a_cat_causal/saving_a_cat_causal_7.png"" class=""exp-image"">
                        <div class=""question-area"">
                            <p style=""font-size: 20px; font-weight: bold; margin: 0;"">Is there a person in this image?</p>
                        </div>
                    </div>","null","main_causal_task","7","saving_a_cat_causal","","","","",""
"","","","","","html-keyboard-response","68","254638","0.0-68.0","CF5EC965C8AF4814AD6710C96FAC6770","019ce87c-856e-7e10-a939-1952c2c7da36","019ce875-66c2-7f0b-b5e8-086c75889f84","","null","
                    <div class=""stimulus-container"">
                        <img src=""images/causal_sequence/saving_a_cat_causal/saving_a_cat_causal_8.png"" class=""exp-image"">
                        <div class=""question-area""></div> 
                    </div>","null","","","","","","","",""
"","","","","","html-button-response","69","257018","0.0-69.0","CF5EC965C8AF4814AD6710C96FAC6770","019ce87c-856e-7e10-a939-1952c2c7da36","019ce875-66c2-7f0b-b5e8-086c75889f84","","2378","
                    <div class=""stimulus-container"">
                        <img src=""images/causal_sequence/saving_a_cat_causal/saving_a_cat_causal_8.png"" class=""exp-image"">
                        <div class=""question-area"">
                            <p style=""font-size: 20px; font-weight: bold; margin: 0;"">Is there a person in this image?</p>
                        </div>
                    </div>","0","main_causal_task","8","saving_a_cat_causal","","","","",""
"","","","","","html-keyboard-response","70","262019","0.0-70.0","CF5EC965C8AF4814AD6710C96FAC6770","019ce87c-856e-7e10-a939-1952c2c7da36","019ce875-66c2-7f0b-b5e8-086c75889f84","","null","
                    <div class=""stimulus-container"">
                        <img src=""images/causal_sequence/saving_a_cat_causal/saving_a_cat_causal_9.png"" class=""exp-image"">
                        <div class=""question-area""></div> 
                    </div>","null","","","","","","","",""
"","","","","","html-button-response","71","263699","0.0-71.0","CF5EC965C8AF4814AD6710C96FAC6770","019ce87c-856e-7e10-a939-1952c2c7da36","019ce875-66c2-7f0b-b5e8-086c75889f84","","1679","
                    <div class=""stimulus-container"">
                        <img src=""images/causal_sequence/saving_a_cat_causal/saving_a_cat_causal_9.png"" class=""exp-image"">
                        <div class=""question-area"">
                            <p style=""font-size: 20px; font-weight: bold; margin: 0;"">Is there a person in this image?</p>
                        </div>
                    </div>","0","main_causal_task","9","saving_a_cat_causal","","","","",""
"","","","","","html-keyboard-response","72","264700","0.0-72.0","CF5EC965C8AF4814AD6710C96FAC6770","019ce87c-856e-7e10-a939-1952c2c7da36","019ce875-66c2-7f0b-b5e8-086c75889f84","","null","<div style=""background-color: gray; width: 100vw; height: 100vh;""></div>","null","","","","","","","",""
"","","","","","html-keyboard-response","73","269702","0.0-73.0","CF5EC965C8AF4814AD6710C96FAC6770","019ce87c-856e-7e10-a939-1952c2c7da36","019ce875-66c2-7f0b-b5e8-086c75889f84","","null","
                    <div class=""stimulus-container"">
                        <img src=""images/causal_sequence/museum_causal/museum_causal_1.png"" class=""exp-image"">
                        <div class=""question-area""></div> 
                    </div>","null","","","","","","","",""
"","","","","","html-button-response","74","270429","0.0-74.0","CF5EC965C8AF4814AD6710C96FAC6770","019ce87c-856e-7e10-a939-1952c2c7da36","019ce875-66c2-7f0b-b5e8-086c75889f84","","724","
                    <div class=""stimulus-container"">
                        <img src=""images/causal_sequence/museum_causal/museum_causal_1.png"" class=""exp-image"">
                        <div class=""question-area"">
                            <p style=""font-size: 20px; font-weight: bold; margin: 0;"">Is there a person in this image?</p>
                        </div>
                    </div>","0","main_causal_task","1","museum_causal","","","","",""
"","","","","","html-keyboard-response","75","275429","0.0-75.0","CF5EC965C8AF4814AD6710C96FAC6770","019ce87c-856e-7e10-a939-1952c2c7da36","019ce875-66c2-7f0b-b5e8-086c75889f84","","null","
                    <div class=""stimulus-container"">
                        <img src=""images/causal_sequence/museum_causal/museum_causal_2.png"" class=""exp-image"">
                        <div class=""question-area""></div> 
                    </div>","null","","","","","","","",""
"","","","","","html-button-response","76","276367","0.0-76.0","CF5EC965C8AF4814AD6710C96FAC6770","019ce87c-856e-7e10-a939-1952c2c7da36","019ce875-66c2-7f0b-b5e8-086c75889f84","","937","
                    <div class=""stimulus-container"">
                        <img src=""images/causal_sequence/museum_causal/museum_causal_2.png"" class=""exp-image"">
                        <div class=""question-area"">
                            <p style=""font-size: 20px; font-weight: bold; margin: 0;"">Is there a person in this image?</p>
                        </div>
                    </div>","1","main_causal_task","2","museum_causal","","","","",""
"","","","","","html-keyboard-response","77","281368","0.0-77.0","CF5EC965C8AF4814AD6710C96FAC6770","019ce87c-856e-7e10-a939-1952c2c7da36","019ce875-66c2-7f0b-b5e8-086c75889f84","","null","
                    <div class=""stimulus-container"">
                        <img src=""images/causal_sequence/museum_causal/museum_causal_3.png"" class=""exp-image"">
                        <div class=""question-area""></div> 
                    </div>","null","","","","","","","",""
"","","","","","html-button-response","78","282732","0.0-78.0","CF5EC965C8AF4814AD6710C96FAC6770","019ce87c-856e-7e10-a939-1952c2c7da36","019ce875-66c2-7f0b-b5e8-086c75889f84","","1364","
                    <div class=""stimulus-container"">
                        <img src=""images/causal_sequence/museum_causal/museum_causal_3.png"" class=""exp-image"">
                        <div class=""question-area"">
                            <p style=""font-size: 20px; font-weight: bold; margin: 0;"">Is there a person in this image?</p>
                        </div>
                    </div>","1","main_causal_task","3","museum_causal","","","","",""
"","","","","","html-keyboard-response","79","287734","0.0-79.0","CF5EC965C8AF4814AD6710C96FAC6770","019ce87c-856e-7e10-a939-1952c2c7da36","019ce875-66c2-7f0b-b5e8-086c75889f84","","null","
                    <div class=""stimulus-container"">
                        <img src=""images/causal_sequence/museum_causal/museum_causal_4.png"" class=""exp-image"">
                        <div class=""question-area""></div> 
                    </div>","null","","","","","","","",""
"","","","","","html-button-response","80","289198","0.0-80.0","CF5EC965C8AF4814AD6710C96FAC6770","019ce87c-856e-7e10-a939-1952c2c7da36","019ce875-66c2-7f0b-b5e8-086c75889f84","","1462","
                    <div class=""stimulus-container"">
                        <img src=""images/causal_sequence/museum_causal/museum_causal_4.png"" class=""exp-image"">
                        <div class=""question-area"">
                            <p style=""font-size: 20px; font-weight: bold; margin: 0;"">Is there a person in this image?</p>
                        </div>
                    </div>","1","main_causal_task","4","museum_causal","","","","",""
"","","","","","html-keyboard-response","81","294199","0.0-81.0","CF5EC965C8AF4814AD6710C96FAC6770","019ce87c-856e-7e10-a939-1952c2c7da36","019ce875-66c2-7f0b-b5e8-086c75889f84","","null","
                    <div class=""stimulus-container"">
                        <img src=""images/causal_sequence/museum_causal/museum_causal_5.png"" class=""exp-image"">
                        <div class=""question-area""></div> 
                    </div>","null","","","","","","","",""
"","","","","","html-button-response","82","295405","0.0-82.0","CF5EC965C8AF4814AD6710C96FAC6770","019ce87c-856e-7e10-a939-1952c2c7da36","019ce875-66c2-7f0b-b5e8-086c75889f84","","1206","
                    <div class=""stimulus-container"">
                        <img src=""images/causal_sequence/museum_causal/museum_causal_5.png"" class=""exp-image"">
                        <div class=""question-area"">
                            <p style=""font-size: 20px; font-weight: bold; margin: 0;"">Is there a person in this image?</p>
                        </div>
                    </div>","0","main_causal_task","5","museum_causal","","","","",""
"","","","","","html-keyboard-response","83","300407","0.0-83.0","CF5EC965C8AF4814AD6710C96FAC6770","019ce87c-856e-7e10-a939-1952c2c7da36","019ce875-66c2-7f0b-b5e8-086c75889f84","","null","
                    <div class=""stimulus-container"">
                        <img src=""images/causal_sequence/museum_causal/museum_causal_6.png"" class=""exp-image"">
                        <div class=""question-area""></div> 
                    </div>","null","","","","","","","",""
"","","","","","html-button-response","84","301301","0.0-84.0","CF5EC965C8AF4814AD6710C96FAC6770","019ce87c-856e-7e10-a939-1952c2c7da36","019ce875-66c2-7f0b-b5e8-086c75889f84","","893","
                    <div class=""stimulus-container"">
                        <img src=""images/causal_sequence/museum_causal/museum_causal_6.png"" class=""exp-image"">
                        <div class=""question-area"">
                            <p style=""font-size: 20px; font-weight: bold; margin: 0;"">Is there a person in this image?</p>
                        </div>
                    </div>","0","main_causal_task","6","museum_causal","","","","",""
"","","","","","html-keyboard-response","85","306302","0.0-85.0","CF5EC965C8AF4814AD6710C96FAC6770","019ce87c-856e-7e10-a939-1952c2c7da36","019ce875-66c2-7f0b-b5e8-086c75889f84","","null","
                    <div class=""stimulus-container"">
                        <img src=""images/causal_sequence/museum_causal/museum_causal_7.png"" class=""exp-image"">
                        <div class=""question-area""></div> 
                    </div>","null","","","","","","","",""
"","","","","","html-button-response","86","308446","0.0-86.0","CF5EC965C8AF4814AD6710C96FAC6770","019ce87c-856e-7e10-a939-1952c2c7da36","019ce875-66c2-7f0b-b5e8-086c75889f84","","2143","
                    <div class=""stimulus-container"">
                        <img src=""images/causal_sequence/museum_causal/museum_causal_7.png"" class=""exp-image"">
                        <div class=""question-area"">
                            <p style=""font-size: 20px; font-weight: bold; margin: 0;"">Is there a person in this image?</p>
                        </div>
                    </div>","1","main_causal_task","7","museum_causal","","","","",""
"","","","","","html-keyboard-response","87","313445","0.0-87.0","CF5EC965C8AF4814AD6710C96FAC6770","019ce87c-856e-7e10-a939-1952c2c7da36","019ce875-66c2-7f0b-b5e8-086c75889f84","","null","
                    <div class=""stimulus-container"">
                        <img src=""images/causal_sequence/museum_causal/museum_causal_8.png"" class=""exp-image"">
                        <div class=""question-area""></div> 
                    </div>","null","","","","","","","",""
"","","","","","html-button-response","88","314212","0.0-88.0","CF5EC965C8AF4814AD6710C96FAC6770","019ce87c-856e-7e10-a939-1952c2c7da36","019ce875-66c2-7f0b-b5e8-086c75889f84","","766","
                    <div class=""stimulus-container"">
                        <img src=""images/causal_sequence/museum_causal/museum_causal_8.png"" class=""exp-image"">
                        <div class=""question-area"">
                            <p style=""font-size: 20px; font-weight: bold; margin: 0;"">Is there a person in this image?</p>
                        </div>
                    </div>","0","main_causal_task","8","museum_causal","","","","",""
"","","","","","html-keyboard-response","89","319214","0.0-89.0","CF5EC965C8AF4814AD6710C96FAC6770","019ce87c-856e-7e10-a939-1952c2c7da36","019ce875-66c2-7f0b-b5e8-086c75889f84","","null","
                    <div class=""stimulus-container"">
                        <img src=""images/causal_sequence/museum_causal/museum_causal_9.png"" class=""exp-image"">
                        <div class=""question-area""></div> 
                    </div>","null","","","","","","","",""
"","","","","","html-button-response","90","320469","0.0-90.0","CF5EC965C8AF4814AD6710C96FAC6770","019ce87c-856e-7e10-a939-1952c2c7da36","019ce875-66c2-7f0b-b5e8-086c75889f84","","1254","
                    <div class=""stimulus-container"">
                        <img src=""images/causal_sequence/museum_causal/museum_causal_9.png"" class=""exp-image"">
                        <div class=""question-area"">
                            <p style=""font-size: 20px; font-weight: bold; margin: 0;"">Is there a person in this image?</p>
                        </div>
                    </div>","1","main_causal_task","9","museum_causal","","","","",""
"","","","","","html-keyboard-response","91","321470","0.0-91.0","CF5EC965C8AF4814AD6710C96FAC6770","019ce87c-856e-7e10-a939-1952c2c7da36","019ce875-66c2-7f0b-b5e8-086c75889f84","","null","<div style=""background-color: gray; width: 100vw; height: 100vh;""></div>","null","","","","","","","",""
"","","","","","html-keyboard-response","92","326472","0.0-92.0","CF5EC965C8AF4814AD6710C96FAC6770","019ce87c-856e-7e10-a939-1952c2c7da36","019ce875-66c2-7f0b-b5e8-086c75889f84","","null","
                    <div class=""stimulus-container"">
                        <img src=""images/causal_sequence/coin_causal/coin_causal_1.png"" class=""exp-image"">
                        <div class=""question-area""></div> 
                    </div>","null","","","","","","","",""
"","","","","","html-button-response","93","327507","0.0-93.0","CF5EC965C8AF4814AD6710C96FAC6770","019ce87c-856e-7e10-a939-1952c2c7da36","019ce875-66c2-7f0b-b5e8-086c75889f84","","1034","
                    <div class=""stimulus-container"">
                        <img src=""images/causal_sequence/coin_causal/coin_causal_1.png"" class=""exp-image"">
                        <div class=""question-area"">
                            <p style=""font-size: 20px; font-weight: bold; margin: 0;"">Is there a person in this image?</p>
                        </div>
                    </div>","0","main_causal_task","1","coin_causal","","","","",""
"","","","","","html-keyboard-response","94","332508","0.0-94.0","CF5EC965C8AF4814AD6710C96FAC6770","019ce87c-856e-7e10-a939-1952c2c7da36","019ce875-66c2-7f0b-b5e8-086c75889f84","","null","
                    <div class=""stimulus-container"">
                        <img src=""images/causal_sequence/coin_causal/coin_causal_2.png"" class=""exp-image"">
                        <div class=""question-area""></div> 
                    </div>","null","","","","","","","",""
"","","","","","html-button-response","95","334588","0.0-95.0","CF5EC965C8AF4814AD6710C96FAC6770","019ce87c-856e-7e10-a939-1952c2c7da36","019ce875-66c2-7f0b-b5e8-086c75889f84","","2079","
                    <div class=""stimulus-container"">
                        <img src=""images/causal_sequence/coin_causal/coin_causal_2.png"" class=""exp-image"">
                        <div class=""question-area"">
                            <p style=""font-size: 20px; font-weight: bold; margin: 0;"">Is there a person in this image?</p>
                        </div>
                    </div>","0","main_causal_task","2","coin_causal","","","","",""
"","","","","","html-keyboard-response","96","339588","0.0-96.0","CF5EC965C8AF4814AD6710C96FAC6770","019ce87c-856e-7e10-a939-1952c2c7da36","019ce875-66c2-7f0b-b5e8-086c75889f84","","null","
                    <div class=""stimulus-container"">
                        <img src=""images/causal_sequence/coin_causal/coin_causal_3.png"" class=""exp-image"">
                        <div class=""question-area""></div> 
                    </div>","null","","","","","","","",""
"","","","","","html-button-response","97","341375","0.0-97.0","CF5EC965C8AF4814AD6710C96FAC6770","019ce87c-856e-7e10-a939-1952c2c7da36","019ce875-66c2-7f0b-b5e8-086c75889f84","","1786","
                    <div class=""stimulus-container"">
                        <img src=""images/causal_sequence/coin_causal/coin_causal_3.png"" class=""exp-image"">
                        <div class=""question-area"">
                            <p style=""font-size: 20px; font-weight: bold; margin: 0;"">Is there a person in this image?</p>
                        </div>
                    </div>","0","main_causal_task","3","coin_causal","","","","",""
"","","","","","html-keyboard-response","98","346376","0.0-98.0","CF5EC965C8AF4814AD6710C96FAC6770","019ce87c-856e-7e10-a939-1952c2c7da36","019ce875-66c2-7f0b-b5e8-086c75889f84","","null","
                    <div class=""stimulus-container"">
                        <img src=""images/causal_sequence/coin_causal/coin_causal_4.png"" class=""exp-image"">
                        <div class=""question-area""></div> 
                    </div>","null","","","","","","","",""
"","","","","","html-button-response","99","349077","0.0-99.0","CF5EC965C8AF4814AD6710C96FAC6770","019ce87c-856e-7e10-a939-1952c2c7da36","019ce875-66c2-7f0b-b5e8-086c75889f84","","2700","
                    <div class=""stimulus-container"">
                        <img src=""images/causal_sequence/coin_causal/coin_causal_4.png"" class=""exp-image"">
                        <div class=""question-area"">
                            <p style=""font-size: 20px; font-weight: bold; margin: 0;"">Is there a person in this image?</p>
                        </div>
                    </div>","0","main_causal_task","4","coin_causal","","","","",""
"","","","","","html-keyboard-response","100","354079","0.0-100.0","CF5EC965C8AF4814AD6710C96FAC6770","019ce87c-856e-7e10-a939-1952c2c7da36","019ce875-66c2-7f0b-b5e8-086c75889f84","","null","
                    <div class=""stimulus-container"">
                        <img src=""images/causal_sequence/coin_causal/coin_causal_5.png"" class=""exp-image"">
                        <div class=""question-area""></div> 
                    </div>","null","","","","","","","",""
"","","","","","html-button-response","101","357080","0.0-101.0","CF5EC965C8AF4814AD6710C96FAC6770","019ce87c-856e-7e10-a939-1952c2c7da36","019ce875-66c2-7f0b-b5e8-086c75889f84","","null","
                    <div class=""stimulus-container"">
                        <img src=""images/causal_sequence/coin_causal/coin_causal_5.png"" class=""exp-image"">
                        <div class=""question-area"">
                            <p style=""font-size: 20px; font-weight: bold; margin: 0;"">Is there a person in this image?</p>
                        </div>
                    </div>","null","main_causal_task","5","coin_causal","","","","",""
"","","","","","html-keyboard-response","102","362082","0.0-102.0","CF5EC965C8AF4814AD6710C96FAC6770","019ce87c-856e-7e10-a939-1952c2c7da36","019ce875-66c2-7f0b-b5e8-086c75889f84","","null","
                    <div class=""stimulus-container"">
                        <img src=""images/causal_sequence/coin_causal/coin_causal_6.png"" class=""exp-image"">
                        <div class=""question-area""></div> 
                    </div>","null","","","","","","","",""
"","","","","","html-button-response","103","365085","0.0-103.0","CF5EC965C8AF4814AD6710C96FAC6770","019ce87c-856e-7e10-a939-1952c2c7da36","019ce875-66c2-7f0b-b5e8-086c75889f84","","null","
                    <div class=""stimulus-container"">
                        <img src=""images/causal_sequence/coin_causal/coin_causal_6.png"" class=""exp-image"">
                        <div class=""question-area"">
                            <p style=""font-size: 20px; font-weight: bold; margin: 0;"">Is there a person in this image?</p>
                        </div>
                    </div>","null","main_causal_task","6","coin_causal","","","","",""
"","","","","","html-keyboard-response","104","370086","0.0-104.0","CF5EC965C8AF4814AD6710C96FAC6770","019ce87c-856e-7e10-a939-1952c2c7da36","019ce875-66c2-7f0b-b5e8-086c75889f84","","null","
                    <div class=""stimulus-container"">
                        <img src=""images/causal_sequence/coin_causal/coin_causal_7.png"" class=""exp-image"">
                        <div class=""question-area""></div> 
                    </div>","null","","","","","","","",""
"","","","","","html-button-response","105","373068","0.0-105.0","CF5EC965C8AF4814AD6710C96FAC6770","019ce87c-856e-7e10-a939-1952c2c7da36","019ce875-66c2-7f0b-b5e8-086c75889f84","","2981","
                    <div class=""stimulus-container"">
                        <img src=""images/causal_sequence/coin_causal/coin_causal_7.png"" class=""exp-image"">
                        <div class=""question-area"">
                            <p style=""font-size: 20px; font-weight: bold; margin: 0;"">Is there a person in this image?</p>
                        </div>
                    </div>","1","main_causal_task","7","coin_causal","","","","",""
"","","","","","html-keyboard-response","106","378068","0.0-106.0","CF5EC965C8AF4814AD6710C96FAC6770","019ce87c-856e-7e10-a939-1952c2c7da36","019ce875-66c2-7f0b-b5e8-086c75889f84","","null","
                    <div class=""stimulus-container"">
                        <img src=""images/causal_sequence/coin_causal/coin_causal_8.png"" class=""exp-image"">
                        <div class=""question-area""></div> 
                    </div>","null","","","","","","","",""
"","","","","","html-button-response","107","378771","0.0-107.0","CF5EC965C8AF4814AD6710C96FAC6770","019ce87c-856e-7e10-a939-1952c2c7da36","019ce875-66c2-7f0b-b5e8-086c75889f84","","703","
                    <div class=""stimulus-container"">
                        <img src=""images/causal_sequence/coin_causal/coin_causal_8.png"" class=""exp-image"">
                        <div class=""question-area"">
                            <p style=""font-size: 20px; font-weight: bold; margin: 0;"">Is there a person in this image?</p>
                        </div>
                    </div>","0","main_causal_task","8","coin_causal","","","","",""
"","","","","","html-keyboard-response","108","383773","0.0-108.0","CF5EC965C8AF4814AD6710C96FAC6770","019ce87c-856e-7e10-a939-1952c2c7da36","019ce875-66c2-7f0b-b5e8-086c75889f84","","null","
                    <div class=""stimulus-container"">
                        <img src=""images/causal_sequence/coin_causal/coin_causal_9.png"" class=""exp-image"">
                        <div class=""question-area""></div> 
                    </div>","null","","","","","","","",""
"","","","","","html-button-response","109","386325","0.0-109.0","CF5EC965C8AF4814AD6710C96FAC6770","019ce87c-856e-7e10-a939-1952c2c7da36","019ce875-66c2-7f0b-b5e8-086c75889f84","","2550","
                    <div class=""stimulus-container"">
                        <img src=""images/causal_sequence/coin_causal/coin_causal_9.png"" class=""exp-image"">
                        <div class=""question-area"">
                            <p style=""font-size: 20px; font-weight: bold; margin: 0;"">Is there a person in this image?</p>
                        </div>
                    </div>","0","main_causal_task","9","coin_causal","","","","",""
"","","","","","html-keyboard-response","110","387327","0.0-110.0","CF5EC965C8AF4814AD6710C96FAC6770","019ce87c-856e-7e10-a939-1952c2c7da36","019ce875-66c2-7f0b-b5e8-086c75889f84","","null","<div style=""background-color: gray; width: 100vw; height: 100vh;""></div>","null","","","","","","","",""
"","","","","","html-keyboard-response","111","392329","0.0-111.0","CF5EC965C8AF4814AD6710C96FAC6770","019ce87c-856e-7e10-a939-1952c2c7da36","019ce875-66c2-7f0b-b5e8-086c75889f84","","null","
                    <div class=""stimulus-container"">
                        <img src=""images/causal_sequence/dog_causal/dog_causal_1.png"" class=""exp-image"">
                        <div class=""question-area""></div> 
                    </div>","null","","","","","","","",""
"","","","","","html-button-response","112","392765","0.0-112.0","CF5EC965C8AF4814AD6710C96FAC6770","019ce87c-856e-7e10-a939-1952c2c7da36","019ce875-66c2-7f0b-b5e8-086c75889f84","","436","
                    <div class=""stimulus-container"">
                        <img src=""images/causal_sequence/dog_causal/dog_causal_1.png"" class=""exp-image"">
                        <div class=""question-area"">
                            <p style=""font-size: 20px; font-weight: bold; margin: 0;"">Is there a person in this image?</p>
                        </div>
                    </div>","0","main_causal_task","1","dog_causal","","","","",""
"","","","","","html-keyboard-response","113","397766","0.0-113.0","CF5EC965C8AF4814AD6710C96FAC6770","019ce87c-856e-7e10-a939-1952c2c7da36","019ce875-66c2-7f0b-b5e8-086c75889f84","","null","
                    <div class=""stimulus-container"">
                        <img src=""images/causal_sequence/dog_causal/dog_causal_2.png"" class=""exp-image"">
                        <div class=""question-area""></div> 
                    </div>","null","","","","","","","",""
"","","","","","html-button-response","114","398332","0.0-114.0","CF5EC965C8AF4814AD6710C96FAC6770","019ce87c-856e-7e10-a939-1952c2c7da36","019ce875-66c2-7f0b-b5e8-086c75889f84","","565","
                    <div class=""stimulus-container"">
                        <img src=""images/causal_sequence/dog_causal/dog_causal_2.png"" class=""exp-image"">
                        <div class=""question-area"">
                            <p style=""font-size: 20px; font-weight: bold; margin: 0;"">Is there a person in this image?</p>
                        </div>
                    </div>","0","main_causal_task","2","dog_causal","","","","",""
"","","","","","html-keyboard-response","115","403333","0.0-115.0","CF5EC965C8AF4814AD6710C96FAC6770","019ce87c-856e-7e10-a939-1952c2c7da36","019ce875-66c2-7f0b-b5e8-086c75889f84","","null","
                    <div class=""stimulus-container"">
                        <img src=""images/causal_sequence/dog_causal/dog_causal_3.png"" class=""exp-image"">
                        <div class=""question-area""></div> 
                    </div>","null","","","","","","","",""
"","","","","","html-button-response","116","406334","0.0-116.0","CF5EC965C8AF4814AD6710C96FAC6770","019ce87c-856e-7e10-a939-1952c2c7da36","019ce875-66c2-7f0b-b5e8-086c75889f84","","null","
                    <div class=""stimulus-container"">
                        <img src=""images/causal_sequence/dog_causal/dog_causal_3.png"" class=""exp-image"">
                        <div class=""question-area"">
                            <p style=""font-size: 20px; font-weight: bold; margin: 0;"">Is there a person in this image?</p>
                        </div>
                    </div>","null","main_causal_task","3","dog_causal","","","","",""
"","","","","","html-keyboard-response","117","411336","0.0-117.0","CF5EC965C8AF4814AD6710C96FAC6770","019ce87c-856e-7e10-a939-1952c2c7da36","019ce875-66c2-7f0b-b5e8-086c75889f84","","null","
                    <div class=""stimulus-container"">
                        <img src=""images/causal_sequence/dog_causal/dog_causal_4.png"" class=""exp-image"">
                        <div class=""question-area""></div> 
                    </div>","null","","","","","","","",""
"","","","","","html-button-response","118","412500","0.0-118.0","CF5EC965C8AF4814AD6710C96FAC6770","019ce87c-856e-7e10-a939-1952c2c7da36","019ce875-66c2-7f0b-b5e8-086c75889f84","","1164","
                    <div class=""stimulus-container"">
                        <img src=""images/causal_sequence/dog_causal/dog_causal_4.png"" class=""exp-image"">
                        <div class=""question-area"">
                            <p style=""font-size: 20px; font-weight: bold; margin: 0;"">Is there a person in this image?</p>
                        </div>
                    </div>","0","main_causal_task","4","dog_causal","","","","",""
"","","","","","html-keyboard-response","119","417504","0.0-119.0","CF5EC965C8AF4814AD6710C96FAC6770","019ce87c-856e-7e10-a939-1952c2c7da36","019ce875-66c2-7f0b-b5e8-086c75889f84","","null","
                    <div class=""stimulus-container"">
                        <img src=""images/causal_sequence/dog_causal/dog_causal_5.png"" class=""exp-image"">
                        <div class=""question-area""></div> 
                    </div>","null","","","","","","","",""
"","","","","","html-button-response","120","418398","0.0-120.0","CF5EC965C8AF4814AD6710C96FAC6770","019ce87c-856e-7e10-a939-1952c2c7da36","019ce875-66c2-7f0b-b5e8-086c75889f84","","894","
                    <div class=""stimulus-container"">
                        <img src=""images/causal_sequence/dog_causal/dog_causal_5.png"" class=""exp-image"">
                        <div class=""question-area"">
                            <p style=""font-size: 20px; font-weight: bold; margin: 0;"">Is there a person in this image?</p>
                        </div>
                    </div>","0","main_causal_task","5","dog_causal","","","","",""
"","","","","","html-keyboard-response","121","423401","0.0-121.0","CF5EC965C8AF4814AD6710C96FAC6770","019ce87c-856e-7e10-a939-1952c2c7da36","019ce875-66c2-7f0b-b5e8-086c75889f84","","null","
                    <div class=""stimulus-container"">
                        <img src=""images/causal_sequence/dog_causal/dog_causal_6.png"" class=""exp-image"">
                        <div class=""question-area""></div> 
                    </div>","null","","","","","","","",""
"","","","","","html-button-response","122","423759","0.0-122.0","CF5EC965C8AF4814AD6710C96FAC6770","019ce87c-856e-7e10-a939-1952c2c7da36","019ce875-66c2-7f0b-b5e8-086c75889f84","","357","
                    <div class=""stimulus-container"">
                        <img src=""images/causal_sequence/dog_causal/dog_causal_6.png"" class=""exp-image"">
                        <div class=""question-area"">
                            <p style=""font-size: 20px; font-weight: bold; margin: 0;"">Is there a person in this image?</p>
                        </div>
                    </div>","0","main_causal_task","6","dog_causal","","","","",""
"","","","","","html-keyboard-response","123","428761","0.0-123.0","CF5EC965C8AF4814AD6710C96FAC6770","019ce87c-856e-7e10-a939-1952c2c7da36","019ce875-66c2-7f0b-b5e8-086c75889f84","","null","
                    <div class=""stimulus-container"">
                        <img src=""images/causal_sequence/dog_causal/dog_causal_7.png"" class=""exp-image"">
                        <div class=""question-area""></div> 
                    </div>","null","","","","","","","",""
"","","","","","html-button-response","124","430989","0.0-124.0","CF5EC965C8AF4814AD6710C96FAC6770","019ce87c-856e-7e10-a939-1952c2c7da36","019ce875-66c2-7f0b-b5e8-086c75889f84","","2227","
                    <div class=""stimulus-container"">
                        <img src=""images/causal_sequence/dog_causal/dog_causal_7.png"" class=""exp-image"">
                        <div class=""question-area"">
                            <p style=""font-size: 20px; font-weight: bold; margin: 0;"">Is there a person in this image?</p>
                        </div>
                    </div>","0","main_causal_task","7","dog_causal","","","","",""
"","","","","","html-keyboard-response","125","435991","0.0-125.0","CF5EC965C8AF4814AD6710C96FAC6770","019ce87c-856e-7e10-a939-1952c2c7da36","019ce875-66c2-7f0b-b5e8-086c75889f84","","null","
                    <div class=""stimulus-container"">
                        <img src=""images/causal_sequence/dog_causal/dog_causal_8.png"" class=""exp-image"">
                        <div class=""question-area""></div> 
                    </div>","null","","","","","","","",""
"","","","","","html-button-response","126","437551","0.0-126.0","CF5EC965C8AF4814AD6710C96FAC6770","019ce87c-856e-7e10-a939-1952c2c7da36","019ce875-66c2-7f0b-b5e8-086c75889f84","","1560","
                    <div class=""stimulus-container"">
                        <img src=""images/causal_sequence/dog_causal/dog_causal_8.png"" class=""exp-image"">
                        <div class=""question-area"">
                            <p style=""font-size: 20px; font-weight: bold; margin: 0;"">Is there a person in this image?</p>
                        </div>
                    </div>","0","main_causal_task","8","dog_causal","","","","",""
"","","","","","html-keyboard-response","127","442551","0.0-127.0","CF5EC965C8AF4814AD6710C96FAC6770","019ce87c-856e-7e10-a939-1952c2c7da36","019ce875-66c2-7f0b-b5e8-086c75889f84","","null","
                    <div class=""stimulus-container"">
                        <img src=""images/causal_sequence/dog_causal/dog_causal_9.png"" class=""exp-image"">
                        <div class=""question-area""></div> 
                    </div>","null","","","","","","","",""
"","","","","","html-button-response","128","443463","0.0-128.0","CF5EC965C8AF4814AD6710C96FAC6770","019ce87c-856e-7e10-a939-1952c2c7da36","019ce875-66c2-7f0b-b5e8-086c75889f84","","912","
                    <div class=""stimulus-container"">
                        <img src=""images/causal_sequence/dog_causal/dog_causal_9.png"" class=""exp-image"">
                        <div class=""question-area"">
                            <p style=""font-size: 20px; font-weight: bold; margin: 0;"">Is there a person in this image?</p>
                        </div>
                    </div>","0","main_causal_task","9","dog_causal","","","","",""
"","","","","","instructions","129","445319","0.0-129.0","CF5EC965C8AF4814AD6710C96FAC6770","019ce87c-856e-7e10-a939-1952c2c7da36","019ce875-66c2-7f0b-b5e8-086c75889f84","[{""page_index"":0,""viewing_time"":1855}]","1856","","","","","","","","","",""
"","","","","","instructions","130","448276","0.0-130.0","CF5EC965C8AF4814AD6710C96FAC6770","019ce87c-856e-7e10-a939-1952c2c7da36","019ce875-66c2-7f0b-b5e8-086c75889f84","[{""page_index"":0,""viewing_time"":2957}]","2957","","","","","","","","","",""
"","","","","","html-button-response","131","450261","0.0-131.0-0.0","CF5EC965C8AF4814AD6710C96FAC6770","019ce87c-856e-7e10-a939-1952c2c7da36","019ce875-66c2-7f0b-b5e8-086c75889f84","","1984","
                <div style=""margin-bottom:20px;""><h3>Example: Valuable Image</h3></div>
                <div class=""stimulus-container"" style=""display: flex; align-items: center; justify-content: center; gap: 30px;"">
                    <img src=""images/instructions/movie_1.png"" class=""exp-image"">
                    <div style=""font-size: 35px; font-weight: bold; color: green; border: 5px solid green; padding: 20px; border-radius: 15px; background-color: #f0fff0;"">
                        WORTH<br>$1
                    </div>
                </div>
                <div class=""question-area""><p>Was there a person in this image?</p></div>","0","","","","","","","",""
"","","","","","html-button-response","132","452213","0.0-131.0-1.0","CF5EC965C8AF4814AD6710C96FAC6770","019ce87c-856e-7e10-a939-1952c2c7da36","019ce875-66c2-7f0b-b5e8-086c75889f84","","1952","
                <div style=""margin-bottom:20px;""><h3>Example: Neutral Image</h3></div>
                <div class=""stimulus-container"" style=""display: flex; align-items: center; justify-content: center; gap: 30px;"">
                    <img src=""images/instructions/movie_2.png"" class=""exp-image"">
                    <div style=""font-size: 35px; font-weight: bold; color: grey; border: 5px solid grey; padding: 20px; border-radius: 15px; background-color: #f0f0f0;"">
                        NEUTRAL<br>VALUE
                    </div>
                </div>
                <div class=""question-area""><p>Was there a person in this image?</p></div>","1","","","","","","","",""
"","","","","","html-keyboard-response","133","460215","0.0-132.0","CF5EC965C8AF4814AD6710C96FAC6770","019ce87c-856e-7e10-a939-1952c2c7da36","019ce875-66c2-7f0b-b5e8-086c75889f84","","null","
            <div class=""stimulus-container"" style=""display: flex; align-items: center; justify-content: center; gap: 30px;"">
                <img src=""images/causal_sequence/package_causal/package_causal_3.png"" class=""exp-image"">
                <div style=""font-size: 40px; font-weight: bold; color: green; border: 5px solid green; padding: 25px; border-radius: 15px; background-color: #f0fff0;"">
                    WORTH<br>$1
                </div>
            </div>
            <div class=""question-area""></div>","null","","","","","","","",""
"","","","","","html-button-response","134","460984","0.0-133.0","CF5EC965C8AF4814AD6710C96FAC6770","019ce87c-856e-7e10-a939-1952c2c7da36","019ce875-66c2-7f0b-b5e8-086c75889f84","","764","
            <div class=""stimulus-container"" style=""display: flex; align-items: center; justify-content: center; gap: 30px;"">
                <img src=""images/causal_sequence/package_causal/package_causal_3.png"" class=""exp-image"">
                <div style=""font-size: 40px; font-weight: bold; color: green; border: 5px solid green; padding: 25px; border-radius: 15px; background-color: #f0fff0;"">
                    WORTH<br>$1
                </div>
            </div>
            <div class=""question-area"">
                <p style=""font-size: 20px; font-weight: bold; margin: 0;"">Was there a person in this image?</p>
            </div>","0","part2_value_learning","","package_causal","3","valuable","","",""
"","","","","","html-keyboard-response","135","468987","0.0-134.0","CF5EC965C8AF4814AD6710C96FAC6770","019ce87c-856e-7e10-a939-1952c2c7da36","019ce875-66c2-7f0b-b5e8-086c75889f84","","null","
            <div class=""stimulus-container"" style=""display: flex; align-items: center; justify-content: center; gap: 30px;"">
                <img src=""images/causal_sequence/saving_a_cat_causal/saving_a_cat_causal_7.png"" class=""exp-image"">
                <div style=""font-size: 40px; font-weight: bold; color: green; border: 5px solid green; padding: 25px; border-radius: 15px; background-color: #f0fff0;"">
                    WORTH<br>$1
                </div>
            </div>
            <div class=""question-area""></div>","null","","","","","","","",""
"","","","","","html-button-response","136","469755","0.0-135.0","CF5EC965C8AF4814AD6710C96FAC6770","019ce87c-856e-7e10-a939-1952c2c7da36","019ce875-66c2-7f0b-b5e8-086c75889f84","","768","
            <div class=""stimulus-container"" style=""display: flex; align-items: center; justify-content: center; gap: 30px;"">
                <img src=""images/causal_sequence/saving_a_cat_causal/saving_a_cat_causal_7.png"" class=""exp-image"">
                <div style=""font-size: 40px; font-weight: bold; color: green; border: 5px solid green; padding: 25px; border-radius: 15px; background-color: #f0fff0;"">
                    WORTH<br>$1
                </div>
            </div>
            <div class=""question-area"">
                <p style=""font-size: 20px; font-weight: bold; margin: 0;"">Was there a person in this image?</p>
            </div>","0","part2_value_learning","","saving_a_cat_causal","7","valuable","","",""
"","","","","","html-keyboard-response","137","477758","0.0-136.0","CF5EC965C8AF4814AD6710C96FAC6770","019ce87c-856e-7e10-a939-1952c2c7da36","019ce875-66c2-7f0b-b5e8-086c75889f84","","null","
            <div class=""stimulus-container"" style=""display: flex; align-items: center; justify-content: center; gap: 30px;"">
                <img src=""images/causal_sequence/coin_causal/coin_causal_6.png"" class=""exp-image"">
                <div style=""font-size: 40px; font-weight: bold; color: green; border: 5px solid green; padding: 25px; border-radius: 15px; background-color: #f0fff0;"">
                    WORTH<br>$1
                </div>
            </div>
            <div class=""question-area""></div>","null","","","","","","","",""
"","","","","","html-button-response","138","478493","0.0-137.0","CF5EC965C8AF4814AD6710C96FAC6770","019ce87c-856e-7e10-a939-1952c2c7da36","019ce875-66c2-7f0b-b5e8-086c75889f84","","734","
            <div class=""stimulus-container"" style=""display: flex; align-items: center; justify-content: center; gap: 30px;"">
                <img src=""images/causal_sequence/coin_causal/coin_causal_6.png"" class=""exp-image"">
                <div style=""font-size: 40px; font-weight: bold; color: green; border: 5px solid green; padding: 25px; border-radius: 15px; background-color: #f0fff0;"">
                    WORTH<br>$1
                </div>
            </div>
            <div class=""question-area"">
                <p style=""font-size: 20px; font-weight: bold; margin: 0;"">Was there a person in this image?</p>
            </div>","0","part2_value_learning","","coin_causal","6","valuable","","",""
"","","","","","html-keyboard-response","139","486495","0.0-138.0","CF5EC965C8AF4814AD6710C96FAC6770","019ce87c-856e-7e10-a939-1952c2c7da36","019ce875-66c2-7f0b-b5e8-086c75889f84","","null","
            <div class=""stimulus-container"" style=""display: flex; align-items: center; justify-content: center; gap: 30px;"">
                <img src=""images/causal_sequence/the_performance_causal/the_performance_causal_6.png"" class=""exp-image"">
                <div style=""font-size: 40px; font-weight: bold; color: grey; border: 5px solid grey; padding: 25px; border-radius: 15px; background-color: #f0f0f0;"">
                    NEUTRAL<br>VALUE
                </div>
            </div>
            <div class=""question-area""></div>","null","","","","","","","",""
"","","","","","html-button-response","140","489497","0.0-139.0","CF5EC965C8AF4814AD6710C96FAC6770","019ce87c-856e-7e10-a939-1952c2c7da36","019ce875-66c2-7f0b-b5e8-086c75889f84","","null","
            <div class=""stimulus-container"" style=""display: flex; align-items: center; justify-content: center; gap: 30px;"">
                <img src=""images/causal_sequence/the_performance_causal/the_performance_causal_6.png"" class=""exp-image"">
                <div style=""font-size: 40px; font-weight: bold; color: grey; border: 5px solid grey; padding: 25px; border-radius: 15px; background-color: #f0f0f0;"">
                    NEUTRAL<br>VALUE
                </div>
            </div>
            <div class=""question-area"">
                <p style=""font-size: 20px; font-weight: bold; margin: 0;"">Was there a person in this image?</p>
            </div>","null","part2_value_learning","","the_performance_causal","6","neutral","","",""
"","","","","","html-keyboard-response","141","497499","0.0-140.0","CF5EC965C8AF4814AD6710C96FAC6770","019ce87c-856e-7e10-a939-1952c2c7da36","019ce875-66c2-7f0b-b5e8-086c75889f84","","null","
            <div class=""stimulus-container"" style=""display: flex; align-items: center; justify-content: center; gap: 30px;"">
                <img src=""images/causal_sequence/museum_causal/museum_causal_6.png"" class=""exp-image"">
                <div style=""font-size: 40px; font-weight: bold; color: grey; border: 5px solid grey; padding: 25px; border-radius: 15px; background-color: #f0f0f0;"">
                    NEUTRAL<br>VALUE
                </div>
            </div>
            <div class=""question-area""></div>","null","","","","","","","",""
"","","","","","html-button-response","142","499158","0.0-141.0","CF5EC965C8AF4814AD6710C96FAC6770","019ce87c-856e-7e10-a939-1952c2c7da36","019ce875-66c2-7f0b-b5e8-086c75889f84","","1658","
            <div class=""stimulus-container"" style=""display: flex; align-items: center; justify-content: center; gap: 30px;"">
                <img src=""images/causal_sequence/museum_causal/museum_causal_6.png"" class=""exp-image"">
                <div style=""font-size: 40px; font-weight: bold; color: grey; border: 5px solid grey; padding: 25px; border-radius: 15px; background-color: #f0f0f0;"">
                    NEUTRAL<br>VALUE
                </div>
            </div>
            <div class=""question-area"">
                <p style=""font-size: 20px; font-weight: bold; margin: 0;"">Was there a person in this image?</p>
            </div>","0","part2_value_learning","","museum_causal","6","neutral","","",""
"","","","","","html-keyboard-response","143","507158","0.0-142.0","CF5EC965C8AF4814AD6710C96FAC6770","019ce87c-856e-7e10-a939-1952c2c7da36","019ce875-66c2-7f0b-b5e8-086c75889f84","","null","
            <div class=""stimulus-container"" style=""display: flex; align-items: center; justify-content: center; gap: 30px;"">
                <img src=""images/causal_sequence/dog_causal/dog_causal_5.png"" class=""exp-image"">
                <div style=""font-size: 40px; font-weight: bold; color: grey; border: 5px solid grey; padding: 25px; border-radius: 15px; background-color: #f0f0f0;"">
                    NEUTRAL<br>VALUE
                </div>
            </div>
            <div class=""question-area""></div>","null","","","","","","","",""
"","","","","","html-button-response","144","509705","0.0-143.0","CF5EC965C8AF4814AD6710C96FAC6770","019ce87c-856e-7e10-a939-1952c2c7da36","019ce875-66c2-7f0b-b5e8-086c75889f84","","2546","
            <div class=""stimulus-container"" style=""display: flex; align-items: center; justify-content: center; gap: 30px;"">
                <img src=""images/causal_sequence/dog_causal/dog_causal_5.png"" class=""exp-image"">
                <div style=""font-size: 40px; font-weight: bold; color: grey; border: 5px solid grey; padding: 25px; border-radius: 15px; background-color: #f0f0f0;"">
                    NEUTRAL<br>VALUE
                </div>
            </div>
            <div class=""question-area"">
                <p style=""font-size: 20px; font-weight: bold; margin: 0;"">Was there a person in this image?</p>
            </div>","0","part2_value_learning","","dog_causal","5","neutral","","",""
"","","","","","instructions","145","517101","0.0-144.0","CF5EC965C8AF4814AD6710C96FAC6770","019ce87c-856e-7e10-a939-1952c2c7da36","019ce875-66c2-7f0b-b5e8-086c75889f84","[{""page_index"":0,""viewing_time"":7396}]","7396","","","","","","","","","",""
"","","","","","html-keyboard-response","146","527104","0.0-145.0-0.0","CF5EC965C8AF4814AD6710C96FAC6770","019ce87c-856e-7e10-a939-1952c2c7da36","019ce875-66c2-7f0b-b5e8-086c75889f84","","null","
                        <div style=""font-family: Arial; margin-bottom: 20px;""><h3>Which image is more valuable?</h3></div>
                        <div class=""stimulus-container"" style=""display: flex; width: 1100px; justify-content: center; gap: 50px;"">
                            <img src=""images/causal_sequence/museum_causal/museum_causal_7.png"" class=""exp-image"">
                            <img src=""images/causal_sequence/museum_causal/museum_causal_5.png"" class=""exp-image"">
                        </div>","null","","","","","","","",""
"","","","","","html-button-response","147","528639","0.0-145.0-1.0","CF5EC965C8AF4814AD6710C96FAC6770","019ce87c-856e-7e10-a939-1952c2c7da36","019ce875-66c2-7f0b-b5e8-086c75889f84","","1534","
                        <div style=""font-family: Arial; margin-bottom: 20px;""><h3>Which image is more valuable?</h3></div>
                        <div class=""stimulus-container"" style=""display: flex; width: 1100px; justify-content: center; gap: 50px;"">
                            <img src=""images/causal_sequence/museum_causal/museum_causal_7.png"" class=""exp-image"">
                            <img src=""images/causal_sequence/museum_causal/museum_causal_5.png"" class=""exp-image"">
                        </div>","1","part3_final_choice","","museum_causal","","neutral","6","5","-1"
"","","","","","html-keyboard-response","148","538641","0.0-146.0-0.0","CF5EC965C8AF4814AD6710C96FAC6770","019ce87c-856e-7e10-a939-1952c2c7da36","019ce875-66c2-7f0b-b5e8-086c75889f84","","null","
                        <div style=""font-family: Arial; margin-bottom: 20px;""><h3>Which image is more valuable?</h3></div>
                        <div class=""stimulus-container"" style=""display: flex; width: 1100px; justify-content: center; gap: 50px;"">
                            <img src=""images/causal_sequence/the_performance_causal/the_performance_causal_5.png"" class=""exp-image"">
                            <img src=""images/causal_sequence/the_performance_causal/the_performance_causal_7.png"" class=""exp-image"">
                        </div>","null","","","","","","","",""
"","","","","","html-button-response","149","539431","0.0-146.0-1.0","CF5EC965C8AF4814AD6710C96FAC6770","019ce87c-856e-7e10-a939-1952c2c7da36","019ce875-66c2-7f0b-b5e8-086c75889f84","","789","
                        <div style=""font-family: Arial; margin-bottom: 20px;""><h3>Which image is more valuable?</h3></div>
                        <div class=""stimulus-container"" style=""display: flex; width: 1100px; justify-content: center; gap: 50px;"">
                            <img src=""images/causal_sequence/the_performance_causal/the_performance_causal_5.png"" class=""exp-image"">
                            <img src=""images/causal_sequence/the_performance_causal/the_performance_causal_7.png"" class=""exp-image"">
                        </div>","1","part3_final_choice","","the_performance_causal","","neutral","6","7","1"
"","","","","","html-keyboard-response","150","549433","0.0-147.0-0.0","CF5EC965C8AF4814AD6710C96FAC6770","019ce87c-856e-7e10-a939-1952c2c7da36","019ce875-66c2-7f0b-b5e8-086c75889f84","","null","
                        <div style=""font-family: Arial; margin-bottom: 20px;""><h3>Which image is more valuable?</h3></div>
                        <div class=""stimulus-container"" style=""display: flex; width: 1100px; justify-content: center; gap: 50px;"">
                            <img src=""images/causal_sequence/coin_causal/coin_causal_7.png"" class=""exp-image"">
                            <img src=""images/causal_sequence/coin_causal/coin_causal_5.png"" class=""exp-image"">
                        </div>","null","","","","","","","",""
"","","","","","html-button-response","151","551462","0.0-147.0-1.0","CF5EC965C8AF4814AD6710C96FAC6770","019ce87c-856e-7e10-a939-1952c2c7da36","019ce875-66c2-7f0b-b5e8-086c75889f84","","2028","
                        <div style=""font-family: Arial; margin-bottom: 20px;""><h3>Which image is more valuable?</h3></div>
                        <div class=""stimulus-container"" style=""display: flex; width: 1100px; justify-content: center; gap: 50px;"">
                            <img src=""images/causal_sequence/coin_causal/coin_causal_7.png"" class=""exp-image"">
                            <img src=""images/causal_sequence/coin_causal/coin_causal_5.png"" class=""exp-image"">
                        </div>","1","part3_final_choice","","coin_causal","","valuable","6","5","-1"
"","","","","","html-keyboard-response","152","561464","0.0-148.0-0.0","CF5EC965C8AF4814AD6710C96FAC6770","019ce87c-856e-7e10-a939-1952c2c7da36","019ce875-66c2-7f0b-b5e8-086c75889f84","","null","
                        <div style=""font-family: Arial; margin-bottom: 20px;""><h3>Which image is more valuable?</h3></div>
                        <div class=""stimulus-container"" style=""display: flex; width: 1100px; justify-content: center; gap: 50px;"">
                            <img src=""images/causal_sequence/saving_a_cat_causal/saving_a_cat_causal_8.png"" class=""exp-image"">
                            <img src=""images/causal_sequence/saving_a_cat_causal/saving_a_cat_causal_6.png"" class=""exp-image"">
                        </div>","null","","","","","","","",""
"","","","","","html-button-response","153","561830","0.0-148.0-1.0","CF5EC965C8AF4814AD6710C96FAC6770","019ce87c-856e-7e10-a939-1952c2c7da36","019ce875-66c2-7f0b-b5e8-086c75889f84","","365","
                        <div style=""font-family: Arial; margin-bottom: 20px;""><h3>Which image is more valuable?</h3></div>
                        <div class=""stimulus-container"" style=""display: flex; width: 1100px; justify-content: center; gap: 50px;"">
                            <img src=""images/causal_sequence/saving_a_cat_causal/saving_a_cat_causal_8.png"" class=""exp-image"">
                            <img src=""images/causal_sequence/saving_a_cat_causal/saving_a_cat_causal_6.png"" class=""exp-image"">
                        </div>","1","part3_final_choice","","saving_a_cat_causal","","valuable","7","6","-1"
"","","","","","html-keyboard-response","154","571830","0.0-149.0-0.0","CF5EC965C8AF4814AD6710C96FAC6770","019ce87c-856e-7e10-a939-1952c2c7da36","019ce875-66c2-7f0b-b5e8-086c75889f84","","null","
                        <div style=""font-family: Arial; margin-bottom: 20px;""><h3>Which image is more valuable?</h3></div>
                        <div class=""stimulus-container"" style=""display: flex; width: 1100px; justify-content: center; gap: 50px;"">
                            <img src=""images/causal_sequence/dog_causal/dog_causal_4.png"" class=""exp-image"">
                            <img src=""images/causal_sequence/dog_causal/dog_causal_6.png"" class=""exp-image"">
                        </div>","null","","","","","","","",""
"","","","","","html-button-response","155","575485","0.0-149.0-1.0","CF5EC965C8AF4814AD6710C96FAC6770","019ce87c-856e-7e10-a939-1952c2c7da36","019ce875-66c2-7f0b-b5e8-086c75889f84","","3654","
                        <div style=""font-family: Arial; margin-bottom: 20px;""><h3>Which image is more valuable?</h3></div>
                        <div class=""stimulus-container"" style=""display: flex; width: 1100px; justify-content: center; gap: 50px;"">
                            <img src=""images/causal_sequence/dog_causal/dog_causal_4.png"" class=""exp-image"">
                            <img src=""images/causal_sequence/dog_causal/dog_causal_6.png"" class=""exp-image"">
                        </div>","1","part3_final_choice","","dog_causal","","neutral","5","6","1"
"","","","","","html-keyboard-response","156","585487","0.0-150.0-0.0","CF5EC965C8AF4814AD6710C96FAC6770","019ce87c-856e-7e10-a939-1952c2c7da36","019ce875-66c2-7f0b-b5e8-086c75889f84","","null","
                        <div style=""font-family: Arial; margin-bottom: 20px;""><h3>Which image is more valuable?</h3></div>
                        <div class=""stimulus-container"" style=""display: flex; width: 1100px; justify-content: center; gap: 50px;"">
                            <img src=""images/causal_sequence/package_causal/package_causal_2.png"" class=""exp-image"">
                            <img src=""images/causal_sequence/package_causal/package_causal_4.png"" class=""exp-image"">
                        </div>","null","","","","","","","",""
"","","","","","html-button-response","157","587165","0.0-150.0-1.0","CF5EC965C8AF4814AD6710C96FAC6770","019ce87c-856e-7e10-a939-1952c2c7da36","019ce875-66c2-7f0b-b5e8-086c75889f84","","1677","
                        <div style=""font-family: Arial; margin-bottom: 20px;""><h3>Which image is more valuable?</h3></div>
                        <div class=""stimulus-container"" style=""display: flex; width: 1100px; justify-content: center; gap: 50px;"">
                            <img src=""images/causal_sequence/package_causal/package_causal_2.png"" class=""exp-image"">
                            <img src=""images/causal_sequence/package_causal/package_causal_4.png"" class=""exp-image"">
                        </div>","1","part3_final_choice","","package_causal","","valuable","3","4","1"
"","","","","","survey-text","158","590353","0.0-151.0","CF5EC965C8AF4814AD6710C96FAC6770","019ce87c-856e-7e10-a939-1952c2c7da36","019ce875-66c2-7f0b-b5e8-086c75889f84","","3176","","{""gender"":"""",""age"":"""",""decision_strategy"":"""",""consistency_check"":""""}","demographics_and_strategy","","","","","","",""
"","","","","","instructions","159","599070","0.0-152.0","CF5EC965C8AF4814AD6710C96FAC6770","019ce87c-856e-7e10-a939-1952c2c7da36","019ce875-66c2-7f0b-b5e8-086c75889f84","[{""page_index"":0,""viewing_time"":8717}]","8717","","","","","","","","","",""
