"success","timeout","failed_images","failed_audio","failed_video","trial_type","trial_index","time_elapsed","internal_node_id","subject_id","study_id","session_id","view_history","rt","stimulus","response","task","image_index","folder","sequence_type","presentation_order","valuable_image_index","reward_type","distance_from_x","target_X","chosen_image_index","is_x_plus_dist","correct_choice"
"true","false","[]","[]","[]","preload","0","2135","0.0-0.0","669BECBF431D4E4D9DFDCCD88305D875","019cfc43-c545-7782-9731-9bf33dfe0593","019cfc28-2143-7934-89cc-ce6402563331","","","","","","","","","","","","","","","",""
"","","","","","instructions","1","3729","0.0-1.0","669BECBF431D4E4D9DFDCCD88305D875","019cfc43-c545-7782-9731-9bf33dfe0593","019cfc28-2143-7934-89cc-ce6402563331","[{""page_index"":0,""viewing_time"":1594}]","1594","","","","","","","","","","","","","",""
"","","","","","instructions","2","7657","0.0-2.0","669BECBF431D4E4D9DFDCCD88305D875","019cfc43-c545-7782-9731-9bf33dfe0593","019cfc28-2143-7934-89cc-ce6402563331","[{""page_index"":0,""viewing_time"":3928}]","3928","","","","","","","","","","","","","",""
"true","","","","","fullscreen","3","10288","0.0-3.0","669BECBF431D4E4D9DFDCCD88305D875","019cfc43-c545-7782-9731-9bf33dfe0593","019cfc28-2143-7934-89cc-ce6402563331","","1615","","","","","","","","","","","","","",""
"","","","","","instructions","4","19001","0.0-4.0","669BECBF431D4E4D9DFDCCD88305D875","019cfc43-c545-7782-9731-9bf33dfe0593","019cfc28-2143-7934-89cc-ce6402563331","[{""page_index"":0,""viewing_time"":8713}]","8713","","","","","","","","","","","","","",""
"","","","","","instructions","5","27449","0.0-5.0","669BECBF431D4E4D9DFDCCD88305D875","019cfc43-c545-7782-9731-9bf33dfe0593","019cfc28-2143-7934-89cc-ce6402563331","[{""page_index"":0,""viewing_time"":8447}]","8447","","","","","","","","","","","","","",""
"","","","","","html-keyboard-response","6","31460","0.0-6.0","669BECBF431D4E4D9DFDCCD88305D875","019cfc43-c545-7782-9731-9bf33dfe0593","019cfc28-2143-7934-89cc-ce6402563331","","null","
                <div class=""stimulus-container"">
                    <img src=""images/instructions/movie_1.png"" class=""exp-image"">
                    <div class=""question-area""></div> 
                </div>","null","","","","","","","","","","","",""
"","","","","","html-button-response","7","33649","0.0-7.0","669BECBF431D4E4D9DFDCCD88305D875","019cfc43-c545-7782-9731-9bf33dfe0593","019cfc28-2143-7934-89cc-ce6402563331","","2188","
                <div class=""stimulus-container"">
                    <img src=""images/instructions/movie_1.png"" class=""exp-image"">
                    <div class=""question-area"">
                        <p style=""font-size: 20px; font-weight: bold; margin: 0;"">Was there a person in this image?</p>
                    </div>
                </div>","0","example_question","1","","","","","","","","","",""
"","","","","","html-keyboard-response","8","37653","0.0-8.0","669BECBF431D4E4D9DFDCCD88305D875","019cfc43-c545-7782-9731-9bf33dfe0593","019cfc28-2143-7934-89cc-ce6402563331","","null","
                <div class=""stimulus-container"">
                    <img src=""images/instructions/movie_2.png"" class=""exp-image"">
                    <div class=""question-area""></div> 
                </div>","null","","","","","","","","","","","",""
"","","","","","html-button-response","9","39753","0.0-9.0","669BECBF431D4E4D9DFDCCD88305D875","019cfc43-c545-7782-9731-9bf33dfe0593","019cfc28-2143-7934-89cc-ce6402563331","","2100","
                <div class=""stimulus-container"">
                    <img src=""images/instructions/movie_2.png"" class=""exp-image"">
                    <div class=""question-area"">
                        <p style=""font-size: 20px; font-weight: bold; margin: 0;"">Was there a person in this image?</p>
                    </div>
                </div>","0","example_question","2","","","","","","","","","",""
"","","","","","html-keyboard-response","10","43759","0.0-10.0","669BECBF431D4E4D9DFDCCD88305D875","019cfc43-c545-7782-9731-9bf33dfe0593","019cfc28-2143-7934-89cc-ce6402563331","","null","
                <div class=""stimulus-container"">
                    <img src=""images/instructions/movie_3.png"" class=""exp-image"">
                    <div class=""question-area""></div> 
                </div>","null","","","","","","","","","","","",""
"","","","","","html-button-response","11","44353","0.0-11.0","669BECBF431D4E4D9DFDCCD88305D875","019cfc43-c545-7782-9731-9bf33dfe0593","019cfc28-2143-7934-89cc-ce6402563331","","593","
                <div class=""stimulus-container"">
                    <img src=""images/instructions/movie_3.png"" class=""exp-image"">
                    <div class=""question-area"">
                        <p style=""font-size: 20px; font-weight: bold; margin: 0;"">Was there a person in this image?</p>
                    </div>
                </div>","0","example_question","3","","","","","","","","","",""
"","","","","","html-keyboard-response","12","48356","0.0-12.0","669BECBF431D4E4D9DFDCCD88305D875","019cfc43-c545-7782-9731-9bf33dfe0593","019cfc28-2143-7934-89cc-ce6402563331","","null","
                <div class=""stimulus-container"">
                    <img src=""images/instructions/movie_4.png"" class=""exp-image"">
                    <div class=""question-area""></div> 
                </div>","null","","","","","","","","","","","",""
"","","","","","html-button-response","13","48721","0.0-13.0","669BECBF431D4E4D9DFDCCD88305D875","019cfc43-c545-7782-9731-9bf33dfe0593","019cfc28-2143-7934-89cc-ce6402563331","","364","
                <div class=""stimulus-container"">
                    <img src=""images/instructions/movie_4.png"" class=""exp-image"">
                    <div class=""question-area"">
                        <p style=""font-size: 20px; font-weight: bold; margin: 0;"">Was there a person in this image?</p>
                    </div>
                </div>","0","example_question","4","","","","","","","","","",""
"","","","","","instructions","14","50481","0.0-14.0","669BECBF431D4E4D9DFDCCD88305D875","019cfc43-c545-7782-9731-9bf33dfe0593","019cfc28-2143-7934-89cc-ce6402563331","[{""page_index"":0,""viewing_time"":1760}]","1760","","","","","","","","","","","","","",""
"","","","","","instructions","15","55897","0.0-15.0","669BECBF431D4E4D9DFDCCD88305D875","019cfc43-c545-7782-9731-9bf33dfe0593","019cfc28-2143-7934-89cc-ce6402563331","[{""page_index"":0,""viewing_time"":5415}]","5416","","","","","","","","","","","","","",""
"","","","","","html-keyboard-response","16","60904","0.0-16.0","669BECBF431D4E4D9DFDCCD88305D875","019cfc43-c545-7782-9731-9bf33dfe0593","019cfc28-2143-7934-89cc-ce6402563331","","null","<div style=""background-color: white; width: 100vw; height: 100vh;""></div>","null","","","","","","","","","","","",""
"","","","","","html-keyboard-response","17","65918","0.0-17.0","669BECBF431D4E4D9DFDCCD88305D875","019cfc43-c545-7782-9731-9bf33dfe0593","019cfc28-2143-7934-89cc-ce6402563331","","null","
                <div class=""stimulus-container"">
                    <img src=""images/semantic_sequence/kitchen_operations_semantic/kitchen_operations_semantic_1.png"" class=""exp-image"">
                    <div class=""question-area""></div> 
                </div>","null","","","","","","","","","","","",""
"","","","","","html-button-response","18","66898","0.0-18.0","669BECBF431D4E4D9DFDCCD88305D875","019cfc43-c545-7782-9731-9bf33dfe0593","019cfc28-2143-7934-89cc-ce6402563331","","979","
                <div class=""stimulus-container"">
                    <img src=""images/semantic_sequence/kitchen_operations_semantic/kitchen_operations_semantic_1.png"" class=""exp-image"">
                    <div class=""question-area"">
                        <p style=""font-size: 20px; font-weight: bold; margin: 0;"">Is there a person in this image?</p>
                    </div>
                </div>","0","main_experiment_trial","1","kitchen_operations_semantic","semantic_sequence","chronological","","","","","","",""
"","","","","","html-keyboard-response","19","71909","0.0-19.0","669BECBF431D4E4D9DFDCCD88305D875","019cfc43-c545-7782-9731-9bf33dfe0593","019cfc28-2143-7934-89cc-ce6402563331","","null","
                <div class=""stimulus-container"">
                    <img src=""images/semantic_sequence/kitchen_operations_semantic/kitchen_operations_semantic_2.png"" class=""exp-image"">
                    <div class=""question-area""></div> 
                </div>","null","","","","","","","","","","","",""
"","","","","","html-button-response","20","72770","0.0-20.0","669BECBF431D4E4D9DFDCCD88305D875","019cfc43-c545-7782-9731-9bf33dfe0593","019cfc28-2143-7934-89cc-ce6402563331","","860","
                <div class=""stimulus-container"">
                    <img src=""images/semantic_sequence/kitchen_operations_semantic/kitchen_operations_semantic_2.png"" class=""exp-image"">
                    <div class=""question-area"">
                        <p style=""font-size: 20px; font-weight: bold; margin: 0;"">Is there a person in this image?</p>
                    </div>
                </div>","0","main_experiment_trial","2","kitchen_operations_semantic","semantic_sequence","chronological","","","","","","",""
"","","","","","html-keyboard-response","21","77772","0.0-21.0","669BECBF431D4E4D9DFDCCD88305D875","019cfc43-c545-7782-9731-9bf33dfe0593","019cfc28-2143-7934-89cc-ce6402563331","","null","
                <div class=""stimulus-container"">
                    <img src=""images/semantic_sequence/kitchen_operations_semantic/kitchen_operations_semantic_3.png"" class=""exp-image"">
                    <div class=""question-area""></div> 
                </div>","null","","","","","","","","","","","",""
"","","","","","html-button-response","22","78169","0.0-22.0","669BECBF431D4E4D9DFDCCD88305D875","019cfc43-c545-7782-9731-9bf33dfe0593","019cfc28-2143-7934-89cc-ce6402563331","","395","
                <div class=""stimulus-container"">
                    <img src=""images/semantic_sequence/kitchen_operations_semantic/kitchen_operations_semantic_3.png"" class=""exp-image"">
                    <div class=""question-area"">
                        <p style=""font-size: 20px; font-weight: bold; margin: 0;"">Is there a person in this image?</p>
                    </div>
                </div>","0","main_experiment_trial","3","kitchen_operations_semantic","semantic_sequence","chronological","","","","","","",""
"","","","","","html-keyboard-response","23","83182","0.0-23.0","669BECBF431D4E4D9DFDCCD88305D875","019cfc43-c545-7782-9731-9bf33dfe0593","019cfc28-2143-7934-89cc-ce6402563331","","null","
                <div class=""stimulus-container"">
                    <img src=""images/semantic_sequence/kitchen_operations_semantic/kitchen_operations_semantic_4.png"" class=""exp-image"">
                    <div class=""question-area""></div> 
                </div>","null","","","","","","","","","","","",""
"","","","","","html-button-response","24","83554","0.0-24.0","669BECBF431D4E4D9DFDCCD88305D875","019cfc43-c545-7782-9731-9bf33dfe0593","019cfc28-2143-7934-89cc-ce6402563331","","371","
                <div class=""stimulus-container"">
                    <img src=""images/semantic_sequence/kitchen_operations_semantic/kitchen_operations_semantic_4.png"" class=""exp-image"">
                    <div class=""question-area"">
                        <p style=""font-size: 20px; font-weight: bold; margin: 0;"">Is there a person in this image?</p>
                    </div>
                </div>","0","main_experiment_trial","4","kitchen_operations_semantic","semantic_sequence","chronological","","","","","","",""
"","","","","","html-keyboard-response","25","88564","0.0-25.0","669BECBF431D4E4D9DFDCCD88305D875","019cfc43-c545-7782-9731-9bf33dfe0593","019cfc28-2143-7934-89cc-ce6402563331","","null","
                <div class=""stimulus-container"">
                    <img src=""images/semantic_sequence/kitchen_operations_semantic/kitchen_operations_semantic_5.png"" class=""exp-image"">
                    <div class=""question-area""></div> 
                </div>","null","","","","","","","","","","","",""
"","","","","","html-button-response","26","88970","0.0-26.0","669BECBF431D4E4D9DFDCCD88305D875","019cfc43-c545-7782-9731-9bf33dfe0593","019cfc28-2143-7934-89cc-ce6402563331","","405","
                <div class=""stimulus-container"">
                    <img src=""images/semantic_sequence/kitchen_operations_semantic/kitchen_operations_semantic_5.png"" class=""exp-image"">
                    <div class=""question-area"">
                        <p style=""font-size: 20px; font-weight: bold; margin: 0;"">Is there a person in this image?</p>
                    </div>
                </div>","0","main_experiment_trial","5","kitchen_operations_semantic","semantic_sequence","chronological","","","","","","",""
"","","","","","html-keyboard-response","27","93983","0.0-27.0","669BECBF431D4E4D9DFDCCD88305D875","019cfc43-c545-7782-9731-9bf33dfe0593","019cfc28-2143-7934-89cc-ce6402563331","","null","
                <div class=""stimulus-container"">
                    <img src=""images/semantic_sequence/kitchen_operations_semantic/kitchen_operations_semantic_6.png"" class=""exp-image"">
                    <div class=""question-area""></div> 
                </div>","null","","","","","","","","","","","",""
"","","","","","html-button-response","28","94442","0.0-28.0","669BECBF431D4E4D9DFDCCD88305D875","019cfc43-c545-7782-9731-9bf33dfe0593","019cfc28-2143-7934-89cc-ce6402563331","","458","
                <div class=""stimulus-container"">
                    <img src=""images/semantic_sequence/kitchen_operations_semantic/kitchen_operations_semantic_6.png"" class=""exp-image"">
                    <div class=""question-area"">
                        <p style=""font-size: 20px; font-weight: bold; margin: 0;"">Is there a person in this image?</p>
                    </div>
                </div>","0","main_experiment_trial","6","kitchen_operations_semantic","semantic_sequence","chronological","","","","","","",""
"","","","","","html-keyboard-response","29","99451","0.0-29.0","669BECBF431D4E4D9DFDCCD88305D875","019cfc43-c545-7782-9731-9bf33dfe0593","019cfc28-2143-7934-89cc-ce6402563331","","null","
                <div class=""stimulus-container"">
                    <img src=""images/semantic_sequence/kitchen_operations_semantic/kitchen_operations_semantic_7.png"" class=""exp-image"">
                    <div class=""question-area""></div> 
                </div>","null","","","","","","","","","","","",""
"","","","","","html-button-response","30","99794","0.0-30.0","669BECBF431D4E4D9DFDCCD88305D875","019cfc43-c545-7782-9731-9bf33dfe0593","019cfc28-2143-7934-89cc-ce6402563331","","342","
                <div class=""stimulus-container"">
                    <img src=""images/semantic_sequence/kitchen_operations_semantic/kitchen_operations_semantic_7.png"" class=""exp-image"">
                    <div class=""question-area"">
                        <p style=""font-size: 20px; font-weight: bold; margin: 0;"">Is there a person in this image?</p>
                    </div>
                </div>","0","main_experiment_trial","7","kitchen_operations_semantic","semantic_sequence","chronological","","","","","","",""
"","","","","","html-keyboard-response","31","104802","0.0-31.0","669BECBF431D4E4D9DFDCCD88305D875","019cfc43-c545-7782-9731-9bf33dfe0593","019cfc28-2143-7934-89cc-ce6402563331","","null","
                <div class=""stimulus-container"">
                    <img src=""images/semantic_sequence/kitchen_operations_semantic/kitchen_operations_semantic_8.png"" class=""exp-image"">
                    <div class=""question-area""></div> 
                </div>","null","","","","","","","","","","","",""
"","","","","","html-button-response","32","105201","0.0-32.0","669BECBF431D4E4D9DFDCCD88305D875","019cfc43-c545-7782-9731-9bf33dfe0593","019cfc28-2143-7934-89cc-ce6402563331","","399","
                <div class=""stimulus-container"">
                    <img src=""images/semantic_sequence/kitchen_operations_semantic/kitchen_operations_semantic_8.png"" class=""exp-image"">
                    <div class=""question-area"">
                        <p style=""font-size: 20px; font-weight: bold; margin: 0;"">Is there a person in this image?</p>
                    </div>
                </div>","0","main_experiment_trial","8","kitchen_operations_semantic","semantic_sequence","chronological","","","","","","",""
"","","","","","html-keyboard-response","33","110209","0.0-33.0","669BECBF431D4E4D9DFDCCD88305D875","019cfc43-c545-7782-9731-9bf33dfe0593","019cfc28-2143-7934-89cc-ce6402563331","","null","
                <div class=""stimulus-container"">
                    <img src=""images/semantic_sequence/kitchen_operations_semantic/kitchen_operations_semantic_9.png"" class=""exp-image"">
                    <div class=""question-area""></div> 
                </div>","null","","","","","","","","","","","",""
"","","","","","html-button-response","34","110593","0.0-34.0","669BECBF431D4E4D9DFDCCD88305D875","019cfc43-c545-7782-9731-9bf33dfe0593","019cfc28-2143-7934-89cc-ce6402563331","","384","
                <div class=""stimulus-container"">
                    <img src=""images/semantic_sequence/kitchen_operations_semantic/kitchen_operations_semantic_9.png"" class=""exp-image"">
                    <div class=""question-area"">
                        <p style=""font-size: 20px; font-weight: bold; margin: 0;"">Is there a person in this image?</p>
                    </div>
                </div>","0","main_experiment_trial","9","kitchen_operations_semantic","semantic_sequence","chronological","","","","","","",""
"","","","","","html-keyboard-response","35","115607","0.0-35.0","669BECBF431D4E4D9DFDCCD88305D875","019cfc43-c545-7782-9731-9bf33dfe0593","019cfc28-2143-7934-89cc-ce6402563331","","null","
                <div class=""stimulus-container"">
                    <img src=""images/semantic_sequence/kitchen_operations_semantic/kitchen_operations_semantic_ten.png"" class=""exp-image"">
                    <div class=""question-area""></div> 
                </div>","null","","","","","","","","","","","",""
"","","","","","html-button-response","36","115922","0.0-36.0","669BECBF431D4E4D9DFDCCD88305D875","019cfc43-c545-7782-9731-9bf33dfe0593","019cfc28-2143-7934-89cc-ce6402563331","","313","
                <div class=""stimulus-container"">
                    <img src=""images/semantic_sequence/kitchen_operations_semantic/kitchen_operations_semantic_ten.png"" class=""exp-image"">
                    <div class=""question-area"">
                        <p style=""font-size: 20px; font-weight: bold; margin: 0;"">Is there a person in this image?</p>
                    </div>
                </div>","0","main_experiment_trial","ten","kitchen_operations_semantic","semantic_sequence","chronological","","","","","","",""
"","","","","","html-keyboard-response","37","120922","0.0-37.0","669BECBF431D4E4D9DFDCCD88305D875","019cfc43-c545-7782-9731-9bf33dfe0593","019cfc28-2143-7934-89cc-ce6402563331","","null","<div style=""background-color: white; width: 100vw; height: 100vh;""></div>","null","","","","","","","","","","","",""
"","","","","","html-keyboard-response","38","125935","0.0-38.0","669BECBF431D4E4D9DFDCCD88305D875","019cfc43-c545-7782-9731-9bf33dfe0593","019cfc28-2143-7934-89cc-ce6402563331","","null","
                <div class=""stimulus-container"">
                    <img src=""images/semantic_sequence/self_care_activities_semantic/self_care_activities_semantic_1.png"" class=""exp-image"">
                    <div class=""question-area""></div> 
                </div>","null","","","","","","","","","","","",""
"","","","","","html-button-response","39","127042","0.0-39.0","669BECBF431D4E4D9DFDCCD88305D875","019cfc43-c545-7782-9731-9bf33dfe0593","019cfc28-2143-7934-89cc-ce6402563331","","1106","
                <div class=""stimulus-container"">
                    <img src=""images/semantic_sequence/self_care_activities_semantic/self_care_activities_semantic_1.png"" class=""exp-image"">
                    <div class=""question-area"">
                        <p style=""font-size: 20px; font-weight: bold; margin: 0;"">Is there a person in this image?</p>
                    </div>
                </div>","0","main_experiment_trial","1","self_care_activities_semantic","semantic_sequence","chronological","","","","","","",""
"","","","","","html-keyboard-response","40","132620","0.0-40.0","669BECBF431D4E4D9DFDCCD88305D875","019cfc43-c545-7782-9731-9bf33dfe0593","019cfc28-2143-7934-89cc-ce6402563331","","null","
                <div class=""stimulus-container"">
                    <img src=""images/semantic_sequence/self_care_activities_semantic/self_care_activities_semantic_2.png"" class=""exp-image"">
                    <div class=""question-area""></div> 
                </div>","null","","","","","","","","","","","",""
"","","","","","html-button-response","41","133889","0.0-41.0","669BECBF431D4E4D9DFDCCD88305D875","019cfc43-c545-7782-9731-9bf33dfe0593","019cfc28-2143-7934-89cc-ce6402563331","","1268","
                <div class=""stimulus-container"">
                    <img src=""images/semantic_sequence/self_care_activities_semantic/self_care_activities_semantic_2.png"" class=""exp-image"">
                    <div class=""question-area"">
                        <p style=""font-size: 20px; font-weight: bold; margin: 0;"">Is there a person in this image?</p>
                    </div>
                </div>","0","main_experiment_trial","2","self_care_activities_semantic","semantic_sequence","chronological","","","","","","",""
"","","","","","html-keyboard-response","42","138898","0.0-42.0","669BECBF431D4E4D9DFDCCD88305D875","019cfc43-c545-7782-9731-9bf33dfe0593","019cfc28-2143-7934-89cc-ce6402563331","","null","
                <div class=""stimulus-container"">
                    <img src=""images/semantic_sequence/self_care_activities_semantic/self_care_activities_semantic_3.png"" class=""exp-image"">
                    <div class=""question-area""></div> 
                </div>","null","","","","","","","","","","","",""
"","","","","","html-button-response","43","139498","0.0-43.0","669BECBF431D4E4D9DFDCCD88305D875","019cfc43-c545-7782-9731-9bf33dfe0593","019cfc28-2143-7934-89cc-ce6402563331","","599","
                <div class=""stimulus-container"">
                    <img src=""images/semantic_sequence/self_care_activities_semantic/self_care_activities_semantic_3.png"" class=""exp-image"">
                    <div class=""question-area"">
                        <p style=""font-size: 20px; font-weight: bold; margin: 0;"">Is there a person in this image?</p>
                    </div>
                </div>","0","main_experiment_trial","3","self_care_activities_semantic","semantic_sequence","chronological","","","","","","",""
"","","","","","html-keyboard-response","44","144510","0.0-44.0","669BECBF431D4E4D9DFDCCD88305D875","019cfc43-c545-7782-9731-9bf33dfe0593","019cfc28-2143-7934-89cc-ce6402563331","","null","
                <div class=""stimulus-container"">
                    <img src=""images/semantic_sequence/self_care_activities_semantic/self_care_activities_semantic_4.png"" class=""exp-image"">
                    <div class=""question-area""></div> 
                </div>","null","","","","","","","","","","","",""
"","","","","","html-button-response","45","144889","0.0-45.0","669BECBF431D4E4D9DFDCCD88305D875","019cfc43-c545-7782-9731-9bf33dfe0593","019cfc28-2143-7934-89cc-ce6402563331","","379","
                <div class=""stimulus-container"">
                    <img src=""images/semantic_sequence/self_care_activities_semantic/self_care_activities_semantic_4.png"" class=""exp-image"">
                    <div class=""question-area"">
                        <p style=""font-size: 20px; font-weight: bold; margin: 0;"">Is there a person in this image?</p>
                    </div>
                </div>","0","main_experiment_trial","4","self_care_activities_semantic","semantic_sequence","chronological","","","","","","",""
"","","","","","html-keyboard-response","46","149894","0.0-46.0","669BECBF431D4E4D9DFDCCD88305D875","019cfc43-c545-7782-9731-9bf33dfe0593","019cfc28-2143-7934-89cc-ce6402563331","","null","
                <div class=""stimulus-container"">
                    <img src=""images/semantic_sequence/self_care_activities_semantic/self_care_activities_semantic_5.png"" class=""exp-image"">
                    <div class=""question-area""></div> 
                </div>","null","","","","","","","","","","","",""
"","","","","","html-button-response","47","150250","0.0-47.0","669BECBF431D4E4D9DFDCCD88305D875","019cfc43-c545-7782-9731-9bf33dfe0593","019cfc28-2143-7934-89cc-ce6402563331","","354","
                <div class=""stimulus-container"">
                    <img src=""images/semantic_sequence/self_care_activities_semantic/self_care_activities_semantic_5.png"" class=""exp-image"">
                    <div class=""question-area"">
                        <p style=""font-size: 20px; font-weight: bold; margin: 0;"">Is there a person in this image?</p>
                    </div>
                </div>","0","main_experiment_trial","5","self_care_activities_semantic","semantic_sequence","chronological","","","","","","",""
"","","","","","html-keyboard-response","48","155259","0.0-48.0","669BECBF431D4E4D9DFDCCD88305D875","019cfc43-c545-7782-9731-9bf33dfe0593","019cfc28-2143-7934-89cc-ce6402563331","","null","
                <div class=""stimulus-container"">
                    <img src=""images/semantic_sequence/self_care_activities_semantic/self_care_activities_semantic_6.png"" class=""exp-image"">
                    <div class=""question-area""></div> 
                </div>","null","","","","","","","","","","","",""
"","","","","","html-button-response","49","155706","0.0-49.0","669BECBF431D4E4D9DFDCCD88305D875","019cfc43-c545-7782-9731-9bf33dfe0593","019cfc28-2143-7934-89cc-ce6402563331","","446","
                <div class=""stimulus-container"">
                    <img src=""images/semantic_sequence/self_care_activities_semantic/self_care_activities_semantic_6.png"" class=""exp-image"">
                    <div class=""question-area"">
                        <p style=""font-size: 20px; font-weight: bold; margin: 0;"">Is there a person in this image?</p>
                    </div>
                </div>","1","main_experiment_trial","6","self_care_activities_semantic","semantic_sequence","chronological","","","","","","",""
"","","","","","html-keyboard-response","50","160722","0.0-50.0","669BECBF431D4E4D9DFDCCD88305D875","019cfc43-c545-7782-9731-9bf33dfe0593","019cfc28-2143-7934-89cc-ce6402563331","","null","
                <div class=""stimulus-container"">
                    <img src=""images/semantic_sequence/self_care_activities_semantic/self_care_activities_semantic_7.png"" class=""exp-image"">
                    <div class=""question-area""></div> 
                </div>","null","","","","","","","","","","","",""
"","","","","","html-button-response","51","161154","0.0-51.0","669BECBF431D4E4D9DFDCCD88305D875","019cfc43-c545-7782-9731-9bf33dfe0593","019cfc28-2143-7934-89cc-ce6402563331","","432","
                <div class=""stimulus-container"">
                    <img src=""images/semantic_sequence/self_care_activities_semantic/self_care_activities_semantic_7.png"" class=""exp-image"">
                    <div class=""question-area"">
                        <p style=""font-size: 20px; font-weight: bold; margin: 0;"">Is there a person in this image?</p>
                    </div>
                </div>","0","main_experiment_trial","7","self_care_activities_semantic","semantic_sequence","chronological","","","","","","",""
"","","","","","html-keyboard-response","52","166166","0.0-52.0","669BECBF431D4E4D9DFDCCD88305D875","019cfc43-c545-7782-9731-9bf33dfe0593","019cfc28-2143-7934-89cc-ce6402563331","","null","
                <div class=""stimulus-container"">
                    <img src=""images/semantic_sequence/self_care_activities_semantic/self_care_activities_semantic_8.png"" class=""exp-image"">
                    <div class=""question-area""></div> 
                </div>","null","","","","","","","","","","","",""
"","","","","","html-button-response","53","166754","0.0-53.0","669BECBF431D4E4D9DFDCCD88305D875","019cfc43-c545-7782-9731-9bf33dfe0593","019cfc28-2143-7934-89cc-ce6402563331","","587","
                <div class=""stimulus-container"">
                    <img src=""images/semantic_sequence/self_care_activities_semantic/self_care_activities_semantic_8.png"" class=""exp-image"">
                    <div class=""question-area"">
                        <p style=""font-size: 20px; font-weight: bold; margin: 0;"">Is there a person in this image?</p>
                    </div>
                </div>","0","main_experiment_trial","8","self_care_activities_semantic","semantic_sequence","chronological","","","","","","",""
"","","","","","html-keyboard-response","54","171758","0.0-54.0","669BECBF431D4E4D9DFDCCD88305D875","019cfc43-c545-7782-9731-9bf33dfe0593","019cfc28-2143-7934-89cc-ce6402563331","","null","
                <div class=""stimulus-container"">
                    <img src=""images/semantic_sequence/self_care_activities_semantic/self_care_activities_semantic_9.png"" class=""exp-image"">
                    <div class=""question-area""></div> 
                </div>","null","","","","","","","","","","","",""
"","","","","","html-button-response","55","172098","0.0-55.0","669BECBF431D4E4D9DFDCCD88305D875","019cfc43-c545-7782-9731-9bf33dfe0593","019cfc28-2143-7934-89cc-ce6402563331","","339","
                <div class=""stimulus-container"">
                    <img src=""images/semantic_sequence/self_care_activities_semantic/self_care_activities_semantic_9.png"" class=""exp-image"">
                    <div class=""question-area"">
                        <p style=""font-size: 20px; font-weight: bold; margin: 0;"">Is there a person in this image?</p>
                    </div>
                </div>","0","main_experiment_trial","9","self_care_activities_semantic","semantic_sequence","chronological","","","","","","",""
"","","","","","html-keyboard-response","56","177113","0.0-56.0","669BECBF431D4E4D9DFDCCD88305D875","019cfc43-c545-7782-9731-9bf33dfe0593","019cfc28-2143-7934-89cc-ce6402563331","","null","
                <div class=""stimulus-container"">
                    <img src=""images/semantic_sequence/self_care_activities_semantic/self_care_activities_semantic_ten.png"" class=""exp-image"">
                    <div class=""question-area""></div> 
                </div>","null","","","","","","","","","","","",""
"","","","","","html-button-response","57","177738","0.0-57.0","669BECBF431D4E4D9DFDCCD88305D875","019cfc43-c545-7782-9731-9bf33dfe0593","019cfc28-2143-7934-89cc-ce6402563331","","624","
                <div class=""stimulus-container"">
                    <img src=""images/semantic_sequence/self_care_activities_semantic/self_care_activities_semantic_ten.png"" class=""exp-image"">
                    <div class=""question-area"">
                        <p style=""font-size: 20px; font-weight: bold; margin: 0;"">Is there a person in this image?</p>
                    </div>
                </div>","0","main_experiment_trial","ten","self_care_activities_semantic","semantic_sequence","chronological","","","","","","",""
"","","","","","html-keyboard-response","58","182746","0.0-58.0","669BECBF431D4E4D9DFDCCD88305D875","019cfc43-c545-7782-9731-9bf33dfe0593","019cfc28-2143-7934-89cc-ce6402563331","","null","<div style=""background-color: white; width: 100vw; height: 100vh;""></div>","null","","","","","","","","","","","",""
"","","","","","html-keyboard-response","59","187746","0.0-59.0","669BECBF431D4E4D9DFDCCD88305D875","019cfc43-c545-7782-9731-9bf33dfe0593","019cfc28-2143-7934-89cc-ce6402563331","","null","
                <div class=""stimulus-container"">
                    <img src=""images/schematic_sequence/interview_scheme/interview_scheme_1.png"" class=""exp-image"">
                    <div class=""question-area""></div> 
                </div>","null","","","","","","","","","","","",""
"","","","","","html-button-response","60","188194","0.0-60.0","669BECBF431D4E4D9DFDCCD88305D875","019cfc43-c545-7782-9731-9bf33dfe0593","019cfc28-2143-7934-89cc-ce6402563331","","446","
                <div class=""stimulus-container"">
                    <img src=""images/schematic_sequence/interview_scheme/interview_scheme_1.png"" class=""exp-image"">
                    <div class=""question-area"">
                        <p style=""font-size: 20px; font-weight: bold; margin: 0;"">Is there a person in this image?</p>
                    </div>
                </div>","1","main_experiment_trial","1","interview_scheme","schematic_sequence","chronological","","","","","","",""
"","","","","","html-keyboard-response","61","193202","0.0-61.0","669BECBF431D4E4D9DFDCCD88305D875","019cfc43-c545-7782-9731-9bf33dfe0593","019cfc28-2143-7934-89cc-ce6402563331","","null","
                <div class=""stimulus-container"">
                    <img src=""images/schematic_sequence/interview_scheme/interview_scheme_2.png"" class=""exp-image"">
                    <div class=""question-area""></div> 
                </div>","null","","","","","","","","","","","",""
"","","","","","html-button-response","62","193554","0.0-62.0","669BECBF431D4E4D9DFDCCD88305D875","019cfc43-c545-7782-9731-9bf33dfe0593","019cfc28-2143-7934-89cc-ce6402563331","","351","
                <div class=""stimulus-container"">
                    <img src=""images/schematic_sequence/interview_scheme/interview_scheme_2.png"" class=""exp-image"">
                    <div class=""question-area"">
                        <p style=""font-size: 20px; font-weight: bold; margin: 0;"">Is there a person in this image?</p>
                    </div>
                </div>","1","main_experiment_trial","2","interview_scheme","schematic_sequence","chronological","","","","","","",""
"","","","","","html-keyboard-response","63","198562","0.0-63.0","669BECBF431D4E4D9DFDCCD88305D875","019cfc43-c545-7782-9731-9bf33dfe0593","019cfc28-2143-7934-89cc-ce6402563331","","null","
                <div class=""stimulus-container"">
                    <img src=""images/schematic_sequence/interview_scheme/interview_scheme_3.png"" class=""exp-image"">
                    <div class=""question-area""></div> 
                </div>","null","","","","","","","","","","","",""
"","","","","","html-button-response","64","198905","0.0-64.0","669BECBF431D4E4D9DFDCCD88305D875","019cfc43-c545-7782-9731-9bf33dfe0593","019cfc28-2143-7934-89cc-ce6402563331","","343","
                <div class=""stimulus-container"">
                    <img src=""images/schematic_sequence/interview_scheme/interview_scheme_3.png"" class=""exp-image"">
                    <div class=""question-area"">
                        <p style=""font-size: 20px; font-weight: bold; margin: 0;"">Is there a person in this image?</p>
                    </div>
                </div>","1","main_experiment_trial","3","interview_scheme","schematic_sequence","chronological","","","","","","",""
"","","","","","html-keyboard-response","65","203914","0.0-65.0","669BECBF431D4E4D9DFDCCD88305D875","019cfc43-c545-7782-9731-9bf33dfe0593","019cfc28-2143-7934-89cc-ce6402563331","","null","
                <div class=""stimulus-container"">
                    <img src=""images/schematic_sequence/interview_scheme/interview_scheme_4.png"" class=""exp-image"">
                    <div class=""question-area""></div> 
                </div>","null","","","","","","","","","","","",""
"","","","","","html-button-response","66","204258","0.0-66.0","669BECBF431D4E4D9DFDCCD88305D875","019cfc43-c545-7782-9731-9bf33dfe0593","019cfc28-2143-7934-89cc-ce6402563331","","343","
                <div class=""stimulus-container"">
                    <img src=""images/schematic_sequence/interview_scheme/interview_scheme_4.png"" class=""exp-image"">
                    <div class=""question-area"">
                        <p style=""font-size: 20px; font-weight: bold; margin: 0;"">Is there a person in this image?</p>
                    </div>
                </div>","1","main_experiment_trial","4","interview_scheme","schematic_sequence","chronological","","","","","","",""
"","","","","","html-keyboard-response","67","209261","0.0-67.0","669BECBF431D4E4D9DFDCCD88305D875","019cfc43-c545-7782-9731-9bf33dfe0593","019cfc28-2143-7934-89cc-ce6402563331","","null","
                <div class=""stimulus-container"">
                    <img src=""images/schematic_sequence/interview_scheme/interview_scheme_5.png"" class=""exp-image"">
                    <div class=""question-area""></div> 
                </div>","null","","","","","","","","","","","",""
"","","","","","html-button-response","68","209618","0.0-68.0","669BECBF431D4E4D9DFDCCD88305D875","019cfc43-c545-7782-9731-9bf33dfe0593","019cfc28-2143-7934-89cc-ce6402563331","","357","
                <div class=""stimulus-container"">
                    <img src=""images/schematic_sequence/interview_scheme/interview_scheme_5.png"" class=""exp-image"">
                    <div class=""question-area"">
                        <p style=""font-size: 20px; font-weight: bold; margin: 0;"">Is there a person in this image?</p>
                    </div>
                </div>","0","main_experiment_trial","5","interview_scheme","schematic_sequence","chronological","","","","","","",""
"","","","","","html-keyboard-response","69","214625","0.0-69.0","669BECBF431D4E4D9DFDCCD88305D875","019cfc43-c545-7782-9731-9bf33dfe0593","019cfc28-2143-7934-89cc-ce6402563331","","null","
                <div class=""stimulus-container"">
                    <img src=""images/schematic_sequence/interview_scheme/interview_scheme_6.png"" class=""exp-image"">
                    <div class=""question-area""></div> 
                </div>","null","","","","","","","","","","","",""
"","","","","","html-button-response","70","215170","0.0-70.0","669BECBF431D4E4D9DFDCCD88305D875","019cfc43-c545-7782-9731-9bf33dfe0593","019cfc28-2143-7934-89cc-ce6402563331","","544","
                <div class=""stimulus-container"">
                    <img src=""images/schematic_sequence/interview_scheme/interview_scheme_6.png"" class=""exp-image"">
                    <div class=""question-area"">
                        <p style=""font-size: 20px; font-weight: bold; margin: 0;"">Is there a person in this image?</p>
                    </div>
                </div>","0","main_experiment_trial","6","interview_scheme","schematic_sequence","chronological","","","","","","",""
"","","","","","html-keyboard-response","71","220174","0.0-71.0","669BECBF431D4E4D9DFDCCD88305D875","019cfc43-c545-7782-9731-9bf33dfe0593","019cfc28-2143-7934-89cc-ce6402563331","","null","
                <div class=""stimulus-container"">
                    <img src=""images/schematic_sequence/interview_scheme/interview_scheme_7.png"" class=""exp-image"">
                    <div class=""question-area""></div> 
                </div>","null","","","","","","","","","","","",""
"","","","","","html-button-response","72","220634","0.0-72.0","669BECBF431D4E4D9DFDCCD88305D875","019cfc43-c545-7782-9731-9bf33dfe0593","019cfc28-2143-7934-89cc-ce6402563331","","460","
                <div class=""stimulus-container"">
                    <img src=""images/schematic_sequence/interview_scheme/interview_scheme_7.png"" class=""exp-image"">
                    <div class=""question-area"">
                        <p style=""font-size: 20px; font-weight: bold; margin: 0;"">Is there a person in this image?</p>
                    </div>
                </div>","0","main_experiment_trial","7","interview_scheme","schematic_sequence","chronological","","","","","","",""
"","","","","","html-keyboard-response","73","225648","0.0-73.0","669BECBF431D4E4D9DFDCCD88305D875","019cfc43-c545-7782-9731-9bf33dfe0593","019cfc28-2143-7934-89cc-ce6402563331","","null","
                <div class=""stimulus-container"">
                    <img src=""images/schematic_sequence/interview_scheme/interview_scheme_8.png"" class=""exp-image"">
                    <div class=""question-area""></div> 
                </div>","null","","","","","","","","","","","",""
"","","","","","html-button-response","74","226258","0.0-74.0","669BECBF431D4E4D9DFDCCD88305D875","019cfc43-c545-7782-9731-9bf33dfe0593","019cfc28-2143-7934-89cc-ce6402563331","","609","
                <div class=""stimulus-container"">
                    <img src=""images/schematic_sequence/interview_scheme/interview_scheme_8.png"" class=""exp-image"">
                    <div class=""question-area"">
                        <p style=""font-size: 20px; font-weight: bold; margin: 0;"">Is there a person in this image?</p>
                    </div>
                </div>","0","main_experiment_trial","8","interview_scheme","schematic_sequence","chronological","","","","","","",""
"","","","","","html-keyboard-response","75","231268","0.0-75.0","669BECBF431D4E4D9DFDCCD88305D875","019cfc43-c545-7782-9731-9bf33dfe0593","019cfc28-2143-7934-89cc-ce6402563331","","null","
                <div class=""stimulus-container"">
                    <img src=""images/schematic_sequence/interview_scheme/interview_scheme_9.png"" class=""exp-image"">
                    <div class=""question-area""></div> 
                </div>","null","","","","","","","","","","","",""
"","","","","","html-button-response","76","231682","0.0-76.0","669BECBF431D4E4D9DFDCCD88305D875","019cfc43-c545-7782-9731-9bf33dfe0593","019cfc28-2143-7934-89cc-ce6402563331","","413","
                <div class=""stimulus-container"">
                    <img src=""images/schematic_sequence/interview_scheme/interview_scheme_9.png"" class=""exp-image"">
                    <div class=""question-area"">
                        <p style=""font-size: 20px; font-weight: bold; margin: 0;"">Is there a person in this image?</p>
                    </div>
                </div>","0","main_experiment_trial","9","interview_scheme","schematic_sequence","chronological","","","","","","",""
"","","","","","html-keyboard-response","77","236685","0.0-77.0","669BECBF431D4E4D9DFDCCD88305D875","019cfc43-c545-7782-9731-9bf33dfe0593","019cfc28-2143-7934-89cc-ce6402563331","","null","
                <div class=""stimulus-container"">
                    <img src=""images/schematic_sequence/interview_scheme/interview_scheme_ten.png"" class=""exp-image"">
                    <div class=""question-area""></div> 
                </div>","null","","","","","","","","","","","",""
"","","","","","html-button-response","78","237562","0.0-78.0","669BECBF431D4E4D9DFDCCD88305D875","019cfc43-c545-7782-9731-9bf33dfe0593","019cfc28-2143-7934-89cc-ce6402563331","","876","
                <div class=""stimulus-container"">
                    <img src=""images/schematic_sequence/interview_scheme/interview_scheme_ten.png"" class=""exp-image"">
                    <div class=""question-area"">
                        <p style=""font-size: 20px; font-weight: bold; margin: 0;"">Is there a person in this image?</p>
                    </div>
                </div>","0","main_experiment_trial","ten","interview_scheme","schematic_sequence","chronological","","","","","","",""
"","","","","","html-keyboard-response","79","242577","0.0-79.0","669BECBF431D4E4D9DFDCCD88305D875","019cfc43-c545-7782-9731-9bf33dfe0593","019cfc28-2143-7934-89cc-ce6402563331","","null","<div style=""background-color: white; width: 100vw; height: 100vh;""></div>","null","","","","","","","","","","","",""
"","","","","","html-keyboard-response","80","247590","0.0-80.0","669BECBF431D4E4D9DFDCCD88305D875","019cfc43-c545-7782-9731-9bf33dfe0593","019cfc28-2143-7934-89cc-ce6402563331","","null","
                <div class=""stimulus-container"">
                    <img src=""images/semantic_sequence/housework_semantic/housework_semantic_1.png"" class=""exp-image"">
                    <div class=""question-area""></div> 
                </div>","null","","","","","","","","","","","",""
"","","","","","html-button-response","81","248202","0.0-81.0","669BECBF431D4E4D9DFDCCD88305D875","019cfc43-c545-7782-9731-9bf33dfe0593","019cfc28-2143-7934-89cc-ce6402563331","","612","
                <div class=""stimulus-container"">
                    <img src=""images/semantic_sequence/housework_semantic/housework_semantic_1.png"" class=""exp-image"">
                    <div class=""question-area"">
                        <p style=""font-size: 20px; font-weight: bold; margin: 0;"">Is there a person in this image?</p>
                    </div>
                </div>","0","main_experiment_trial","1","housework_semantic","semantic_sequence","chronological","","","","","","",""
"","","","","","html-keyboard-response","82","253217","0.0-82.0","669BECBF431D4E4D9DFDCCD88305D875","019cfc43-c545-7782-9731-9bf33dfe0593","019cfc28-2143-7934-89cc-ce6402563331","","null","
                <div class=""stimulus-container"">
                    <img src=""images/semantic_sequence/housework_semantic/housework_semantic_2.png"" class=""exp-image"">
                    <div class=""question-area""></div> 
                </div>","null","","","","","","","","","","","",""
"","","","","","html-button-response","83","253650","0.0-83.0","669BECBF431D4E4D9DFDCCD88305D875","019cfc43-c545-7782-9731-9bf33dfe0593","019cfc28-2143-7934-89cc-ce6402563331","","432","
                <div class=""stimulus-container"">
                    <img src=""images/semantic_sequence/housework_semantic/housework_semantic_2.png"" class=""exp-image"">
                    <div class=""question-area"">
                        <p style=""font-size: 20px; font-weight: bold; margin: 0;"">Is there a person in this image?</p>
                    </div>
                </div>","0","main_experiment_trial","2","housework_semantic","semantic_sequence","chronological","","","","","","",""
"","","","","","html-keyboard-response","84","258651","0.0-84.0","669BECBF431D4E4D9DFDCCD88305D875","019cfc43-c545-7782-9731-9bf33dfe0593","019cfc28-2143-7934-89cc-ce6402563331","","null","
                <div class=""stimulus-container"">
                    <img src=""images/semantic_sequence/housework_semantic/housework_semantic_3.png"" class=""exp-image"">
                    <div class=""question-area""></div> 
                </div>","null","","","","","","","","","","","",""
"","","","","","html-button-response","85","259066","0.0-85.0","669BECBF431D4E4D9DFDCCD88305D875","019cfc43-c545-7782-9731-9bf33dfe0593","019cfc28-2143-7934-89cc-ce6402563331","","414","
                <div class=""stimulus-container"">
                    <img src=""images/semantic_sequence/housework_semantic/housework_semantic_3.png"" class=""exp-image"">
                    <div class=""question-area"">
                        <p style=""font-size: 20px; font-weight: bold; margin: 0;"">Is there a person in this image?</p>
                    </div>
                </div>","0","main_experiment_trial","3","housework_semantic","semantic_sequence","chronological","","","","","","",""
"","","","","","html-keyboard-response","86","264067","0.0-86.0","669BECBF431D4E4D9DFDCCD88305D875","019cfc43-c545-7782-9731-9bf33dfe0593","019cfc28-2143-7934-89cc-ce6402563331","","null","
                <div class=""stimulus-container"">
                    <img src=""images/semantic_sequence/housework_semantic/housework_semantic_4.png"" class=""exp-image"">
                    <div class=""question-area""></div> 
                </div>","null","","","","","","","","","","","",""
"","","","","","html-button-response","87","264466","0.0-87.0","669BECBF431D4E4D9DFDCCD88305D875","019cfc43-c545-7782-9731-9bf33dfe0593","019cfc28-2143-7934-89cc-ce6402563331","","398","
                <div class=""stimulus-container"">
                    <img src=""images/semantic_sequence/housework_semantic/housework_semantic_4.png"" class=""exp-image"">
                    <div class=""question-area"">
                        <p style=""font-size: 20px; font-weight: bold; margin: 0;"">Is there a person in this image?</p>
                    </div>
                </div>","0","main_experiment_trial","4","housework_semantic","semantic_sequence","chronological","","","","","","",""
"","","","","","html-keyboard-response","88","269478","0.0-88.0","669BECBF431D4E4D9DFDCCD88305D875","019cfc43-c545-7782-9731-9bf33dfe0593","019cfc28-2143-7934-89cc-ce6402563331","","null","
                <div class=""stimulus-container"">
                    <img src=""images/semantic_sequence/housework_semantic/housework_semantic_5.png"" class=""exp-image"">
                    <div class=""question-area""></div> 
                </div>","null","","","","","","","","","","","",""
"","","","","","html-button-response","89","270378","0.0-89.0","669BECBF431D4E4D9DFDCCD88305D875","019cfc43-c545-7782-9731-9bf33dfe0593","019cfc28-2143-7934-89cc-ce6402563331","","899","
                <div class=""stimulus-container"">
                    <img src=""images/semantic_sequence/housework_semantic/housework_semantic_5.png"" class=""exp-image"">
                    <div class=""question-area"">
                        <p style=""font-size: 20px; font-weight: bold; margin: 0;"">Is there a person in this image?</p>
                    </div>
                </div>","0","main_experiment_trial","5","housework_semantic","semantic_sequence","chronological","","","","","","",""
"","","","","","html-keyboard-response","90","275383","0.0-90.0","669BECBF431D4E4D9DFDCCD88305D875","019cfc43-c545-7782-9731-9bf33dfe0593","019cfc28-2143-7934-89cc-ce6402563331","","null","
                <div class=""stimulus-container"">
                    <img src=""images/semantic_sequence/housework_semantic/housework_semantic_6.png"" class=""exp-image"">
                    <div class=""question-area""></div> 
                </div>","null","","","","","","","","","","","",""
"","","","","","html-button-response","91","277466","0.0-91.0","669BECBF431D4E4D9DFDCCD88305D875","019cfc43-c545-7782-9731-9bf33dfe0593","019cfc28-2143-7934-89cc-ce6402563331","","2082","
                <div class=""stimulus-container"">
                    <img src=""images/semantic_sequence/housework_semantic/housework_semantic_6.png"" class=""exp-image"">
                    <div class=""question-area"">
                        <p style=""font-size: 20px; font-weight: bold; margin: 0;"">Is there a person in this image?</p>
                    </div>
                </div>","0","main_experiment_trial","6","housework_semantic","semantic_sequence","chronological","","","","","","",""
"","","","","","html-keyboard-response","92","282470","0.0-92.0","669BECBF431D4E4D9DFDCCD88305D875","019cfc43-c545-7782-9731-9bf33dfe0593","019cfc28-2143-7934-89cc-ce6402563331","","null","
                <div class=""stimulus-container"">
                    <img src=""images/semantic_sequence/housework_semantic/housework_semantic_7.png"" class=""exp-image"">
                    <div class=""question-area""></div> 
                </div>","null","","","","","","","","","","","",""
"","","","","","html-button-response","93","282866","0.0-93.0","669BECBF431D4E4D9DFDCCD88305D875","019cfc43-c545-7782-9731-9bf33dfe0593","019cfc28-2143-7934-89cc-ce6402563331","","395","
                <div class=""stimulus-container"">
                    <img src=""images/semantic_sequence/housework_semantic/housework_semantic_7.png"" class=""exp-image"">
                    <div class=""question-area"">
                        <p style=""font-size: 20px; font-weight: bold; margin: 0;"">Is there a person in this image?</p>
                    </div>
                </div>","0","main_experiment_trial","7","housework_semantic","semantic_sequence","chronological","","","","","","",""
"","","","","","html-keyboard-response","94","287876","0.0-94.0","669BECBF431D4E4D9DFDCCD88305D875","019cfc43-c545-7782-9731-9bf33dfe0593","019cfc28-2143-7934-89cc-ce6402563331","","null","
                <div class=""stimulus-container"">
                    <img src=""images/semantic_sequence/housework_semantic/housework_semantic_8.png"" class=""exp-image"">
                    <div class=""question-area""></div> 
                </div>","null","","","","","","","","","","","",""
"","","","","","html-button-response","95","288618","0.0-95.0","669BECBF431D4E4D9DFDCCD88305D875","019cfc43-c545-7782-9731-9bf33dfe0593","019cfc28-2143-7934-89cc-ce6402563331","","742","
                <div class=""stimulus-container"">
                    <img src=""images/semantic_sequence/housework_semantic/housework_semantic_8.png"" class=""exp-image"">
                    <div class=""question-area"">
                        <p style=""font-size: 20px; font-weight: bold; margin: 0;"">Is there a person in this image?</p>
                    </div>
                </div>","0","main_experiment_trial","8","housework_semantic","semantic_sequence","chronological","","","","","","",""
"","","","","","html-keyboard-response","96","293624","0.0-96.0","669BECBF431D4E4D9DFDCCD88305D875","019cfc43-c545-7782-9731-9bf33dfe0593","019cfc28-2143-7934-89cc-ce6402563331","","null","
                <div class=""stimulus-container"">
                    <img src=""images/semantic_sequence/housework_semantic/housework_semantic_9.png"" class=""exp-image"">
                    <div class=""question-area""></div> 
                </div>","null","","","","","","","","","","","",""
"","","","","","html-button-response","97","294642","0.0-97.0","669BECBF431D4E4D9DFDCCD88305D875","019cfc43-c545-7782-9731-9bf33dfe0593","019cfc28-2143-7934-89cc-ce6402563331","","1017","
                <div class=""stimulus-container"">
                    <img src=""images/semantic_sequence/housework_semantic/housework_semantic_9.png"" class=""exp-image"">
                    <div class=""question-area"">
                        <p style=""font-size: 20px; font-weight: bold; margin: 0;"">Is there a person in this image?</p>
                    </div>
                </div>","0","main_experiment_trial","9","housework_semantic","semantic_sequence","chronological","","","","","","",""
"","","","","","html-keyboard-response","98","299646","0.0-98.0","669BECBF431D4E4D9DFDCCD88305D875","019cfc43-c545-7782-9731-9bf33dfe0593","019cfc28-2143-7934-89cc-ce6402563331","","null","
                <div class=""stimulus-container"">
                    <img src=""images/semantic_sequence/housework_semantic/housework_semantic_ten.png"" class=""exp-image"">
                    <div class=""question-area""></div> 
                </div>","null","","","","","","","","","","","",""
"","","","","","html-button-response","99","300698","0.0-99.0","669BECBF431D4E4D9DFDCCD88305D875","019cfc43-c545-7782-9731-9bf33dfe0593","019cfc28-2143-7934-89cc-ce6402563331","","1052","
                <div class=""stimulus-container"">
                    <img src=""images/semantic_sequence/housework_semantic/housework_semantic_ten.png"" class=""exp-image"">
                    <div class=""question-area"">
                        <p style=""font-size: 20px; font-weight: bold; margin: 0;"">Is there a person in this image?</p>
                    </div>
                </div>","0","main_experiment_trial","ten","housework_semantic","semantic_sequence","chronological","","","","","","",""
"","","","","","html-keyboard-response","100","305704","0.0-100.0","669BECBF431D4E4D9DFDCCD88305D875","019cfc43-c545-7782-9731-9bf33dfe0593","019cfc28-2143-7934-89cc-ce6402563331","","null","<div style=""background-color: white; width: 100vw; height: 100vh;""></div>","null","","","","","","","","","","","",""
"","","","","","html-keyboard-response","101","310713","0.0-101.0","669BECBF431D4E4D9DFDCCD88305D875","019cfc43-c545-7782-9731-9bf33dfe0593","019cfc28-2143-7934-89cc-ce6402563331","","null","
                <div class=""stimulus-container"">
                    <img src=""images/semantic_sequence/physical_activity_semantic/physical_activity_semantic_1.png"" class=""exp-image"">
                    <div class=""question-area""></div> 
                </div>","null","","","","","","","","","","","",""
"","","","","","html-button-response","102","311498","0.0-102.0","669BECBF431D4E4D9DFDCCD88305D875","019cfc43-c545-7782-9731-9bf33dfe0593","019cfc28-2143-7934-89cc-ce6402563331","","784","
                <div class=""stimulus-container"">
                    <img src=""images/semantic_sequence/physical_activity_semantic/physical_activity_semantic_1.png"" class=""exp-image"">
                    <div class=""question-area"">
                        <p style=""font-size: 20px; font-weight: bold; margin: 0;"">Is there a person in this image?</p>
                    </div>
                </div>","0","main_experiment_trial","1","physical_activity_semantic","semantic_sequence","chronological","","","","","","",""
"","","","","","html-keyboard-response","103","316503","0.0-103.0","669BECBF431D4E4D9DFDCCD88305D875","019cfc43-c545-7782-9731-9bf33dfe0593","019cfc28-2143-7934-89cc-ce6402563331","","null","
                <div class=""stimulus-container"">
                    <img src=""images/semantic_sequence/physical_activity_semantic/physical_activity_semantic_2.png"" class=""exp-image"">
                    <div class=""question-area""></div> 
                </div>","null","","","","","","","","","","","",""
"","","","","","html-button-response","104","317539","0.0-104.0","669BECBF431D4E4D9DFDCCD88305D875","019cfc43-c545-7782-9731-9bf33dfe0593","019cfc28-2143-7934-89cc-ce6402563331","","1035","
                <div class=""stimulus-container"">
                    <img src=""images/semantic_sequence/physical_activity_semantic/physical_activity_semantic_2.png"" class=""exp-image"">
                    <div class=""question-area"">
                        <p style=""font-size: 20px; font-weight: bold; margin: 0;"">Is there a person in this image?</p>
                    </div>
                </div>","0","main_experiment_trial","2","physical_activity_semantic","semantic_sequence","chronological","","","","","","",""
"","","","","","html-keyboard-response","105","322553","0.0-105.0","669BECBF431D4E4D9DFDCCD88305D875","019cfc43-c545-7782-9731-9bf33dfe0593","019cfc28-2143-7934-89cc-ce6402563331","","null","
                <div class=""stimulus-container"">
                    <img src=""images/semantic_sequence/physical_activity_semantic/physical_activity_semantic_3.png"" class=""exp-image"">
                    <div class=""question-area""></div> 
                </div>","null","","","","","","","","","","","",""
"","","","","","html-button-response","106","323114","0.0-106.0","669BECBF431D4E4D9DFDCCD88305D875","019cfc43-c545-7782-9731-9bf33dfe0593","019cfc28-2143-7934-89cc-ce6402563331","","560","
                <div class=""stimulus-container"">
                    <img src=""images/semantic_sequence/physical_activity_semantic/physical_activity_semantic_3.png"" class=""exp-image"">
                    <div class=""question-area"">
                        <p style=""font-size: 20px; font-weight: bold; margin: 0;"">Is there a person in this image?</p>
                    </div>
                </div>","0","main_experiment_trial","3","physical_activity_semantic","semantic_sequence","chronological","","","","","","",""
"","","","","","html-keyboard-response","107","328126","0.0-107.0","669BECBF431D4E4D9DFDCCD88305D875","019cfc43-c545-7782-9731-9bf33dfe0593","019cfc28-2143-7934-89cc-ce6402563331","","null","
                <div class=""stimulus-container"">
                    <img src=""images/semantic_sequence/physical_activity_semantic/physical_activity_semantic_4.png"" class=""exp-image"">
                    <div class=""question-area""></div> 
                </div>","null","","","","","","","","","","","",""
"","","","","","html-button-response","108","328451","0.0-108.0","669BECBF431D4E4D9DFDCCD88305D875","019cfc43-c545-7782-9731-9bf33dfe0593","019cfc28-2143-7934-89cc-ce6402563331","","324","
                <div class=""stimulus-container"">
                    <img src=""images/semantic_sequence/physical_activity_semantic/physical_activity_semantic_4.png"" class=""exp-image"">
                    <div class=""question-area"">
                        <p style=""font-size: 20px; font-weight: bold; margin: 0;"">Is there a person in this image?</p>
                    </div>
                </div>","0","main_experiment_trial","4","physical_activity_semantic","semantic_sequence","chronological","","","","","","",""
"","","","","","html-keyboard-response","109","333467","0.0-109.0","669BECBF431D4E4D9DFDCCD88305D875","019cfc43-c545-7782-9731-9bf33dfe0593","019cfc28-2143-7934-89cc-ce6402563331","","null","
                <div class=""stimulus-container"">
                    <img src=""images/semantic_sequence/physical_activity_semantic/physical_activity_semantic_5.png"" class=""exp-image"">
                    <div class=""question-area""></div> 
                </div>","null","","","","","","","","","","","",""
"","","","","","html-button-response","110","334114","0.0-110.0","669BECBF431D4E4D9DFDCCD88305D875","019cfc43-c545-7782-9731-9bf33dfe0593","019cfc28-2143-7934-89cc-ce6402563331","","646","
                <div class=""stimulus-container"">
                    <img src=""images/semantic_sequence/physical_activity_semantic/physical_activity_semantic_5.png"" class=""exp-image"">
                    <div class=""question-area"">
                        <p style=""font-size: 20px; font-weight: bold; margin: 0;"">Is there a person in this image?</p>
                    </div>
                </div>","0","main_experiment_trial","5","physical_activity_semantic","semantic_sequence","chronological","","","","","","",""
"","","","","","html-keyboard-response","111","339121","0.0-111.0","669BECBF431D4E4D9DFDCCD88305D875","019cfc43-c545-7782-9731-9bf33dfe0593","019cfc28-2143-7934-89cc-ce6402563331","","null","
                <div class=""stimulus-container"">
                    <img src=""images/semantic_sequence/physical_activity_semantic/physical_activity_semantic_6.png"" class=""exp-image"">
                    <div class=""question-area""></div> 
                </div>","null","","","","","","","","","","","",""
"","","","","","html-button-response","112","339675","0.0-112.0","669BECBF431D4E4D9DFDCCD88305D875","019cfc43-c545-7782-9731-9bf33dfe0593","019cfc28-2143-7934-89cc-ce6402563331","","553","
                <div class=""stimulus-container"">
                    <img src=""images/semantic_sequence/physical_activity_semantic/physical_activity_semantic_6.png"" class=""exp-image"">
                    <div class=""question-area"">
                        <p style=""font-size: 20px; font-weight: bold; margin: 0;"">Is there a person in this image?</p>
                    </div>
                </div>","0","main_experiment_trial","6","physical_activity_semantic","semantic_sequence","chronological","","","","","","",""
"","","","","","html-keyboard-response","113","344689","0.0-113.0","669BECBF431D4E4D9DFDCCD88305D875","019cfc43-c545-7782-9731-9bf33dfe0593","019cfc28-2143-7934-89cc-ce6402563331","","null","
                <div class=""stimulus-container"">
                    <img src=""images/semantic_sequence/physical_activity_semantic/physical_activity_semantic_7.png"" class=""exp-image"">
                    <div class=""question-area""></div> 
                </div>","null","","","","","","","","","","","",""
"","","","","","html-button-response","114","345267","0.0-114.0","669BECBF431D4E4D9DFDCCD88305D875","019cfc43-c545-7782-9731-9bf33dfe0593","019cfc28-2143-7934-89cc-ce6402563331","","577","
                <div class=""stimulus-container"">
                    <img src=""images/semantic_sequence/physical_activity_semantic/physical_activity_semantic_7.png"" class=""exp-image"">
                    <div class=""question-area"">
                        <p style=""font-size: 20px; font-weight: bold; margin: 0;"">Is there a person in this image?</p>
                    </div>
                </div>","0","main_experiment_trial","7","physical_activity_semantic","semantic_sequence","chronological","","","","","","",""
"","","","","","html-keyboard-response","115","350268","0.0-115.0","669BECBF431D4E4D9DFDCCD88305D875","019cfc43-c545-7782-9731-9bf33dfe0593","019cfc28-2143-7934-89cc-ce6402563331","","null","
                <div class=""stimulus-container"">
                    <img src=""images/semantic_sequence/physical_activity_semantic/physical_activity_semantic_8.png"" class=""exp-image"">
                    <div class=""question-area""></div> 
                </div>","null","","","","","","","","","","","",""
"","","","","","html-button-response","116","351098","0.0-116.0","669BECBF431D4E4D9DFDCCD88305D875","019cfc43-c545-7782-9731-9bf33dfe0593","019cfc28-2143-7934-89cc-ce6402563331","","830","
                <div class=""stimulus-container"">
                    <img src=""images/semantic_sequence/physical_activity_semantic/physical_activity_semantic_8.png"" class=""exp-image"">
                    <div class=""question-area"">
                        <p style=""font-size: 20px; font-weight: bold; margin: 0;"">Is there a person in this image?</p>
                    </div>
                </div>","0","main_experiment_trial","8","physical_activity_semantic","semantic_sequence","chronological","","","","","","",""
"","","","","","html-keyboard-response","117","356111","0.0-117.0","669BECBF431D4E4D9DFDCCD88305D875","019cfc43-c545-7782-9731-9bf33dfe0593","019cfc28-2143-7934-89cc-ce6402563331","","null","
                <div class=""stimulus-container"">
                    <img src=""images/semantic_sequence/physical_activity_semantic/physical_activity_semantic_9.png"" class=""exp-image"">
                    <div class=""question-area""></div> 
                </div>","null","","","","","","","","","","","",""
"","","","","","html-button-response","118","356939","0.0-118.0","669BECBF431D4E4D9DFDCCD88305D875","019cfc43-c545-7782-9731-9bf33dfe0593","019cfc28-2143-7934-89cc-ce6402563331","","827","
                <div class=""stimulus-container"">
                    <img src=""images/semantic_sequence/physical_activity_semantic/physical_activity_semantic_9.png"" class=""exp-image"">
                    <div class=""question-area"">
                        <p style=""font-size: 20px; font-weight: bold; margin: 0;"">Is there a person in this image?</p>
                    </div>
                </div>","0","main_experiment_trial","9","physical_activity_semantic","semantic_sequence","chronological","","","","","","",""
"","","","","","html-keyboard-response","119","361951","0.0-119.0","669BECBF431D4E4D9DFDCCD88305D875","019cfc43-c545-7782-9731-9bf33dfe0593","019cfc28-2143-7934-89cc-ce6402563331","","null","
                <div class=""stimulus-container"">
                    <img src=""images/semantic_sequence/physical_activity_semantic/physical_activity_semantic_ten.png"" class=""exp-image"">
                    <div class=""question-area""></div> 
                </div>","null","","","","","","","","","","","",""
"","","","","","html-button-response","120","364963","0.0-120.0","669BECBF431D4E4D9DFDCCD88305D875","019cfc43-c545-7782-9731-9bf33dfe0593","019cfc28-2143-7934-89cc-ce6402563331","","null","
                <div class=""stimulus-container"">
                    <img src=""images/semantic_sequence/physical_activity_semantic/physical_activity_semantic_ten.png"" class=""exp-image"">
                    <div class=""question-area"">
                        <p style=""font-size: 20px; font-weight: bold; margin: 0;"">Is there a person in this image?</p>
                    </div>
                </div>","null","main_experiment_trial","ten","physical_activity_semantic","semantic_sequence","chronological","","","","","","",""
"","","","","","html-keyboard-response","121","369967","0.0-121.0","669BECBF431D4E4D9DFDCCD88305D875","019cfc43-c545-7782-9731-9bf33dfe0593","019cfc28-2143-7934-89cc-ce6402563331","","null","<div style=""background-color: white; width: 100vw; height: 100vh;""></div>","null","","","","","","","","","","","",""
"","","","","","html-keyboard-response","122","374971","0.0-122.0","669BECBF431D4E4D9DFDCCD88305D875","019cfc43-c545-7782-9731-9bf33dfe0593","019cfc28-2143-7934-89cc-ce6402563331","","null","
                <div class=""stimulus-container"">
                    <img src=""images/schematic_sequence/restaurant_scheme/restaurant_scheme_1.png"" class=""exp-image"">
                    <div class=""question-area""></div> 
                </div>","null","","","","","","","","","","","",""
"","","","","","html-button-response","123","375882","0.0-123.0","669BECBF431D4E4D9DFDCCD88305D875","019cfc43-c545-7782-9731-9bf33dfe0593","019cfc28-2143-7934-89cc-ce6402563331","","911","
                <div class=""stimulus-container"">
                    <img src=""images/schematic_sequence/restaurant_scheme/restaurant_scheme_1.png"" class=""exp-image"">
                    <div class=""question-area"">
                        <p style=""font-size: 20px; font-weight: bold; margin: 0;"">Is there a person in this image?</p>
                    </div>
                </div>","0","main_experiment_trial","1","restaurant_scheme","schematic_sequence","chronological","","","","","","",""
"","","","","","html-keyboard-response","124","380884","0.0-124.0","669BECBF431D4E4D9DFDCCD88305D875","019cfc43-c545-7782-9731-9bf33dfe0593","019cfc28-2143-7934-89cc-ce6402563331","","null","
                <div class=""stimulus-container"">
                    <img src=""images/schematic_sequence/restaurant_scheme/restaurant_scheme_2.png"" class=""exp-image"">
                    <div class=""question-area""></div> 
                </div>","null","","","","","","","","","","","",""
"","","","","","html-button-response","125","381395","0.0-125.0","669BECBF431D4E4D9DFDCCD88305D875","019cfc43-c545-7782-9731-9bf33dfe0593","019cfc28-2143-7934-89cc-ce6402563331","","511","
                <div class=""stimulus-container"">
                    <img src=""images/schematic_sequence/restaurant_scheme/restaurant_scheme_2.png"" class=""exp-image"">
                    <div class=""question-area"">
                        <p style=""font-size: 20px; font-weight: bold; margin: 0;"">Is there a person in this image?</p>
                    </div>
                </div>","1","main_experiment_trial","2","restaurant_scheme","schematic_sequence","chronological","","","","","","",""
"","","","","","html-keyboard-response","126","386404","0.0-126.0","669BECBF431D4E4D9DFDCCD88305D875","019cfc43-c545-7782-9731-9bf33dfe0593","019cfc28-2143-7934-89cc-ce6402563331","","null","
                <div class=""stimulus-container"">
                    <img src=""images/schematic_sequence/restaurant_scheme/restaurant_scheme_3.png"" class=""exp-image"">
                    <div class=""question-area""></div> 
                </div>","null","","","","","","","","","","","",""
"","","","","","html-button-response","127","386890","0.0-127.0","669BECBF431D4E4D9DFDCCD88305D875","019cfc43-c545-7782-9731-9bf33dfe0593","019cfc28-2143-7934-89cc-ce6402563331","","486","
                <div class=""stimulus-container"">
                    <img src=""images/schematic_sequence/restaurant_scheme/restaurant_scheme_3.png"" class=""exp-image"">
                    <div class=""question-area"">
                        <p style=""font-size: 20px; font-weight: bold; margin: 0;"">Is there a person in this image?</p>
                    </div>
                </div>","1","main_experiment_trial","3","restaurant_scheme","schematic_sequence","chronological","","","","","","",""
"","","","","","html-keyboard-response","128","391898","0.0-128.0","669BECBF431D4E4D9DFDCCD88305D875","019cfc43-c545-7782-9731-9bf33dfe0593","019cfc28-2143-7934-89cc-ce6402563331","","null","
                <div class=""stimulus-container"">
                    <img src=""images/schematic_sequence/restaurant_scheme/restaurant_scheme_4.png"" class=""exp-image"">
                    <div class=""question-area""></div> 
                </div>","null","","","","","","","","","","","",""
"","","","","","html-button-response","129","392634","0.0-129.0","669BECBF431D4E4D9DFDCCD88305D875","019cfc43-c545-7782-9731-9bf33dfe0593","019cfc28-2143-7934-89cc-ce6402563331","","735","
                <div class=""stimulus-container"">
                    <img src=""images/schematic_sequence/restaurant_scheme/restaurant_scheme_4.png"" class=""exp-image"">
                    <div class=""question-area"">
                        <p style=""font-size: 20px; font-weight: bold; margin: 0;"">Is there a person in this image?</p>
                    </div>
                </div>","0","main_experiment_trial","4","restaurant_scheme","schematic_sequence","chronological","","","","","","",""
"","","","","","html-keyboard-response","130","397648","0.0-130.0","669BECBF431D4E4D9DFDCCD88305D875","019cfc43-c545-7782-9731-9bf33dfe0593","019cfc28-2143-7934-89cc-ce6402563331","","null","
                <div class=""stimulus-container"">
                    <img src=""images/schematic_sequence/restaurant_scheme/restaurant_scheme_5.png"" class=""exp-image"">
                    <div class=""question-area""></div> 
                </div>","null","","","","","","","","","","","",""
"","","","","","html-button-response","131","398011","0.0-131.0","669BECBF431D4E4D9DFDCCD88305D875","019cfc43-c545-7782-9731-9bf33dfe0593","019cfc28-2143-7934-89cc-ce6402563331","","362","
                <div class=""stimulus-container"">
                    <img src=""images/schematic_sequence/restaurant_scheme/restaurant_scheme_5.png"" class=""exp-image"">
                    <div class=""question-area"">
                        <p style=""font-size: 20px; font-weight: bold; margin: 0;"">Is there a person in this image?</p>
                    </div>
                </div>","0","main_experiment_trial","5","restaurant_scheme","schematic_sequence","chronological","","","","","","",""
"","","","","","html-keyboard-response","132","403021","0.0-132.0","669BECBF431D4E4D9DFDCCD88305D875","019cfc43-c545-7782-9731-9bf33dfe0593","019cfc28-2143-7934-89cc-ce6402563331","","null","
                <div class=""stimulus-container"">
                    <img src=""images/schematic_sequence/restaurant_scheme/restaurant_scheme_6.png"" class=""exp-image"">
                    <div class=""question-area""></div> 
                </div>","null","","","","","","","","","","","",""
"","","","","","html-button-response","133","403442","0.0-133.0","669BECBF431D4E4D9DFDCCD88305D875","019cfc43-c545-7782-9731-9bf33dfe0593","019cfc28-2143-7934-89cc-ce6402563331","","421","
                <div class=""stimulus-container"">
                    <img src=""images/schematic_sequence/restaurant_scheme/restaurant_scheme_6.png"" class=""exp-image"">
                    <div class=""question-area"">
                        <p style=""font-size: 20px; font-weight: bold; margin: 0;"">Is there a person in this image?</p>
                    </div>
                </div>","1","main_experiment_trial","6","restaurant_scheme","schematic_sequence","chronological","","","","","","",""
"","","","","","html-keyboard-response","134","408453","0.0-134.0","669BECBF431D4E4D9DFDCCD88305D875","019cfc43-c545-7782-9731-9bf33dfe0593","019cfc28-2143-7934-89cc-ce6402563331","","null","
                <div class=""stimulus-container"">
                    <img src=""images/schematic_sequence/restaurant_scheme/restaurant_scheme_7.png"" class=""exp-image"">
                    <div class=""question-area""></div> 
                </div>","null","","","","","","","","","","","",""
"","","","","","html-button-response","135","408818","0.0-135.0","669BECBF431D4E4D9DFDCCD88305D875","019cfc43-c545-7782-9731-9bf33dfe0593","019cfc28-2143-7934-89cc-ce6402563331","","365","
                <div class=""stimulus-container"">
                    <img src=""images/schematic_sequence/restaurant_scheme/restaurant_scheme_7.png"" class=""exp-image"">
                    <div class=""question-area"">
                        <p style=""font-size: 20px; font-weight: bold; margin: 0;"">Is there a person in this image?</p>
                    </div>
                </div>","1","main_experiment_trial","7","restaurant_scheme","schematic_sequence","chronological","","","","","","",""
"","","","","","html-keyboard-response","136","413827","0.0-136.0","669BECBF431D4E4D9DFDCCD88305D875","019cfc43-c545-7782-9731-9bf33dfe0593","019cfc28-2143-7934-89cc-ce6402563331","","null","
                <div class=""stimulus-container"">
                    <img src=""images/schematic_sequence/restaurant_scheme/restaurant_scheme_8.png"" class=""exp-image"">
                    <div class=""question-area""></div> 
                </div>","null","","","","","","","","","","","",""
"","","","","","html-button-response","137","414138","0.0-137.0","669BECBF431D4E4D9DFDCCD88305D875","019cfc43-c545-7782-9731-9bf33dfe0593","019cfc28-2143-7934-89cc-ce6402563331","","311","
                <div class=""stimulus-container"">
                    <img src=""images/schematic_sequence/restaurant_scheme/restaurant_scheme_8.png"" class=""exp-image"">
                    <div class=""question-area"">
                        <p style=""font-size: 20px; font-weight: bold; margin: 0;"">Is there a person in this image?</p>
                    </div>
                </div>","1","main_experiment_trial","8","restaurant_scheme","schematic_sequence","chronological","","","","","","",""
"","","","","","html-keyboard-response","138","419147","0.0-138.0","669BECBF431D4E4D9DFDCCD88305D875","019cfc43-c545-7782-9731-9bf33dfe0593","019cfc28-2143-7934-89cc-ce6402563331","","null","
                <div class=""stimulus-container"">
                    <img src=""images/schematic_sequence/restaurant_scheme/restaurant_scheme_9.png"" class=""exp-image"">
                    <div class=""question-area""></div> 
                </div>","null","","","","","","","","","","","",""
"","","","","","html-button-response","139","420051","0.0-139.0","669BECBF431D4E4D9DFDCCD88305D875","019cfc43-c545-7782-9731-9bf33dfe0593","019cfc28-2143-7934-89cc-ce6402563331","","903","
                <div class=""stimulus-container"">
                    <img src=""images/schematic_sequence/restaurant_scheme/restaurant_scheme_9.png"" class=""exp-image"">
                    <div class=""question-area"">
                        <p style=""font-size: 20px; font-weight: bold; margin: 0;"">Is there a person in this image?</p>
                    </div>
                </div>","0","main_experiment_trial","9","restaurant_scheme","schematic_sequence","chronological","","","","","","",""
"","","","","","html-keyboard-response","140","425624","0.0-140.0","669BECBF431D4E4D9DFDCCD88305D875","019cfc43-c545-7782-9731-9bf33dfe0593","019cfc28-2143-7934-89cc-ce6402563331","","null","
                <div class=""stimulus-container"">
                    <img src=""images/schematic_sequence/restaurant_scheme/restaurant_scheme_ten.png"" class=""exp-image"">
                    <div class=""question-area""></div> 
                </div>","null","","","","","","","","","","","",""
"","","","","","html-button-response","141","429622","0.0-141.0","669BECBF431D4E4D9DFDCCD88305D875","019cfc43-c545-7782-9731-9bf33dfe0593","019cfc28-2143-7934-89cc-ce6402563331","","null","
                <div class=""stimulus-container"">
                    <img src=""images/schematic_sequence/restaurant_scheme/restaurant_scheme_ten.png"" class=""exp-image"">
                    <div class=""question-area"">
                        <p style=""font-size: 20px; font-weight: bold; margin: 0;"">Is there a person in this image?</p>
                    </div>
                </div>","null","main_experiment_trial","ten","restaurant_scheme","schematic_sequence","chronological","","","","","","",""
"","","","","","html-keyboard-response","142","435623","0.0-142.0","669BECBF431D4E4D9DFDCCD88305D875","019cfc43-c545-7782-9731-9bf33dfe0593","019cfc28-2143-7934-89cc-ce6402563331","","null","<div style=""background-color: white; width: 100vw; height: 100vh;""></div>","null","","","","","","","","","","","",""
"","","","","","html-keyboard-response","143","441622","0.0-143.0","669BECBF431D4E4D9DFDCCD88305D875","019cfc43-c545-7782-9731-9bf33dfe0593","019cfc28-2143-7934-89cc-ce6402563331","","null","
                <div class=""stimulus-container"">
                    <img src=""images/semantic_sequence/exploring_nature_semantic/exploring_nature_semantic_1.png"" class=""exp-image"">
                    <div class=""question-area""></div> 
                </div>","null","","","","","","","","","","","",""
"","","","","","html-button-response","144","445626","0.0-144.0","669BECBF431D4E4D9DFDCCD88305D875","019cfc43-c545-7782-9731-9bf33dfe0593","019cfc28-2143-7934-89cc-ce6402563331","","null","
                <div class=""stimulus-container"">
                    <img src=""images/semantic_sequence/exploring_nature_semantic/exploring_nature_semantic_1.png"" class=""exp-image"">
                    <div class=""question-area"">
                        <p style=""font-size: 20px; font-weight: bold; margin: 0;"">Is there a person in this image?</p>
                    </div>
                </div>","null","main_experiment_trial","1","exploring_nature_semantic","semantic_sequence","chronological","","","","","","",""
"","","","","","html-keyboard-response","145","451619","0.0-145.0","669BECBF431D4E4D9DFDCCD88305D875","019cfc43-c545-7782-9731-9bf33dfe0593","019cfc28-2143-7934-89cc-ce6402563331","","null","
                <div class=""stimulus-container"">
                    <img src=""images/semantic_sequence/exploring_nature_semantic/exploring_nature_semantic_2.png"" class=""exp-image"">
                    <div class=""question-area""></div> 
                </div>","null","","","","","","","","","","","",""
"","","","","","html-button-response","146","455622","0.0-146.0","669BECBF431D4E4D9DFDCCD88305D875","019cfc43-c545-7782-9731-9bf33dfe0593","019cfc28-2143-7934-89cc-ce6402563331","","null","
                <div class=""stimulus-container"">
                    <img src=""images/semantic_sequence/exploring_nature_semantic/exploring_nature_semantic_2.png"" class=""exp-image"">
                    <div class=""question-area"">
                        <p style=""font-size: 20px; font-weight: bold; margin: 0;"">Is there a person in this image?</p>
                    </div>
                </div>","null","main_experiment_trial","2","exploring_nature_semantic","semantic_sequence","chronological","","","","","","",""
"","","","","","html-keyboard-response","147","461623","0.0-147.0","669BECBF431D4E4D9DFDCCD88305D875","019cfc43-c545-7782-9731-9bf33dfe0593","019cfc28-2143-7934-89cc-ce6402563331","","null","
                <div class=""stimulus-container"">
                    <img src=""images/semantic_sequence/exploring_nature_semantic/exploring_nature_semantic_3.png"" class=""exp-image"">
                    <div class=""question-area""></div> 
                </div>","null","","","","","","","","","","","",""
"","","","","","html-button-response","148","465622","0.0-148.0","669BECBF431D4E4D9DFDCCD88305D875","019cfc43-c545-7782-9731-9bf33dfe0593","019cfc28-2143-7934-89cc-ce6402563331","","null","
                <div class=""stimulus-container"">
                    <img src=""images/semantic_sequence/exploring_nature_semantic/exploring_nature_semantic_3.png"" class=""exp-image"">
                    <div class=""question-area"">
                        <p style=""font-size: 20px; font-weight: bold; margin: 0;"">Is there a person in this image?</p>
                    </div>
                </div>","null","main_experiment_trial","3","exploring_nature_semantic","semantic_sequence","chronological","","","","","","",""
"","","","","","html-keyboard-response","149","471623","0.0-149.0","669BECBF431D4E4D9DFDCCD88305D875","019cfc43-c545-7782-9731-9bf33dfe0593","019cfc28-2143-7934-89cc-ce6402563331","","null","
                <div class=""stimulus-container"">
                    <img src=""images/semantic_sequence/exploring_nature_semantic/exploring_nature_semantic_4.png"" class=""exp-image"">
                    <div class=""question-area""></div> 
                </div>","null","","","","","","","","","","","",""
"","","","","","html-button-response","150","475622","0.0-150.0","669BECBF431D4E4D9DFDCCD88305D875","019cfc43-c545-7782-9731-9bf33dfe0593","019cfc28-2143-7934-89cc-ce6402563331","","null","
                <div class=""stimulus-container"">
                    <img src=""images/semantic_sequence/exploring_nature_semantic/exploring_nature_semantic_4.png"" class=""exp-image"">
                    <div class=""question-area"">
                        <p style=""font-size: 20px; font-weight: bold; margin: 0;"">Is there a person in this image?</p>
                    </div>
                </div>","null","main_experiment_trial","4","exploring_nature_semantic","semantic_sequence","chronological","","","","","","",""
"","","","","","html-keyboard-response","151","492624","0.0-151.0","669BECBF431D4E4D9DFDCCD88305D875","019cfc43-c545-7782-9731-9bf33dfe0593","019cfc28-2143-7934-89cc-ce6402563331","","null","
                <div class=""stimulus-container"">
                    <img src=""images/semantic_sequence/exploring_nature_semantic/exploring_nature_semantic_5.png"" class=""exp-image"">
                    <div class=""question-area""></div> 
                </div>","null","","","","","","","","","","","",""
"","","","","","html-button-response","152","552624","0.0-152.0","669BECBF431D4E4D9DFDCCD88305D875","019cfc43-c545-7782-9731-9bf33dfe0593","019cfc28-2143-7934-89cc-ce6402563331","","null","
                <div class=""stimulus-container"">
                    <img src=""images/semantic_sequence/exploring_nature_semantic/exploring_nature_semantic_5.png"" class=""exp-image"">
                    <div class=""question-area"">
                        <p style=""font-size: 20px; font-weight: bold; margin: 0;"">Is there a person in this image?</p>
                    </div>
                </div>","null","main_experiment_trial","5","exploring_nature_semantic","semantic_sequence","chronological","","","","","","",""
"","","","","","html-keyboard-response","153","612619","0.0-153.0","669BECBF431D4E4D9DFDCCD88305D875","019cfc43-c545-7782-9731-9bf33dfe0593","019cfc28-2143-7934-89cc-ce6402563331","","null","
                <div class=""stimulus-container"">
                    <img src=""images/semantic_sequence/exploring_nature_semantic/exploring_nature_semantic_6.png"" class=""exp-image"">
                    <div class=""question-area""></div> 
                </div>","null","","","","","","","","","","","",""
"","","","","","html-button-response","154","672625","0.0-154.0","669BECBF431D4E4D9DFDCCD88305D875","019cfc43-c545-7782-9731-9bf33dfe0593","019cfc28-2143-7934-89cc-ce6402563331","","null","
                <div class=""stimulus-container"">
                    <img src=""images/semantic_sequence/exploring_nature_semantic/exploring_nature_semantic_6.png"" class=""exp-image"">
                    <div class=""question-area"">
                        <p style=""font-size: 20px; font-weight: bold; margin: 0;"">Is there a person in this image?</p>
                    </div>
                </div>","null","main_experiment_trial","6","exploring_nature_semantic","semantic_sequence","chronological","","","","","","",""
"","","","","","html-keyboard-response","155","732627","0.0-155.0","669BECBF431D4E4D9DFDCCD88305D875","019cfc43-c545-7782-9731-9bf33dfe0593","019cfc28-2143-7934-89cc-ce6402563331","","null","
                <div class=""stimulus-container"">
                    <img src=""images/semantic_sequence/exploring_nature_semantic/exploring_nature_semantic_7.png"" class=""exp-image"">
                    <div class=""question-area""></div> 
                </div>","null","","","","","","","","","","","",""
"","","","","","html-button-response","156","792625","0.0-156.0","669BECBF431D4E4D9DFDCCD88305D875","019cfc43-c545-7782-9731-9bf33dfe0593","019cfc28-2143-7934-89cc-ce6402563331","","null","
                <div class=""stimulus-container"">
                    <img src=""images/semantic_sequence/exploring_nature_semantic/exploring_nature_semantic_7.png"" class=""exp-image"">
                    <div class=""question-area"">
                        <p style=""font-size: 20px; font-weight: bold; margin: 0;"">Is there a person in this image?</p>
                    </div>
                </div>","null","main_experiment_trial","7","exploring_nature_semantic","semantic_sequence","chronological","","","","","","",""
"","","","","","html-keyboard-response","157","852626","0.0-157.0","669BECBF431D4E4D9DFDCCD88305D875","019cfc43-c545-7782-9731-9bf33dfe0593","019cfc28-2143-7934-89cc-ce6402563331","","null","
                <div class=""stimulus-container"">
                    <img src=""images/semantic_sequence/exploring_nature_semantic/exploring_nature_semantic_8.png"" class=""exp-image"">
                    <div class=""question-area""></div> 
                </div>","null","","","","","","","","","","","",""
"","","","","","html-button-response","158","912626","0.0-158.0","669BECBF431D4E4D9DFDCCD88305D875","019cfc43-c545-7782-9731-9bf33dfe0593","019cfc28-2143-7934-89cc-ce6402563331","","null","
                <div class=""stimulus-container"">
                    <img src=""images/semantic_sequence/exploring_nature_semantic/exploring_nature_semantic_8.png"" class=""exp-image"">
                    <div class=""question-area"">
                        <p style=""font-size: 20px; font-weight: bold; margin: 0;"">Is there a person in this image?</p>
                    </div>
                </div>","null","main_experiment_trial","8","exploring_nature_semantic","semantic_sequence","chronological","","","","","","",""
"","","","","","html-keyboard-response","159","972628","0.0-159.0","669BECBF431D4E4D9DFDCCD88305D875","019cfc43-c545-7782-9731-9bf33dfe0593","019cfc28-2143-7934-89cc-ce6402563331","","null","
                <div class=""stimulus-container"">
                    <img src=""images/semantic_sequence/exploring_nature_semantic/exploring_nature_semantic_9.png"" class=""exp-image"">
                    <div class=""question-area""></div> 
                </div>","null","","","","","","","","","","","",""
"","","","","","html-button-response","160","994299","0.0-160.0","669BECBF431D4E4D9DFDCCD88305D875","019cfc43-c545-7782-9731-9bf33dfe0593","019cfc28-2143-7934-89cc-ce6402563331","","null","
                <div class=""stimulus-container"">
                    <img src=""images/semantic_sequence/exploring_nature_semantic/exploring_nature_semantic_9.png"" class=""exp-image"">
                    <div class=""question-area"">
                        <p style=""font-size: 20px; font-weight: bold; margin: 0;"">Is there a person in this image?</p>
                    </div>
                </div>","null","main_experiment_trial","9","exploring_nature_semantic","semantic_sequence","chronological","","","","","","",""
"","","","","","html-keyboard-response","161","999314","0.0-161.0","669BECBF431D4E4D9DFDCCD88305D875","019cfc43-c545-7782-9731-9bf33dfe0593","019cfc28-2143-7934-89cc-ce6402563331","","null","
                <div class=""stimulus-container"">
                    <img src=""images/semantic_sequence/exploring_nature_semantic/exploring_nature_semantic_ten.png"" class=""exp-image"">
                    <div class=""question-area""></div> 
                </div>","null","","","","","","","","","","","",""
"","","","","","html-button-response","162","1000348","0.0-162.0","669BECBF431D4E4D9DFDCCD88305D875","019cfc43-c545-7782-9731-9bf33dfe0593","019cfc28-2143-7934-89cc-ce6402563331","","1034","
                <div class=""stimulus-container"">
                    <img src=""images/semantic_sequence/exploring_nature_semantic/exploring_nature_semantic_ten.png"" class=""exp-image"">
                    <div class=""question-area"">
                        <p style=""font-size: 20px; font-weight: bold; margin: 0;"">Is there a person in this image?</p>
                    </div>
                </div>","0","main_experiment_trial","ten","exploring_nature_semantic","semantic_sequence","chronological","","","","","","",""
"","","","","","html-keyboard-response","163","1005618","0.0-163.0","669BECBF431D4E4D9DFDCCD88305D875","019cfc43-c545-7782-9731-9bf33dfe0593","019cfc28-2143-7934-89cc-ce6402563331","","null","<div style=""background-color: white; width: 100vw; height: 100vh;""></div>","null","","","","","","","","","","","",""
"","","","","","html-keyboard-response","164","1011621","0.0-164.0","669BECBF431D4E4D9DFDCCD88305D875","019cfc43-c545-7782-9731-9bf33dfe0593","019cfc28-2143-7934-89cc-ce6402563331","","null","
                <div class=""stimulus-container"">
                    <img src=""images/schematic_sequence/flight_scheme/flight_scheme_1.png"" class=""exp-image"">
                    <div class=""question-area""></div> 
                </div>","null","","","","","","","","","","","",""
"","","","","","html-button-response","165","1015625","0.0-165.0","669BECBF431D4E4D9DFDCCD88305D875","019cfc43-c545-7782-9731-9bf33dfe0593","019cfc28-2143-7934-89cc-ce6402563331","","null","
                <div class=""stimulus-container"">
                    <img src=""images/schematic_sequence/flight_scheme/flight_scheme_1.png"" class=""exp-image"">
                    <div class=""question-area"">
                        <p style=""font-size: 20px; font-weight: bold; margin: 0;"">Is there a person in this image?</p>
                    </div>
                </div>","null","main_experiment_trial","1","flight_scheme","schematic_sequence","chronological","","","","","","",""
"","","","","","html-keyboard-response","166","1021621","0.0-166.0","669BECBF431D4E4D9DFDCCD88305D875","019cfc43-c545-7782-9731-9bf33dfe0593","019cfc28-2143-7934-89cc-ce6402563331","","null","
                <div class=""stimulus-container"">
                    <img src=""images/schematic_sequence/flight_scheme/flight_scheme_2.png"" class=""exp-image"">
                    <div class=""question-area""></div> 
                </div>","null","","","","","","","","","","","",""
"","","","","","html-button-response","167","1024623","0.0-167.0","669BECBF431D4E4D9DFDCCD88305D875","019cfc43-c545-7782-9731-9bf33dfe0593","019cfc28-2143-7934-89cc-ce6402563331","","null","
                <div class=""stimulus-container"">
                    <img src=""images/schematic_sequence/flight_scheme/flight_scheme_2.png"" class=""exp-image"">
                    <div class=""question-area"">
                        <p style=""font-size: 20px; font-weight: bold; margin: 0;"">Is there a person in this image?</p>
                    </div>
                </div>","null","main_experiment_trial","2","flight_scheme","schematic_sequence","chronological","","","","","","",""
"","","","","","html-keyboard-response","168","1029629","0.0-168.0","669BECBF431D4E4D9DFDCCD88305D875","019cfc43-c545-7782-9731-9bf33dfe0593","019cfc28-2143-7934-89cc-ce6402563331","","null","
                <div class=""stimulus-container"">
                    <img src=""images/schematic_sequence/flight_scheme/flight_scheme_3.png"" class=""exp-image"">
                    <div class=""question-area""></div> 
                </div>","null","","","","","","","","","","","",""
"","","","","","html-button-response","169","1030213","0.0-169.0","669BECBF431D4E4D9DFDCCD88305D875","019cfc43-c545-7782-9731-9bf33dfe0593","019cfc28-2143-7934-89cc-ce6402563331","","583","
                <div class=""stimulus-container"">
                    <img src=""images/schematic_sequence/flight_scheme/flight_scheme_3.png"" class=""exp-image"">
                    <div class=""question-area"">
                        <p style=""font-size: 20px; font-weight: bold; margin: 0;"">Is there a person in this image?</p>
                    </div>
                </div>","0","main_experiment_trial","3","flight_scheme","schematic_sequence","chronological","","","","","","",""
"","","","","","html-keyboard-response","170","1035222","0.0-170.0","669BECBF431D4E4D9DFDCCD88305D875","019cfc43-c545-7782-9731-9bf33dfe0593","019cfc28-2143-7934-89cc-ce6402563331","","null","
                <div class=""stimulus-container"">
                    <img src=""images/schematic_sequence/flight_scheme/flight_scheme_4.png"" class=""exp-image"">
                    <div class=""question-area""></div> 
                </div>","null","","","","","","","","","","","",""
"","","","","","html-button-response","171","1035621","0.0-171.0","669BECBF431D4E4D9DFDCCD88305D875","019cfc43-c545-7782-9731-9bf33dfe0593","019cfc28-2143-7934-89cc-ce6402563331","","399","
                <div class=""stimulus-container"">
                    <img src=""images/schematic_sequence/flight_scheme/flight_scheme_4.png"" class=""exp-image"">
                    <div class=""question-area"">
                        <p style=""font-size: 20px; font-weight: bold; margin: 0;"">Is there a person in this image?</p>
                    </div>
                </div>","0","main_experiment_trial","4","flight_scheme","schematic_sequence","chronological","","","","","","",""
"","","","","","html-keyboard-response","172","1040624","0.0-172.0","669BECBF431D4E4D9DFDCCD88305D875","019cfc43-c545-7782-9731-9bf33dfe0593","019cfc28-2143-7934-89cc-ce6402563331","","null","
                <div class=""stimulus-container"">
                    <img src=""images/schematic_sequence/flight_scheme/flight_scheme_5.png"" class=""exp-image"">
                    <div class=""question-area""></div> 
                </div>","null","","","","","","","","","","","",""
"","","","","","html-button-response","173","1041077","0.0-173.0","669BECBF431D4E4D9DFDCCD88305D875","019cfc43-c545-7782-9731-9bf33dfe0593","019cfc28-2143-7934-89cc-ce6402563331","","453","
                <div class=""stimulus-container"">
                    <img src=""images/schematic_sequence/flight_scheme/flight_scheme_5.png"" class=""exp-image"">
                    <div class=""question-area"">
                        <p style=""font-size: 20px; font-weight: bold; margin: 0;"">Is there a person in this image?</p>
                    </div>
                </div>","0","main_experiment_trial","5","flight_scheme","schematic_sequence","chronological","","","","","","",""
"","","","","","html-keyboard-response","174","1046082","0.0-174.0","669BECBF431D4E4D9DFDCCD88305D875","019cfc43-c545-7782-9731-9bf33dfe0593","019cfc28-2143-7934-89cc-ce6402563331","","null","
                <div class=""stimulus-container"">
                    <img src=""images/schematic_sequence/flight_scheme/flight_scheme_6.png"" class=""exp-image"">
