"success","timeout","failed_images","failed_audio","failed_video","trial_type","trial_index","time_elapsed","internal_node_id","subject_id","study_id","session_id","view_history","rt","stimulus","response","task","image_index","folder","sequence_type","presentation_order","valuable_image_index","reward_type","distance_from_x","target_X","chosen_image_index","is_x_plus_dist","correct_choice"
"true","false","[]","[]","[]","preload","0","8300","0.0-0.0","6972F22F718946CC8DBB689A45FAC7E5","019cfc8f-e8ff-72c2-b3dc-cdae91d69dd8","019cfc7b-6c7b-7b1b-afe7-acad8efc6711","","","","","","","","","","","","","","","",""
"","","","","","instructions","1","25734","0.0-1.0","6972F22F718946CC8DBB689A45FAC7E5","019cfc8f-e8ff-72c2-b3dc-cdae91d69dd8","019cfc7b-6c7b-7b1b-afe7-acad8efc6711","[{""page_index"":0,""viewing_time"":17433}]","17433","","","","","","","","","","","","","",""
"","","","","","instructions","2","27922","0.0-2.0","6972F22F718946CC8DBB689A45FAC7E5","019cfc8f-e8ff-72c2-b3dc-cdae91d69dd8","019cfc7b-6c7b-7b1b-afe7-acad8efc6711","[{""page_index"":0,""viewing_time"":2188}]","2188","","","","","","","","","","","","","",""
"true","","","","","fullscreen","3","34937","0.0-3.0","6972F22F718946CC8DBB689A45FAC7E5","019cfc8f-e8ff-72c2-b3dc-cdae91d69dd8","019cfc7b-6c7b-7b1b-afe7-acad8efc6711","","5965","","","","","","","","","","","","","",""
"","","","","","instructions","4","36218","0.0-4.0","6972F22F718946CC8DBB689A45FAC7E5","019cfc8f-e8ff-72c2-b3dc-cdae91d69dd8","019cfc7b-6c7b-7b1b-afe7-acad8efc6711","[{""page_index"":0,""viewing_time"":1280}]","1281","","","","","","","","","","","","","",""
"","","","","","instructions","5","38212","0.0-5.0","6972F22F718946CC8DBB689A45FAC7E5","019cfc8f-e8ff-72c2-b3dc-cdae91d69dd8","019cfc7b-6c7b-7b1b-afe7-acad8efc6711","[{""page_index"":0,""viewing_time"":1993}]","1993","","","","","","","","","","","","","",""
"","","","","","html-keyboard-response","6","42220","0.0-6.0","6972F22F718946CC8DBB689A45FAC7E5","019cfc8f-e8ff-72c2-b3dc-cdae91d69dd8","019cfc7b-6c7b-7b1b-afe7-acad8efc6711","","null","
                <div class=""stimulus-container"">
                    <img src=""images/instructions/movie_1.png"" class=""exp-image"">
                    <div class=""question-area""></div> 
                </div>","null","","","","","","","","","","","",""
"","","","","","html-button-response","7","44178","0.0-7.0","6972F22F718946CC8DBB689A45FAC7E5","019cfc8f-e8ff-72c2-b3dc-cdae91d69dd8","019cfc7b-6c7b-7b1b-afe7-acad8efc6711","","1957","
                <div class=""stimulus-container"">
                    <img src=""images/instructions/movie_1.png"" class=""exp-image"">
                    <div class=""question-area"">
                        <p style=""font-size: 20px; font-weight: bold; margin: 0;"">Was there a person in this image?</p>
                    </div>
                </div>","0","example_question","1","","","","","","","","","",""
"","","","","","html-keyboard-response","8","48183","0.0-8.0","6972F22F718946CC8DBB689A45FAC7E5","019cfc8f-e8ff-72c2-b3dc-cdae91d69dd8","019cfc7b-6c7b-7b1b-afe7-acad8efc6711","","null","
                <div class=""stimulus-container"">
                    <img src=""images/instructions/movie_2.png"" class=""exp-image"">
                    <div class=""question-area""></div> 
                </div>","null","","","","","","","","","","","",""
"","","","","","html-button-response","9","50986","0.0-9.0","6972F22F718946CC8DBB689A45FAC7E5","019cfc8f-e8ff-72c2-b3dc-cdae91d69dd8","019cfc7b-6c7b-7b1b-afe7-acad8efc6711","","2803","
                <div class=""stimulus-container"">
                    <img src=""images/instructions/movie_2.png"" class=""exp-image"">
                    <div class=""question-area"">
                        <p style=""font-size: 20px; font-weight: bold; margin: 0;"">Was there a person in this image?</p>
                    </div>
                </div>","0","example_question","2","","","","","","","","","",""
"","","","","","html-keyboard-response","10","55001","0.0-10.0","6972F22F718946CC8DBB689A45FAC7E5","019cfc8f-e8ff-72c2-b3dc-cdae91d69dd8","019cfc7b-6c7b-7b1b-afe7-acad8efc6711","","null","
                <div class=""stimulus-container"">
                    <img src=""images/instructions/movie_3.png"" class=""exp-image"">
                    <div class=""question-area""></div> 
                </div>","null","","","","","","","","","","","",""
"","","","","","html-button-response","11","57783","0.0-11.0","6972F22F718946CC8DBB689A45FAC7E5","019cfc8f-e8ff-72c2-b3dc-cdae91d69dd8","019cfc7b-6c7b-7b1b-afe7-acad8efc6711","","2781","
                <div class=""stimulus-container"">
                    <img src=""images/instructions/movie_3.png"" class=""exp-image"">
                    <div class=""question-area"">
                        <p style=""font-size: 20px; font-weight: bold; margin: 0;"">Was there a person in this image?</p>
                    </div>
                </div>","0","example_question","3","","","","","","","","","",""
"","","","","","html-keyboard-response","12","61786","0.0-12.0","6972F22F718946CC8DBB689A45FAC7E5","019cfc8f-e8ff-72c2-b3dc-cdae91d69dd8","019cfc7b-6c7b-7b1b-afe7-acad8efc6711","","null","
                <div class=""stimulus-container"">
                    <img src=""images/instructions/movie_4.png"" class=""exp-image"">
                    <div class=""question-area""></div> 
                </div>","null","","","","","","","","","","","",""
"","","","","","html-button-response","13","64790","0.0-13.0","6972F22F718946CC8DBB689A45FAC7E5","019cfc8f-e8ff-72c2-b3dc-cdae91d69dd8","019cfc7b-6c7b-7b1b-afe7-acad8efc6711","","null","
                <div class=""stimulus-container"">
                    <img src=""images/instructions/movie_4.png"" class=""exp-image"">
                    <div class=""question-area"">
                        <p style=""font-size: 20px; font-weight: bold; margin: 0;"">Was there a person in this image?</p>
                    </div>
                </div>","null","example_question","4","","","","","","","","","",""
"","","","","","instructions","14","67848","0.0-14.0","6972F22F718946CC8DBB689A45FAC7E5","019cfc8f-e8ff-72c2-b3dc-cdae91d69dd8","019cfc7b-6c7b-7b1b-afe7-acad8efc6711","[{""page_index"":0,""viewing_time"":3057}]","3058","","","","","","","","","","","","","",""
"","","","","","instructions","15","69800","0.0-15.0","6972F22F718946CC8DBB689A45FAC7E5","019cfc8f-e8ff-72c2-b3dc-cdae91d69dd8","019cfc7b-6c7b-7b1b-afe7-acad8efc6711","[{""page_index"":0,""viewing_time"":1951}]","1952","","","","","","","","","","","","","",""
"","","","","","html-keyboard-response","16","74806","0.0-16.0","6972F22F718946CC8DBB689A45FAC7E5","019cfc8f-e8ff-72c2-b3dc-cdae91d69dd8","019cfc7b-6c7b-7b1b-afe7-acad8efc6711","","null","<div style=""background-color: white; width: 100vw; height: 100vh;""></div>","null","","","","","","","","","","","",""
"","","","","","html-keyboard-response","17","79813","0.0-17.0","6972F22F718946CC8DBB689A45FAC7E5","019cfc8f-e8ff-72c2-b3dc-cdae91d69dd8","019cfc7b-6c7b-7b1b-afe7-acad8efc6711","","null","
                <div class=""stimulus-container"">
                    <img src=""images/causal_sequence/the_performance_causal/the_performance_causal_1.png"" class=""exp-image"">
                    <div class=""question-area""></div> 
                </div>","null","","","","","","","","","","","",""
"","","","","","html-button-response","18","82626","0.0-18.0","6972F22F718946CC8DBB689A45FAC7E5","019cfc8f-e8ff-72c2-b3dc-cdae91d69dd8","019cfc7b-6c7b-7b1b-afe7-acad8efc6711","","2812","
                <div class=""stimulus-container"">
                    <img src=""images/causal_sequence/the_performance_causal/the_performance_causal_1.png"" class=""exp-image"">
                    <div class=""question-area"">
                        <p style=""font-size: 20px; font-weight: bold; margin: 0;"">Is there a person in this image?</p>
                    </div>
                </div>","0","main_experiment_trial","1","the_performance_causal","causal_sequence","chronological","","","","","","",""
"","","","","","html-keyboard-response","19","87632","0.0-19.0","6972F22F718946CC8DBB689A45FAC7E5","019cfc8f-e8ff-72c2-b3dc-cdae91d69dd8","019cfc7b-6c7b-7b1b-afe7-acad8efc6711","","null","
                <div class=""stimulus-container"">
                    <img src=""images/causal_sequence/the_performance_causal/the_performance_causal_2.png"" class=""exp-image"">
                    <div class=""question-area""></div> 
                </div>","null","","","","","","","","","","","",""
"","","","","","html-button-response","20","89355","0.0-20.0","6972F22F718946CC8DBB689A45FAC7E5","019cfc8f-e8ff-72c2-b3dc-cdae91d69dd8","019cfc7b-6c7b-7b1b-afe7-acad8efc6711","","1721","
                <div class=""stimulus-container"">
                    <img src=""images/causal_sequence/the_performance_causal/the_performance_causal_2.png"" class=""exp-image"">
                    <div class=""question-area"">
                        <p style=""font-size: 20px; font-weight: bold; margin: 0;"">Is there a person in this image?</p>
                    </div>
                </div>","0","main_experiment_trial","2","the_performance_causal","causal_sequence","chronological","","","","","","",""
"","","","","","html-keyboard-response","21","94366","0.0-21.0","6972F22F718946CC8DBB689A45FAC7E5","019cfc8f-e8ff-72c2-b3dc-cdae91d69dd8","019cfc7b-6c7b-7b1b-afe7-acad8efc6711","","null","
                <div class=""stimulus-container"">
                    <img src=""images/causal_sequence/the_performance_causal/the_performance_causal_3.png"" class=""exp-image"">
                    <div class=""question-area""></div> 
                </div>","null","","","","","","","","","","","",""
"","","","","","html-button-response","22","97378","0.0-22.0","6972F22F718946CC8DBB689A45FAC7E5","019cfc8f-e8ff-72c2-b3dc-cdae91d69dd8","019cfc7b-6c7b-7b1b-afe7-acad8efc6711","","null","
                <div class=""stimulus-container"">
                    <img src=""images/causal_sequence/the_performance_causal/the_performance_causal_3.png"" class=""exp-image"">
                    <div class=""question-area"">
                        <p style=""font-size: 20px; font-weight: bold; margin: 0;"">Is there a person in this image?</p>
                    </div>
                </div>","null","main_experiment_trial","3","the_performance_causal","causal_sequence","chronological","","","","","","",""
"","","","","","html-keyboard-response","23","102384","0.0-23.0","6972F22F718946CC8DBB689A45FAC7E5","019cfc8f-e8ff-72c2-b3dc-cdae91d69dd8","019cfc7b-6c7b-7b1b-afe7-acad8efc6711","","null","
                <div class=""stimulus-container"">
                    <img src=""images/causal_sequence/the_performance_causal/the_performance_causal_4.png"" class=""exp-image"">
                    <div class=""question-area""></div> 
                </div>","null","","","","","","","","","","","",""
"","","","","","html-button-response","24","104202","0.0-24.0","6972F22F718946CC8DBB689A45FAC7E5","019cfc8f-e8ff-72c2-b3dc-cdae91d69dd8","019cfc7b-6c7b-7b1b-afe7-acad8efc6711","","1817","
                <div class=""stimulus-container"">
                    <img src=""images/causal_sequence/the_performance_causal/the_performance_causal_4.png"" class=""exp-image"">
                    <div class=""question-area"">
                        <p style=""font-size: 20px; font-weight: bold; margin: 0;"">Is there a person in this image?</p>
                    </div>
                </div>","0","main_experiment_trial","4","the_performance_causal","causal_sequence","chronological","","","","","","",""
"","","","","","html-keyboard-response","25","109219","0.0-25.0","6972F22F718946CC8DBB689A45FAC7E5","019cfc8f-e8ff-72c2-b3dc-cdae91d69dd8","019cfc7b-6c7b-7b1b-afe7-acad8efc6711","","null","
                <div class=""stimulus-container"">
                    <img src=""images/causal_sequence/the_performance_causal/the_performance_causal_5.png"" class=""exp-image"">
                    <div class=""question-area""></div> 
                </div>","null","","","","","","","","","","","",""
"","","","","","html-button-response","26","110898","0.0-26.0","6972F22F718946CC8DBB689A45FAC7E5","019cfc8f-e8ff-72c2-b3dc-cdae91d69dd8","019cfc7b-6c7b-7b1b-afe7-acad8efc6711","","1679","
                <div class=""stimulus-container"">
                    <img src=""images/causal_sequence/the_performance_causal/the_performance_causal_5.png"" class=""exp-image"">
                    <div class=""question-area"">
                        <p style=""font-size: 20px; font-weight: bold; margin: 0;"">Is there a person in this image?</p>
                    </div>
                </div>","0","main_experiment_trial","5","the_performance_causal","causal_sequence","chronological","","","","","","",""
"","","","","","html-keyboard-response","27","115909","0.0-27.0","6972F22F718946CC8DBB689A45FAC7E5","019cfc8f-e8ff-72c2-b3dc-cdae91d69dd8","019cfc7b-6c7b-7b1b-afe7-acad8efc6711","","null","
                <div class=""stimulus-container"">
                    <img src=""images/causal_sequence/the_performance_causal/the_performance_causal_6.png"" class=""exp-image"">
                    <div class=""question-area""></div> 
                </div>","null","","","","","","","","","","","",""
"","","","","","html-button-response","28","118625","0.0-28.0","6972F22F718946CC8DBB689A45FAC7E5","019cfc8f-e8ff-72c2-b3dc-cdae91d69dd8","019cfc7b-6c7b-7b1b-afe7-acad8efc6711","","2716","
                <div class=""stimulus-container"">
                    <img src=""images/causal_sequence/the_performance_causal/the_performance_causal_6.png"" class=""exp-image"">
                    <div class=""question-area"">
                        <p style=""font-size: 20px; font-weight: bold; margin: 0;"">Is there a person in this image?</p>
                    </div>
                </div>","0","main_experiment_trial","6","the_performance_causal","causal_sequence","chronological","","","","","","",""
"","","","","","html-keyboard-response","29","123640","0.0-29.0","6972F22F718946CC8DBB689A45FAC7E5","019cfc8f-e8ff-72c2-b3dc-cdae91d69dd8","019cfc7b-6c7b-7b1b-afe7-acad8efc6711","","null","
                <div class=""stimulus-container"">
                    <img src=""images/causal_sequence/the_performance_causal/the_performance_causal_7.png"" class=""exp-image"">
                    <div class=""question-area""></div> 
                </div>","null","","","","","","","","","","","",""
"","","","","","html-button-response","30","124906","0.0-30.0","6972F22F718946CC8DBB689A45FAC7E5","019cfc8f-e8ff-72c2-b3dc-cdae91d69dd8","019cfc7b-6c7b-7b1b-afe7-acad8efc6711","","1265","
                <div class=""stimulus-container"">
                    <img src=""images/causal_sequence/the_performance_causal/the_performance_causal_7.png"" class=""exp-image"">
                    <div class=""question-area"">
                        <p style=""font-size: 20px; font-weight: bold; margin: 0;"">Is there a person in this image?</p>
                    </div>
                </div>","0","main_experiment_trial","7","the_performance_causal","causal_sequence","chronological","","","","","","",""
"","","","","","html-keyboard-response","31","129907","0.0-31.0","6972F22F718946CC8DBB689A45FAC7E5","019cfc8f-e8ff-72c2-b3dc-cdae91d69dd8","019cfc7b-6c7b-7b1b-afe7-acad8efc6711","","null","
                <div class=""stimulus-container"">
                    <img src=""images/causal_sequence/the_performance_causal/the_performance_causal_8.png"" class=""exp-image"">
                    <div class=""question-area""></div> 
                </div>","null","","","","","","","","","","","",""
"","","","","","html-button-response","32","132915","0.0-32.0","6972F22F718946CC8DBB689A45FAC7E5","019cfc8f-e8ff-72c2-b3dc-cdae91d69dd8","019cfc7b-6c7b-7b1b-afe7-acad8efc6711","","null","
                <div class=""stimulus-container"">
                    <img src=""images/causal_sequence/the_performance_causal/the_performance_causal_8.png"" class=""exp-image"">
                    <div class=""question-area"">
                        <p style=""font-size: 20px; font-weight: bold; margin: 0;"">Is there a person in this image?</p>
                    </div>
                </div>","null","main_experiment_trial","8","the_performance_causal","causal_sequence","chronological","","","","","","",""
"","","","","","html-keyboard-response","33","137929","0.0-33.0","6972F22F718946CC8DBB689A45FAC7E5","019cfc8f-e8ff-72c2-b3dc-cdae91d69dd8","019cfc7b-6c7b-7b1b-afe7-acad8efc6711","","null","
                <div class=""stimulus-container"">
                    <img src=""images/causal_sequence/the_performance_causal/the_performance_causal_9.png"" class=""exp-image"">
                    <div class=""question-area""></div> 
                </div>","null","","","","","","","","","","","",""
"","","","","","html-button-response","34","140934","0.0-34.0","6972F22F718946CC8DBB689A45FAC7E5","019cfc8f-e8ff-72c2-b3dc-cdae91d69dd8","019cfc7b-6c7b-7b1b-afe7-acad8efc6711","","null","
                <div class=""stimulus-container"">
                    <img src=""images/causal_sequence/the_performance_causal/the_performance_causal_9.png"" class=""exp-image"">
                    <div class=""question-area"">
                        <p style=""font-size: 20px; font-weight: bold; margin: 0;"">Is there a person in this image?</p>
                    </div>
                </div>","null","main_experiment_trial","9","the_performance_causal","causal_sequence","chronological","","","","","","",""
"","","","","","html-keyboard-response","35","145935","0.0-35.0","6972F22F718946CC8DBB689A45FAC7E5","019cfc8f-e8ff-72c2-b3dc-cdae91d69dd8","019cfc7b-6c7b-7b1b-afe7-acad8efc6711","","null","
                <div class=""stimulus-container"">
                    <img src=""images/causal_sequence/the_performance_causal/the_performance_causal_ten.png"" class=""exp-image"">
                    <div class=""question-area""></div> 
                </div>","null","","","","","","","","","","","",""
"","","","","","html-button-response","36","148942","0.0-36.0","6972F22F718946CC8DBB689A45FAC7E5","019cfc8f-e8ff-72c2-b3dc-cdae91d69dd8","019cfc7b-6c7b-7b1b-afe7-acad8efc6711","","null","
                <div class=""stimulus-container"">
                    <img src=""images/causal_sequence/the_performance_causal/the_performance_causal_ten.png"" class=""exp-image"">
                    <div class=""question-area"">
                        <p style=""font-size: 20px; font-weight: bold; margin: 0;"">Is there a person in this image?</p>
                    </div>
                </div>","null","main_experiment_trial","ten","the_performance_causal","causal_sequence","chronological","","","","","","",""
"","","","","","html-keyboard-response","37","153944","0.0-37.0","6972F22F718946CC8DBB689A45FAC7E5","019cfc8f-e8ff-72c2-b3dc-cdae91d69dd8","019cfc7b-6c7b-7b1b-afe7-acad8efc6711","","null","<div style=""background-color: white; width: 100vw; height: 100vh;""></div>","null","","","","","","","","","","","",""
"","","","","","html-keyboard-response","38","158952","0.0-38.0","6972F22F718946CC8DBB689A45FAC7E5","019cfc8f-e8ff-72c2-b3dc-cdae91d69dd8","019cfc7b-6c7b-7b1b-afe7-acad8efc6711","","null","
                <div class=""stimulus-container"">
                    <img src=""images/schematic_sequence/dinner_party_scheme/dinner_party_scheme_1.png"" class=""exp-image"">
                    <div class=""question-area""></div> 
                </div>","null","","","","","","","","","","","",""
"","","","","","html-button-response","39","160473","0.0-39.0","6972F22F718946CC8DBB689A45FAC7E5","019cfc8f-e8ff-72c2-b3dc-cdae91d69dd8","019cfc7b-6c7b-7b1b-afe7-acad8efc6711","","1520","
                <div class=""stimulus-container"">
                    <img src=""images/schematic_sequence/dinner_party_scheme/dinner_party_scheme_1.png"" class=""exp-image"">
                    <div class=""question-area"">
                        <p style=""font-size: 20px; font-weight: bold; margin: 0;"">Is there a person in this image?</p>
                    </div>
                </div>","0","main_experiment_trial","1","dinner_party_scheme","schematic_sequence","chronological","","","","","","",""
"","","","","","html-keyboard-response","40","165477","0.0-40.0","6972F22F718946CC8DBB689A45FAC7E5","019cfc8f-e8ff-72c2-b3dc-cdae91d69dd8","019cfc7b-6c7b-7b1b-afe7-acad8efc6711","","null","
                <div class=""stimulus-container"">
                    <img src=""images/schematic_sequence/dinner_party_scheme/dinner_party_scheme_2.png"" class=""exp-image"">
                    <div class=""question-area""></div> 
                </div>","null","","","","","","","","","","","",""
"","","","","","html-button-response","41","166569","0.0-41.0","6972F22F718946CC8DBB689A45FAC7E5","019cfc8f-e8ff-72c2-b3dc-cdae91d69dd8","019cfc7b-6c7b-7b1b-afe7-acad8efc6711","","1091","
                <div class=""stimulus-container"">
                    <img src=""images/schematic_sequence/dinner_party_scheme/dinner_party_scheme_2.png"" class=""exp-image"">
                    <div class=""question-area"">
                        <p style=""font-size: 20px; font-weight: bold; margin: 0;"">Is there a person in this image?</p>
                    </div>
                </div>","0","main_experiment_trial","2","dinner_party_scheme","schematic_sequence","chronological","","","","","","",""
"","","","","","html-keyboard-response","42","171575","0.0-42.0","6972F22F718946CC8DBB689A45FAC7E5","019cfc8f-e8ff-72c2-b3dc-cdae91d69dd8","019cfc7b-6c7b-7b1b-afe7-acad8efc6711","","null","
                <div class=""stimulus-container"">
                    <img src=""images/schematic_sequence/dinner_party_scheme/dinner_party_scheme_3.png"" class=""exp-image"">
                    <div class=""question-area""></div> 
                </div>","null","","","","","","","","","","","",""
"","","","","","html-button-response","43","172033","0.0-43.0","6972F22F718946CC8DBB689A45FAC7E5","019cfc8f-e8ff-72c2-b3dc-cdae91d69dd8","019cfc7b-6c7b-7b1b-afe7-acad8efc6711","","457","
                <div class=""stimulus-container"">
                    <img src=""images/schematic_sequence/dinner_party_scheme/dinner_party_scheme_3.png"" class=""exp-image"">
                    <div class=""question-area"">
                        <p style=""font-size: 20px; font-weight: bold; margin: 0;"">Is there a person in this image?</p>
                    </div>
                </div>","0","main_experiment_trial","3","dinner_party_scheme","schematic_sequence","chronological","","","","","","",""
"","","","","","html-keyboard-response","44","177033","0.0-44.0","6972F22F718946CC8DBB689A45FAC7E5","019cfc8f-e8ff-72c2-b3dc-cdae91d69dd8","019cfc7b-6c7b-7b1b-afe7-acad8efc6711","","null","
                <div class=""stimulus-container"">
                    <img src=""images/schematic_sequence/dinner_party_scheme/dinner_party_scheme_4.png"" class=""exp-image"">
                    <div class=""question-area""></div> 
                </div>","null","","","","","","","","","","","",""
"","","","","","html-button-response","45","178393","0.0-45.0","6972F22F718946CC8DBB689A45FAC7E5","019cfc8f-e8ff-72c2-b3dc-cdae91d69dd8","019cfc7b-6c7b-7b1b-afe7-acad8efc6711","","1359","
                <div class=""stimulus-container"">
                    <img src=""images/schematic_sequence/dinner_party_scheme/dinner_party_scheme_4.png"" class=""exp-image"">
                    <div class=""question-area"">
                        <p style=""font-size: 20px; font-weight: bold; margin: 0;"">Is there a person in this image?</p>
                    </div>
                </div>","0","main_experiment_trial","4","dinner_party_scheme","schematic_sequence","chronological","","","","","","",""
"","","","","","html-keyboard-response","46","183400","0.0-46.0","6972F22F718946CC8DBB689A45FAC7E5","019cfc8f-e8ff-72c2-b3dc-cdae91d69dd8","019cfc7b-6c7b-7b1b-afe7-acad8efc6711","","null","
                <div class=""stimulus-container"">
                    <img src=""images/schematic_sequence/dinner_party_scheme/dinner_party_scheme_5.png"" class=""exp-image"">
                    <div class=""question-area""></div> 
                </div>","null","","","","","","","","","","","",""
"","","","","","html-button-response","47","186404","0.0-47.0","6972F22F718946CC8DBB689A45FAC7E5","019cfc8f-e8ff-72c2-b3dc-cdae91d69dd8","019cfc7b-6c7b-7b1b-afe7-acad8efc6711","","null","
                <div class=""stimulus-container"">
                    <img src=""images/schematic_sequence/dinner_party_scheme/dinner_party_scheme_5.png"" class=""exp-image"">
                    <div class=""question-area"">
                        <p style=""font-size: 20px; font-weight: bold; margin: 0;"">Is there a person in this image?</p>
                    </div>
                </div>","null","main_experiment_trial","5","dinner_party_scheme","schematic_sequence","chronological","","","","","","",""
"","","","","","html-keyboard-response","48","191408","0.0-48.0","6972F22F718946CC8DBB689A45FAC7E5","019cfc8f-e8ff-72c2-b3dc-cdae91d69dd8","019cfc7b-6c7b-7b1b-afe7-acad8efc6711","","null","
                <div class=""stimulus-container"">
                    <img src=""images/schematic_sequence/dinner_party_scheme/dinner_party_scheme_6.png"" class=""exp-image"">
                    <div class=""question-area""></div> 
                </div>","null","","","","","","","","","","","",""
"","","","","","html-button-response","49","194217","0.0-49.0","6972F22F718946CC8DBB689A45FAC7E5","019cfc8f-e8ff-72c2-b3dc-cdae91d69dd8","019cfc7b-6c7b-7b1b-afe7-acad8efc6711","","2808","
                <div class=""stimulus-container"">
                    <img src=""images/schematic_sequence/dinner_party_scheme/dinner_party_scheme_6.png"" class=""exp-image"">
                    <div class=""question-area"">
                        <p style=""font-size: 20px; font-weight: bold; margin: 0;"">Is there a person in this image?</p>
                    </div>
                </div>","0","main_experiment_trial","6","dinner_party_scheme","schematic_sequence","chronological","","","","","","",""
"","","","","","html-keyboard-response","50","199230","0.0-50.0","6972F22F718946CC8DBB689A45FAC7E5","019cfc8f-e8ff-72c2-b3dc-cdae91d69dd8","019cfc7b-6c7b-7b1b-afe7-acad8efc6711","","null","
                <div class=""stimulus-container"">
                    <img src=""images/schematic_sequence/dinner_party_scheme/dinner_party_scheme_7.png"" class=""exp-image"">
                    <div class=""question-area""></div> 
                </div>","null","","","","","","","","","","","",""
"","","","","","html-button-response","51","201473","0.0-51.0","6972F22F718946CC8DBB689A45FAC7E5","019cfc8f-e8ff-72c2-b3dc-cdae91d69dd8","019cfc7b-6c7b-7b1b-afe7-acad8efc6711","","2242","
                <div class=""stimulus-container"">
                    <img src=""images/schematic_sequence/dinner_party_scheme/dinner_party_scheme_7.png"" class=""exp-image"">
                    <div class=""question-area"">
                        <p style=""font-size: 20px; font-weight: bold; margin: 0;"">Is there a person in this image?</p>
                    </div>
                </div>","0","main_experiment_trial","7","dinner_party_scheme","schematic_sequence","chronological","","","","","","",""
"","","","","","html-keyboard-response","52","206488","0.0-52.0","6972F22F718946CC8DBB689A45FAC7E5","019cfc8f-e8ff-72c2-b3dc-cdae91d69dd8","019cfc7b-6c7b-7b1b-afe7-acad8efc6711","","null","
                <div class=""stimulus-container"">
                    <img src=""images/schematic_sequence/dinner_party_scheme/dinner_party_scheme_8.png"" class=""exp-image"">
                    <div class=""question-area""></div> 
                </div>","null","","","","","","","","","","","",""
"","","","","","html-button-response","53","208657","0.0-53.0","6972F22F718946CC8DBB689A45FAC7E5","019cfc8f-e8ff-72c2-b3dc-cdae91d69dd8","019cfc7b-6c7b-7b1b-afe7-acad8efc6711","","2168","
                <div class=""stimulus-container"">
                    <img src=""images/schematic_sequence/dinner_party_scheme/dinner_party_scheme_8.png"" class=""exp-image"">
                    <div class=""question-area"">
                        <p style=""font-size: 20px; font-weight: bold; margin: 0;"">Is there a person in this image?</p>
                    </div>
                </div>","0","main_experiment_trial","8","dinner_party_scheme","schematic_sequence","chronological","","","","","","",""
"","","","","","html-keyboard-response","54","213661","0.0-54.0","6972F22F718946CC8DBB689A45FAC7E5","019cfc8f-e8ff-72c2-b3dc-cdae91d69dd8","019cfc7b-6c7b-7b1b-afe7-acad8efc6711","","null","
                <div class=""stimulus-container"">
                    <img src=""images/schematic_sequence/dinner_party_scheme/dinner_party_scheme_9.png"" class=""exp-image"">
                    <div class=""question-area""></div> 
                </div>","null","","","","","","","","","","","",""
"","","","","","html-button-response","55","213928","0.0-55.0","6972F22F718946CC8DBB689A45FAC7E5","019cfc8f-e8ff-72c2-b3dc-cdae91d69dd8","019cfc7b-6c7b-7b1b-afe7-acad8efc6711","","266","
                <div class=""stimulus-container"">
                    <img src=""images/schematic_sequence/dinner_party_scheme/dinner_party_scheme_9.png"" class=""exp-image"">
                    <div class=""question-area"">
                        <p style=""font-size: 20px; font-weight: bold; margin: 0;"">Is there a person in this image?</p>
                    </div>
                </div>","0","main_experiment_trial","9","dinner_party_scheme","schematic_sequence","chronological","","","","","","",""
"","","","","","html-keyboard-response","56","218938","0.0-56.0","6972F22F718946CC8DBB689A45FAC7E5","019cfc8f-e8ff-72c2-b3dc-cdae91d69dd8","019cfc7b-6c7b-7b1b-afe7-acad8efc6711","","null","
                <div class=""stimulus-container"">
                    <img src=""images/schematic_sequence/dinner_party_scheme/dinner_party_scheme_ten.png"" class=""exp-image"">
                    <div class=""question-area""></div> 
                </div>","null","","","","","","","","","","","",""
"","","","","","html-button-response","57","221945","0.0-57.0","6972F22F718946CC8DBB689A45FAC7E5","019cfc8f-e8ff-72c2-b3dc-cdae91d69dd8","019cfc7b-6c7b-7b1b-afe7-acad8efc6711","","null","
                <div class=""stimulus-container"">
                    <img src=""images/schematic_sequence/dinner_party_scheme/dinner_party_scheme_ten.png"" class=""exp-image"">
                    <div class=""question-area"">
                        <p style=""font-size: 20px; font-weight: bold; margin: 0;"">Is there a person in this image?</p>
                    </div>
                </div>","null","main_experiment_trial","ten","dinner_party_scheme","schematic_sequence","chronological","","","","","","",""
"","","","","","html-keyboard-response","58","226956","0.0-58.0","6972F22F718946CC8DBB689A45FAC7E5","019cfc8f-e8ff-72c2-b3dc-cdae91d69dd8","019cfc7b-6c7b-7b1b-afe7-acad8efc6711","","null","<div style=""background-color: white; width: 100vw; height: 100vh;""></div>","null","","","","","","","","","","","",""
"","","","","","html-keyboard-response","59","231963","0.0-59.0","6972F22F718946CC8DBB689A45FAC7E5","019cfc8f-e8ff-72c2-b3dc-cdae91d69dd8","019cfc7b-6c7b-7b1b-afe7-acad8efc6711","","null","
                <div class=""stimulus-container"">
                    <img src=""images/semantic_sequence/physical_activity_semantic/physical_activity_semantic_1.png"" class=""exp-image"">
                    <div class=""question-area""></div> 
                </div>","null","","","","","","","","","","","",""
"","","","","","html-button-response","60","233336","0.0-60.0","6972F22F718946CC8DBB689A45FAC7E5","019cfc8f-e8ff-72c2-b3dc-cdae91d69dd8","019cfc7b-6c7b-7b1b-afe7-acad8efc6711","","1373","
                <div class=""stimulus-container"">
                    <img src=""images/semantic_sequence/physical_activity_semantic/physical_activity_semantic_1.png"" class=""exp-image"">
                    <div class=""question-area"">
                        <p style=""font-size: 20px; font-weight: bold; margin: 0;"">Is there a person in this image?</p>
                    </div>
                </div>","0","main_experiment_trial","1","physical_activity_semantic","semantic_sequence","chronological","","","","","","",""
"","","","","","html-keyboard-response","61","238339","0.0-61.0","6972F22F718946CC8DBB689A45FAC7E5","019cfc8f-e8ff-72c2-b3dc-cdae91d69dd8","019cfc7b-6c7b-7b1b-afe7-acad8efc6711","","null","
                <div class=""stimulus-container"">
                    <img src=""images/semantic_sequence/physical_activity_semantic/physical_activity_semantic_2.png"" class=""exp-image"">
                    <div class=""question-area""></div> 
                </div>","null","","","","","","","","","","","",""
"","","","","","html-button-response","62","239464","0.0-62.0","6972F22F718946CC8DBB689A45FAC7E5","019cfc8f-e8ff-72c2-b3dc-cdae91d69dd8","019cfc7b-6c7b-7b1b-afe7-acad8efc6711","","1124","
                <div class=""stimulus-container"">
                    <img src=""images/semantic_sequence/physical_activity_semantic/physical_activity_semantic_2.png"" class=""exp-image"">
                    <div class=""question-area"">
                        <p style=""font-size: 20px; font-weight: bold; margin: 0;"">Is there a person in this image?</p>
                    </div>
                </div>","0","main_experiment_trial","2","physical_activity_semantic","semantic_sequence","chronological","","","","","","",""
"","","","","","html-keyboard-response","63","244465","0.0-63.0","6972F22F718946CC8DBB689A45FAC7E5","019cfc8f-e8ff-72c2-b3dc-cdae91d69dd8","019cfc7b-6c7b-7b1b-afe7-acad8efc6711","","null","
                <div class=""stimulus-container"">
                    <img src=""images/semantic_sequence/physical_activity_semantic/physical_activity_semantic_3.png"" class=""exp-image"">
                    <div class=""question-area""></div> 
                </div>","null","","","","","","","","","","","",""
"","","","","","html-button-response","64","244712","0.0-64.0","6972F22F718946CC8DBB689A45FAC7E5","019cfc8f-e8ff-72c2-b3dc-cdae91d69dd8","019cfc7b-6c7b-7b1b-afe7-acad8efc6711","","246","
                <div class=""stimulus-container"">
                    <img src=""images/semantic_sequence/physical_activity_semantic/physical_activity_semantic_3.png"" class=""exp-image"">
                    <div class=""question-area"">
                        <p style=""font-size: 20px; font-weight: bold; margin: 0;"">Is there a person in this image?</p>
                    </div>
                </div>","0","main_experiment_trial","3","physical_activity_semantic","semantic_sequence","chronological","","","","","","",""
"","","","","","html-keyboard-response","65","249713","0.0-65.0","6972F22F718946CC8DBB689A45FAC7E5","019cfc8f-e8ff-72c2-b3dc-cdae91d69dd8","019cfc7b-6c7b-7b1b-afe7-acad8efc6711","","null","
                <div class=""stimulus-container"">
                    <img src=""images/semantic_sequence/physical_activity_semantic/physical_activity_semantic_4.png"" class=""exp-image"">
                    <div class=""question-area""></div> 
                </div>","null","","","","","","","","","","","",""
"","","","","","html-button-response","66","250720","0.0-66.0","6972F22F718946CC8DBB689A45FAC7E5","019cfc8f-e8ff-72c2-b3dc-cdae91d69dd8","019cfc7b-6c7b-7b1b-afe7-acad8efc6711","","1006","
                <div class=""stimulus-container"">
                    <img src=""images/semantic_sequence/physical_activity_semantic/physical_activity_semantic_4.png"" class=""exp-image"">
                    <div class=""question-area"">
                        <p style=""font-size: 20px; font-weight: bold; margin: 0;"">Is there a person in this image?</p>
                    </div>
                </div>","0","main_experiment_trial","4","physical_activity_semantic","semantic_sequence","chronological","","","","","","",""
"","","","","","html-keyboard-response","67","255732","0.0-67.0","6972F22F718946CC8DBB689A45FAC7E5","019cfc8f-e8ff-72c2-b3dc-cdae91d69dd8","019cfc7b-6c7b-7b1b-afe7-acad8efc6711","","null","
                <div class=""stimulus-container"">
                    <img src=""images/semantic_sequence/physical_activity_semantic/physical_activity_semantic_5.png"" class=""exp-image"">
                    <div class=""question-area""></div> 
                </div>","null","","","","","","","","","","","",""
"","","","","","html-button-response","68","256896","0.0-68.0","6972F22F718946CC8DBB689A45FAC7E5","019cfc8f-e8ff-72c2-b3dc-cdae91d69dd8","019cfc7b-6c7b-7b1b-afe7-acad8efc6711","","1163","
                <div class=""stimulus-container"">
                    <img src=""images/semantic_sequence/physical_activity_semantic/physical_activity_semantic_5.png"" class=""exp-image"">
                    <div class=""question-area"">
                        <p style=""font-size: 20px; font-weight: bold; margin: 0;"">Is there a person in this image?</p>
                    </div>
                </div>","0","main_experiment_trial","5","physical_activity_semantic","semantic_sequence","chronological","","","","","","",""
"","","","","","html-keyboard-response","69","261904","0.0-69.0","6972F22F718946CC8DBB689A45FAC7E5","019cfc8f-e8ff-72c2-b3dc-cdae91d69dd8","019cfc7b-6c7b-7b1b-afe7-acad8efc6711","","null","
                <div class=""stimulus-container"">
                    <img src=""images/semantic_sequence/physical_activity_semantic/physical_activity_semantic_6.png"" class=""exp-image"">
                    <div class=""question-area""></div> 
                </div>","null","","","","","","","","","","","",""
"","","","","","html-button-response","70","262368","0.0-70.0","6972F22F718946CC8DBB689A45FAC7E5","019cfc8f-e8ff-72c2-b3dc-cdae91d69dd8","019cfc7b-6c7b-7b1b-afe7-acad8efc6711","","464","
                <div class=""stimulus-container"">
                    <img src=""images/semantic_sequence/physical_activity_semantic/physical_activity_semantic_6.png"" class=""exp-image"">
                    <div class=""question-area"">
                        <p style=""font-size: 20px; font-weight: bold; margin: 0;"">Is there a person in this image?</p>
                    </div>
                </div>","0","main_experiment_trial","6","physical_activity_semantic","semantic_sequence","chronological","","","","","","",""
"","","","","","html-keyboard-response","71","267381","0.0-71.0","6972F22F718946CC8DBB689A45FAC7E5","019cfc8f-e8ff-72c2-b3dc-cdae91d69dd8","019cfc7b-6c7b-7b1b-afe7-acad8efc6711","","null","
                <div class=""stimulus-container"">
                    <img src=""images/semantic_sequence/physical_activity_semantic/physical_activity_semantic_7.png"" class=""exp-image"">
                    <div class=""question-area""></div> 
                </div>","null","","","","","","","","","","","",""
"","","","","","html-button-response","72","270382","0.0-72.0","6972F22F718946CC8DBB689A45FAC7E5","019cfc8f-e8ff-72c2-b3dc-cdae91d69dd8","019cfc7b-6c7b-7b1b-afe7-acad8efc6711","","null","
                <div class=""stimulus-container"">
                    <img src=""images/semantic_sequence/physical_activity_semantic/physical_activity_semantic_7.png"" class=""exp-image"">
                    <div class=""question-area"">
                        <p style=""font-size: 20px; font-weight: bold; margin: 0;"">Is there a person in this image?</p>
                    </div>
                </div>","null","main_experiment_trial","7","physical_activity_semantic","semantic_sequence","chronological","","","","","","",""
"","","","","","html-keyboard-response","73","275389","0.0-73.0","6972F22F718946CC8DBB689A45FAC7E5","019cfc8f-e8ff-72c2-b3dc-cdae91d69dd8","019cfc7b-6c7b-7b1b-afe7-acad8efc6711","","null","
                <div class=""stimulus-container"">
                    <img src=""images/semantic_sequence/physical_activity_semantic/physical_activity_semantic_8.png"" class=""exp-image"">
                    <div class=""question-area""></div> 
                </div>","null","","","","","","","","","","","",""
"","","","","","html-button-response","74","278397","0.0-74.0","6972F22F718946CC8DBB689A45FAC7E5","019cfc8f-e8ff-72c2-b3dc-cdae91d69dd8","019cfc7b-6c7b-7b1b-afe7-acad8efc6711","","null","
                <div class=""stimulus-container"">
                    <img src=""images/semantic_sequence/physical_activity_semantic/physical_activity_semantic_8.png"" class=""exp-image"">
                    <div class=""question-area"">
                        <p style=""font-size: 20px; font-weight: bold; margin: 0;"">Is there a person in this image?</p>
                    </div>
                </div>","null","main_experiment_trial","8","physical_activity_semantic","semantic_sequence","chronological","","","","","","",""
"","","","","","html-keyboard-response","75","283405","0.0-75.0","6972F22F718946CC8DBB689A45FAC7E5","019cfc8f-e8ff-72c2-b3dc-cdae91d69dd8","019cfc7b-6c7b-7b1b-afe7-acad8efc6711","","null","
                <div class=""stimulus-container"">
                    <img src=""images/semantic_sequence/physical_activity_semantic/physical_activity_semantic_9.png"" class=""exp-image"">
                    <div class=""question-area""></div> 
                </div>","null","","","","","","","","","","","",""
"","","","","","html-button-response","76","284823","0.0-76.0","6972F22F718946CC8DBB689A45FAC7E5","019cfc8f-e8ff-72c2-b3dc-cdae91d69dd8","019cfc7b-6c7b-7b1b-afe7-acad8efc6711","","1417","
                <div class=""stimulus-container"">
                    <img src=""images/semantic_sequence/physical_activity_semantic/physical_activity_semantic_9.png"" class=""exp-image"">
                    <div class=""question-area"">
                        <p style=""font-size: 20px; font-weight: bold; margin: 0;"">Is there a person in this image?</p>
                    </div>
                </div>","0","main_experiment_trial","9","physical_activity_semantic","semantic_sequence","chronological","","","","","","",""
"","","","","","html-keyboard-response","77","289828","0.0-77.0","6972F22F718946CC8DBB689A45FAC7E5","019cfc8f-e8ff-72c2-b3dc-cdae91d69dd8","019cfc7b-6c7b-7b1b-afe7-acad8efc6711","","null","
                <div class=""stimulus-container"">
                    <img src=""images/semantic_sequence/physical_activity_semantic/physical_activity_semantic_ten.png"" class=""exp-image"">
                    <div class=""question-area""></div> 
                </div>","null","","","","","","","","","","","",""
"","","","","","html-button-response","78","292836","0.0-78.0","6972F22F718946CC8DBB689A45FAC7E5","019cfc8f-e8ff-72c2-b3dc-cdae91d69dd8","019cfc7b-6c7b-7b1b-afe7-acad8efc6711","","null","
                <div class=""stimulus-container"">
                    <img src=""images/semantic_sequence/physical_activity_semantic/physical_activity_semantic_ten.png"" class=""exp-image"">
                    <div class=""question-area"">
                        <p style=""font-size: 20px; font-weight: bold; margin: 0;"">Is there a person in this image?</p>
                    </div>
                </div>","null","main_experiment_trial","ten","physical_activity_semantic","semantic_sequence","chronological","","","","","","",""
"","","","","","html-keyboard-response","79","297841","0.0-79.0","6972F22F718946CC8DBB689A45FAC7E5","019cfc8f-e8ff-72c2-b3dc-cdae91d69dd8","019cfc7b-6c7b-7b1b-afe7-acad8efc6711","","null","<div style=""background-color: white; width: 100vw; height: 100vh;""></div>","null","","","","","","","","","","","",""
"","","","","","html-keyboard-response","80","302854","0.0-80.0","6972F22F718946CC8DBB689A45FAC7E5","019cfc8f-e8ff-72c2-b3dc-cdae91d69dd8","019cfc7b-6c7b-7b1b-afe7-acad8efc6711","","null","
                <div class=""stimulus-container"">
                    <img src=""images/semantic_sequence/visiting_cities_semantic/visiting_cities_semantic_1.png"" class=""exp-image"">
                    <div class=""question-area""></div> 
                </div>","null","","","","","","","","","","","",""
"","","","","","html-button-response","81","305856","0.0-81.0","6972F22F718946CC8DBB689A45FAC7E5","019cfc8f-e8ff-72c2-b3dc-cdae91d69dd8","019cfc7b-6c7b-7b1b-afe7-acad8efc6711","","null","
                <div class=""stimulus-container"">
                    <img src=""images/semantic_sequence/visiting_cities_semantic/visiting_cities_semantic_1.png"" class=""exp-image"">
                    <div class=""question-area"">
                        <p style=""font-size: 20px; font-weight: bold; margin: 0;"">Is there a person in this image?</p>
                    </div>
                </div>","null","main_experiment_trial","1","visiting_cities_semantic","semantic_sequence","chronological","","","","","","",""
"","","","","","html-keyboard-response","82","310857","0.0-82.0","6972F22F718946CC8DBB689A45FAC7E5","019cfc8f-e8ff-72c2-b3dc-cdae91d69dd8","019cfc7b-6c7b-7b1b-afe7-acad8efc6711","","null","
                <div class=""stimulus-container"">
                    <img src=""images/semantic_sequence/visiting_cities_semantic/visiting_cities_semantic_2.png"" class=""exp-image"">
                    <div class=""question-area""></div> 
                </div>","null","","","","","","","","","","","",""
"","","","","","html-button-response","83","310992","0.0-83.0","6972F22F718946CC8DBB689A45FAC7E5","019cfc8f-e8ff-72c2-b3dc-cdae91d69dd8","019cfc7b-6c7b-7b1b-afe7-acad8efc6711","","134","
                <div class=""stimulus-container"">
                    <img src=""images/semantic_sequence/visiting_cities_semantic/visiting_cities_semantic_2.png"" class=""exp-image"">
                    <div class=""question-area"">
                        <p style=""font-size: 20px; font-weight: bold; margin: 0;"">Is there a person in this image?</p>
                    </div>
                </div>","1","main_experiment_trial","2","visiting_cities_semantic","semantic_sequence","chronological","","","","","","",""
"","","","","","html-keyboard-response","84","315994","0.0-84.0","6972F22F718946CC8DBB689A45FAC7E5","019cfc8f-e8ff-72c2-b3dc-cdae91d69dd8","019cfc7b-6c7b-7b1b-afe7-acad8efc6711","","null","
                <div class=""stimulus-container"">
                    <img src=""images/semantic_sequence/visiting_cities_semantic/visiting_cities_semantic_3.png"" class=""exp-image"">
                    <div class=""question-area""></div> 
                </div>","null","","","","","","","","","","","",""
"","","","","","html-button-response","85","316207","0.0-85.0","6972F22F718946CC8DBB689A45FAC7E5","019cfc8f-e8ff-72c2-b3dc-cdae91d69dd8","019cfc7b-6c7b-7b1b-afe7-acad8efc6711","","213","
                <div class=""stimulus-container"">
                    <img src=""images/semantic_sequence/visiting_cities_semantic/visiting_cities_semantic_3.png"" class=""exp-image"">
                    <div class=""question-area"">
                        <p style=""font-size: 20px; font-weight: bold; margin: 0;"">Is there a person in this image?</p>
                    </div>
                </div>","1","main_experiment_trial","3","visiting_cities_semantic","semantic_sequence","chronological","","","","","","",""
"","","","","","html-keyboard-response","86","321213","0.0-86.0","6972F22F718946CC8DBB689A45FAC7E5","019cfc8f-e8ff-72c2-b3dc-cdae91d69dd8","019cfc7b-6c7b-7b1b-afe7-acad8efc6711","","null","
                <div class=""stimulus-container"">
                    <img src=""images/semantic_sequence/visiting_cities_semantic/visiting_cities_semantic_4.png"" class=""exp-image"">
                    <div class=""question-area""></div> 
                </div>","null","","","","","","","","","","","",""
"","","","","","html-button-response","87","321399","0.0-87.0","6972F22F718946CC8DBB689A45FAC7E5","019cfc8f-e8ff-72c2-b3dc-cdae91d69dd8","019cfc7b-6c7b-7b1b-afe7-acad8efc6711","","185","
                <div class=""stimulus-container"">
                    <img src=""images/semantic_sequence/visiting_cities_semantic/visiting_cities_semantic_4.png"" class=""exp-image"">
                    <div class=""question-area"">
                        <p style=""font-size: 20px; font-weight: bold; margin: 0;"">Is there a person in this image?</p>
                    </div>
                </div>","1","main_experiment_trial","4","visiting_cities_semantic","semantic_sequence","chronological","","","","","","",""
"","","","","","html-keyboard-response","88","326415","0.0-88.0","6972F22F718946CC8DBB689A45FAC7E5","019cfc8f-e8ff-72c2-b3dc-cdae91d69dd8","019cfc7b-6c7b-7b1b-afe7-acad8efc6711","","null","
                <div class=""stimulus-container"">
                    <img src=""images/semantic_sequence/visiting_cities_semantic/visiting_cities_semantic_5.png"" class=""exp-image"">
                    <div class=""question-area""></div> 
                </div>","null","","","","","","","","","","","",""
"","","","","","html-button-response","89","326655","0.0-89.0","6972F22F718946CC8DBB689A45FAC7E5","019cfc8f-e8ff-72c2-b3dc-cdae91d69dd8","019cfc7b-6c7b-7b1b-afe7-acad8efc6711","","239","
                <div class=""stimulus-container"">
                    <img src=""images/semantic_sequence/visiting_cities_semantic/visiting_cities_semantic_5.png"" class=""exp-image"">
                    <div class=""question-area"">
                        <p style=""font-size: 20px; font-weight: bold; margin: 0;"">Is there a person in this image?</p>
                    </div>
                </div>","1","main_experiment_trial","5","visiting_cities_semantic","semantic_sequence","chronological","","","","","","",""
"","","","","","html-keyboard-response","90","331671","0.0-90.0","6972F22F718946CC8DBB689A45FAC7E5","019cfc8f-e8ff-72c2-b3dc-cdae91d69dd8","019cfc7b-6c7b-7b1b-afe7-acad8efc6711","","null","
                <div class=""stimulus-container"">
                    <img src=""images/semantic_sequence/visiting_cities_semantic/visiting_cities_semantic_6.png"" class=""exp-image"">
                    <div class=""question-area""></div> 
                </div>","null","","","","","","","","","","","",""
"","","","","","html-button-response","91","332272","0.0-91.0","6972F22F718946CC8DBB689A45FAC7E5","019cfc8f-e8ff-72c2-b3dc-cdae91d69dd8","019cfc7b-6c7b-7b1b-afe7-acad8efc6711","","600","
                <div class=""stimulus-container"">
                    <img src=""images/semantic_sequence/visiting_cities_semantic/visiting_cities_semantic_6.png"" class=""exp-image"">
                    <div class=""question-area"">
                        <p style=""font-size: 20px; font-weight: bold; margin: 0;"">Is there a person in this image?</p>
                    </div>
                </div>","1","main_experiment_trial","6","visiting_cities_semantic","semantic_sequence","chronological","","","","","","",""
"","","","","","html-keyboard-response","92","337280","0.0-92.0","6972F22F718946CC8DBB689A45FAC7E5","019cfc8f-e8ff-72c2-b3dc-cdae91d69dd8","019cfc7b-6c7b-7b1b-afe7-acad8efc6711","","null","
                <div class=""stimulus-container"">
                    <img src=""images/semantic_sequence/visiting_cities_semantic/visiting_cities_semantic_7.png"" class=""exp-image"">
                    <div class=""question-area""></div> 
                </div>","null","","","","","","","","","","","",""
"","","","","","html-button-response","93","338664","0.0-93.0","6972F22F718946CC8DBB689A45FAC7E5","019cfc8f-e8ff-72c2-b3dc-cdae91d69dd8","019cfc7b-6c7b-7b1b-afe7-acad8efc6711","","1382","
                <div class=""stimulus-container"">
                    <img src=""images/semantic_sequence/visiting_cities_semantic/visiting_cities_semantic_7.png"" class=""exp-image"">
                    <div class=""question-area"">
                        <p style=""font-size: 20px; font-weight: bold; margin: 0;"">Is there a person in this image?</p>
                    </div>
                </div>","1","main_experiment_trial","7","visiting_cities_semantic","semantic_sequence","chronological","","","","","","",""
"","","","","","html-keyboard-response","94","343667","0.0-94.0","6972F22F718946CC8DBB689A45FAC7E5","019cfc8f-e8ff-72c2-b3dc-cdae91d69dd8","019cfc7b-6c7b-7b1b-afe7-acad8efc6711","","null","
                <div class=""stimulus-container"">
                    <img src=""images/semantic_sequence/visiting_cities_semantic/visiting_cities_semantic_8.png"" class=""exp-image"">
                    <div class=""question-area""></div> 
                </div>","null","","","","","","","","","","","",""
"","","","","","html-button-response","95","343895","0.0-95.0","6972F22F718946CC8DBB689A45FAC7E5","019cfc8f-e8ff-72c2-b3dc-cdae91d69dd8","019cfc7b-6c7b-7b1b-afe7-acad8efc6711","","227","
                <div class=""stimulus-container"">
                    <img src=""images/semantic_sequence/visiting_cities_semantic/visiting_cities_semantic_8.png"" class=""exp-image"">
                    <div class=""question-area"">
                        <p style=""font-size: 20px; font-weight: bold; margin: 0;"">Is there a person in this image?</p>
                    </div>
                </div>","1","main_experiment_trial","8","visiting_cities_semantic","semantic_sequence","chronological","","","","","","",""
"","","","","","html-keyboard-response","96","348899","0.0-96.0","6972F22F718946CC8DBB689A45FAC7E5","019cfc8f-e8ff-72c2-b3dc-cdae91d69dd8","019cfc7b-6c7b-7b1b-afe7-acad8efc6711","","null","
                <div class=""stimulus-container"">
                    <img src=""images/semantic_sequence/visiting_cities_semantic/visiting_cities_semantic_9.png"" class=""exp-image"">
                    <div class=""question-area""></div> 
                </div>","null","","","","","","","","","","","",""
"","","","","","html-button-response","97","349175","0.0-97.0","6972F22F718946CC8DBB689A45FAC7E5","019cfc8f-e8ff-72c2-b3dc-cdae91d69dd8","019cfc7b-6c7b-7b1b-afe7-acad8efc6711","","275","
                <div class=""stimulus-container"">
                    <img src=""images/semantic_sequence/visiting_cities_semantic/visiting_cities_semantic_9.png"" class=""exp-image"">
                    <div class=""question-area"">
                        <p style=""font-size: 20px; font-weight: bold; margin: 0;"">Is there a person in this image?</p>
                    </div>
                </div>","1","main_experiment_trial","9","visiting_cities_semantic","semantic_sequence","chronological","","","","","","",""
"","","","","","html-keyboard-response","98","354183","0.0-98.0","6972F22F718946CC8DBB689A45FAC7E5","019cfc8f-e8ff-72c2-b3dc-cdae91d69dd8","019cfc7b-6c7b-7b1b-afe7-acad8efc6711","","null","
                <div class=""stimulus-container"">
                    <img src=""images/semantic_sequence/visiting_cities_semantic/visiting_cities_semantic_ten.png"" class=""exp-image"">
                    <div class=""question-area""></div> 
                </div>","null","","","","","","","","","","","",""
"","","","","","html-button-response","99","354334","0.0-99.0","6972F22F718946CC8DBB689A45FAC7E5","019cfc8f-e8ff-72c2-b3dc-cdae91d69dd8","019cfc7b-6c7b-7b1b-afe7-acad8efc6711","","150","
                <div class=""stimulus-container"">
                    <img src=""images/semantic_sequence/visiting_cities_semantic/visiting_cities_semantic_ten.png"" class=""exp-image"">
                    <div class=""question-area"">
                        <p style=""font-size: 20px; font-weight: bold; margin: 0;"">Is there a person in this image?</p>
                    </div>
                </div>","1","main_experiment_trial","ten","visiting_cities_semantic","semantic_sequence","chronological","","","","","","",""
"","","","","","html-keyboard-response","100","359340","0.0-100.0","6972F22F718946CC8DBB689A45FAC7E5","019cfc8f-e8ff-72c2-b3dc-cdae91d69dd8","019cfc7b-6c7b-7b1b-afe7-acad8efc6711","","null","<div style=""background-color: white; width: 100vw; height: 100vh;""></div>","null","","","","","","","","","","","",""
"","","","","","html-keyboard-response","101","364353","0.0-101.0","6972F22F718946CC8DBB689A45FAC7E5","019cfc8f-e8ff-72c2-b3dc-cdae91d69dd8","019cfc7b-6c7b-7b1b-afe7-acad8efc6711","","null","
                <div class=""stimulus-container"">
                    <img src=""images/schematic_sequence/flight_scheme/flight_scheme_1.png"" class=""exp-image"">
                    <div class=""question-area""></div> 
                </div>","null","","","","","","","","","","","",""
"","","","","","html-button-response","102","365911","0.0-102.0","6972F22F718946CC8DBB689A45FAC7E5","019cfc8f-e8ff-72c2-b3dc-cdae91d69dd8","019cfc7b-6c7b-7b1b-afe7-acad8efc6711","","1557","
                <div class=""stimulus-container"">
                    <img src=""images/schematic_sequence/flight_scheme/flight_scheme_1.png"" class=""exp-image"">
                    <div class=""question-area"">
                        <p style=""font-size: 20px; font-weight: bold; margin: 0;"">Is there a person in this image?</p>
                    </div>
                </div>","0","main_experiment_trial","1","flight_scheme","schematic_sequence","chronological","","","","","","",""
"","","","","","html-keyboard-response","103","370914","0.0-103.0","6972F22F718946CC8DBB689A45FAC7E5","019cfc8f-e8ff-72c2-b3dc-cdae91d69dd8","019cfc7b-6c7b-7b1b-afe7-acad8efc6711","","null","
                <div class=""stimulus-container"">
                    <img src=""images/schematic_sequence/flight_scheme/flight_scheme_2.png"" class=""exp-image"">
                    <div class=""question-area""></div> 
                </div>","null","","","","","","","","","","","",""
"","","","","","html-button-response","104","371087","0.0-104.0","6972F22F718946CC8DBB689A45FAC7E5","019cfc8f-e8ff-72c2-b3dc-cdae91d69dd8","019cfc7b-6c7b-7b1b-afe7-acad8efc6711","","173","
                <div class=""stimulus-container"">
                    <img src=""images/schematic_sequence/flight_scheme/flight_scheme_2.png"" class=""exp-image"">
                    <div class=""question-area"">
                        <p style=""font-size: 20px; font-weight: bold; margin: 0;"">Is there a person in this image?</p>
                    </div>
                </div>","1","main_experiment_trial","2","flight_scheme","schematic_sequence","chronological","","","","","","",""
"","","","","","html-keyboard-response","105","376094","0.0-105.0","6972F22F718946CC8DBB689A45FAC7E5","019cfc8f-e8ff-72c2-b3dc-cdae91d69dd8","019cfc7b-6c7b-7b1b-afe7-acad8efc6711","","null","
                <div class=""stimulus-container"">
                    <img src=""images/schematic_sequence/flight_scheme/flight_scheme_3.png"" class=""exp-image"">
                    <div class=""question-area""></div> 
                </div>","null","","","","","","","","","","","",""
"","","","","","html-button-response","106","376647","0.0-106.0","6972F22F718946CC8DBB689A45FAC7E5","019cfc8f-e8ff-72c2-b3dc-cdae91d69dd8","019cfc7b-6c7b-7b1b-afe7-acad8efc6711","","552","
                <div class=""stimulus-container"">
                    <img src=""images/schematic_sequence/flight_scheme/flight_scheme_3.png"" class=""exp-image"">
                    <div class=""question-area"">
                        <p style=""font-size: 20px; font-weight: bold; margin: 0;"">Is there a person in this image?</p>
                    </div>
                </div>","0","main_experiment_trial","3","flight_scheme","schematic_sequence","chronological","","","","","","",""
"","","","","","html-keyboard-response","107","381649","0.0-107.0","6972F22F718946CC8DBB689A45FAC7E5","019cfc8f-e8ff-72c2-b3dc-cdae91d69dd8","019cfc7b-6c7b-7b1b-afe7-acad8efc6711","","null","
                <div class=""stimulus-container"">
                    <img src=""images/schematic_sequence/flight_scheme/flight_scheme_4.png"" class=""exp-image"">
                    <div class=""question-area""></div> 
                </div>","null","","","","","","","","","","","",""
"","","","","","html-button-response","108","381927","0.0-108.0","6972F22F718946CC8DBB689A45FAC7E5","019cfc8f-e8ff-72c2-b3dc-cdae91d69dd8","019cfc7b-6c7b-7b1b-afe7-acad8efc6711","","277","
                <div class=""stimulus-container"">
                    <img src=""images/schematic_sequence/flight_scheme/flight_scheme_4.png"" class=""exp-image"">
                    <div class=""question-area"">
                        <p style=""font-size: 20px; font-weight: bold; margin: 0;"">Is there a person in this image?</p>
                    </div>
                </div>","0","main_experiment_trial","4","flight_scheme","schematic_sequence","chronological","","","","","","",""
"","","","","","html-keyboard-response","109","386929","0.0-109.0","6972F22F718946CC8DBB689A45FAC7E5","019cfc8f-e8ff-72c2-b3dc-cdae91d69dd8","019cfc7b-6c7b-7b1b-afe7-acad8efc6711","","null","
                <div class=""stimulus-container"">
                    <img src=""images/schematic_sequence/flight_scheme/flight_scheme_5.png"" class=""exp-image"">
                    <div class=""question-area""></div> 
                </div>","null","","","","","","","","","","","",""
"","","","","","html-button-response","110","387143","0.0-110.0","6972F22F718946CC8DBB689A45FAC7E5","019cfc8f-e8ff-72c2-b3dc-cdae91d69dd8","019cfc7b-6c7b-7b1b-afe7-acad8efc6711","","213","
                <div class=""stimulus-container"">
                    <img src=""images/schematic_sequence/flight_scheme/flight_scheme_5.png"" class=""exp-image"">
                    <div class=""question-area"">
                        <p style=""font-size: 20px; font-weight: bold; margin: 0;"">Is there a person in this image?</p>
                    </div>
                </div>","0","main_experiment_trial","5","flight_scheme","schematic_sequence","chronological","","","","","","",""
"","","","","","html-keyboard-response","111","392157","0.0-111.0","6972F22F718946CC8DBB689A45FAC7E5","019cfc8f-e8ff-72c2-b3dc-cdae91d69dd8","019cfc7b-6c7b-7b1b-afe7-acad8efc6711","","null","
                <div class=""stimulus-container"">
                    <img src=""images/schematic_sequence/flight_scheme/flight_scheme_6.png"" class=""exp-image"">
                    <div class=""question-area""></div> 
                </div>","null","","","","","","","","","","","",""
"","","","","","html-button-response","112","394937","0.0-112.0","6972F22F718946CC8DBB689A45FAC7E5","019cfc8f-e8ff-72c2-b3dc-cdae91d69dd8","019cfc7b-6c7b-7b1b-afe7-acad8efc6711","","2779","
                <div class=""stimulus-container"">
                    <img src=""images/schematic_sequence/flight_scheme/flight_scheme_6.png"" class=""exp-image"">
                    <div class=""question-area"">
                        <p style=""font-size: 20px; font-weight: bold; margin: 0;"">Is there a person in this image?</p>
                    </div>
                </div>","1","main_experiment_trial","6","flight_scheme","schematic_sequence","chronological","","","","","","",""
"","","","","","html-keyboard-response","113","399942","0.0-113.0","6972F22F718946CC8DBB689A45FAC7E5","019cfc8f-e8ff-72c2-b3dc-cdae91d69dd8","019cfc7b-6c7b-7b1b-afe7-acad8efc6711","","null","
                <div class=""stimulus-container"">
                    <img src=""images/schematic_sequence/flight_scheme/flight_scheme_7.png"" class=""exp-image"">
                    <div class=""question-area""></div> 
                </div>","null","","","","","","","","","","","",""
"","","","","","html-button-response","114","400422","0.0-114.0","6972F22F718946CC8DBB689A45FAC7E5","019cfc8f-e8ff-72c2-b3dc-cdae91d69dd8","019cfc7b-6c7b-7b1b-afe7-acad8efc6711","","479","
                <div class=""stimulus-container"">
                    <img src=""images/schematic_sequence/flight_scheme/flight_scheme_7.png"" class=""exp-image"">
                    <div class=""question-area"">
                        <p style=""font-size: 20px; font-weight: bold; margin: 0;"">Is there a person in this image?</p>
                    </div>
                </div>","1","main_experiment_trial","7","flight_scheme","schematic_sequence","chronological","","","","","","",""
"","","","","","html-keyboard-response","115","405435","0.0-115.0","6972F22F718946CC8DBB689A45FAC7E5","019cfc8f-e8ff-72c2-b3dc-cdae91d69dd8","019cfc7b-6c7b-7b1b-afe7-acad8efc6711","","null","
                <div class=""stimulus-container"">
                    <img src=""images/schematic_sequence/flight_scheme/flight_scheme_8.png"" class=""exp-image"">
                    <div class=""question-area""></div> 
                </div>","null","","","","","","","","","","","",""
"","","","","","html-button-response","116","405710","0.0-116.0","6972F22F718946CC8DBB689A45FAC7E5","019cfc8f-e8ff-72c2-b3dc-cdae91d69dd8","019cfc7b-6c7b-7b1b-afe7-acad8efc6711","","275","
                <div class=""stimulus-container"">
                    <img src=""images/schematic_sequence/flight_scheme/flight_scheme_8.png"" class=""exp-image"">
                    <div class=""question-area"">
                        <p style=""font-size: 20px; font-weight: bold; margin: 0;"">Is there a person in this image?</p>
                    </div>
                </div>","1","main_experiment_trial","8","flight_scheme","schematic_sequence","chronological","","","","","","",""
"","","","","","html-keyboard-response","117","410720","0.0-117.0","6972F22F718946CC8DBB689A45FAC7E5","019cfc8f-e8ff-72c2-b3dc-cdae91d69dd8","019cfc7b-6c7b-7b1b-afe7-acad8efc6711","","null","
                <div class=""stimulus-container"">
                    <img src=""images/schematic_sequence/flight_scheme/flight_scheme_9.png"" class=""exp-image"">
                    <div class=""question-area""></div> 
                </div>","null","","","","","","","","","","","",""
"","","","","","html-button-response","118","411318","0.0-118.0","6972F22F718946CC8DBB689A45FAC7E5","019cfc8f-e8ff-72c2-b3dc-cdae91d69dd8","019cfc7b-6c7b-7b1b-afe7-acad8efc6711","","598","
                <div class=""stimulus-container"">
                    <img src=""images/schematic_sequence/flight_scheme/flight_scheme_9.png"" class=""exp-image"">
                    <div class=""question-area"">
                        <p style=""font-size: 20px; font-weight: bold; margin: 0;"">Is there a person in this image?</p>
                    </div>
                </div>","0","main_experiment_trial","9","flight_scheme","schematic_sequence","chronological","","","","","","",""
"","","","","","html-keyboard-response","119","416325","0.0-119.0","6972F22F718946CC8DBB689A45FAC7E5","019cfc8f-e8ff-72c2-b3dc-cdae91d69dd8","019cfc7b-6c7b-7b1b-afe7-acad8efc6711","","null","
                <div class=""stimulus-container"">
                    <img src=""images/schematic_sequence/flight_scheme/flight_scheme_ten.png"" class=""exp-image"">
                    <div class=""question-area""></div> 
                </div>","null","","","","","","","","","","","",""
"","","","","","html-button-response","120","416718","0.0-120.0","6972F22F718946CC8DBB689A45FAC7E5","019cfc8f-e8ff-72c2-b3dc-cdae91d69dd8","019cfc7b-6c7b-7b1b-afe7-acad8efc6711","","393","
                <div class=""stimulus-container"">
                    <img src=""images/schematic_sequence/flight_scheme/flight_scheme_ten.png"" class=""exp-image"">
                    <div class=""question-area"">
                        <p style=""font-size: 20px; font-weight: bold; margin: 0;"">Is there a person in this image?</p>
                    </div>
                </div>","0","main_experiment_trial","ten","flight_scheme","schematic_sequence","chronological","","","","","","",""
"","","","","","html-keyboard-response","121","421724","0.0-121.0","6972F22F718946CC8DBB689A45FAC7E5","019cfc8f-e8ff-72c2-b3dc-cdae91d69dd8","019cfc7b-6c7b-7b1b-afe7-acad8efc6711","","null","<div style=""background-color: white; width: 100vw; height: 100vh;""></div>","null","","","","","","","","","","","",""
"","","","","","html-keyboard-response","122","426727","0.0-122.0","6972F22F718946CC8DBB689A45FAC7E5","019cfc8f-e8ff-72c2-b3dc-cdae91d69dd8","019cfc7b-6c7b-7b1b-afe7-acad8efc6711","","null","
                <div class=""stimulus-container"">
                    <img src=""images/causal_sequence/dog_causal/dog_causal_1.png"" class=""exp-image"">
                    <div class=""question-area""></div> 
                </div>","null","","","","","","","","","","","",""
"","","","","","html-button-response","123","427086","0.0-123.0","6972F22F718946CC8DBB689A45FAC7E5","019cfc8f-e8ff-72c2-b3dc-cdae91d69dd8","019cfc7b-6c7b-7b1b-afe7-acad8efc6711","","358","
                <div class=""stimulus-container"">
                    <img src=""images/causal_sequence/dog_causal/dog_causal_1.png"" class=""exp-image"">
                    <div class=""question-area"">
                        <p style=""font-size: 20px; font-weight: bold; margin: 0;"">Is there a person in this image?</p>
                    </div>
                </div>","0","main_experiment_trial","1","dog_causal","causal_sequence","chronological","","","","","","",""
"","","","","","html-keyboard-response","124","432090","0.0-124.0","6972F22F718946CC8DBB689A45FAC7E5","019cfc8f-e8ff-72c2-b3dc-cdae91d69dd8","019cfc7b-6c7b-7b1b-afe7-acad8efc6711","","null","
                <div class=""stimulus-container"">
                    <img src=""images/causal_sequence/dog_causal/dog_causal_2.png"" class=""exp-image"">
                    <div class=""question-area""></div> 
                </div>","null","","","","","","","","","","","",""
"","","","","","html-button-response","125","432335","0.0-125.0","6972F22F718946CC8DBB689A45FAC7E5","019cfc8f-e8ff-72c2-b3dc-cdae91d69dd8","019cfc7b-6c7b-7b1b-afe7-acad8efc6711","","243","
                <div class=""stimulus-container"">
                    <img src=""images/causal_sequence/dog_causal/dog_causal_2.png"" class=""exp-image"">
                    <div class=""question-area"">
                        <p style=""font-size: 20px; font-weight: bold; margin: 0;"">Is there a person in this image?</p>
                    </div>
                </div>","0","main_experiment_trial","2","dog_causal","causal_sequence","chronological","","","","","","",""
"","","","","","html-keyboard-response","126","437340","0.0-126.0","6972F22F718946CC8DBB689A45FAC7E5","019cfc8f-e8ff-72c2-b3dc-cdae91d69dd8","019cfc7b-6c7b-7b1b-afe7-acad8efc6711","","null","
                <div class=""stimulus-container"">
                    <img src=""images/causal_sequence/dog_causal/dog_causal_3.png"" class=""exp-image"">
                    <div class=""question-area""></div> 
                </div>","null","","","","","","","","","","","",""
"","","","","","html-button-response","127","437558","0.0-127.0","6972F22F718946CC8DBB689A45FAC7E5","019cfc8f-e8ff-72c2-b3dc-cdae91d69dd8","019cfc7b-6c7b-7b1b-afe7-acad8efc6711","","218","
                <div class=""stimulus-container"">
                    <img src=""images/causal_sequence/dog_causal/dog_causal_3.png"" class=""exp-image"">
                    <div class=""question-area"">
                        <p style=""font-size: 20px; font-weight: bold; margin: 0;"">Is there a person in this image?</p>
                    </div>
                </div>","0","main_experiment_trial","3","dog_causal","causal_sequence","chronological","","","","","","",""
"","","","","","html-keyboard-response","128","442565","0.0-128.0","6972F22F718946CC8DBB689A45FAC7E5","019cfc8f-e8ff-72c2-b3dc-cdae91d69dd8","019cfc7b-6c7b-7b1b-afe7-acad8efc6711","","null","
                <div class=""stimulus-container"">
                    <img src=""images/causal_sequence/dog_causal/dog_causal_4.png"" class=""exp-image"">
                    <div class=""question-area""></div> 
                </div>","null","","","","","","","","","","","",""
"","","","","","html-button-response","129","442838","0.0-129.0","6972F22F718946CC8DBB689A45FAC7E5","019cfc8f-e8ff-72c2-b3dc-cdae91d69dd8","019cfc7b-6c7b-7b1b-afe7-acad8efc6711","","272","
                <div class=""stimulus-container"">
                    <img src=""images/causal_sequence/dog_causal/dog_causal_4.png"" class=""exp-image"">
                    <div class=""question-area"">
                        <p style=""font-size: 20px; font-weight: bold; margin: 0;"">Is there a person in this image?</p>
                    </div>
                </div>","0","main_experiment_trial","4","dog_causal","causal_sequence","chronological","","","","","","",""
"","","","","","html-keyboard-response","130","447852","0.0-130.0","6972F22F718946CC8DBB689A45FAC7E5","019cfc8f-e8ff-72c2-b3dc-cdae91d69dd8","019cfc7b-6c7b-7b1b-afe7-acad8efc6711","","null","
                <div class=""stimulus-container"">
                    <img src=""images/causal_sequence/dog_causal/dog_causal_5.png"" class=""exp-image"">
                    <div class=""question-area""></div> 
                </div>","null","","","","","","","","","","","",""
"","","","","","html-button-response","131","448006","0.0-131.0","6972F22F718946CC8DBB689A45FAC7E5","019cfc8f-e8ff-72c2-b3dc-cdae91d69dd8","019cfc7b-6c7b-7b1b-afe7-acad8efc6711","","154","
                <div class=""stimulus-container"">
                    <img src=""images/causal_sequence/dog_causal/dog_causal_5.png"" class=""exp-image"">
                    <div class=""question-area"">
                        <p style=""font-size: 20px; font-weight: bold; margin: 0;"">Is there a person in this image?</p>
                    </div>
                </div>","0","main_experiment_trial","5","dog_causal","causal_sequence","chronological","","","","","","",""
"","","","","","html-keyboard-response","132","453013","0.0-132.0","6972F22F718946CC8DBB689A45FAC7E5","019cfc8f-e8ff-72c2-b3dc-cdae91d69dd8","019cfc7b-6c7b-7b1b-afe7-acad8efc6711","","null","
                <div class=""stimulus-container"">
                    <img src=""images/causal_sequence/dog_causal/dog_causal_6.png"" class=""exp-image"">
                    <div class=""question-area""></div> 
                </div>","null","","","","","","","","","","","",""
"","","","","","html-button-response","133","453174","0.0-133.0","6972F22F718946CC8DBB689A45FAC7E5","019cfc8f-e8ff-72c2-b3dc-cdae91d69dd8","019cfc7b-6c7b-7b1b-afe7-acad8efc6711","","160","
                <div class=""stimulus-container"">
                    <img src=""images/causal_sequence/dog_causal/dog_causal_6.png"" class=""exp-image"">
                    <div class=""question-area"">
                        <p style=""font-size: 20px; font-weight: bold; margin: 0;"">Is there a person in this image?</p>
                    </div>
                </div>","0","main_experiment_trial","6","dog_causal","causal_sequence","chronological","","","","","","",""
"","","","","","html-keyboard-response","134","458186","0.0-134.0","6972F22F718946CC8DBB689A45FAC7E5","019cfc8f-e8ff-72c2-b3dc-cdae91d69dd8","019cfc7b-6c7b-7b1b-afe7-acad8efc6711","","null","
                <div class=""stimulus-container"">
                    <img src=""images/causal_sequence/dog_causal/dog_causal_7.png"" class=""exp-image"">
                    <div class=""question-area""></div> 
                </div>","null","","","","","","","","","","","",""
"","","","","","html-button-response","135","458695","0.0-135.0","6972F22F718946CC8DBB689A45FAC7E5","019cfc8f-e8ff-72c2-b3dc-cdae91d69dd8","019cfc7b-6c7b-7b1b-afe7-acad8efc6711","","508","
                <div class=""stimulus-container"">
                    <img src=""images/causal_sequence/dog_causal/dog_causal_7.png"" class=""exp-image"">
                    <div class=""question-area"">
                        <p style=""font-size: 20px; font-weight: bold; margin: 0;"">Is there a person in this image?</p>
                    </div>
                </div>","0","main_experiment_trial","7","dog_causal","causal_sequence","chronological","","","","","","",""
"","","","","","html-keyboard-response","136","463700","0.0-136.0","6972F22F718946CC8DBB689A45FAC7E5","019cfc8f-e8ff-72c2-b3dc-cdae91d69dd8","019cfc7b-6c7b-7b1b-afe7-acad8efc6711","","null","
                <div class=""stimulus-container"">
                    <img src=""images/causal_sequence/dog_causal/dog_causal_8.png"" class=""exp-image"">
                    <div class=""question-area""></div> 
                </div>","null","","","","","","","","","","","",""
"","","","","","html-button-response","137","464374","0.0-137.0","6972F22F718946CC8DBB689A45FAC7E5","019cfc8f-e8ff-72c2-b3dc-cdae91d69dd8","019cfc7b-6c7b-7b1b-afe7-acad8efc6711","","674","
                <div class=""stimulus-container"">
                    <img src=""images/causal_sequence/dog_causal/dog_causal_8.png"" class=""exp-image"">
                    <div class=""question-area"">
                        <p style=""font-size: 20px; font-weight: bold; margin: 0;"">Is there a person in this image?</p>
                    </div>
                </div>","0","main_experiment_trial","8","dog_causal","causal_sequence","chronological","","","","","","",""
"","","","","","html-keyboard-response","138","469382","0.0-138.0","6972F22F718946CC8DBB689A45FAC7E5","019cfc8f-e8ff-72c2-b3dc-cdae91d69dd8","019cfc7b-6c7b-7b1b-afe7-acad8efc6711","","null","
                <div class=""stimulus-container"">
                    <img src=""images/causal_sequence/dog_causal/dog_causal_9.png"" class=""exp-image"">
                    <div class=""question-area""></div> 
                </div>","null","","","","","","","","","","","",""
"","","","","","html-button-response","139","469773","0.0-139.0","6972F22F718946CC8DBB689A45FAC7E5","019cfc8f-e8ff-72c2-b3dc-cdae91d69dd8","019cfc7b-6c7b-7b1b-afe7-acad8efc6711","","390","
                <div class=""stimulus-container"">
                    <img src=""images/causal_sequence/dog_causal/dog_causal_9.png"" class=""exp-image"">
                    <div class=""question-area"">
                        <p style=""font-size: 20px; font-weight: bold; margin: 0;"">Is there a person in this image?</p>
                    </div>
                </div>","0","main_experiment_trial","9","dog_causal","causal_sequence","chronological","","","","","","",""
"","","","","","html-keyboard-response","140","474778","0.0-140.0","6972F22F718946CC8DBB689A45FAC7E5","019cfc8f-e8ff-72c2-b3dc-cdae91d69dd8","019cfc7b-6c7b-7b1b-afe7-acad8efc6711","","null","
                <div class=""stimulus-container"">
                    <img src=""images/causal_sequence/dog_causal/dog_causal_ten.png"" class=""exp-image"">
                    <div class=""question-area""></div> 
                </div>","null","","","","","","","","","","","",""
"","","","","","html-button-response","141","475998","0.0-141.0","6972F22F718946CC8DBB689A45FAC7E5","019cfc8f-e8ff-72c2-b3dc-cdae91d69dd8","019cfc7b-6c7b-7b1b-afe7-acad8efc6711","","1219","
                <div class=""stimulus-container"">
                    <img src=""images/causal_sequence/dog_causal/dog_causal_ten.png"" class=""exp-image"">
                    <div class=""question-area"">
                        <p style=""font-size: 20px; font-weight: bold; margin: 0;"">Is there a person in this image?</p>
                    </div>
                </div>","0","main_experiment_trial","ten","dog_causal","causal_sequence","chronological","","","","","","",""
"","","","","","html-keyboard-response","142","481001","0.0-142.0","6972F22F718946CC8DBB689A45FAC7E5","019cfc8f-e8ff-72c2-b3dc-cdae91d69dd8","019cfc7b-6c7b-7b1b-afe7-acad8efc6711","","null","<div style=""background-color: white; width: 100vw; height: 100vh;""></div>","null","","","","","","","","","","","",""
"","","","","","html-keyboard-response","143","486013","0.0-143.0","6972F22F718946CC8DBB689A45FAC7E5","019cfc8f-e8ff-72c2-b3dc-cdae91d69dd8","019cfc7b-6c7b-7b1b-afe7-acad8efc6711","","null","
                <div class=""stimulus-container"">
                    <img src=""images/causal_sequence/saving_a_cat_causal/saving_a_cat_causal_1.png"" class=""exp-image"">
                    <div class=""question-area""></div> 
                </div>","null","","","","","","","","","","","",""
"","","","","","html-button-response","144","487313","0.0-144.0","6972F22F718946CC8DBB689A45FAC7E5","019cfc8f-e8ff-72c2-b3dc-cdae91d69dd8","019cfc7b-6c7b-7b1b-afe7-acad8efc6711","","1256","
                <div class=""stimulus-container"">
                    <img src=""images/causal_sequence/saving_a_cat_causal/saving_a_cat_causal_1.png"" class=""exp-image"">
                    <div class=""question-area"">
                        <p style=""font-size: 20px; font-weight: bold; margin: 0;"">Is there a person in this image?</p>
                    </div>
                </div>","0","main_experiment_trial","1","saving_a_cat_causal","causal_sequence","chronological","","","","","","",""
"","","","","","html-keyboard-response","145","492318","0.0-145.0","6972F22F718946CC8DBB689A45FAC7E5","019cfc8f-e8ff-72c2-b3dc-cdae91d69dd8","019cfc7b-6c7b-7b1b-afe7-acad8efc6711","","null","
                <div class=""stimulus-container"">
                    <img src=""images/causal_sequence/saving_a_cat_causal/saving_a_cat_causal_2.png"" class=""exp-image"">
                    <div class=""question-area""></div> 
                </div>","null","","","","","","","","","","","",""
"","","","","","html-button-response","146","493149","0.0-146.0","6972F22F718946CC8DBB689A45FAC7E5","019cfc8f-e8ff-72c2-b3dc-cdae91d69dd8","019cfc7b-6c7b-7b1b-afe7-acad8efc6711","","830","
                <div class=""stimulus-container"">
                    <img src=""images/causal_sequence/saving_a_cat_causal/saving_a_cat_causal_2.png"" class=""exp-image"">
                    <div class=""question-area"">
                        <p style=""font-size: 20px; font-weight: bold; margin: 0;"">Is there a person in this image?</p>
                    </div>
                </div>","1","main_experiment_trial","2","saving_a_cat_causal","causal_sequence","chronological","","","","","","",""
"","","","","","html-keyboard-response","147","498153","0.0-147.0","6972F22F718946CC8DBB689A45FAC7E5","019cfc8f-e8ff-72c2-b3dc-cdae91d69dd8","019cfc7b-6c7b-7b1b-afe7-acad8efc6711","","null","
                <div class=""stimulus-container"">
                    <img src=""images/causal_sequence/saving_a_cat_causal/saving_a_cat_causal_3.png"" class=""exp-image"">
                    <div class=""question-area""></div> 
                </div>","null","","","","","","","","","","","",""
"","","","","","html-button-response","148","498405","0.0-148.0","6972F22F718946CC8DBB689A45FAC7E5","019cfc8f-e8ff-72c2-b3dc-cdae91d69dd8","019cfc7b-6c7b-7b1b-afe7-acad8efc6711","","251","
                <div class=""stimulus-container"">
                    <img src=""images/causal_sequence/saving_a_cat_causal/saving_a_cat_causal_3.png"" class=""exp-image"">
                    <div class=""question-area"">
                        <p style=""font-size: 20px; font-weight: bold; margin: 0;"">Is there a person in this image?</p>
                    </div>
                </div>","1","main_experiment_trial","3","saving_a_cat_causal","causal_sequence","chronological","","","","","","",""
"","","","","","html-keyboard-response","149","503408","0.0-149.0","6972F22F718946CC8DBB689A45FAC7E5","019cfc8f-e8ff-72c2-b3dc-cdae91d69dd8","019cfc7b-6c7b-7b1b-afe7-acad8efc6711","","null","
                <div class=""stimulus-container"">
                    <img src=""images/causal_sequence/saving_a_cat_causal/saving_a_cat_causal_4.png"" class=""exp-image"">
                    <div class=""question-area""></div> 
                </div>","null","","","","","","","","","","","",""
"","","","","","html-button-response","150","504414","0.0-150.0","6972F22F718946CC8DBB689A45FAC7E5","019cfc8f-e8ff-72c2-b3dc-cdae91d69dd8","019cfc7b-6c7b-7b1b-afe7-acad8efc6711","","1005","
                <div class=""stimulus-container"">
                    <img src=""images/causal_sequence/saving_a_cat_causal/saving_a_cat_causal_4.png"" class=""exp-image"">
                    <div class=""question-area"">
                        <p style=""font-size: 20px; font-weight: bold; margin: 0;"">Is there a person in this image?</p>
                    </div>
                </div>","0","main_experiment_trial","4","saving_a_cat_causal","causal_sequence","chronological","","","","","","",""
"","","","","","html-keyboard-response","151","509425","0.0-151.0","6972F22F718946CC8DBB689A45FAC7E5","019cfc8f-e8ff-72c2-b3dc-cdae91d69dd8","019cfc7b-6c7b-7b1b-afe7-acad8efc6711","","null","
                <div class=""stimulus-container"">
                    <img src=""images/causal_sequence/saving_a_cat_causal/saving_a_cat_causal_5.png"" class=""exp-image"">
                    <div class=""question-area""></div> 
                </div>","null","","","","","","","","","","","",""
"","","","","","html-button-response","152","509790","0.0-152.0","6972F22F718946CC8DBB689A45FAC7E5","019cfc8f-e8ff-72c2-b3dc-cdae91d69dd8","019cfc7b-6c7b-7b1b-afe7-acad8efc6711","","364","
                <div class=""stimulus-container"">
                    <img src=""images/causal_sequence/saving_a_cat_causal/saving_a_cat_causal_5.png"" class=""exp-image"">
                    <div class=""question-area"">
                        <p style=""font-size: 20px; font-weight: bold; margin: 0;"">Is there a person in this image?</p>
                    </div>
                </div>","0","main_experiment_trial","5","saving_a_cat_causal","causal_sequence","chronological","","","","","","",""
"","","","","","html-keyboard-response","153","514795","0.0-153.0","6972F22F718946CC8DBB689A45FAC7E5","019cfc8f-e8ff-72c2-b3dc-cdae91d69dd8","019cfc7b-6c7b-7b1b-afe7-acad8efc6711","","null","
                <div class=""stimulus-container"">
                    <img src=""images/causal_sequence/saving_a_cat_causal/saving_a_cat_causal_6.png"" class=""exp-image"">
                    <div class=""question-area""></div> 
                </div>","null","","","","","","","","","","","",""
"","","","","","html-button-response","154","515133","0.0-154.0","6972F22F718946CC8DBB689A45FAC7E5","019cfc8f-e8ff-72c2-b3dc-cdae91d69dd8","019cfc7b-6c7b-7b1b-afe7-acad8efc6711","","337","
                <div class=""stimulus-container"">
                    <img src=""images/causal_sequence/saving_a_cat_causal/saving_a_cat_causal_6.png"" class=""exp-image"">
                    <div class=""question-area"">
                        <p style=""font-size: 20px; font-weight: bold; margin: 0;"">Is there a person in this image?</p>
                    </div>
                </div>","0","main_experiment_trial","6","saving_a_cat_causal","causal_sequence","chronological","","","","","","",""
"","","","","","html-keyboard-response","155","520140","0.0-155.0","6972F22F718946CC8DBB689A45FAC7E5","019cfc8f-e8ff-72c2-b3dc-cdae91d69dd8","019cfc7b-6c7b-7b1b-afe7-acad8efc6711","","null","
                <div class=""stimulus-container"">
                    <img src=""images/causal_sequence/saving_a_cat_causal/saving_a_cat_causal_7.png"" class=""exp-image"">
                    <div class=""question-area""></div> 
                </div>","null","","","","","","","","","","","",""
"","","","","","html-button-response","156","520678","0.0-156.0","6972F22F718946CC8DBB689A45FAC7E5","019cfc8f-e8ff-72c2-b3dc-cdae91d69dd8","019cfc7b-6c7b-7b1b-afe7-acad8efc6711","","537","
                <div class=""stimulus-container"">
                    <img src=""images/causal_sequence/saving_a_cat_causal/saving_a_cat_causal_7.png"" class=""exp-image"">
                    <div class=""question-area"">
                        <p style=""font-size: 20px; font-weight: bold; margin: 0;"">Is there a person in this image?</p>
                    </div>
                </div>","0","main_experiment_trial","7","saving_a_cat_causal","causal_sequence","chronological","","","","","","",""
"","","","","","html-keyboard-response","157","525685","0.0-157.0","6972F22F718946CC8DBB689A45FAC7E5","019cfc8f-e8ff-72c2-b3dc-cdae91d69dd8","019cfc7b-6c7b-7b1b-afe7-acad8efc6711","","null","
                <div class=""stimulus-container"">
                    <img src=""images/causal_sequence/saving_a_cat_causal/saving_a_cat_causal_8.png"" class=""exp-image"">
                    <div class=""question-area""></div> 
                </div>","null","","","","","","","","","","","",""
"","","","","","html-button-response","158","525925","0.0-158.0","6972F22F718946CC8DBB689A45FAC7E5","019cfc8f-e8ff-72c2-b3dc-cdae91d69dd8","019cfc7b-6c7b-7b1b-afe7-acad8efc6711","","239","
                <div class=""stimulus-container"">
                    <img src=""images/causal_sequence/saving_a_cat_causal/saving_a_cat_causal_8.png"" class=""exp-image"">
                    <div class=""question-area"">
                        <p style=""font-size: 20px; font-weight: bold; margin: 0;"">Is there a person in this image?</p>
                    </div>
                </div>","0","main_experiment_trial","8","saving_a_cat_causal","causal_sequence","chronological","","","","","","",""
"","","","","","html-keyboard-response","159","530930","0.0-159.0","6972F22F718946CC8DBB689A45FAC7E5","019cfc8f-e8ff-72c2-b3dc-cdae91d69dd8","019cfc7b-6c7b-7b1b-afe7-acad8efc6711","","null","
                <div class=""stimulus-container"">
                    <img src=""images/causal_sequence/saving_a_cat_causal/saving_a_cat_causal_9.png"" class=""exp-image"">
                    <div class=""question-area""></div> 
                </div>","null","","","","","","","","","","","",""
"","","","","","html-button-response","160","531213","0.0-160.0","6972F22F718946CC8DBB689A45FAC7E5","019cfc8f-e8ff-72c2-b3dc-cdae91d69dd8","019cfc7b-6c7b-7b1b-afe7-acad8efc6711","","282","
                <div class=""stimulus-container"">
                    <img src=""images/causal_sequence/saving_a_cat_causal/saving_a_cat_causal_9.png"" class=""exp-image"">
                    <div class=""question-area"">
                        <p style=""font-size: 20px; font-weight: bold; margin: 0;"">Is there a person in this image?</p>
                    </div>
                </div>","0","main_experiment_trial","9","saving_a_cat_causal","causal_sequence","chronological","","","","","","",""
"","","","","","html-keyboard-response","161","536217","0.0-161.0","6972F22F718946CC8DBB689A45FAC7E5","019cfc8f-e8ff-72c2-b3dc-cdae91d69dd8","019cfc7b-6c7b-7b1b-afe7-acad8efc6711","","null","
                <div class=""stimulus-container"">
                    <img src=""images/causal_sequence/saving_a_cat_causal/saving_a_cat_causal_ten.png"" class=""exp-image"">
                    <div class=""question-area""></div> 
                </div>","null","","","","","","","","","","","",""
"","","","","","html-button-response","162","536437","0.0-162.0","6972F22F718946CC8DBB689A45FAC7E5","019cfc8f-e8ff-72c2-b3dc-cdae91d69dd8","019cfc7b-6c7b-7b1b-afe7-acad8efc6711","","219","
                <div class=""stimulus-container"">
                    <img src=""images/causal_sequence/saving_a_cat_causal/saving_a_cat_causal_ten.png"" class=""exp-image"">
                    <div class=""question-area"">
                        <p style=""font-size: 20px; font-weight: bold; margin: 0;"">Is there a person in this image?</p>
                    </div>
                </div>","0","main_experiment_trial","ten","saving_a_cat_causal","causal_sequence","chronological","","","","","","",""
"","","","","","html-keyboard-response","163","541441","0.0-163.0","6972F22F718946CC8DBB689A45FAC7E5","019cfc8f-e8ff-72c2-b3dc-cdae91d69dd8","019cfc7b-6c7b-7b1b-afe7-acad8efc6711","","null","<div style=""background-color: white; width: 100vw; height: 100vh;""></div>","null","","","","","","","","","","","",""
"","","","","","html-keyboard-response","164","546455","0.0-164.0","6972F22F718946CC8DBB689A45FAC7E5","019cfc8f-e8ff-72c2-b3dc-cdae91d69dd8","019cfc7b-6c7b-7b1b-afe7-acad8efc6711","","null","
                <div class=""stimulus-container"">
                    <img src=""images/schematic_sequence/hotel_scheme/hotel_scheme_1.png"" class=""exp-image"">
                    <div class=""question-area""></div> 
                </div>","null","","","","","","","","","","","",""
"","","","","","html-button-response","165","547997","0.0-165.0","6972F22F718946CC8DBB689A45FAC7E5","019cfc8f-e8ff-72c2-b3dc-cdae91d69dd8","019cfc7b-6c7b-7b1b-afe7-acad8efc6711","","1541","
                <div class=""stimulus-container"">
                    <img src=""images/schematic_sequence/hotel_scheme/hotel_scheme_1.png"" class=""exp-image"">
                    <div class=""question-area"">
                        <p style=""font-size: 20px; font-weight: bold; margin: 0;"">Is there a person in this image?</p>
                    </div>
                </div>","1","main_experiment_trial","1","hotel_scheme","schematic_sequence","chronological","","","","","","",""
"","","","","","html-keyboard-response","166","553005","0.0-166.0","6972F22F718946CC8DBB689A45FAC7E5","019cfc8f-e8ff-72c2-b3dc-cdae91d69dd8","019cfc7b-6c7b-7b1b-afe7-acad8efc6711","","null","
                <div class=""stimulus-container"">
                    <img src=""images/schematic_sequence/hotel_scheme/hotel_scheme_2.png"" class=""exp-image"">
                    <div class=""question-area""></div> 
                </div>","null","","","","","","","","","","","",""
"","","","","","html-button-response","167","554741","0.0-167.0","6972F22F718946CC8DBB689A45FAC7E5","019cfc8f-e8ff-72c2-b3dc-cdae91d69dd8","019cfc7b-6c7b-7b1b-afe7-acad8efc6711","","1735","
                <div class=""stimulus-container"">
                    <img src=""images/schematic_sequence/hotel_scheme/hotel_scheme_2.png"" class=""exp-image"">
                    <div class=""question-area"">
                        <p style=""font-size: 20px; font-weight: bold; margin: 0;"">Is there a person in this image?</p>
                    </div>
                </div>","0","main_experiment_trial","2","hotel_scheme","schematic_sequence","chronological","","","","","","",""
"","","","","","html-keyboard-response","168","559751","0.0-168.0","6972F22F718946CC8DBB689A45FAC7E5","019cfc8f-e8ff-72c2-b3dc-cdae91d69dd8","019cfc7b-6c7b-7b1b-afe7-acad8efc6711","","null","
                <div class=""stimulus-container"">
                    <img src=""images/schematic_sequence/hotel_scheme/hotel_scheme_3.png"" class=""exp-image"">
                    <div class=""question-area""></div> 
                </div>","null","","","","","","","","","","","",""
"","","","","","html-button-response","169","562766","0.0-169.0","6972F22F718946CC8DBB689A45FAC7E5","019cfc8f-e8ff-72c2-b3dc-cdae91d69dd8","019cfc7b-6c7b-7b1b-afe7-acad8efc6711","","null","
                <div class=""stimulus-container"">
                    <img src=""images/schematic_sequence/hotel_scheme/hotel_scheme_3.png"" class=""exp-image"">
                    <div class=""question-area"">
                        <p style=""font-size: 20px; font-weight: bold; margin: 0;"">Is there a person in this image?</p>
                    </div>
                </div>","null","main_experiment_trial","3","hotel_scheme","schematic_sequence","chronological","","","","","","",""
"","","","","","html-keyboard-response","170","567782","0.0-170.0","6972F22F718946CC8DBB689A45FAC7E5","019cfc8f-e8ff-72c2-b3dc-cdae91d69dd8","019cfc7b-6c7b-7b1b-afe7-acad8efc6711","","null","
                <div class=""stimulus-container"">
                    <img src=""images/schematic_sequence/hotel_scheme/hotel_scheme_4.png"" class=""exp-image"">
                    <div class=""question-area""></div> 
                </div>","null","","","","","","","","","","","",""
"","","","","","html-button-response","171","569045","0.0-171.0","6972F22F718946CC8DBB689A45FAC7E5","019cfc8f-e8ff-72c2-b3dc-cdae91d69dd8","019cfc7b-6c7b-7b1b-afe7-acad8efc6711","","1262","
                <div class=""stimulus-container"">
                    <img src=""images/schematic_sequence/hotel_scheme/hotel_scheme_4.png"" class=""exp-image"">
                    <div class=""question-area"">
                        <p style=""font-size: 20px; font-weight: bold; margin: 0;"">Is there a person in this image?</p>
                    </div>
                </div>","1","main_experiment_trial","4","hotel_scheme","schematic_sequence","chronological","","","","","","",""
"","","","","","html-keyboard-response","172","574049","0.0-172.0","6972F22F718946CC8DBB689A45FAC7E5","019cfc8f-e8ff-72c2-b3dc-cdae91d69dd8","019cfc7b-6c7b-7b1b-afe7-acad8efc6711","","null","
                <div class=""stimulus-container"">
                    <img src=""images/schematic_sequence/hotel_scheme/hotel_scheme_5.png"" class=""exp-image"">
                    <div class=""question-area""></div> 
                </div>","null","","","","","","","","","","","",""
"","","","","","html-button-response","173","574709","0.0-173.0","6972F22F718946CC8DBB689A45FAC7E5","019cfc8f-e8ff-72c2-b3dc-cdae91d69dd8","019cfc7b-6c7b-7b1b-afe7-acad8efc6711","","658","
                <div class=""stimulus-container"">
                    <img src=""images/schematic_sequence/hotel_scheme/hotel_scheme_5.png"" class=""exp-image"">
                    <div class=""question-area"">
                        <p style=""font-size: 20px; font-weight: bold; margin: 0;"">Is there a person in this image?</p>
                    </div>
                </div>","0","main_experiment_trial","5","hotel_scheme","schematic_sequence","chronological","","","","","","",""
"","","","","","html-keyboard-response","174","579717","0.0-174.0","6972F22F718946CC8DBB689A45FAC7E5","019cfc8f-e8ff-72c2-b3dc-cdae91d69dd8","019cfc7b-6c7b-7b1b-afe7-acad8efc6711","","null","
                <div class=""stimulus-container"">
                    <img src=""images/schematic_sequence/hotel_scheme/hotel_scheme_6.png"" class=""exp-image"">
                    <div class=""question-area""></div> 
                </div>","null","","","","","","","","","","","",""
"","","","","","html-button-response","175","581180","0.0-175.0","6972F22F718946CC8DBB689A45FAC7E5","019cfc8f-e8ff-72c2-b3dc-cdae91d69dd8","019cfc7b-6c7b-7b1b-afe7-acad8efc6711","","1463","
                <div class=""stimulus-container"">
                    <img src=""images/schematic_sequence/hotel_scheme/hotel_scheme_6.png"" class=""exp-image"">
                    <div class=""question-area"">
                        <p style=""font-size: 20px; font-weight: bold; margin: 0;"">Is there a person in this image?</p>
                    </div>
                </div>","0","main_experiment_trial","6","hotel_scheme","schematic_sequence","chronological","","","","","","",""
"","","","","","html-keyboard-response","176","586189","0.0-176.0","6972F22F718946CC8DBB689A45FAC7E5","019cfc8f-e8ff-72c2-b3dc-cdae91d69dd8","019cfc7b-6c7b-7b1b-afe7-acad8efc6711","","null","
                <div class=""stimulus-container"">
                    <img src=""images/schematic_sequence/hotel_scheme/hotel_scheme_7.png"" class=""exp-image"">
                    <div class=""question-area""></div> 
                </div>","null","","","","","","","","","","","",""
