"success","timeout","failed_images","failed_audio","failed_video","trial_type","trial_index","time_elapsed","internal_node_id","subject_id","study_id","session_id","view_history","rt","stimulus","response","task","image_index","folder","valuable_image_index","valuable_X","chosen_image_index","distance_from_X"
"false","false","[]","[]","[]","preload","0","39102","0.0-0.0","938BF76F80F9485481F4DAFED8FCEF2E","019ce677-3f55-7810-b1cf-3419ec9a4dbd","019ce643-47c6-74a0-b3d2-7bf5651ded46","","","","","","","","","","",""
"","","","","","instructions","1","43634","0.0-1.0","938BF76F80F9485481F4DAFED8FCEF2E","019ce677-3f55-7810-b1cf-3419ec9a4dbd","019ce643-47c6-74a0-b3d2-7bf5651ded46","[{""page_index"":0,""viewing_time"":4531}]","4531","","","","","","","","",""
"","","","","","instructions","2","48024","0.0-2.0","938BF76F80F9485481F4DAFED8FCEF2E","019ce677-3f55-7810-b1cf-3419ec9a4dbd","019ce643-47c6-74a0-b3d2-7bf5651ded46","[{""page_index"":0,""viewing_time"":4388}]","4389","","","","","","","","",""
"true","","","","","fullscreen","3","51663","0.0-3.0","938BF76F80F9485481F4DAFED8FCEF2E","019ce677-3f55-7810-b1cf-3419ec9a4dbd","019ce643-47c6-74a0-b3d2-7bf5651ded46","","2624","","","","","","","","",""
"","","","","","instructions","4","53893","0.0-4.0","938BF76F80F9485481F4DAFED8FCEF2E","019ce677-3f55-7810-b1cf-3419ec9a4dbd","019ce643-47c6-74a0-b3d2-7bf5651ded46","[{""page_index"":0,""viewing_time"":2226}]","2226","","","","","","","","",""
"","","","","","instructions","5","61380","0.0-5.0","938BF76F80F9485481F4DAFED8FCEF2E","019ce677-3f55-7810-b1cf-3419ec9a4dbd","019ce643-47c6-74a0-b3d2-7bf5651ded46","[{""page_index"":0,""viewing_time"":7486}]","7486","","","","","","","","",""
"","","","","","html-keyboard-response","6","65394","0.0-6.0","938BF76F80F9485481F4DAFED8FCEF2E","019ce677-3f55-7810-b1cf-3419ec9a4dbd","019ce643-47c6-74a0-b3d2-7bf5651ded46","","null","
                <div class=""stimulus-container"">
                    <img src=""images/instructions/movie_1.png"" class=""exp-image"">
                    <div class=""question-area""></div> 
                </div>","null","","","","","","",""
"","","","","","html-button-response","7","67481","0.0-7.0","938BF76F80F9485481F4DAFED8FCEF2E","019ce677-3f55-7810-b1cf-3419ec9a4dbd","019ce643-47c6-74a0-b3d2-7bf5651ded46","","2085","
                <div class=""stimulus-container"">
                    <img src=""images/instructions/movie_1.png"" class=""exp-image"">
                    <div class=""question-area"">
                        <p style=""font-size: 20px; font-weight: bold; margin: 0;"">Was there a person in this image?</p>
                    </div>
                </div>","0","example_question","1","","","","",""
"","","","","","html-keyboard-response","8","71492","0.0-8.0","938BF76F80F9485481F4DAFED8FCEF2E","019ce677-3f55-7810-b1cf-3419ec9a4dbd","019ce643-47c6-74a0-b3d2-7bf5651ded46","","null","
                <div class=""stimulus-container"">
                    <img src=""images/instructions/movie_2.png"" class=""exp-image"">
                    <div class=""question-area""></div> 
                </div>","null","","","","","","",""
"","","","","","html-button-response","9","72713","0.0-9.0","938BF76F80F9485481F4DAFED8FCEF2E","019ce677-3f55-7810-b1cf-3419ec9a4dbd","019ce643-47c6-74a0-b3d2-7bf5651ded46","","1219","
                <div class=""stimulus-container"">
                    <img src=""images/instructions/movie_2.png"" class=""exp-image"">
                    <div class=""question-area"">
                        <p style=""font-size: 20px; font-weight: bold; margin: 0;"">Was there a person in this image?</p>
                    </div>
                </div>","0","example_question","2","","","","",""
"","","","","","html-keyboard-response","10","76716","0.0-10.0","938BF76F80F9485481F4DAFED8FCEF2E","019ce677-3f55-7810-b1cf-3419ec9a4dbd","019ce643-47c6-74a0-b3d2-7bf5651ded46","","null","
                <div class=""stimulus-container"">
                    <img src=""images/instructions/movie_3.png"" class=""exp-image"">
                    <div class=""question-area""></div> 
                </div>","null","","","","","","",""
"","","","","","html-button-response","11","77668","0.0-11.0","938BF76F80F9485481F4DAFED8FCEF2E","019ce677-3f55-7810-b1cf-3419ec9a4dbd","019ce643-47c6-74a0-b3d2-7bf5651ded46","","950","
                <div class=""stimulus-container"">
                    <img src=""images/instructions/movie_3.png"" class=""exp-image"">
                    <div class=""question-area"">
                        <p style=""font-size: 20px; font-weight: bold; margin: 0;"">Was there a person in this image?</p>
                    </div>
                </div>","0","example_question","3","","","","",""
"","","","","","html-keyboard-response","12","81673","0.0-12.0","938BF76F80F9485481F4DAFED8FCEF2E","019ce677-3f55-7810-b1cf-3419ec9a4dbd","019ce643-47c6-74a0-b3d2-7bf5651ded46","","null","
                <div class=""stimulus-container"">
                    <img src=""images/instructions/movie_4.png"" class=""exp-image"">
                    <div class=""question-area""></div> 
                </div>","null","","","","","","",""
"","","","","","html-button-response","13","82407","0.0-13.0","938BF76F80F9485481F4DAFED8FCEF2E","019ce677-3f55-7810-b1cf-3419ec9a4dbd","019ce643-47c6-74a0-b3d2-7bf5651ded46","","732","
                <div class=""stimulus-container"">
                    <img src=""images/instructions/movie_4.png"" class=""exp-image"">
                    <div class=""question-area"">
                        <p style=""font-size: 20px; font-weight: bold; margin: 0;"">Was there a person in this image?</p>
                    </div>
                </div>","0","example_question","4","","","","",""
"","","","","","instructions","14","84410","0.0-14.0","938BF76F80F9485481F4DAFED8FCEF2E","019ce677-3f55-7810-b1cf-3419ec9a4dbd","019ce643-47c6-74a0-b3d2-7bf5651ded46","[{""page_index"":0,""viewing_time"":2002}]","2002","","","","","","","","",""
"","","","","","html-keyboard-response","15","85418","0.0-15.0","938BF76F80F9485481F4DAFED8FCEF2E","019ce677-3f55-7810-b1cf-3419ec9a4dbd","019ce643-47c6-74a0-b3d2-7bf5651ded46","","null","<div style=""background-color: gray; width: 100vw; height: 100vh;""></div>","null","","","","","","",""
"","","","","","html-keyboard-response","16","90435","0.0-16.0","938BF76F80F9485481F4DAFED8FCEF2E","019ce677-3f55-7810-b1cf-3419ec9a4dbd","019ce643-47c6-74a0-b3d2-7bf5651ded46","","null","
                    <div class=""stimulus-container"">
                        <img src=""images/causal_sequence/saving_a_cat_causal/saving_a_cat_causal_1.png"" class=""exp-image"">
                        <div class=""question-area""></div> 
                    </div>","null","","","","","","",""
"","","","","","html-button-response","17","91613","0.0-17.0","938BF76F80F9485481F4DAFED8FCEF2E","019ce677-3f55-7810-b1cf-3419ec9a4dbd","019ce643-47c6-74a0-b3d2-7bf5651ded46","","1176","
                    <div class=""stimulus-container"">
                        <img src=""images/causal_sequence/saving_a_cat_causal/saving_a_cat_causal_1.png"" class=""exp-image"">
                        <div class=""question-area"">
                            <p style=""font-size: 20px; font-weight: bold; margin: 0;"">Is there a person in this image?</p>
                        </div>
                    </div>","0","main_causal_task","1","saving_a_cat_causal","","","",""
"","","","","","html-keyboard-response","18","96621","0.0-18.0","938BF76F80F9485481F4DAFED8FCEF2E","019ce677-3f55-7810-b1cf-3419ec9a4dbd","019ce643-47c6-74a0-b3d2-7bf5651ded46","","null","
                    <div class=""stimulus-container"">
                        <img src=""images/causal_sequence/saving_a_cat_causal/saving_a_cat_causal_2.png"" class=""exp-image"">
                        <div class=""question-area""></div> 
                    </div>","null","","","","","","",""
"","","","","","html-button-response","19","97563","0.0-19.0","938BF76F80F9485481F4DAFED8FCEF2E","019ce677-3f55-7810-b1cf-3419ec9a4dbd","019ce643-47c6-74a0-b3d2-7bf5651ded46","","940","
                    <div class=""stimulus-container"">
                        <img src=""images/causal_sequence/saving_a_cat_causal/saving_a_cat_causal_2.png"" class=""exp-image"">
                        <div class=""question-area"">
                            <p style=""font-size: 20px; font-weight: bold; margin: 0;"">Is there a person in this image?</p>
                        </div>
                    </div>","1","main_causal_task","2","saving_a_cat_causal","","","",""
"","","","","","html-keyboard-response","20","102566","0.0-20.0","938BF76F80F9485481F4DAFED8FCEF2E","019ce677-3f55-7810-b1cf-3419ec9a4dbd","019ce643-47c6-74a0-b3d2-7bf5651ded46","","null","
                    <div class=""stimulus-container"">
                        <img src=""images/causal_sequence/saving_a_cat_causal/saving_a_cat_causal_3.png"" class=""exp-image"">
                        <div class=""question-area""></div> 
                    </div>","null","","","","","","",""
"","","","","","html-button-response","21","103736","0.0-21.0","938BF76F80F9485481F4DAFED8FCEF2E","019ce677-3f55-7810-b1cf-3419ec9a4dbd","019ce643-47c6-74a0-b3d2-7bf5651ded46","","1169","
                    <div class=""stimulus-container"">
                        <img src=""images/causal_sequence/saving_a_cat_causal/saving_a_cat_causal_3.png"" class=""exp-image"">
                        <div class=""question-area"">
                            <p style=""font-size: 20px; font-weight: bold; margin: 0;"">Is there a person in this image?</p>
                        </div>
                    </div>","1","main_causal_task","3","saving_a_cat_causal","","","",""
"","","","","","html-keyboard-response","22","108746","0.0-22.0","938BF76F80F9485481F4DAFED8FCEF2E","019ce677-3f55-7810-b1cf-3419ec9a4dbd","019ce643-47c6-74a0-b3d2-7bf5651ded46","","null","
                    <div class=""stimulus-container"">
                        <img src=""images/causal_sequence/saving_a_cat_causal/saving_a_cat_causal_4.png"" class=""exp-image"">
                        <div class=""question-area""></div> 
                    </div>","null","","","","","","",""
"","","","","","html-button-response","23","109512","0.0-23.0","938BF76F80F9485481F4DAFED8FCEF2E","019ce677-3f55-7810-b1cf-3419ec9a4dbd","019ce643-47c6-74a0-b3d2-7bf5651ded46","","765","
                    <div class=""stimulus-container"">
                        <img src=""images/causal_sequence/saving_a_cat_causal/saving_a_cat_causal_4.png"" class=""exp-image"">
                        <div class=""question-area"">
                            <p style=""font-size: 20px; font-weight: bold; margin: 0;"">Is there a person in this image?</p>
                        </div>
                    </div>","0","main_causal_task","4","saving_a_cat_causal","","","",""
"","","","","","html-keyboard-response","24","114530","0.0-24.0","938BF76F80F9485481F4DAFED8FCEF2E","019ce677-3f55-7810-b1cf-3419ec9a4dbd","019ce643-47c6-74a0-b3d2-7bf5651ded46","","null","
                    <div class=""stimulus-container"">
                        <img src=""images/causal_sequence/saving_a_cat_causal/saving_a_cat_causal_5.png"" class=""exp-image"">
                        <div class=""question-area""></div> 
                    </div>","null","","","","","","",""
"","","","","","html-button-response","25","115014","0.0-25.0","938BF76F80F9485481F4DAFED8FCEF2E","019ce677-3f55-7810-b1cf-3419ec9a4dbd","019ce643-47c6-74a0-b3d2-7bf5651ded46","","483","
                    <div class=""stimulus-container"">
                        <img src=""images/causal_sequence/saving_a_cat_causal/saving_a_cat_causal_5.png"" class=""exp-image"">
                        <div class=""question-area"">
                            <p style=""font-size: 20px; font-weight: bold; margin: 0;"">Is there a person in this image?</p>
                        </div>
                    </div>","0","main_causal_task","5","saving_a_cat_causal","","","",""
"","","","","","html-keyboard-response","26","120023","0.0-26.0","938BF76F80F9485481F4DAFED8FCEF2E","019ce677-3f55-7810-b1cf-3419ec9a4dbd","019ce643-47c6-74a0-b3d2-7bf5651ded46","","null","
                    <div class=""stimulus-container"">
                        <img src=""images/causal_sequence/saving_a_cat_causal/saving_a_cat_causal_6.png"" class=""exp-image"">
                        <div class=""question-area""></div> 
                    </div>","null","","","","","","",""
"","","","","","html-button-response","27","121125","0.0-27.0","938BF76F80F9485481F4DAFED8FCEF2E","019ce677-3f55-7810-b1cf-3419ec9a4dbd","019ce643-47c6-74a0-b3d2-7bf5651ded46","","1101","
                    <div class=""stimulus-container"">
                        <img src=""images/causal_sequence/saving_a_cat_causal/saving_a_cat_causal_6.png"" class=""exp-image"">
                        <div class=""question-area"">
                            <p style=""font-size: 20px; font-weight: bold; margin: 0;"">Is there a person in this image?</p>
                        </div>
                    </div>","0","main_causal_task","6","saving_a_cat_causal","","","",""
"","","","","","html-keyboard-response","28","126126","0.0-28.0","938BF76F80F9485481F4DAFED8FCEF2E","019ce677-3f55-7810-b1cf-3419ec9a4dbd","019ce643-47c6-74a0-b3d2-7bf5651ded46","","null","
                    <div class=""stimulus-container"">
                        <img src=""images/causal_sequence/saving_a_cat_causal/saving_a_cat_causal_7.png"" class=""exp-image"">
                        <div class=""question-area""></div> 
                    </div>","null","","","","","","",""
"","","","","","html-button-response","29","127146","0.0-29.0","938BF76F80F9485481F4DAFED8FCEF2E","019ce677-3f55-7810-b1cf-3419ec9a4dbd","019ce643-47c6-74a0-b3d2-7bf5651ded46","","1019","
                    <div class=""stimulus-container"">
                        <img src=""images/causal_sequence/saving_a_cat_causal/saving_a_cat_causal_7.png"" class=""exp-image"">
                        <div class=""question-area"">
                            <p style=""font-size: 20px; font-weight: bold; margin: 0;"">Is there a person in this image?</p>
                        </div>
                    </div>","0","main_causal_task","7","saving_a_cat_causal","","","",""
"","","","","","html-keyboard-response","30","132156","0.0-30.0","938BF76F80F9485481F4DAFED8FCEF2E","019ce677-3f55-7810-b1cf-3419ec9a4dbd","019ce643-47c6-74a0-b3d2-7bf5651ded46","","null","
                    <div class=""stimulus-container"">
                        <img src=""images/causal_sequence/saving_a_cat_causal/saving_a_cat_causal_8.png"" class=""exp-image"">
                        <div class=""question-area""></div> 
                    </div>","null","","","","","","",""
"","","","","","html-button-response","31","133155","0.0-31.0","938BF76F80F9485481F4DAFED8FCEF2E","019ce677-3f55-7810-b1cf-3419ec9a4dbd","019ce643-47c6-74a0-b3d2-7bf5651ded46","","997","
                    <div class=""stimulus-container"">
                        <img src=""images/causal_sequence/saving_a_cat_causal/saving_a_cat_causal_8.png"" class=""exp-image"">
                        <div class=""question-area"">
                            <p style=""font-size: 20px; font-weight: bold; margin: 0;"">Is there a person in this image?</p>
                        </div>
                    </div>","0","main_causal_task","8","saving_a_cat_causal","","","",""
"","","","","","html-keyboard-response","32","138162","0.0-32.0","938BF76F80F9485481F4DAFED8FCEF2E","019ce677-3f55-7810-b1cf-3419ec9a4dbd","019ce643-47c6-74a0-b3d2-7bf5651ded46","","null","
                    <div class=""stimulus-container"">
                        <img src=""images/causal_sequence/saving_a_cat_causal/saving_a_cat_causal_9.png"" class=""exp-image"">
                        <div class=""question-area""></div> 
                    </div>","null","","","","","","",""
"","","","","","html-button-response","33","138728","0.0-33.0","938BF76F80F9485481F4DAFED8FCEF2E","019ce677-3f55-7810-b1cf-3419ec9a4dbd","019ce643-47c6-74a0-b3d2-7bf5651ded46","","565","
                    <div class=""stimulus-container"">
                        <img src=""images/causal_sequence/saving_a_cat_causal/saving_a_cat_causal_9.png"" class=""exp-image"">
                        <div class=""question-area"">
                            <p style=""font-size: 20px; font-weight: bold; margin: 0;"">Is there a person in this image?</p>
                        </div>
                    </div>","0","main_causal_task","9","saving_a_cat_causal","","","",""
"","","","","","html-keyboard-response","34","139743","0.0-34.0","938BF76F80F9485481F4DAFED8FCEF2E","019ce677-3f55-7810-b1cf-3419ec9a4dbd","019ce643-47c6-74a0-b3d2-7bf5651ded46","","null","<div style=""background-color: gray; width: 100vw; height: 100vh;""></div>","null","","","","","","",""
"","","","","","html-keyboard-response","35","144745","0.0-35.0","938BF76F80F9485481F4DAFED8FCEF2E","019ce677-3f55-7810-b1cf-3419ec9a4dbd","019ce643-47c6-74a0-b3d2-7bf5651ded46","","null","
                    <div class=""stimulus-container"">
                        <img src=""images/causal_sequence/package_causal/package_causal_1.png"" class=""exp-image"">
                        <div class=""question-area""></div> 
                    </div>","null","","","","","","",""
"","","","","","html-button-response","36","147753","0.0-36.0","938BF76F80F9485481F4DAFED8FCEF2E","019ce677-3f55-7810-b1cf-3419ec9a4dbd","019ce643-47c6-74a0-b3d2-7bf5651ded46","","null","
                    <div class=""stimulus-container"">
                        <img src=""images/causal_sequence/package_causal/package_causal_1.png"" class=""exp-image"">
                        <div class=""question-area"">
                            <p style=""font-size: 20px; font-weight: bold; margin: 0;"">Is there a person in this image?</p>
                        </div>
                    </div>","null","main_causal_task","1","package_causal","","","",""
"","","","","","html-keyboard-response","37","152758","0.0-37.0","938BF76F80F9485481F4DAFED8FCEF2E","019ce677-3f55-7810-b1cf-3419ec9a4dbd","019ce643-47c6-74a0-b3d2-7bf5651ded46","","null","
                    <div class=""stimulus-container"">
                        <img src=""images/causal_sequence/package_causal/package_causal_2.png"" class=""exp-image"">
                        <div class=""question-area""></div> 
                    </div>","null","","","","","","",""
"","","","","","html-button-response","38","153705","0.0-38.0","938BF76F80F9485481F4DAFED8FCEF2E","019ce677-3f55-7810-b1cf-3419ec9a4dbd","019ce643-47c6-74a0-b3d2-7bf5651ded46","","947","
                    <div class=""stimulus-container"">
                        <img src=""images/causal_sequence/package_causal/package_causal_2.png"" class=""exp-image"">
                        <div class=""question-area"">
                            <p style=""font-size: 20px; font-weight: bold; margin: 0;"">Is there a person in this image?</p>
                        </div>
                    </div>","0","main_causal_task","2","package_causal","","","",""
"","","","","","html-keyboard-response","39","158714","0.0-39.0","938BF76F80F9485481F4DAFED8FCEF2E","019ce677-3f55-7810-b1cf-3419ec9a4dbd","019ce643-47c6-74a0-b3d2-7bf5651ded46","","null","
                    <div class=""stimulus-container"">
                        <img src=""images/causal_sequence/package_causal/package_causal_3.png"" class=""exp-image"">
                        <div class=""question-area""></div> 
                    </div>","null","","","","","","",""
"","","","","","html-button-response","40","159442","0.0-40.0","938BF76F80F9485481F4DAFED8FCEF2E","019ce677-3f55-7810-b1cf-3419ec9a4dbd","019ce643-47c6-74a0-b3d2-7bf5651ded46","","726","
                    <div class=""stimulus-container"">
                        <img src=""images/causal_sequence/package_causal/package_causal_3.png"" class=""exp-image"">
                        <div class=""question-area"">
                            <p style=""font-size: 20px; font-weight: bold; margin: 0;"">Is there a person in this image?</p>
                        </div>
                    </div>","0","main_causal_task","3","package_causal","","","",""
"","","","","","html-keyboard-response","41","164447","0.0-41.0","938BF76F80F9485481F4DAFED8FCEF2E","019ce677-3f55-7810-b1cf-3419ec9a4dbd","019ce643-47c6-74a0-b3d2-7bf5651ded46","","null","
                    <div class=""stimulus-container"">
                        <img src=""images/causal_sequence/package_causal/package_causal_4.png"" class=""exp-image"">
                        <div class=""question-area""></div> 
                    </div>","null","","","","","","",""
"","","","","","html-button-response","42","166041","0.0-42.0","938BF76F80F9485481F4DAFED8FCEF2E","019ce677-3f55-7810-b1cf-3419ec9a4dbd","019ce643-47c6-74a0-b3d2-7bf5651ded46","","1592","
                    <div class=""stimulus-container"">
                        <img src=""images/causal_sequence/package_causal/package_causal_4.png"" class=""exp-image"">
                        <div class=""question-area"">
                            <p style=""font-size: 20px; font-weight: bold; margin: 0;"">Is there a person in this image?</p>
                        </div>
                    </div>","1","main_causal_task","4","package_causal","","","",""
"","","","","","html-keyboard-response","43","171047","0.0-43.0","938BF76F80F9485481F4DAFED8FCEF2E","019ce677-3f55-7810-b1cf-3419ec9a4dbd","019ce643-47c6-74a0-b3d2-7bf5651ded46","","null","
                    <div class=""stimulus-container"">
                        <img src=""images/causal_sequence/package_causal/package_causal_5.png"" class=""exp-image"">
                        <div class=""question-area""></div> 
                    </div>","null","","","","","","",""
"","","","","","html-button-response","44","172209","0.0-44.0","938BF76F80F9485481F4DAFED8FCEF2E","019ce677-3f55-7810-b1cf-3419ec9a4dbd","019ce643-47c6-74a0-b3d2-7bf5651ded46","","1160","
                    <div class=""stimulus-container"">
                        <img src=""images/causal_sequence/package_causal/package_causal_5.png"" class=""exp-image"">
                        <div class=""question-area"">
                            <p style=""font-size: 20px; font-weight: bold; margin: 0;"">Is there a person in this image?</p>
                        </div>
                    </div>","0","main_causal_task","5","package_causal","","","",""
"","","","","","html-keyboard-response","45","177216","0.0-45.0","938BF76F80F9485481F4DAFED8FCEF2E","019ce677-3f55-7810-b1cf-3419ec9a4dbd","019ce643-47c6-74a0-b3d2-7bf5651ded46","","null","
                    <div class=""stimulus-container"">
                        <img src=""images/causal_sequence/package_causal/package_causal_6.png"" class=""exp-image"">
                        <div class=""question-area""></div> 
                    </div>","null","","","","","","",""
"","","","","","html-button-response","46","178427","0.0-46.0","938BF76F80F9485481F4DAFED8FCEF2E","019ce677-3f55-7810-b1cf-3419ec9a4dbd","019ce643-47c6-74a0-b3d2-7bf5651ded46","","1209","
                    <div class=""stimulus-container"">
                        <img src=""images/causal_sequence/package_causal/package_causal_6.png"" class=""exp-image"">
                        <div class=""question-area"">
                            <p style=""font-size: 20px; font-weight: bold; margin: 0;"">Is there a person in this image?</p>
                        </div>
                    </div>","0","main_causal_task","6","package_causal","","","",""
"","","","","","html-keyboard-response","47","183436","0.0-47.0","938BF76F80F9485481F4DAFED8FCEF2E","019ce677-3f55-7810-b1cf-3419ec9a4dbd","019ce643-47c6-74a0-b3d2-7bf5651ded46","","null","
                    <div class=""stimulus-container"">
                        <img src=""images/causal_sequence/package_causal/package_causal_7.png"" class=""exp-image"">
                        <div class=""question-area""></div> 
                    </div>","null","","","","","","",""
"","","","","","html-button-response","48","184775","0.0-48.0","938BF76F80F9485481F4DAFED8FCEF2E","019ce677-3f55-7810-b1cf-3419ec9a4dbd","019ce643-47c6-74a0-b3d2-7bf5651ded46","","1336","
                    <div class=""stimulus-container"">
                        <img src=""images/causal_sequence/package_causal/package_causal_7.png"" class=""exp-image"">
                        <div class=""question-area"">
                            <p style=""font-size: 20px; font-weight: bold; margin: 0;"">Is there a person in this image?</p>
                        </div>
                    </div>","0","main_causal_task","7","package_causal","","","",""
"","","","","","html-keyboard-response","49","189782","0.0-49.0","938BF76F80F9485481F4DAFED8FCEF2E","019ce677-3f55-7810-b1cf-3419ec9a4dbd","019ce643-47c6-74a0-b3d2-7bf5651ded46","","null","
                    <div class=""stimulus-container"">
                        <img src=""images/causal_sequence/package_causal/package_causal_8.png"" class=""exp-image"">
                        <div class=""question-area""></div> 
                    </div>","null","","","","","","",""
"","","","","","html-button-response","50","190552","0.0-50.0","938BF76F80F9485481F4DAFED8FCEF2E","019ce677-3f55-7810-b1cf-3419ec9a4dbd","019ce643-47c6-74a0-b3d2-7bf5651ded46","","769","
                    <div class=""stimulus-container"">
                        <img src=""images/causal_sequence/package_causal/package_causal_8.png"" class=""exp-image"">
                        <div class=""question-area"">
                            <p style=""font-size: 20px; font-weight: bold; margin: 0;"">Is there a person in this image?</p>
                        </div>
                    </div>","0","main_causal_task","8","package_causal","","","",""
"","","","","","html-keyboard-response","51","195557","0.0-51.0","938BF76F80F9485481F4DAFED8FCEF2E","019ce677-3f55-7810-b1cf-3419ec9a4dbd","019ce643-47c6-74a0-b3d2-7bf5651ded46","","null","
                    <div class=""stimulus-container"">
                        <img src=""images/causal_sequence/package_causal/package_causal_9.png"" class=""exp-image"">
                        <div class=""question-area""></div> 
                    </div>","null","","","","","","",""
"","","","","","html-button-response","52","196251","0.0-52.0","938BF76F80F9485481F4DAFED8FCEF2E","019ce677-3f55-7810-b1cf-3419ec9a4dbd","019ce643-47c6-74a0-b3d2-7bf5651ded46","","692","
                    <div class=""stimulus-container"">
                        <img src=""images/causal_sequence/package_causal/package_causal_9.png"" class=""exp-image"">
                        <div class=""question-area"">
                            <p style=""font-size: 20px; font-weight: bold; margin: 0;"">Is there a person in this image?</p>
                        </div>
                    </div>","0","main_causal_task","9","package_causal","","","",""
"","","","","","html-keyboard-response","53","197262","0.0-53.0","938BF76F80F9485481F4DAFED8FCEF2E","019ce677-3f55-7810-b1cf-3419ec9a4dbd","019ce643-47c6-74a0-b3d2-7bf5651ded46","","null","<div style=""background-color: gray; width: 100vw; height: 100vh;""></div>","null","","","","","","",""
"","","","","","html-keyboard-response","54","202264","0.0-54.0","938BF76F80F9485481F4DAFED8FCEF2E","019ce677-3f55-7810-b1cf-3419ec9a4dbd","019ce643-47c6-74a0-b3d2-7bf5651ded46","","null","
                    <div class=""stimulus-container"">
                        <img src=""images/causal_sequence/the_performance_causal/the_performance_causal_1.png"" class=""exp-image"">
                        <div class=""question-area""></div> 
                    </div>","null","","","","","","",""
"","","","","","html-button-response","55","203089","0.0-55.0","938BF76F80F9485481F4DAFED8FCEF2E","019ce677-3f55-7810-b1cf-3419ec9a4dbd","019ce643-47c6-74a0-b3d2-7bf5651ded46","","825","
                    <div class=""stimulus-container"">
                        <img src=""images/causal_sequence/the_performance_causal/the_performance_causal_1.png"" class=""exp-image"">
                        <div class=""question-area"">
                            <p style=""font-size: 20px; font-weight: bold; margin: 0;"">Is there a person in this image?</p>
                        </div>
                    </div>","0","main_causal_task","1","the_performance_causal","","","",""
"","","","","","html-keyboard-response","56","208103","0.0-56.0","938BF76F80F9485481F4DAFED8FCEF2E","019ce677-3f55-7810-b1cf-3419ec9a4dbd","019ce643-47c6-74a0-b3d2-7bf5651ded46","","null","
                    <div class=""stimulus-container"">
                        <img src=""images/causal_sequence/the_performance_causal/the_performance_causal_2.png"" class=""exp-image"">
                        <div class=""question-area""></div> 
                    </div>","null","","","","","","",""
"","","","","","html-button-response","57","210064","0.0-57.0","938BF76F80F9485481F4DAFED8FCEF2E","019ce677-3f55-7810-b1cf-3419ec9a4dbd","019ce643-47c6-74a0-b3d2-7bf5651ded46","","1959","
                    <div class=""stimulus-container"">
                        <img src=""images/causal_sequence/the_performance_causal/the_performance_causal_2.png"" class=""exp-image"">
                        <div class=""question-area"">
                            <p style=""font-size: 20px; font-weight: bold; margin: 0;"">Is there a person in this image?</p>
                        </div>
                    </div>","0","main_causal_task","2","the_performance_causal","","","",""
"","","","","","html-keyboard-response","58","215069","0.0-58.0","938BF76F80F9485481F4DAFED8FCEF2E","019ce677-3f55-7810-b1cf-3419ec9a4dbd","019ce643-47c6-74a0-b3d2-7bf5651ded46","","null","
                    <div class=""stimulus-container"">
                        <img src=""images/causal_sequence/the_performance_causal/the_performance_causal_3.png"" class=""exp-image"">
                        <div class=""question-area""></div> 
                    </div>","null","","","","","","",""
"","","","","","html-button-response","59","215583","0.0-59.0","938BF76F80F9485481F4DAFED8FCEF2E","019ce677-3f55-7810-b1cf-3419ec9a4dbd","019ce643-47c6-74a0-b3d2-7bf5651ded46","","514","
                    <div class=""stimulus-container"">
                        <img src=""images/causal_sequence/the_performance_causal/the_performance_causal_3.png"" class=""exp-image"">
                        <div class=""question-area"">
                            <p style=""font-size: 20px; font-weight: bold; margin: 0;"">Is there a person in this image?</p>
                        </div>
                    </div>","0","main_causal_task","3","the_performance_causal","","","",""
"","","","","","html-keyboard-response","60","220599","0.0-60.0","938BF76F80F9485481F4DAFED8FCEF2E","019ce677-3f55-7810-b1cf-3419ec9a4dbd","019ce643-47c6-74a0-b3d2-7bf5651ded46","","null","
                    <div class=""stimulus-container"">
                        <img src=""images/causal_sequence/the_performance_causal/the_performance_causal_4.png"" class=""exp-image"">
                        <div class=""question-area""></div> 
                    </div>","null","","","","","","",""
"","","","","","html-button-response","61","222593","0.0-61.0","938BF76F80F9485481F4DAFED8FCEF2E","019ce677-3f55-7810-b1cf-3419ec9a4dbd","019ce643-47c6-74a0-b3d2-7bf5651ded46","","1993","
                    <div class=""stimulus-container"">
                        <img src=""images/causal_sequence/the_performance_causal/the_performance_causal_4.png"" class=""exp-image"">
                        <div class=""question-area"">
                            <p style=""font-size: 20px; font-weight: bold; margin: 0;"">Is there a person in this image?</p>
                        </div>
                    </div>","0","main_causal_task","4","the_performance_causal","","","",""
"","","","","","html-keyboard-response","62","227596","0.0-62.0","938BF76F80F9485481F4DAFED8FCEF2E","019ce677-3f55-7810-b1cf-3419ec9a4dbd","019ce643-47c6-74a0-b3d2-7bf5651ded46","","null","
                    <div class=""stimulus-container"">
                        <img src=""images/causal_sequence/the_performance_causal/the_performance_causal_5.png"" class=""exp-image"">
                        <div class=""question-area""></div> 
                    </div>","null","","","","","","",""
"","","","","","html-button-response","63","228326","0.0-63.0","938BF76F80F9485481F4DAFED8FCEF2E","019ce677-3f55-7810-b1cf-3419ec9a4dbd","019ce643-47c6-74a0-b3d2-7bf5651ded46","","728","
                    <div class=""stimulus-container"">
                        <img src=""images/causal_sequence/the_performance_causal/the_performance_causal_5.png"" class=""exp-image"">
                        <div class=""question-area"">
                            <p style=""font-size: 20px; font-weight: bold; margin: 0;"">Is there a person in this image?</p>
                        </div>
                    </div>","0","main_causal_task","5","the_performance_causal","","","",""
"","","","","","html-keyboard-response","64","233333","0.0-64.0","938BF76F80F9485481F4DAFED8FCEF2E","019ce677-3f55-7810-b1cf-3419ec9a4dbd","019ce643-47c6-74a0-b3d2-7bf5651ded46","","null","
                    <div class=""stimulus-container"">
                        <img src=""images/causal_sequence/the_performance_causal/the_performance_causal_6.png"" class=""exp-image"">
                        <div class=""question-area""></div> 
                    </div>","null","","","","","","",""
"","","","","","html-button-response","65","233999","0.0-65.0","938BF76F80F9485481F4DAFED8FCEF2E","019ce677-3f55-7810-b1cf-3419ec9a4dbd","019ce643-47c6-74a0-b3d2-7bf5651ded46","","665","
                    <div class=""stimulus-container"">
                        <img src=""images/causal_sequence/the_performance_causal/the_performance_causal_6.png"" class=""exp-image"">
                        <div class=""question-area"">
                            <p style=""font-size: 20px; font-weight: bold; margin: 0;"">Is there a person in this image?</p>
                        </div>
                    </div>","0","main_causal_task","6","the_performance_causal","","","",""
"","","","","","html-keyboard-response","66","239006","0.0-66.0","938BF76F80F9485481F4DAFED8FCEF2E","019ce677-3f55-7810-b1cf-3419ec9a4dbd","019ce643-47c6-74a0-b3d2-7bf5651ded46","","null","
                    <div class=""stimulus-container"">
                        <img src=""images/causal_sequence/the_performance_causal/the_performance_causal_7.png"" class=""exp-image"">
                        <div class=""question-area""></div> 
                    </div>","null","","","","","","",""
"","","","","","html-button-response","67","240224","0.0-67.0","938BF76F80F9485481F4DAFED8FCEF2E","019ce677-3f55-7810-b1cf-3419ec9a4dbd","019ce643-47c6-74a0-b3d2-7bf5651ded46","","1217","
                    <div class=""stimulus-container"">
                        <img src=""images/causal_sequence/the_performance_causal/the_performance_causal_7.png"" class=""exp-image"">
                        <div class=""question-area"">
                            <p style=""font-size: 20px; font-weight: bold; margin: 0;"">Is there a person in this image?</p>
                        </div>
                    </div>","0","main_causal_task","7","the_performance_causal","","","",""
"","","","","","html-keyboard-response","68","245232","0.0-68.0","938BF76F80F9485481F4DAFED8FCEF2E","019ce677-3f55-7810-b1cf-3419ec9a4dbd","019ce643-47c6-74a0-b3d2-7bf5651ded46","","null","
                    <div class=""stimulus-container"">
                        <img src=""images/causal_sequence/the_performance_causal/the_performance_causal_8.png"" class=""exp-image"">
                        <div class=""question-area""></div> 
                    </div>","null","","","","","","",""
"","","","","","html-button-response","69","246378","0.0-69.0","938BF76F80F9485481F4DAFED8FCEF2E","019ce677-3f55-7810-b1cf-3419ec9a4dbd","019ce643-47c6-74a0-b3d2-7bf5651ded46","","1144","
                    <div class=""stimulus-container"">
                        <img src=""images/causal_sequence/the_performance_causal/the_performance_causal_8.png"" class=""exp-image"">
                        <div class=""question-area"">
                            <p style=""font-size: 20px; font-weight: bold; margin: 0;"">Is there a person in this image?</p>
                        </div>
                    </div>","0","main_causal_task","8","the_performance_causal","","","",""
"","","","","","html-keyboard-response","70","251381","0.0-70.0","938BF76F80F9485481F4DAFED8FCEF2E","019ce677-3f55-7810-b1cf-3419ec9a4dbd","019ce643-47c6-74a0-b3d2-7bf5651ded46","","null","
                    <div class=""stimulus-container"">
                        <img src=""images/causal_sequence/the_performance_causal/the_performance_causal_9.png"" class=""exp-image"">
                        <div class=""question-area""></div> 
                    </div>","null","","","","","","",""
"","","","","","html-button-response","71","253796","0.0-71.0","938BF76F80F9485481F4DAFED8FCEF2E","019ce677-3f55-7810-b1cf-3419ec9a4dbd","019ce643-47c6-74a0-b3d2-7bf5651ded46","","2414","
                    <div class=""stimulus-container"">
                        <img src=""images/causal_sequence/the_performance_causal/the_performance_causal_9.png"" class=""exp-image"">
                        <div class=""question-area"">
                            <p style=""font-size: 20px; font-weight: bold; margin: 0;"">Is there a person in this image?</p>
                        </div>
                    </div>","0","main_causal_task","9","the_performance_causal","","","",""
"","","","","","html-keyboard-response","72","254809","0.0-72.0","938BF76F80F9485481F4DAFED8FCEF2E","019ce677-3f55-7810-b1cf-3419ec9a4dbd","019ce643-47c6-74a0-b3d2-7bf5651ded46","","null","<div style=""background-color: gray; width: 100vw; height: 100vh;""></div>","null","","","","","","",""
"","","","","","html-keyboard-response","73","259814","0.0-73.0","938BF76F80F9485481F4DAFED8FCEF2E","019ce677-3f55-7810-b1cf-3419ec9a4dbd","019ce643-47c6-74a0-b3d2-7bf5651ded46","","null","
                    <div class=""stimulus-container"">
                        <img src=""images/causal_sequence/museum_causal/museum_causal_1.png"" class=""exp-image"">
                        <div class=""question-area""></div> 
                    </div>","null","","","","","","",""
"","","","","","html-button-response","74","260572","0.0-74.0","938BF76F80F9485481F4DAFED8FCEF2E","019ce677-3f55-7810-b1cf-3419ec9a4dbd","019ce643-47c6-74a0-b3d2-7bf5651ded46","","757","
                    <div class=""stimulus-container"">
                        <img src=""images/causal_sequence/museum_causal/museum_causal_1.png"" class=""exp-image"">
                        <div class=""question-area"">
                            <p style=""font-size: 20px; font-weight: bold; margin: 0;"">Is there a person in this image?</p>
                        </div>
                    </div>","0","main_causal_task","1","museum_causal","","","",""
"","","","","","html-keyboard-response","75","265577","0.0-75.0","938BF76F80F9485481F4DAFED8FCEF2E","019ce677-3f55-7810-b1cf-3419ec9a4dbd","019ce643-47c6-74a0-b3d2-7bf5651ded46","","null","
                    <div class=""stimulus-container"">
                        <img src=""images/causal_sequence/museum_causal/museum_causal_2.png"" class=""exp-image"">
                        <div class=""question-area""></div> 
                    </div>","null","","","","","","",""
"","","","","","html-button-response","76","266382","0.0-76.0","938BF76F80F9485481F4DAFED8FCEF2E","019ce677-3f55-7810-b1cf-3419ec9a4dbd","019ce643-47c6-74a0-b3d2-7bf5651ded46","","804","
                    <div class=""stimulus-container"">
                        <img src=""images/causal_sequence/museum_causal/museum_causal_2.png"" class=""exp-image"">
                        <div class=""question-area"">
                            <p style=""font-size: 20px; font-weight: bold; margin: 0;"">Is there a person in this image?</p>
                        </div>
                    </div>","0","main_causal_task","2","museum_causal","","","",""
"","","","","","html-keyboard-response","77","271396","0.0-77.0","938BF76F80F9485481F4DAFED8FCEF2E","019ce677-3f55-7810-b1cf-3419ec9a4dbd","019ce643-47c6-74a0-b3d2-7bf5651ded46","","null","
                    <div class=""stimulus-container"">
                        <img src=""images/causal_sequence/museum_causal/museum_causal_3.png"" class=""exp-image"">
                        <div class=""question-area""></div> 
                    </div>","null","","","","","","",""
"","","","","","html-button-response","78","272193","0.0-78.0","938BF76F80F9485481F4DAFED8FCEF2E","019ce677-3f55-7810-b1cf-3419ec9a4dbd","019ce643-47c6-74a0-b3d2-7bf5651ded46","","796","
                    <div class=""stimulus-container"">
                        <img src=""images/causal_sequence/museum_causal/museum_causal_3.png"" class=""exp-image"">
                        <div class=""question-area"">
                            <p style=""font-size: 20px; font-weight: bold; margin: 0;"">Is there a person in this image?</p>
                        </div>
                    </div>","0","main_causal_task","3","museum_causal","","","",""
"","","","","","html-keyboard-response","79","277194","0.0-79.0","938BF76F80F9485481F4DAFED8FCEF2E","019ce677-3f55-7810-b1cf-3419ec9a4dbd","019ce643-47c6-74a0-b3d2-7bf5651ded46","","null","
                    <div class=""stimulus-container"">
                        <img src=""images/causal_sequence/museum_causal/museum_causal_4.png"" class=""exp-image"">
                        <div class=""question-area""></div> 
                    </div>","null","","","","","","",""
"","","","","","html-button-response","80","277845","0.0-80.0","938BF76F80F9485481F4DAFED8FCEF2E","019ce677-3f55-7810-b1cf-3419ec9a4dbd","019ce643-47c6-74a0-b3d2-7bf5651ded46","","650","
                    <div class=""stimulus-container"">
                        <img src=""images/causal_sequence/museum_causal/museum_causal_4.png"" class=""exp-image"">
                        <div class=""question-area"">
                            <p style=""font-size: 20px; font-weight: bold; margin: 0;"">Is there a person in this image?</p>
                        </div>
                    </div>","1","main_causal_task","4","museum_causal","","","",""
"","","","","","html-keyboard-response","81","282851","0.0-81.0","938BF76F80F9485481F4DAFED8FCEF2E","019ce677-3f55-7810-b1cf-3419ec9a4dbd","019ce643-47c6-74a0-b3d2-7bf5651ded46","","null","
                    <div class=""stimulus-container"">
                        <img src=""images/causal_sequence/museum_causal/museum_causal_5.png"" class=""exp-image"">
                        <div class=""question-area""></div> 
                    </div>","null","","","","","","",""
"","","","","","html-button-response","82","283937","0.0-82.0","938BF76F80F9485481F4DAFED8FCEF2E","019ce677-3f55-7810-b1cf-3419ec9a4dbd","019ce643-47c6-74a0-b3d2-7bf5651ded46","","1086","
                    <div class=""stimulus-container"">
                        <img src=""images/causal_sequence/museum_causal/museum_causal_5.png"" class=""exp-image"">
                        <div class=""question-area"">
                            <p style=""font-size: 20px; font-weight: bold; margin: 0;"">Is there a person in this image?</p>
                        </div>
                    </div>","0","main_causal_task","5","museum_causal","","","",""
"","","","","","html-keyboard-response","83","288949","0.0-83.0","938BF76F80F9485481F4DAFED8FCEF2E","019ce677-3f55-7810-b1cf-3419ec9a4dbd","019ce643-47c6-74a0-b3d2-7bf5651ded46","","null","
                    <div class=""stimulus-container"">
                        <img src=""images/causal_sequence/museum_causal/museum_causal_6.png"" class=""exp-image"">
                        <div class=""question-area""></div> 
                    </div>","null","","","","","","",""
"","","","","","html-button-response","84","289787","0.0-84.0","938BF76F80F9485481F4DAFED8FCEF2E","019ce677-3f55-7810-b1cf-3419ec9a4dbd","019ce643-47c6-74a0-b3d2-7bf5651ded46","","837","
                    <div class=""stimulus-container"">
                        <img src=""images/causal_sequence/museum_causal/museum_causal_6.png"" class=""exp-image"">
                        <div class=""question-area"">
                            <p style=""font-size: 20px; font-weight: bold; margin: 0;"">Is there a person in this image?</p>
                        </div>
                    </div>","0","main_causal_task","6","museum_causal","","","",""
"","","","","","html-keyboard-response","85","294791","0.0-85.0","938BF76F80F9485481F4DAFED8FCEF2E","019ce677-3f55-7810-b1cf-3419ec9a4dbd","019ce643-47c6-74a0-b3d2-7bf5651ded46","","null","
                    <div class=""stimulus-container"">
                        <img src=""images/causal_sequence/museum_causal/museum_causal_7.png"" class=""exp-image"">
                        <div class=""question-area""></div> 
                    </div>","null","","","","","","",""
"","","","","","html-button-response","86","296089","0.0-86.0","938BF76F80F9485481F4DAFED8FCEF2E","019ce677-3f55-7810-b1cf-3419ec9a4dbd","019ce643-47c6-74a0-b3d2-7bf5651ded46","","1297","
                    <div class=""stimulus-container"">
                        <img src=""images/causal_sequence/museum_causal/museum_causal_7.png"" class=""exp-image"">
                        <div class=""question-area"">
                            <p style=""font-size: 20px; font-weight: bold; margin: 0;"">Is there a person in this image?</p>
                        </div>
                    </div>","1","main_causal_task","7","museum_causal","","","",""
"","","","","","html-keyboard-response","87","301092","0.0-87.0","938BF76F80F9485481F4DAFED8FCEF2E","019ce677-3f55-7810-b1cf-3419ec9a4dbd","019ce643-47c6-74a0-b3d2-7bf5651ded46","","null","
                    <div class=""stimulus-container"">
                        <img src=""images/causal_sequence/museum_causal/museum_causal_8.png"" class=""exp-image"">
                        <div class=""question-area""></div> 
                    </div>","null","","","","","","",""
"","","","","","html-button-response","88","301820","0.0-88.0","938BF76F80F9485481F4DAFED8FCEF2E","019ce677-3f55-7810-b1cf-3419ec9a4dbd","019ce643-47c6-74a0-b3d2-7bf5651ded46","","725","
                    <div class=""stimulus-container"">
                        <img src=""images/causal_sequence/museum_causal/museum_causal_8.png"" class=""exp-image"">
                        <div class=""question-area"">
                            <p style=""font-size: 20px; font-weight: bold; margin: 0;"">Is there a person in this image?</p>
                        </div>
                    </div>","0","main_causal_task","8","museum_causal","","","",""
"","","","","","html-keyboard-response","89","306827","0.0-89.0","938BF76F80F9485481F4DAFED8FCEF2E","019ce677-3f55-7810-b1cf-3419ec9a4dbd","019ce643-47c6-74a0-b3d2-7bf5651ded46","","null","
                    <div class=""stimulus-container"">
                        <img src=""images/causal_sequence/museum_causal/museum_causal_9.png"" class=""exp-image"">
                        <div class=""question-area""></div> 
                    </div>","null","","","","","","",""
"","","","","","html-button-response","90","307775","0.0-90.0","938BF76F80F9485481F4DAFED8FCEF2E","019ce677-3f55-7810-b1cf-3419ec9a4dbd","019ce643-47c6-74a0-b3d2-7bf5651ded46","","945","
                    <div class=""stimulus-container"">
                        <img src=""images/causal_sequence/museum_causal/museum_causal_9.png"" class=""exp-image"">
                        <div class=""question-area"">
                            <p style=""font-size: 20px; font-weight: bold; margin: 0;"">Is there a person in this image?</p>
                        </div>
                    </div>","1","main_causal_task","9","museum_causal","","","",""
"","","","","","html-keyboard-response","91","308781","0.0-91.0","938BF76F80F9485481F4DAFED8FCEF2E","019ce677-3f55-7810-b1cf-3419ec9a4dbd","019ce643-47c6-74a0-b3d2-7bf5651ded46","","null","<div style=""background-color: gray; width: 100vw; height: 100vh;""></div>","null","","","","","","",""
"","","","","","html-keyboard-response","92","313781","0.0-92.0","938BF76F80F9485481F4DAFED8FCEF2E","019ce677-3f55-7810-b1cf-3419ec9a4dbd","019ce643-47c6-74a0-b3d2-7bf5651ded46","","null","
                    <div class=""stimulus-container"">
                        <img src=""images/causal_sequence/dog_causal/dog_causal_1.png"" class=""exp-image"">
                        <div class=""question-area""></div> 
                    </div>","null","","","","","","",""
"","","","","","html-button-response","93","314543","0.0-93.0","938BF76F80F9485481F4DAFED8FCEF2E","019ce677-3f55-7810-b1cf-3419ec9a4dbd","019ce643-47c6-74a0-b3d2-7bf5651ded46","","761","
                    <div class=""stimulus-container"">
                        <img src=""images/causal_sequence/dog_causal/dog_causal_1.png"" class=""exp-image"">
                        <div class=""question-area"">
                            <p style=""font-size: 20px; font-weight: bold; margin: 0;"">Is there a person in this image?</p>
                        </div>
                    </div>","0","main_causal_task","1","dog_causal","","","",""
"","","","","","html-keyboard-response","94","319545","0.0-94.0","938BF76F80F9485481F4DAFED8FCEF2E","019ce677-3f55-7810-b1cf-3419ec9a4dbd","019ce643-47c6-74a0-b3d2-7bf5651ded46","","null","
                    <div class=""stimulus-container"">
                        <img src=""images/causal_sequence/dog_causal/dog_causal_2.png"" class=""exp-image"">
                        <div class=""question-area""></div> 
                    </div>","null","","","","","","",""
"","","","","","html-button-response","95","320584","0.0-95.0","938BF76F80F9485481F4DAFED8FCEF2E","019ce677-3f55-7810-b1cf-3419ec9a4dbd","019ce643-47c6-74a0-b3d2-7bf5651ded46","","1036","
                    <div class=""stimulus-container"">
                        <img src=""images/causal_sequence/dog_causal/dog_causal_2.png"" class=""exp-image"">
                        <div class=""question-area"">
                            <p style=""font-size: 20px; font-weight: bold; margin: 0;"">Is there a person in this image?</p>
                        </div>
                    </div>","0","main_causal_task","2","dog_causal","","","",""
"","","","","","html-keyboard-response","96","325587","0.0-96.0","938BF76F80F9485481F4DAFED8FCEF2E","019ce677-3f55-7810-b1cf-3419ec9a4dbd","019ce643-47c6-74a0-b3d2-7bf5651ded46","","null","
                    <div class=""stimulus-container"">
                        <img src=""images/causal_sequence/dog_causal/dog_causal_3.png"" class=""exp-image"">
                        <div class=""question-area""></div> 
                    </div>","null","","","","","","",""
"","","","","","html-button-response","97","326462","0.0-97.0","938BF76F80F9485481F4DAFED8FCEF2E","019ce677-3f55-7810-b1cf-3419ec9a4dbd","019ce643-47c6-74a0-b3d2-7bf5651ded46","","873","
                    <div class=""stimulus-container"">
                        <img src=""images/causal_sequence/dog_causal/dog_causal_3.png"" class=""exp-image"">
                        <div class=""question-area"">
                            <p style=""font-size: 20px; font-weight: bold; margin: 0;"">Is there a person in this image?</p>
                        </div>
                    </div>","0","main_causal_task","3","dog_causal","","","",""
"","","","","","html-keyboard-response","98","331474","0.0-98.0","938BF76F80F9485481F4DAFED8FCEF2E","019ce677-3f55-7810-b1cf-3419ec9a4dbd","019ce643-47c6-74a0-b3d2-7bf5651ded46","","null","
                    <div class=""stimulus-container"">
                        <img src=""images/causal_sequence/dog_causal/dog_causal_4.png"" class=""exp-image"">
                        <div class=""question-area""></div> 
                    </div>","null","","","","","","",""
"","","","","","html-button-response","99","332431","0.0-99.0","938BF76F80F9485481F4DAFED8FCEF2E","019ce677-3f55-7810-b1cf-3419ec9a4dbd","019ce643-47c6-74a0-b3d2-7bf5651ded46","","957","
                    <div class=""stimulus-container"">
                        <img src=""images/causal_sequence/dog_causal/dog_causal_4.png"" class=""exp-image"">
                        <div class=""question-area"">
                            <p style=""font-size: 20px; font-weight: bold; margin: 0;"">Is there a person in this image?</p>
                        </div>
                    </div>","0","main_causal_task","4","dog_causal","","","",""
"","","","","","html-keyboard-response","100","337448","0.0-100.0","938BF76F80F9485481F4DAFED8FCEF2E","019ce677-3f55-7810-b1cf-3419ec9a4dbd","019ce643-47c6-74a0-b3d2-7bf5651ded46","","null","
                    <div class=""stimulus-container"">
                        <img src=""images/causal_sequence/dog_causal/dog_causal_5.png"" class=""exp-image"">
                        <div class=""question-area""></div> 
                    </div>","null","","","","","","",""
"","","","","","html-button-response","101","338318","0.0-101.0","938BF76F80F9485481F4DAFED8FCEF2E","019ce677-3f55-7810-b1cf-3419ec9a4dbd","019ce643-47c6-74a0-b3d2-7bf5651ded46","","867","
                    <div class=""stimulus-container"">
                        <img src=""images/causal_sequence/dog_causal/dog_causal_5.png"" class=""exp-image"">
                        <div class=""question-area"">
                            <p style=""font-size: 20px; font-weight: bold; margin: 0;"">Is there a person in this image?</p>
                        </div>
                    </div>","0","main_causal_task","5","dog_causal","","","",""
"","","","","","html-keyboard-response","102","343321","0.0-102.0","938BF76F80F9485481F4DAFED8FCEF2E","019ce677-3f55-7810-b1cf-3419ec9a4dbd","019ce643-47c6-74a0-b3d2-7bf5651ded46","","null","
                    <div class=""stimulus-container"">
                        <img src=""images/causal_sequence/dog_causal/dog_causal_6.png"" class=""exp-image"">
                        <div class=""question-area""></div> 
                    </div>","null","","","","","","",""
"","","","","","html-button-response","103","344314","0.0-103.0","938BF76F80F9485481F4DAFED8FCEF2E","019ce677-3f55-7810-b1cf-3419ec9a4dbd","019ce643-47c6-74a0-b3d2-7bf5651ded46","","992","
                    <div class=""stimulus-container"">
                        <img src=""images/causal_sequence/dog_causal/dog_causal_6.png"" class=""exp-image"">
                        <div class=""question-area"">
                            <p style=""font-size: 20px; font-weight: bold; margin: 0;"">Is there a person in this image?</p>
                        </div>
                    </div>","0","main_causal_task","6","dog_causal","","","",""
"","","","","","html-keyboard-response","104","349327","0.0-104.0","938BF76F80F9485481F4DAFED8FCEF2E","019ce677-3f55-7810-b1cf-3419ec9a4dbd","019ce643-47c6-74a0-b3d2-7bf5651ded46","","null","
                    <div class=""stimulus-container"">
                        <img src=""images/causal_sequence/dog_causal/dog_causal_7.png"" class=""exp-image"">
                        <div class=""question-area""></div> 
                    </div>","null","","","","","","",""
"","","","","","html-button-response","105","350017","0.0-105.0","938BF76F80F9485481F4DAFED8FCEF2E","019ce677-3f55-7810-b1cf-3419ec9a4dbd","019ce643-47c6-74a0-b3d2-7bf5651ded46","","689","
                    <div class=""stimulus-container"">
                        <img src=""images/causal_sequence/dog_causal/dog_causal_7.png"" class=""exp-image"">
                        <div class=""question-area"">
                            <p style=""font-size: 20px; font-weight: bold; margin: 0;"">Is there a person in this image?</p>
                        </div>
                    </div>","0","main_causal_task","7","dog_causal","","","",""
"","","","","","html-keyboard-response","106","355030","0.0-106.0","938BF76F80F9485481F4DAFED8FCEF2E","019ce677-3f55-7810-b1cf-3419ec9a4dbd","019ce643-47c6-74a0-b3d2-7bf5651ded46","","null","
                    <div class=""stimulus-container"">
                        <img src=""images/causal_sequence/dog_causal/dog_causal_8.png"" class=""exp-image"">
                        <div class=""question-area""></div> 
                    </div>","null","","","","","","",""
"","","","","","html-button-response","107","356017","0.0-107.0","938BF76F80F9485481F4DAFED8FCEF2E","019ce677-3f55-7810-b1cf-3419ec9a4dbd","019ce643-47c6-74a0-b3d2-7bf5651ded46","","986","
                    <div class=""stimulus-container"">
                        <img src=""images/causal_sequence/dog_causal/dog_causal_8.png"" class=""exp-image"">
                        <div class=""question-area"">
                            <p style=""font-size: 20px; font-weight: bold; margin: 0;"">Is there a person in this image?</p>
                        </div>
                    </div>","0","main_causal_task","8","dog_causal","","","",""
"","","","","","html-keyboard-response","108","361019","0.0-108.0","938BF76F80F9485481F4DAFED8FCEF2E","019ce677-3f55-7810-b1cf-3419ec9a4dbd","019ce643-47c6-74a0-b3d2-7bf5651ded46","","null","
                    <div class=""stimulus-container"">
                        <img src=""images/causal_sequence/dog_causal/dog_causal_9.png"" class=""exp-image"">
                        <div class=""question-area""></div> 
                    </div>","null","","","","","","",""
"","","","","","html-button-response","109","362145","0.0-109.0","938BF76F80F9485481F4DAFED8FCEF2E","019ce677-3f55-7810-b1cf-3419ec9a4dbd","019ce643-47c6-74a0-b3d2-7bf5651ded46","","1125","
                    <div class=""stimulus-container"">
                        <img src=""images/causal_sequence/dog_causal/dog_causal_9.png"" class=""exp-image"">
                        <div class=""question-area"">
                            <p style=""font-size: 20px; font-weight: bold; margin: 0;"">Is there a person in this image?</p>
                        </div>
                    </div>","0","main_causal_task","9","dog_causal","","","",""
"","","","","","html-keyboard-response","110","363146","0.0-110.0","938BF76F80F9485481F4DAFED8FCEF2E","019ce677-3f55-7810-b1cf-3419ec9a4dbd","019ce643-47c6-74a0-b3d2-7bf5651ded46","","null","<div style=""background-color: gray; width: 100vw; height: 100vh;""></div>","null","","","","","","",""
"","","","","","html-keyboard-response","111","368152","0.0-111.0","938BF76F80F9485481F4DAFED8FCEF2E","019ce677-3f55-7810-b1cf-3419ec9a4dbd","019ce643-47c6-74a0-b3d2-7bf5651ded46","","null","
                    <div class=""stimulus-container"">
                        <img src=""images/causal_sequence/coin_causal/coin_causal_1.png"" class=""exp-image"">
                        <div class=""question-area""></div> 
                    </div>","null","","","","","","",""
"","","","","","html-button-response","112","370488","0.0-112.0","938BF76F80F9485481F4DAFED8FCEF2E","019ce677-3f55-7810-b1cf-3419ec9a4dbd","019ce643-47c6-74a0-b3d2-7bf5651ded46","","2335","
                    <div class=""stimulus-container"">
                        <img src=""images/causal_sequence/coin_causal/coin_causal_1.png"" class=""exp-image"">
                        <div class=""question-area"">
                            <p style=""font-size: 20px; font-weight: bold; margin: 0;"">Is there a person in this image?</p>
                        </div>
                    </div>","0","main_causal_task","1","coin_causal","","","",""
"","","","","","html-keyboard-response","113","375497","0.0-113.0","938BF76F80F9485481F4DAFED8FCEF2E","019ce677-3f55-7810-b1cf-3419ec9a4dbd","019ce643-47c6-74a0-b3d2-7bf5651ded46","","null","
                    <div class=""stimulus-container"">
                        <img src=""images/causal_sequence/coin_causal/coin_causal_2.png"" class=""exp-image"">
                        <div class=""question-area""></div> 
                    </div>","null","","","","","","",""
"","","","","","html-button-response","114","376318","0.0-114.0","938BF76F80F9485481F4DAFED8FCEF2E","019ce677-3f55-7810-b1cf-3419ec9a4dbd","019ce643-47c6-74a0-b3d2-7bf5651ded46","","819","
                    <div class=""stimulus-container"">
                        <img src=""images/causal_sequence/coin_causal/coin_causal_2.png"" class=""exp-image"">
                        <div class=""question-area"">
                            <p style=""font-size: 20px; font-weight: bold; margin: 0;"">Is there a person in this image?</p>
                        </div>
                    </div>","0","main_causal_task","2","coin_causal","","","",""
"","","","","","html-keyboard-response","115","381333","0.0-115.0","938BF76F80F9485481F4DAFED8FCEF2E","019ce677-3f55-7810-b1cf-3419ec9a4dbd","019ce643-47c6-74a0-b3d2-7bf5651ded46","","null","
                    <div class=""stimulus-container"">
                        <img src=""images/causal_sequence/coin_causal/coin_causal_3.png"" class=""exp-image"">
                        <div class=""question-area""></div> 
                    </div>","null","","","","","","",""
"","","","","","html-button-response","116","382163","0.0-116.0","938BF76F80F9485481F4DAFED8FCEF2E","019ce677-3f55-7810-b1cf-3419ec9a4dbd","019ce643-47c6-74a0-b3d2-7bf5651ded46","","829","
                    <div class=""stimulus-container"">
                        <img src=""images/causal_sequence/coin_causal/coin_causal_3.png"" class=""exp-image"">
                        <div class=""question-area"">
                            <p style=""font-size: 20px; font-weight: bold; margin: 0;"">Is there a person in this image?</p>
                        </div>
                    </div>","0","main_causal_task","3","coin_causal","","","",""
"","","","","","html-keyboard-response","117","387170","0.0-117.0","938BF76F80F9485481F4DAFED8FCEF2E","019ce677-3f55-7810-b1cf-3419ec9a4dbd","019ce643-47c6-74a0-b3d2-7bf5651ded46","","null","
                    <div class=""stimulus-container"">
                        <img src=""images/causal_sequence/coin_causal/coin_causal_4.png"" class=""exp-image"">
                        <div class=""question-area""></div> 
                    </div>","null","","","","","","",""
"","","","","","html-button-response","118","389326","0.0-118.0","938BF76F80F9485481F4DAFED8FCEF2E","019ce677-3f55-7810-b1cf-3419ec9a4dbd","019ce643-47c6-74a0-b3d2-7bf5651ded46","","2155","
                    <div class=""stimulus-container"">
                        <img src=""images/causal_sequence/coin_causal/coin_causal_4.png"" class=""exp-image"">
                        <div class=""question-area"">
                            <p style=""font-size: 20px; font-weight: bold; margin: 0;"">Is there a person in this image?</p>
                        </div>
                    </div>","0","main_causal_task","4","coin_causal","","","",""
"","","","","","html-keyboard-response","119","394341","0.0-119.0","938BF76F80F9485481F4DAFED8FCEF2E","019ce677-3f55-7810-b1cf-3419ec9a4dbd","019ce643-47c6-74a0-b3d2-7bf5651ded46","","null","
                    <div class=""stimulus-container"">
                        <img src=""images/causal_sequence/coin_causal/coin_causal_5.png"" class=""exp-image"">
                        <div class=""question-area""></div> 
                    </div>","null","","","","","","",""
"","","","","","html-button-response","120","396561","0.0-120.0","938BF76F80F9485481F4DAFED8FCEF2E","019ce677-3f55-7810-b1cf-3419ec9a4dbd","019ce643-47c6-74a0-b3d2-7bf5651ded46","","2218","
                    <div class=""stimulus-container"">
                        <img src=""images/causal_sequence/coin_causal/coin_causal_5.png"" class=""exp-image"">
                        <div class=""question-area"">
                            <p style=""font-size: 20px; font-weight: bold; margin: 0;"">Is there a person in this image?</p>
                        </div>
                    </div>","0","main_causal_task","5","coin_causal","","","",""
"","","","","","html-keyboard-response","121","401579","0.0-121.0","938BF76F80F9485481F4DAFED8FCEF2E","019ce677-3f55-7810-b1cf-3419ec9a4dbd","019ce643-47c6-74a0-b3d2-7bf5651ded46","","null","
                    <div class=""stimulus-container"">
                        <img src=""images/causal_sequence/coin_causal/coin_causal_6.png"" class=""exp-image"">
                        <div class=""question-area""></div> 
                    </div>","null","","","","","","",""
"","","","","","html-button-response","122","402247","0.0-122.0","938BF76F80F9485481F4DAFED8FCEF2E","019ce677-3f55-7810-b1cf-3419ec9a4dbd","019ce643-47c6-74a0-b3d2-7bf5651ded46","","667","
                    <div class=""stimulus-container"">
                        <img src=""images/causal_sequence/coin_causal/coin_causal_6.png"" class=""exp-image"">
                        <div class=""question-area"">
                            <p style=""font-size: 20px; font-weight: bold; margin: 0;"">Is there a person in this image?</p>
                        </div>
                    </div>","0","main_causal_task","6","coin_causal","","","",""
"","","","","","html-keyboard-response","123","407257","0.0-123.0","938BF76F80F9485481F4DAFED8FCEF2E","019ce677-3f55-7810-b1cf-3419ec9a4dbd","019ce643-47c6-74a0-b3d2-7bf5651ded46","","null","
                    <div class=""stimulus-container"">
                        <img src=""images/causal_sequence/coin_causal/coin_causal_7.png"" class=""exp-image"">
                        <div class=""question-area""></div> 
                    </div>","null","","","","","","",""
"","","","","","html-button-response","124","407972","0.0-124.0","938BF76F80F9485481F4DAFED8FCEF2E","019ce677-3f55-7810-b1cf-3419ec9a4dbd","019ce643-47c6-74a0-b3d2-7bf5651ded46","","714","
                    <div class=""stimulus-container"">
                        <img src=""images/causal_sequence/coin_causal/coin_causal_7.png"" class=""exp-image"">
                        <div class=""question-area"">
                            <p style=""font-size: 20px; font-weight: bold; margin: 0;"">Is there a person in this image?</p>
                        </div>
                    </div>","0","main_causal_task","7","coin_causal","","","",""
"","","","","","html-keyboard-response","125","412980","0.0-125.0","938BF76F80F9485481F4DAFED8FCEF2E","019ce677-3f55-7810-b1cf-3419ec9a4dbd","019ce643-47c6-74a0-b3d2-7bf5651ded46","","null","
                    <div class=""stimulus-container"">
                        <img src=""images/causal_sequence/coin_causal/coin_causal_8.png"" class=""exp-image"">
                        <div class=""question-area""></div> 
                    </div>","null","","","","","","",""
"","","","","","html-button-response","126","414046","0.0-126.0","938BF76F80F9485481F4DAFED8FCEF2E","019ce677-3f55-7810-b1cf-3419ec9a4dbd","019ce643-47c6-74a0-b3d2-7bf5651ded46","","1065","
                    <div class=""stimulus-container"">
                        <img src=""images/causal_sequence/coin_causal/coin_causal_8.png"" class=""exp-image"">
                        <div class=""question-area"">
                            <p style=""font-size: 20px; font-weight: bold; margin: 0;"">Is there a person in this image?</p>
                        </div>
                    </div>","0","main_causal_task","8","coin_causal","","","",""
"","","","","","html-keyboard-response","127","419050","0.0-127.0","938BF76F80F9485481F4DAFED8FCEF2E","019ce677-3f55-7810-b1cf-3419ec9a4dbd","019ce643-47c6-74a0-b3d2-7bf5651ded46","","null","
                    <div class=""stimulus-container"">
                        <img src=""images/causal_sequence/coin_causal/coin_causal_9.png"" class=""exp-image"">
                        <div class=""question-area""></div> 
                    </div>","null","","","","","","",""
"","","","","","html-button-response","128","420409","0.0-128.0","938BF76F80F9485481F4DAFED8FCEF2E","019ce677-3f55-7810-b1cf-3419ec9a4dbd","019ce643-47c6-74a0-b3d2-7bf5651ded46","","1358","
                    <div class=""stimulus-container"">
                        <img src=""images/causal_sequence/coin_causal/coin_causal_9.png"" class=""exp-image"">
                        <div class=""question-area"">
                            <p style=""font-size: 20px; font-weight: bold; margin: 0;"">Is there a person in this image?</p>
                        </div>
                    </div>","0","main_causal_task","9","coin_causal","","","",""
"","","","","","instructions","129","421886","0.0-129.0","938BF76F80F9485481F4DAFED8FCEF2E","019ce677-3f55-7810-b1cf-3419ec9a4dbd","019ce643-47c6-74a0-b3d2-7bf5651ded46","[{""page_index"":0,""viewing_time"":1476}]","1476","","","","","","","","",""
"","","","","","instructions","130","426143","0.0-130.0","938BF76F80F9485481F4DAFED8FCEF2E","019ce677-3f55-7810-b1cf-3419ec9a4dbd","019ce643-47c6-74a0-b3d2-7bf5651ded46","[{""page_index"":0,""viewing_time"":4257}]","4257","","","","","","","","",""
"","","","","","html-keyboard-response","131","427145","0.0-131.0","938BF76F80F9485481F4DAFED8FCEF2E","019ce677-3f55-7810-b1cf-3419ec9a4dbd","019ce643-47c6-74a0-b3d2-7bf5651ded46","","null","
        <div class=""stimulus-container"" style=""display: flex; align-items: center; justify-content: center; gap: 30px;"">
            <img src=""images/instructions/movie_1.png"" class=""exp-image"">
            <div style=""font-size: 40px; font-weight: bold; color: green; border: 5px solid green; padding: 25px; border-radius: 15px; background-color: #f0fff0;"">
                WORTH<br>$1
            </div>
        </div>
        <div class=""question-area""></div>","null","","","","","","",""
"","","","","","html-button-response","132","429281","0.0-132.0","938BF76F80F9485481F4DAFED8FCEF2E","019ce677-3f55-7810-b1cf-3419ec9a4dbd","019ce643-47c6-74a0-b3d2-7bf5651ded46","","2134","
        <div class=""stimulus-container"" style=""display: flex; align-items: center; justify-content: center; gap: 30px;"">
            <img src=""images/instructions/movie_1.png"" class=""exp-image"">
            <div style=""font-size: 40px; font-weight: bold; color: green; border: 5px solid green; padding: 25px; border-radius: 15px; background-color: #f0fff0;"">
                WORTH<br>$1
            </div>
        </div>
        <div class=""question-area"">
            <p style=""font-size: 20px; font-weight: bold; margin: 0;"">Was there a person in this image?</p>
        </div>","0","","","","","","",""
"","","","","","instructions","133","431385","0.0-133.0","938BF76F80F9485481F4DAFED8FCEF2E","019ce677-3f55-7810-b1cf-3419ec9a4dbd","019ce643-47c6-74a0-b3d2-7bf5651ded46","[{""page_index"":0,""viewing_time"":2104}]","2104","","","","","","","","",""
"","","","","","html-keyboard-response","134","441403","0.0-134.0","938BF76F80F9485481F4DAFED8FCEF2E","019ce677-3f55-7810-b1cf-3419ec9a4dbd","019ce643-47c6-74a0-b3d2-7bf5651ded46","","null","
            <div class=""stimulus-container"" style=""display: flex; align-items: center; justify-content: center; gap: 30px;"">
                <img src=""images/causal_sequence/the_performance_causal/the_performance_causal_3.png"" class=""exp-image"">
                <div style=""font-size: 40px; font-weight: bold; color: green; border: 5px solid green; padding: 25px; border-radius: 15px; background-color: #f0fff0;"">
                    WORTH<br>$1
                </div>
            </div>
            <div class=""question-area""></div>","null","","","","","","",""
"","","","","","html-button-response","135","442953","0.0-135.0","938BF76F80F9485481F4DAFED8FCEF2E","019ce677-3f55-7810-b1cf-3419ec9a4dbd","019ce643-47c6-74a0-b3d2-7bf5651ded46","","1550","
            <div class=""stimulus-container"" style=""display: flex; align-items: center; justify-content: center; gap: 30px;"">
                <img src=""images/causal_sequence/the_performance_causal/the_performance_causal_3.png"" class=""exp-image"">
                <div style=""font-size: 40px; font-weight: bold; color: green; border: 5px solid green; padding: 25px; border-radius: 15px; background-color: #f0fff0;"">
                    WORTH<br>$1
                </div>
            </div>
            <div class=""question-area"">
                <p style=""font-size: 20px; font-weight: bold; margin: 0;"">Was there a person in this image?</p>
            </div>","0","part2_value_learning","","the_performance_causal","3","","",""
"","","","","","html-keyboard-response","136","452957","0.0-136.0","938BF76F80F9485481F4DAFED8FCEF2E","019ce677-3f55-7810-b1cf-3419ec9a4dbd","019ce643-47c6-74a0-b3d2-7bf5651ded46","","null","
            <div class=""stimulus-container"" style=""display: flex; align-items: center; justify-content: center; gap: 30px;"">
                <img src=""images/causal_sequence/coin_causal/coin_causal_3.png"" class=""exp-image"">
                <div style=""font-size: 40px; font-weight: bold; color: green; border: 5px solid green; padding: 25px; border-radius: 15px; background-color: #f0fff0;"">
                    WORTH<br>$1
                </div>
            </div>
            <div class=""question-area""></div>","null","","","","","","",""
"","","","","","html-button-response","137","454333","0.0-137.0","938BF76F80F9485481F4DAFED8FCEF2E","019ce677-3f55-7810-b1cf-3419ec9a4dbd","019ce643-47c6-74a0-b3d2-7bf5651ded46","","1374","
            <div class=""stimulus-container"" style=""display: flex; align-items: center; justify-content: center; gap: 30px;"">
                <img src=""images/causal_sequence/coin_causal/coin_causal_3.png"" class=""exp-image"">
                <div style=""font-size: 40px; font-weight: bold; color: green; border: 5px solid green; padding: 25px; border-radius: 15px; background-color: #f0fff0;"">
                    WORTH<br>$1
                </div>
            </div>
            <div class=""question-area"">
                <p style=""font-size: 20px; font-weight: bold; margin: 0;"">Was there a person in this image?</p>
            </div>","0","part2_value_learning","","coin_causal","3","","",""
"","","","","","html-keyboard-response","138","464443","0.0-138.0","938BF76F80F9485481F4DAFED8FCEF2E","019ce677-3f55-7810-b1cf-3419ec9a4dbd","019ce643-47c6-74a0-b3d2-7bf5651ded46","","null","
            <div class=""stimulus-container"" style=""display: flex; align-items: center; justify-content: center; gap: 30px;"">
                <img src=""images/causal_sequence/package_causal/package_causal_7.png"" class=""exp-image"">
                <div style=""font-size: 40px; font-weight: bold; color: green; border: 5px solid green; padding: 25px; border-radius: 15px; background-color: #f0fff0;"">
                    WORTH<br>$1
                </div>
            </div>
            <div class=""question-area""></div>","null","","","","","","",""
"","","","","","html-button-response","139","465365","0.0-139.0","938BF76F80F9485481F4DAFED8FCEF2E","019ce677-3f55-7810-b1cf-3419ec9a4dbd","019ce643-47c6-74a0-b3d2-7bf5651ded46","","921","
            <div class=""stimulus-container"" style=""display: flex; align-items: center; justify-content: center; gap: 30px;"">
                <img src=""images/causal_sequence/package_causal/package_causal_7.png"" class=""exp-image"">
                <div style=""font-size: 40px; font-weight: bold; color: green; border: 5px solid green; padding: 25px; border-radius: 15px; background-color: #f0fff0;"">
                    WORTH<br>$1
                </div>
            </div>
            <div class=""question-area"">
                <p style=""font-size: 20px; font-weight: bold; margin: 0;"">Was there a person in this image?</p>
            </div>","0","part2_value_learning","","package_causal","7","","",""
"","","","","","html-keyboard-response","140","475380","0.0-140.0","938BF76F80F9485481F4DAFED8FCEF2E","019ce677-3f55-7810-b1cf-3419ec9a4dbd","019ce643-47c6-74a0-b3d2-7bf5651ded46","","null","
            <div class=""stimulus-container"" style=""display: flex; align-items: center; justify-content: center; gap: 30px;"">
                <img src=""images/causal_sequence/museum_causal/museum_causal_7.png"" class=""exp-image"">
                <div style=""font-size: 40px; font-weight: bold; color: green; border: 5px solid green; padding: 25px; border-radius: 15px; background-color: #f0fff0;"">
                    WORTH<br>$1
                </div>
            </div>
            <div class=""question-area""></div>","null","","","","","","",""
"","","","","","html-button-response","141","476472","0.0-141.0","938BF76F80F9485481F4DAFED8FCEF2E","019ce677-3f55-7810-b1cf-3419ec9a4dbd","019ce643-47c6-74a0-b3d2-7bf5651ded46","","1091","
            <div class=""stimulus-container"" style=""display: flex; align-items: center; justify-content: center; gap: 30px;"">
                <img src=""images/causal_sequence/museum_causal/museum_causal_7.png"" class=""exp-image"">
                <div style=""font-size: 40px; font-weight: bold; color: green; border: 5px solid green; padding: 25px; border-radius: 15px; background-color: #f0fff0;"">
                    WORTH<br>$1
                </div>
            </div>
            <div class=""question-area"">
                <p style=""font-size: 20px; font-weight: bold; margin: 0;"">Was there a person in this image?</p>
            </div>","1","part2_value_learning","","museum_causal","7","","",""
"","","","","","html-keyboard-response","142","486480","0.0-142.0","938BF76F80F9485481F4DAFED8FCEF2E","019ce677-3f55-7810-b1cf-3419ec9a4dbd","019ce643-47c6-74a0-b3d2-7bf5651ded46","","null","
            <div class=""stimulus-container"" style=""display: flex; align-items: center; justify-content: center; gap: 30px;"">
                <img src=""images/causal_sequence/saving_a_cat_causal/saving_a_cat_causal_3.png"" class=""exp-image"">
                <div style=""font-size: 40px; font-weight: bold; color: green; border: 5px solid green; padding: 25px; border-radius: 15px; background-color: #f0fff0;"">
                    WORTH<br>$1
                </div>
            </div>
            <div class=""question-area""></div>","null","","","","","","",""
"","","","","","html-button-response","143","488105","0.0-143.0","938BF76F80F9485481F4DAFED8FCEF2E","019ce677-3f55-7810-b1cf-3419ec9a4dbd","019ce643-47c6-74a0-b3d2-7bf5651ded46","","1624","
            <div class=""stimulus-container"" style=""display: flex; align-items: center; justify-content: center; gap: 30px;"">
                <img src=""images/causal_sequence/saving_a_cat_causal/saving_a_cat_causal_3.png"" class=""exp-image"">
                <div style=""font-size: 40px; font-weight: bold; color: green; border: 5px solid green; padding: 25px; border-radius: 15px; background-color: #f0fff0;"">
                    WORTH<br>$1
                </div>
            </div>
            <div class=""question-area"">
                <p style=""font-size: 20px; font-weight: bold; margin: 0;"">Was there a person in this image?</p>
            </div>","1","part2_value_learning","","saving_a_cat_causal","3","","",""
"","","","","","html-keyboard-response","144","498149","0.0-144.0","938BF76F80F9485481F4DAFED8FCEF2E","019ce677-3f55-7810-b1cf-3419ec9a4dbd","019ce643-47c6-74a0-b3d2-7bf5651ded46","","null","
            <div class=""stimulus-container"" style=""display: flex; align-items: center; justify-content: center; gap: 30px;"">
                <img src=""images/causal_sequence/dog_causal/dog_causal_7.png"" class=""exp-image"">
                <div style=""font-size: 40px; font-weight: bold; color: green; border: 5px solid green; padding: 25px; border-radius: 15px; background-color: #f0fff0;"">
                    WORTH<br>$1
                </div>
            </div>
            <div class=""question-area""></div>","null","","","","","","",""
"","","","","","html-button-response","145","500235","0.0-145.0","938BF76F80F9485481F4DAFED8FCEF2E","019ce677-3f55-7810-b1cf-3419ec9a4dbd","019ce643-47c6-74a0-b3d2-7bf5651ded46","","2084","
            <div class=""stimulus-container"" style=""display: flex; align-items: center; justify-content: center; gap: 30px;"">
                <img src=""images/causal_sequence/dog_causal/dog_causal_7.png"" class=""exp-image"">
                <div style=""font-size: 40px; font-weight: bold; color: green; border: 5px solid green; padding: 25px; border-radius: 15px; background-color: #f0fff0;"">
                    WORTH<br>$1
                </div>
            </div>
            <div class=""question-area"">
                <p style=""font-size: 20px; font-weight: bold; margin: 0;"">Was there a person in this image?</p>
            </div>","0","part2_value_learning","","dog_causal","7","","",""
"","","","","","instructions","146","501894","0.0-146.0","938BF76F80F9485481F4DAFED8FCEF2E","019ce677-3f55-7810-b1cf-3419ec9a4dbd","019ce643-47c6-74a0-b3d2-7bf5651ded46","[{""page_index"":0,""viewing_time"":1657}]","1658","","","","","","","","",""
"","","","","","instructions","147","502718","0.0-147.0","938BF76F80F9485481F4DAFED8FCEF2E","019ce677-3f55-7810-b1cf-3419ec9a4dbd","019ce643-47c6-74a0-b3d2-7bf5651ded46","[{""page_index"":0,""viewing_time"":823}]","823","","","","","","","","",""
"","","","","","html-keyboard-response","148","512725","0.0-148.0-0.0","938BF76F80F9485481F4DAFED8FCEF2E","019ce677-3f55-7810-b1cf-3419ec9a4dbd","019ce643-47c6-74a0-b3d2-7bf5651ded46","","null","
                        <div style=""font-family: Arial; margin-bottom: 20px;""><h3>Which image is more valuable?</h3></div>
                        <div class=""stimulus-container"" style=""display: flex; width: 1100px; justify-content: center; gap: 50px;"">
                            <img src=""images/causal_sequence/the_performance_causal/the_performance_causal_2.png"" class=""exp-image"">
                            <img src=""images/causal_sequence/the_performance_causal/the_performance_causal_4.png"" class=""exp-image"">
                        </div>","null","","","","","","",""
"","","","","","html-button-response","149","513999","0.0-148.0-1.0","938BF76F80F9485481F4DAFED8FCEF2E","019ce677-3f55-7810-b1cf-3419ec9a4dbd","019ce643-47c6-74a0-b3d2-7bf5651ded46","","1274","
                        <div style=""font-family: Arial; margin-bottom: 20px;""><h3>Which image is more valuable?</h3></div>
                        <div class=""stimulus-container"" style=""display: flex; width: 1100px; justify-content: center; gap: 50px;"">
                            <img src=""images/causal_sequence/the_performance_causal/the_performance_causal_2.png"" class=""exp-image"">
                            <img src=""images/causal_sequence/the_performance_causal/the_performance_causal_4.png"" class=""exp-image"">
                        </div>","1","part3_final_choice","","the_performance_causal","","3","4","1"
"","","","","","html-keyboard-response","150","524005","0.0-149.0-0.0","938BF76F80F9485481F4DAFED8FCEF2E","019ce677-3f55-7810-b1cf-3419ec9a4dbd","019ce643-47c6-74a0-b3d2-7bf5651ded46","","null","
                        <div style=""font-family: Arial; margin-bottom: 20px;""><h3>Which image is more valuable?</h3></div>
                        <div class=""stimulus-container"" style=""display: flex; width: 1100px; justify-content: center; gap: 50px;"">
                            <img src=""images/causal_sequence/package_causal/package_causal_6.png"" class=""exp-image"">
                            <img src=""images/causal_sequence/package_causal/package_causal_8.png"" class=""exp-image"">
                        </div>","null","","","","","","",""
"","","","","","html-button-response","151","525153","0.0-149.0-1.0","938BF76F80F9485481F4DAFED8FCEF2E","019ce677-3f55-7810-b1cf-3419ec9a4dbd","019ce643-47c6-74a0-b3d2-7bf5651ded46","","1146","
                        <div style=""font-family: Arial; margin-bottom: 20px;""><h3>Which image is more valuable?</h3></div>
                        <div class=""stimulus-container"" style=""display: flex; width: 1100px; justify-content: center; gap: 50px;"">
                            <img src=""images/causal_sequence/package_causal/package_causal_6.png"" class=""exp-image"">
                            <img src=""images/causal_sequence/package_causal/package_causal_8.png"" class=""exp-image"">
                        </div>","0","part3_final_choice","","package_causal","","7","6","-1"
"","","","","","html-keyboard-response","152","535159","0.0-150.0-0.0","938BF76F80F9485481F4DAFED8FCEF2E","019ce677-3f55-7810-b1cf-3419ec9a4dbd","019ce643-47c6-74a0-b3d2-7bf5651ded46","","null","
                        <div style=""font-family: Arial; margin-bottom: 20px;""><h3>Which image is more valuable?</h3></div>
                        <div class=""stimulus-container"" style=""display: flex; width: 1100px; justify-content: center; gap: 50px;"">
                            <img src=""images/causal_sequence/dog_causal/dog_causal_6.png"" class=""exp-image"">
                            <img src=""images/causal_sequence/dog_causal/dog_causal_8.png"" class=""exp-image"">
                        </div>","null","","","","","","",""
"","","","","","html-button-response","153","536245","0.0-150.0-1.0","938BF76F80F9485481F4DAFED8FCEF2E","019ce677-3f55-7810-b1cf-3419ec9a4dbd","019ce643-47c6-74a0-b3d2-7bf5651ded46","","1085","
                        <div style=""font-family: Arial; margin-bottom: 20px;""><h3>Which image is more valuable?</h3></div>
                        <div class=""stimulus-container"" style=""display: flex; width: 1100px; justify-content: center; gap: 50px;"">
                            <img src=""images/causal_sequence/dog_causal/dog_causal_6.png"" class=""exp-image"">
                            <img src=""images/causal_sequence/dog_causal/dog_causal_8.png"" class=""exp-image"">
                        </div>","1","part3_final_choice","","dog_causal","","7","8","1"
"","","","","","html-keyboard-response","154","546589","0.0-151.0-0.0","938BF76F80F9485481F4DAFED8FCEF2E","019ce677-3f55-7810-b1cf-3419ec9a4dbd","019ce643-47c6-74a0-b3d2-7bf5651ded46","","null","
                        <div style=""font-family: Arial; margin-bottom: 20px;""><h3>Which image is more valuable?</h3></div>
                        <div class=""stimulus-container"" style=""display: flex; width: 1100px; justify-content: center; gap: 50px;"">
                            <img src=""images/causal_sequence/saving_a_cat_causal/saving_a_cat_causal_4.png"" class=""exp-image"">
                            <img src=""images/causal_sequence/saving_a_cat_causal/saving_a_cat_causal_2.png"" class=""exp-image"">
                        </div>","null","","","","","","",""
"","","","","","html-button-response","155","547166","0.0-151.0-1.0","938BF76F80F9485481F4DAFED8FCEF2E","019ce677-3f55-7810-b1cf-3419ec9a4dbd","019ce643-47c6-74a0-b3d2-7bf5651ded46","","577","
                        <div style=""font-family: Arial; margin-bottom: 20px;""><h3>Which image is more valuable?</h3></div>
                        <div class=""stimulus-container"" style=""display: flex; width: 1100px; justify-content: center; gap: 50px;"">
                            <img src=""images/causal_sequence/saving_a_cat_causal/saving_a_cat_causal_4.png"" class=""exp-image"">
                            <img src=""images/causal_sequence/saving_a_cat_causal/saving_a_cat_causal_2.png"" class=""exp-image"">
                        </div>","0","part3_final_choice","","saving_a_cat_causal","","3","4","1"
"","","","","","html-keyboard-response","156","557338","0.0-152.0-0.0","938BF76F80F9485481F4DAFED8FCEF2E","019ce677-3f55-7810-b1cf-3419ec9a4dbd","019ce643-47c6-74a0-b3d2-7bf5651ded46","","null","
                        <div style=""font-family: Arial; margin-bottom: 20px;""><h3>Which image is more valuable?</h3></div>
                        <div class=""stimulus-container"" style=""display: flex; width: 1100px; justify-content: center; gap: 50px;"">
                            <img src=""images/causal_sequence/museum_causal/museum_causal_8.png"" class=""exp-image"">
                            <img src=""images/causal_sequence/museum_causal/museum_causal_6.png"" class=""exp-image"">
                        </div>","null","","","","","","",""
"","","","","","html-button-response","157","558303","0.0-152.0-1.0","938BF76F80F9485481F4DAFED8FCEF2E","019ce677-3f55-7810-b1cf-3419ec9a4dbd","019ce643-47c6-74a0-b3d2-7bf5651ded46","","964","
                        <div style=""font-family: Arial; margin-bottom: 20px;""><h3>Which image is more valuable?</h3></div>
                        <div class=""stimulus-container"" style=""display: flex; width: 1100px; justify-content: center; gap: 50px;"">
                            <img src=""images/causal_sequence/museum_causal/museum_causal_8.png"" class=""exp-image"">
                            <img src=""images/causal_sequence/museum_causal/museum_causal_6.png"" class=""exp-image"">
                        </div>","0","part3_final_choice","","museum_causal","","7","8","1"
"","","","","","html-keyboard-response","158","568310","0.0-153.0-0.0","938BF76F80F9485481F4DAFED8FCEF2E","019ce677-3f55-7810-b1cf-3419ec9a4dbd","019ce643-47c6-74a0-b3d2-7bf5651ded46","","null","
                        <div style=""font-family: Arial; margin-bottom: 20px;""><h3>Which image is more valuable?</h3></div>
                        <div class=""stimulus-container"" style=""display: flex; width: 1100px; justify-content: center; gap: 50px;"">
                            <img src=""images/causal_sequence/coin_causal/coin_causal_4.png"" class=""exp-image"">
                            <img src=""images/causal_sequence/coin_causal/coin_causal_2.png"" class=""exp-image"">
                        </div>","null","","","","","","",""
"","","","","","html-button-response","159","569051","0.0-153.0-1.0","938BF76F80F9485481F4DAFED8FCEF2E","019ce677-3f55-7810-b1cf-3419ec9a4dbd","019ce643-47c6-74a0-b3d2-7bf5651ded46","","740","
                        <div style=""font-family: Arial; margin-bottom: 20px;""><h3>Which image is more valuable?</h3></div>
                        <div class=""stimulus-container"" style=""display: flex; width: 1100px; justify-content: center; gap: 50px;"">
                            <img src=""images/causal_sequence/coin_causal/coin_causal_4.png"" class=""exp-image"">
                            <img src=""images/causal_sequence/coin_causal/coin_causal_2.png"" class=""exp-image"">
                        </div>","1","part3_final_choice","","coin_causal","","3","2","-1"
"","","","","","survey-text","160","617027","0.0-154.0","938BF76F80F9485481F4DAFED8FCEF2E","019ce677-3f55-7810-b1cf-3419ec9a4dbd","019ce643-47c6-74a0-b3d2-7bf5651ded46","","47901","","{""gender"":""MALE"",""age"":""31"",""decision_strategy"":""based off what i believe"",""consistency_check"":""same logic""}","demographics_and_strategy","","","","","",""
"","","","","","instructions","161","624650","0.0-155.0","938BF76F80F9485481F4DAFED8FCEF2E","019ce677-3f55-7810-b1cf-3419ec9a4dbd","019ce643-47c6-74a0-b3d2-7bf5651ded46","[{""page_index"":0,""viewing_time"":7622}]","7622","","","","","","","","",""
