"success","timeout","failed_images","failed_audio","failed_video","trial_type","trial_index","time_elapsed","internal_node_id","subject_id","study_id","session_id","view_history","rt","stimulus","response","task","image_index","folder","sequence_type","presentation_order","valuable_image_index","reward_type","distance_from_x","target_X","chosen_image_index","is_x_plus_dist","correct_choice"
"true","false","[]","[]","[]","preload","0","16841","0.0-0.0","872E23FBC78B443CA4793405A619B555","019cfa6d-9b04-7ce5-810a-760cb0f94aed","019cfa3a-388e-72ab-ad58-bdeb258f96cd","","","","","","","","","","","","","","","",""
"","","","","","instructions","1","20923","0.0-1.0","872E23FBC78B443CA4793405A619B555","019cfa6d-9b04-7ce5-810a-760cb0f94aed","019cfa3a-388e-72ab-ad58-bdeb258f96cd","[{""page_index"":0,""viewing_time"":4080}]","4081","","","","","","","","","","","","","",""
"","","","","","instructions","2","24281","0.0-2.0","872E23FBC78B443CA4793405A619B555","019cfa6d-9b04-7ce5-810a-760cb0f94aed","019cfa3a-388e-72ab-ad58-bdeb258f96cd","[{""page_index"":0,""viewing_time"":3357}]","3357","","","","","","","","","","","","","",""
"true","","","","","fullscreen","3","26552","0.0-3.0","872E23FBC78B443CA4793405A619B555","019cfa6d-9b04-7ce5-810a-760cb0f94aed","019cfa3a-388e-72ab-ad58-bdeb258f96cd","","1269","","","","","","","","","","","","","",""
"","","","","","instructions","4","32270","0.0-4.0","872E23FBC78B443CA4793405A619B555","019cfa6d-9b04-7ce5-810a-760cb0f94aed","019cfa3a-388e-72ab-ad58-bdeb258f96cd","[{""page_index"":0,""viewing_time"":5717}]","5717","","","","","","","","","","","","","",""
"","","","","","instructions","5","40660","0.0-5.0","872E23FBC78B443CA4793405A619B555","019cfa6d-9b04-7ce5-810a-760cb0f94aed","019cfa3a-388e-72ab-ad58-bdeb258f96cd","[{""page_index"":0,""viewing_time"":8389}]","8389","","","","","","","","","","","","","",""
"","","","","","html-keyboard-response","6","44663","0.0-6.0","872E23FBC78B443CA4793405A619B555","019cfa6d-9b04-7ce5-810a-760cb0f94aed","019cfa3a-388e-72ab-ad58-bdeb258f96cd","","null","
                <div class=""stimulus-container"">
                    <img src=""images/instructions/movie_1.png"" class=""exp-image"">
                    <div class=""question-area""></div> 
                </div>","null","","","","","","","","","","","",""
"","","","","","html-button-response","7","46025","0.0-7.0","872E23FBC78B443CA4793405A619B555","019cfa6d-9b04-7ce5-810a-760cb0f94aed","019cfa3a-388e-72ab-ad58-bdeb258f96cd","","1360","
                <div class=""stimulus-container"">
                    <img src=""images/instructions/movie_1.png"" class=""exp-image"">
                    <div class=""question-area"">
                        <p style=""font-size: 20px; font-weight: bold; margin: 0;"">Was there a person in this image?</p>
                    </div>
                </div>","0","example_question","1","","","","","","","","","",""
"","","","","","html-keyboard-response","8","50028","0.0-8.0","872E23FBC78B443CA4793405A619B555","019cfa6d-9b04-7ce5-810a-760cb0f94aed","019cfa3a-388e-72ab-ad58-bdeb258f96cd","","null","
                <div class=""stimulus-container"">
                    <img src=""images/instructions/movie_2.png"" class=""exp-image"">
                    <div class=""question-area""></div> 
                </div>","null","","","","","","","","","","","",""
"","","","","","html-button-response","9","51021","0.0-9.0","872E23FBC78B443CA4793405A619B555","019cfa6d-9b04-7ce5-810a-760cb0f94aed","019cfa3a-388e-72ab-ad58-bdeb258f96cd","","990","
                <div class=""stimulus-container"">
                    <img src=""images/instructions/movie_2.png"" class=""exp-image"">
                    <div class=""question-area"">
                        <p style=""font-size: 20px; font-weight: bold; margin: 0;"">Was there a person in this image?</p>
                    </div>
                </div>","0","example_question","2","","","","","","","","","",""
"","","","","","html-keyboard-response","10","55023","0.0-10.0","872E23FBC78B443CA4793405A619B555","019cfa6d-9b04-7ce5-810a-760cb0f94aed","019cfa3a-388e-72ab-ad58-bdeb258f96cd","","null","
                <div class=""stimulus-container"">
                    <img src=""images/instructions/movie_3.png"" class=""exp-image"">
                    <div class=""question-area""></div> 
                </div>","null","","","","","","","","","","","",""
"","","","","","html-button-response","11","56068","0.0-11.0","872E23FBC78B443CA4793405A619B555","019cfa6d-9b04-7ce5-810a-760cb0f94aed","019cfa3a-388e-72ab-ad58-bdeb258f96cd","","1043","
                <div class=""stimulus-container"">
                    <img src=""images/instructions/movie_3.png"" class=""exp-image"">
                    <div class=""question-area"">
                        <p style=""font-size: 20px; font-weight: bold; margin: 0;"">Was there a person in this image?</p>
                    </div>
                </div>","0","example_question","3","","","","","","","","","",""
"","","","","","html-keyboard-response","12","60070","0.0-12.0","872E23FBC78B443CA4793405A619B555","019cfa6d-9b04-7ce5-810a-760cb0f94aed","019cfa3a-388e-72ab-ad58-bdeb258f96cd","","null","
                <div class=""stimulus-container"">
                    <img src=""images/instructions/movie_4.png"" class=""exp-image"">
                    <div class=""question-area""></div> 
                </div>","null","","","","","","","","","","","",""
"","","","","","html-button-response","13","61232","0.0-13.0","872E23FBC78B443CA4793405A619B555","019cfa6d-9b04-7ce5-810a-760cb0f94aed","019cfa3a-388e-72ab-ad58-bdeb258f96cd","","1160","
                <div class=""stimulus-container"">
                    <img src=""images/instructions/movie_4.png"" class=""exp-image"">
                    <div class=""question-area"">
                        <p style=""font-size: 20px; font-weight: bold; margin: 0;"">Was there a person in this image?</p>
                    </div>
                </div>","0","example_question","4","","","","","","","","","",""
"","","","","","instructions","14","63638","0.0-14.0","872E23FBC78B443CA4793405A619B555","019cfa6d-9b04-7ce5-810a-760cb0f94aed","019cfa3a-388e-72ab-ad58-bdeb258f96cd","[{""page_index"":0,""viewing_time"":2405}]","2405","","","","","","","","","","","","","",""
"","","","","","instructions","15","84209","0.0-15.0","872E23FBC78B443CA4793405A619B555","019cfa6d-9b04-7ce5-810a-760cb0f94aed","019cfa3a-388e-72ab-ad58-bdeb258f96cd","[{""page_index"":0,""viewing_time"":20570}]","20570","","","","","","","","","","","","","",""
"","","","","","html-keyboard-response","16","89212","0.0-16.0","872E23FBC78B443CA4793405A619B555","019cfa6d-9b04-7ce5-810a-760cb0f94aed","019cfa3a-388e-72ab-ad58-bdeb258f96cd","","null","<div style=""background-color: white; width: 100vw; height: 100vh;""></div>","null","","","","","","","","","","","",""
"","","","","","html-keyboard-response","17","90214","0.0-17.0","872E23FBC78B443CA4793405A619B555","019cfa6d-9b04-7ce5-810a-760cb0f94aed","019cfa3a-388e-72ab-ad58-bdeb258f96cd","","null","
                <div class=""stimulus-container"">
                    <img src=""images/causal_sequence/dog_causal/dog_causal_1.png"" class=""exp-image"">
                    <div class=""question-area""></div> 
                </div>","null","","","","","","","","","","","",""
"","","","","","html-button-response","18","92432","0.0-18.0","872E23FBC78B443CA4793405A619B555","019cfa6d-9b04-7ce5-810a-760cb0f94aed","019cfa3a-388e-72ab-ad58-bdeb258f96cd","","2217","
                <div class=""stimulus-container"">
                    <img src=""images/causal_sequence/dog_causal/dog_causal_1.png"" class=""exp-image"">
                    <div class=""question-area"">
                        <p style=""font-size: 20px; font-weight: bold; margin: 0;"">Is there a person in this image?</p>
                    </div>
                </div>","0","main_experiment_trial","1","dog_causal","causal_sequence","chronological","","","","","","",""
"","","","","","html-keyboard-response","19","93435","0.0-19.0","872E23FBC78B443CA4793405A619B555","019cfa6d-9b04-7ce5-810a-760cb0f94aed","019cfa3a-388e-72ab-ad58-bdeb258f96cd","","null","
                <div class=""stimulus-container"">
                    <img src=""images/causal_sequence/dog_causal/dog_causal_2.png"" class=""exp-image"">
                    <div class=""question-area""></div> 
                </div>","null","","","","","","","","","","","",""
"","","","","","html-button-response","20","94538","0.0-20.0","872E23FBC78B443CA4793405A619B555","019cfa6d-9b04-7ce5-810a-760cb0f94aed","019cfa3a-388e-72ab-ad58-bdeb258f96cd","","1102","
                <div class=""stimulus-container"">
                    <img src=""images/causal_sequence/dog_causal/dog_causal_2.png"" class=""exp-image"">
                    <div class=""question-area"">
                        <p style=""font-size: 20px; font-weight: bold; margin: 0;"">Is there a person in this image?</p>
                    </div>
                </div>","0","main_experiment_trial","2","dog_causal","causal_sequence","chronological","","","","","","",""
"","","","","","html-keyboard-response","21","95540","0.0-21.0","872E23FBC78B443CA4793405A619B555","019cfa6d-9b04-7ce5-810a-760cb0f94aed","019cfa3a-388e-72ab-ad58-bdeb258f96cd","","null","
                <div class=""stimulus-container"">
                    <img src=""images/causal_sequence/dog_causal/dog_causal_3.png"" class=""exp-image"">
                    <div class=""question-area""></div> 
                </div>","null","","","","","","","","","","","",""
"","","","","","html-button-response","22","96460","0.0-22.0","872E23FBC78B443CA4793405A619B555","019cfa6d-9b04-7ce5-810a-760cb0f94aed","019cfa3a-388e-72ab-ad58-bdeb258f96cd","","919","
                <div class=""stimulus-container"">
                    <img src=""images/causal_sequence/dog_causal/dog_causal_3.png"" class=""exp-image"">
                    <div class=""question-area"">
                        <p style=""font-size: 20px; font-weight: bold; margin: 0;"">Is there a person in this image?</p>
                    </div>
                </div>","0","main_experiment_trial","3","dog_causal","causal_sequence","chronological","","","","","","",""
"","","","","","html-keyboard-response","23","97462","0.0-23.0","872E23FBC78B443CA4793405A619B555","019cfa6d-9b04-7ce5-810a-760cb0f94aed","019cfa3a-388e-72ab-ad58-bdeb258f96cd","","null","
                <div class=""stimulus-container"">
                    <img src=""images/causal_sequence/dog_causal/dog_causal_4.png"" class=""exp-image"">
                    <div class=""question-area""></div> 
                </div>","null","","","","","","","","","","","",""
"","","","","","html-button-response","24","98683","0.0-24.0","872E23FBC78B443CA4793405A619B555","019cfa6d-9b04-7ce5-810a-760cb0f94aed","019cfa3a-388e-72ab-ad58-bdeb258f96cd","","1218","
                <div class=""stimulus-container"">
                    <img src=""images/causal_sequence/dog_causal/dog_causal_4.png"" class=""exp-image"">
                    <div class=""question-area"">
                        <p style=""font-size: 20px; font-weight: bold; margin: 0;"">Is there a person in this image?</p>
                    </div>
                </div>","0","main_experiment_trial","4","dog_causal","causal_sequence","chronological","","","","","","",""
"","","","","","html-keyboard-response","25","99685","0.0-25.0","872E23FBC78B443CA4793405A619B555","019cfa6d-9b04-7ce5-810a-760cb0f94aed","019cfa3a-388e-72ab-ad58-bdeb258f96cd","","null","
                <div class=""stimulus-container"">
                    <img src=""images/causal_sequence/dog_causal/dog_causal_5.png"" class=""exp-image"">
                    <div class=""question-area""></div> 
                </div>","null","","","","","","","","","","","",""
"","","","","","html-button-response","26","101006","0.0-26.0","872E23FBC78B443CA4793405A619B555","019cfa6d-9b04-7ce5-810a-760cb0f94aed","019cfa3a-388e-72ab-ad58-bdeb258f96cd","","1319","
                <div class=""stimulus-container"">
                    <img src=""images/causal_sequence/dog_causal/dog_causal_5.png"" class=""exp-image"">
                    <div class=""question-area"">
                        <p style=""font-size: 20px; font-weight: bold; margin: 0;"">Is there a person in this image?</p>
                    </div>
                </div>","0","main_experiment_trial","5","dog_causal","causal_sequence","chronological","","","","","","",""
"","","","","","html-keyboard-response","27","102008","0.0-27.0","872E23FBC78B443CA4793405A619B555","019cfa6d-9b04-7ce5-810a-760cb0f94aed","019cfa3a-388e-72ab-ad58-bdeb258f96cd","","null","
                <div class=""stimulus-container"">
                    <img src=""images/causal_sequence/dog_causal/dog_causal_6.png"" class=""exp-image"">
                    <div class=""question-area""></div> 
                </div>","null","","","","","","","","","","","",""
"","","","","","html-button-response","28","103128","0.0-28.0","872E23FBC78B443CA4793405A619B555","019cfa6d-9b04-7ce5-810a-760cb0f94aed","019cfa3a-388e-72ab-ad58-bdeb258f96cd","","1119","
                <div class=""stimulus-container"">
                    <img src=""images/causal_sequence/dog_causal/dog_causal_6.png"" class=""exp-image"">
                    <div class=""question-area"">
                        <p style=""font-size: 20px; font-weight: bold; margin: 0;"">Is there a person in this image?</p>
                    </div>
                </div>","0","main_experiment_trial","6","dog_causal","causal_sequence","chronological","","","","","","",""
"","","","","","html-keyboard-response","29","104130","0.0-29.0","872E23FBC78B443CA4793405A619B555","019cfa6d-9b04-7ce5-810a-760cb0f94aed","019cfa3a-388e-72ab-ad58-bdeb258f96cd","","null","
                <div class=""stimulus-container"">
                    <img src=""images/causal_sequence/dog_causal/dog_causal_7.png"" class=""exp-image"">
                    <div class=""question-area""></div> 
                </div>","null","","","","","","","","","","","",""
"","","","","","html-button-response","30","105200","0.0-30.0","872E23FBC78B443CA4793405A619B555","019cfa6d-9b04-7ce5-810a-760cb0f94aed","019cfa3a-388e-72ab-ad58-bdeb258f96cd","","1069","
                <div class=""stimulus-container"">
                    <img src=""images/causal_sequence/dog_causal/dog_causal_7.png"" class=""exp-image"">
                    <div class=""question-area"">
                        <p style=""font-size: 20px; font-weight: bold; margin: 0;"">Is there a person in this image?</p>
                    </div>
                </div>","0","main_experiment_trial","7","dog_causal","causal_sequence","chronological","","","","","","",""
"","","","","","html-keyboard-response","31","106203","0.0-31.0","872E23FBC78B443CA4793405A619B555","019cfa6d-9b04-7ce5-810a-760cb0f94aed","019cfa3a-388e-72ab-ad58-bdeb258f96cd","","null","
                <div class=""stimulus-container"">
                    <img src=""images/causal_sequence/dog_causal/dog_causal_8.png"" class=""exp-image"">
                    <div class=""question-area""></div> 
                </div>","null","","","","","","","","","","","",""
"","","","","","html-button-response","32","107423","0.0-32.0","872E23FBC78B443CA4793405A619B555","019cfa6d-9b04-7ce5-810a-760cb0f94aed","019cfa3a-388e-72ab-ad58-bdeb258f96cd","","1219","
                <div class=""stimulus-container"">
                    <img src=""images/causal_sequence/dog_causal/dog_causal_8.png"" class=""exp-image"">
                    <div class=""question-area"">
                        <p style=""font-size: 20px; font-weight: bold; margin: 0;"">Is there a person in this image?</p>
                    </div>
                </div>","0","main_experiment_trial","8","dog_causal","causal_sequence","chronological","","","","","","",""
"","","","","","html-keyboard-response","33","108425","0.0-33.0","872E23FBC78B443CA4793405A619B555","019cfa6d-9b04-7ce5-810a-760cb0f94aed","019cfa3a-388e-72ab-ad58-bdeb258f96cd","","null","
                <div class=""stimulus-container"">
                    <img src=""images/causal_sequence/dog_causal/dog_causal_9.png"" class=""exp-image"">
                    <div class=""question-area""></div> 
                </div>","null","","","","","","","","","","","",""
"","","","","","html-button-response","34","108943","0.0-34.0","872E23FBC78B443CA4793405A619B555","019cfa6d-9b04-7ce5-810a-760cb0f94aed","019cfa3a-388e-72ab-ad58-bdeb258f96cd","","517","
                <div class=""stimulus-container"">
                    <img src=""images/causal_sequence/dog_causal/dog_causal_9.png"" class=""exp-image"">
                    <div class=""question-area"">
                        <p style=""font-size: 20px; font-weight: bold; margin: 0;"">Is there a person in this image?</p>
                    </div>
                </div>","0","main_experiment_trial","9","dog_causal","causal_sequence","chronological","","","","","","",""
"","","","","","html-keyboard-response","35","109946","0.0-35.0","872E23FBC78B443CA4793405A619B555","019cfa6d-9b04-7ce5-810a-760cb0f94aed","019cfa3a-388e-72ab-ad58-bdeb258f96cd","","null","
                <div class=""stimulus-container"">
                    <img src=""images/causal_sequence/dog_causal/dog_causal_ten.png"" class=""exp-image"">
                    <div class=""question-area""></div> 
                </div>","null","","","","","","","","","","","",""
"","","","","","html-button-response","36","110698","0.0-36.0","872E23FBC78B443CA4793405A619B555","019cfa6d-9b04-7ce5-810a-760cb0f94aed","019cfa3a-388e-72ab-ad58-bdeb258f96cd","","751","
                <div class=""stimulus-container"">
                    <img src=""images/causal_sequence/dog_causal/dog_causal_ten.png"" class=""exp-image"">
                    <div class=""question-area"">
                        <p style=""font-size: 20px; font-weight: bold; margin: 0;"">Is there a person in this image?</p>
                    </div>
                </div>","0","main_experiment_trial","ten","dog_causal","causal_sequence","chronological","","","","","","",""
"","","","","","html-keyboard-response","37","115701","0.0-37.0","872E23FBC78B443CA4793405A619B555","019cfa6d-9b04-7ce5-810a-760cb0f94aed","019cfa3a-388e-72ab-ad58-bdeb258f96cd","","null","<div style=""background-color: white; width: 100vw; height: 100vh;""></div>","null","","","","","","","","","","","",""
"","","","","","html-keyboard-response","38","116703","0.0-38.0","872E23FBC78B443CA4793405A619B555","019cfa6d-9b04-7ce5-810a-760cb0f94aed","019cfa3a-388e-72ab-ad58-bdeb258f96cd","","null","
                <div class=""stimulus-container"">
                    <img src=""images/semantic_sequence/kitchen_operations_semantic/kitchen_operations_semantic_1.png"" class=""exp-image"">
                    <div class=""question-area""></div> 
                </div>","null","","","","","","","","","","","",""
"","","","","","html-button-response","39","118235","0.0-39.0","872E23FBC78B443CA4793405A619B555","019cfa6d-9b04-7ce5-810a-760cb0f94aed","019cfa3a-388e-72ab-ad58-bdeb258f96cd","","1531","
                <div class=""stimulus-container"">
                    <img src=""images/semantic_sequence/kitchen_operations_semantic/kitchen_operations_semantic_1.png"" class=""exp-image"">
                    <div class=""question-area"">
                        <p style=""font-size: 20px; font-weight: bold; margin: 0;"">Is there a person in this image?</p>
                    </div>
                </div>","0","main_experiment_trial","1","kitchen_operations_semantic","semantic_sequence","chronological","","","","","","",""
"","","","","","html-keyboard-response","40","119238","0.0-40.0","872E23FBC78B443CA4793405A619B555","019cfa6d-9b04-7ce5-810a-760cb0f94aed","019cfa3a-388e-72ab-ad58-bdeb258f96cd","","null","
                <div class=""stimulus-container"">
                    <img src=""images/semantic_sequence/kitchen_operations_semantic/kitchen_operations_semantic_2.png"" class=""exp-image"">
                    <div class=""question-area""></div> 
                </div>","null","","","","","","","","","","","",""
"","","","","","html-button-response","41","119806","0.0-41.0","872E23FBC78B443CA4793405A619B555","019cfa6d-9b04-7ce5-810a-760cb0f94aed","019cfa3a-388e-72ab-ad58-bdeb258f96cd","","567","
                <div class=""stimulus-container"">
                    <img src=""images/semantic_sequence/kitchen_operations_semantic/kitchen_operations_semantic_2.png"" class=""exp-image"">
                    <div class=""question-area"">
                        <p style=""font-size: 20px; font-weight: bold; margin: 0;"">Is there a person in this image?</p>
                    </div>
                </div>","0","main_experiment_trial","2","kitchen_operations_semantic","semantic_sequence","chronological","","","","","","",""
"","","","","","html-keyboard-response","42","120808","0.0-42.0","872E23FBC78B443CA4793405A619B555","019cfa6d-9b04-7ce5-810a-760cb0f94aed","019cfa3a-388e-72ab-ad58-bdeb258f96cd","","null","
                <div class=""stimulus-container"">
                    <img src=""images/semantic_sequence/kitchen_operations_semantic/kitchen_operations_semantic_3.png"" class=""exp-image"">
                    <div class=""question-area""></div> 
                </div>","null","","","","","","","","","","","",""
"","","","","","html-button-response","43","121294","0.0-43.0","872E23FBC78B443CA4793405A619B555","019cfa6d-9b04-7ce5-810a-760cb0f94aed","019cfa3a-388e-72ab-ad58-bdeb258f96cd","","484","
                <div class=""stimulus-container"">
                    <img src=""images/semantic_sequence/kitchen_operations_semantic/kitchen_operations_semantic_3.png"" class=""exp-image"">
                    <div class=""question-area"">
                        <p style=""font-size: 20px; font-weight: bold; margin: 0;"">Is there a person in this image?</p>
                    </div>
                </div>","0","main_experiment_trial","3","kitchen_operations_semantic","semantic_sequence","chronological","","","","","","",""
"","","","","","html-keyboard-response","44","122295","0.0-44.0","872E23FBC78B443CA4793405A619B555","019cfa6d-9b04-7ce5-810a-760cb0f94aed","019cfa3a-388e-72ab-ad58-bdeb258f96cd","","null","
                <div class=""stimulus-container"">
                    <img src=""images/semantic_sequence/kitchen_operations_semantic/kitchen_operations_semantic_4.png"" class=""exp-image"">
                    <div class=""question-area""></div> 
                </div>","null","","","","","","","","","","","",""
"","","","","","html-button-response","45","122831","0.0-45.0","872E23FBC78B443CA4793405A619B555","019cfa6d-9b04-7ce5-810a-760cb0f94aed","019cfa3a-388e-72ab-ad58-bdeb258f96cd","","534","
                <div class=""stimulus-container"">
                    <img src=""images/semantic_sequence/kitchen_operations_semantic/kitchen_operations_semantic_4.png"" class=""exp-image"">
                    <div class=""question-area"">
                        <p style=""font-size: 20px; font-weight: bold; margin: 0;"">Is there a person in this image?</p>
                    </div>
                </div>","0","main_experiment_trial","4","kitchen_operations_semantic","semantic_sequence","chronological","","","","","","",""
"","","","","","html-keyboard-response","46","123834","0.0-46.0","872E23FBC78B443CA4793405A619B555","019cfa6d-9b04-7ce5-810a-760cb0f94aed","019cfa3a-388e-72ab-ad58-bdeb258f96cd","","null","
                <div class=""stimulus-container"">
                    <img src=""images/semantic_sequence/kitchen_operations_semantic/kitchen_operations_semantic_5.png"" class=""exp-image"">
                    <div class=""question-area""></div> 
                </div>","null","","","","","","","","","","","",""
"","","","","","html-button-response","47","124369","0.0-47.0","872E23FBC78B443CA4793405A619B555","019cfa6d-9b04-7ce5-810a-760cb0f94aed","019cfa3a-388e-72ab-ad58-bdeb258f96cd","","534","
                <div class=""stimulus-container"">
                    <img src=""images/semantic_sequence/kitchen_operations_semantic/kitchen_operations_semantic_5.png"" class=""exp-image"">
                    <div class=""question-area"">
                        <p style=""font-size: 20px; font-weight: bold; margin: 0;"">Is there a person in this image?</p>
                    </div>
                </div>","0","main_experiment_trial","5","kitchen_operations_semantic","semantic_sequence","chronological","","","","","","",""
"","","","","","html-keyboard-response","48","125371","0.0-48.0","872E23FBC78B443CA4793405A619B555","019cfa6d-9b04-7ce5-810a-760cb0f94aed","019cfa3a-388e-72ab-ad58-bdeb258f96cd","","null","
                <div class=""stimulus-container"">
                    <img src=""images/semantic_sequence/kitchen_operations_semantic/kitchen_operations_semantic_6.png"" class=""exp-image"">
                    <div class=""question-area""></div> 
                </div>","null","","","","","","","","","","","",""
"","","","","","html-button-response","49","125990","0.0-49.0","872E23FBC78B443CA4793405A619B555","019cfa6d-9b04-7ce5-810a-760cb0f94aed","019cfa3a-388e-72ab-ad58-bdeb258f96cd","","616","
                <div class=""stimulus-container"">
                    <img src=""images/semantic_sequence/kitchen_operations_semantic/kitchen_operations_semantic_6.png"" class=""exp-image"">
                    <div class=""question-area"">
                        <p style=""font-size: 20px; font-weight: bold; margin: 0;"">Is there a person in this image?</p>
                    </div>
                </div>","0","main_experiment_trial","6","kitchen_operations_semantic","semantic_sequence","chronological","","","","","","",""
"","","","","","html-keyboard-response","50","126992","0.0-50.0","872E23FBC78B443CA4793405A619B555","019cfa6d-9b04-7ce5-810a-760cb0f94aed","019cfa3a-388e-72ab-ad58-bdeb258f96cd","","null","
                <div class=""stimulus-container"">
                    <img src=""images/semantic_sequence/kitchen_operations_semantic/kitchen_operations_semantic_7.png"" class=""exp-image"">
                    <div class=""question-area""></div> 
                </div>","null","","","","","","","","","","","",""
"","","","","","html-button-response","51","127511","0.0-51.0","872E23FBC78B443CA4793405A619B555","019cfa6d-9b04-7ce5-810a-760cb0f94aed","019cfa3a-388e-72ab-ad58-bdeb258f96cd","","517","
                <div class=""stimulus-container"">
                    <img src=""images/semantic_sequence/kitchen_operations_semantic/kitchen_operations_semantic_7.png"" class=""exp-image"">
                    <div class=""question-area"">
                        <p style=""font-size: 20px; font-weight: bold; margin: 0;"">Is there a person in this image?</p>
                    </div>
                </div>","0","main_experiment_trial","7","kitchen_operations_semantic","semantic_sequence","chronological","","","","","","",""
"","","","","","html-keyboard-response","52","128513","0.0-52.0","872E23FBC78B443CA4793405A619B555","019cfa6d-9b04-7ce5-810a-760cb0f94aed","019cfa3a-388e-72ab-ad58-bdeb258f96cd","","null","
                <div class=""stimulus-container"">
                    <img src=""images/semantic_sequence/kitchen_operations_semantic/kitchen_operations_semantic_8.png"" class=""exp-image"">
                    <div class=""question-area""></div> 
                </div>","null","","","","","","","","","","","",""
"","","","","","html-button-response","53","128981","0.0-53.0","872E23FBC78B443CA4793405A619B555","019cfa6d-9b04-7ce5-810a-760cb0f94aed","019cfa3a-388e-72ab-ad58-bdeb258f96cd","","467","
                <div class=""stimulus-container"">
                    <img src=""images/semantic_sequence/kitchen_operations_semantic/kitchen_operations_semantic_8.png"" class=""exp-image"">
                    <div class=""question-area"">
                        <p style=""font-size: 20px; font-weight: bold; margin: 0;"">Is there a person in this image?</p>
                    </div>
                </div>","0","main_experiment_trial","8","kitchen_operations_semantic","semantic_sequence","chronological","","","","","","",""
"","","","","","html-keyboard-response","54","129983","0.0-54.0","872E23FBC78B443CA4793405A619B555","019cfa6d-9b04-7ce5-810a-760cb0f94aed","019cfa3a-388e-72ab-ad58-bdeb258f96cd","","null","
                <div class=""stimulus-container"">
                    <img src=""images/semantic_sequence/kitchen_operations_semantic/kitchen_operations_semantic_9.png"" class=""exp-image"">
                    <div class=""question-area""></div> 
                </div>","null","","","","","","","","","","","",""
"","","","","","html-button-response","55","130585","0.0-55.0","872E23FBC78B443CA4793405A619B555","019cfa6d-9b04-7ce5-810a-760cb0f94aed","019cfa3a-388e-72ab-ad58-bdeb258f96cd","","600","
                <div class=""stimulus-container"">
                    <img src=""images/semantic_sequence/kitchen_operations_semantic/kitchen_operations_semantic_9.png"" class=""exp-image"">
                    <div class=""question-area"">
                        <p style=""font-size: 20px; font-weight: bold; margin: 0;"">Is there a person in this image?</p>
                    </div>
                </div>","0","main_experiment_trial","9","kitchen_operations_semantic","semantic_sequence","chronological","","","","","","",""
"","","","","","html-keyboard-response","56","131588","0.0-56.0","872E23FBC78B443CA4793405A619B555","019cfa6d-9b04-7ce5-810a-760cb0f94aed","019cfa3a-388e-72ab-ad58-bdeb258f96cd","","null","
                <div class=""stimulus-container"">
                    <img src=""images/semantic_sequence/kitchen_operations_semantic/kitchen_operations_semantic_ten.png"" class=""exp-image"">
                    <div class=""question-area""></div> 
                </div>","null","","","","","","","","","","","",""
"","","","","","html-button-response","57","132106","0.0-57.0","872E23FBC78B443CA4793405A619B555","019cfa6d-9b04-7ce5-810a-760cb0f94aed","019cfa3a-388e-72ab-ad58-bdeb258f96cd","","516","
                <div class=""stimulus-container"">
                    <img src=""images/semantic_sequence/kitchen_operations_semantic/kitchen_operations_semantic_ten.png"" class=""exp-image"">
                    <div class=""question-area"">
                        <p style=""font-size: 20px; font-weight: bold; margin: 0;"">Is there a person in this image?</p>
                    </div>
                </div>","0","main_experiment_trial","ten","kitchen_operations_semantic","semantic_sequence","chronological","","","","","","",""
"","","","","","html-keyboard-response","58","137108","0.0-58.0","872E23FBC78B443CA4793405A619B555","019cfa6d-9b04-7ce5-810a-760cb0f94aed","019cfa3a-388e-72ab-ad58-bdeb258f96cd","","null","<div style=""background-color: white; width: 100vw; height: 100vh;""></div>","null","","","","","","","","","","","",""
"","","","","","html-keyboard-response","59","138111","0.0-59.0","872E23FBC78B443CA4793405A619B555","019cfa6d-9b04-7ce5-810a-760cb0f94aed","019cfa3a-388e-72ab-ad58-bdeb258f96cd","","null","
                <div class=""stimulus-container"">
                    <img src=""images/causal_sequence/the_performance_causal/the_performance_causal_1.png"" class=""exp-image"">
                    <div class=""question-area""></div> 
                </div>","null","","","","","","","","","","","",""
"","","","","","html-button-response","60","138808","0.0-60.0","872E23FBC78B443CA4793405A619B555","019cfa6d-9b04-7ce5-810a-760cb0f94aed","019cfa3a-388e-72ab-ad58-bdeb258f96cd","","695","
                <div class=""stimulus-container"">
                    <img src=""images/causal_sequence/the_performance_causal/the_performance_causal_1.png"" class=""exp-image"">
                    <div class=""question-area"">
                        <p style=""font-size: 20px; font-weight: bold; margin: 0;"">Is there a person in this image?</p>
                    </div>
                </div>","0","main_experiment_trial","1","the_performance_causal","causal_sequence","chronological","","","","","","",""
"","","","","","html-keyboard-response","61","139810","0.0-61.0","872E23FBC78B443CA4793405A619B555","019cfa6d-9b04-7ce5-810a-760cb0f94aed","019cfa3a-388e-72ab-ad58-bdeb258f96cd","","null","
                <div class=""stimulus-container"">
                    <img src=""images/causal_sequence/the_performance_causal/the_performance_causal_2.png"" class=""exp-image"">
                    <div class=""question-area""></div> 
                </div>","null","","","","","","","","","","","",""
"","","","","","html-button-response","62","140446","0.0-62.0","872E23FBC78B443CA4793405A619B555","019cfa6d-9b04-7ce5-810a-760cb0f94aed","019cfa3a-388e-72ab-ad58-bdeb258f96cd","","634","
                <div class=""stimulus-container"">
                    <img src=""images/causal_sequence/the_performance_causal/the_performance_causal_2.png"" class=""exp-image"">
                    <div class=""question-area"">
                        <p style=""font-size: 20px; font-weight: bold; margin: 0;"">Is there a person in this image?</p>
                    </div>
                </div>","0","main_experiment_trial","2","the_performance_causal","causal_sequence","chronological","","","","","","",""
"","","","","","html-keyboard-response","63","141448","0.0-63.0","872E23FBC78B443CA4793405A619B555","019cfa6d-9b04-7ce5-810a-760cb0f94aed","019cfa3a-388e-72ab-ad58-bdeb258f96cd","","null","
                <div class=""stimulus-container"">
                    <img src=""images/causal_sequence/the_performance_causal/the_performance_causal_3.png"" class=""exp-image"">
                    <div class=""question-area""></div> 
                </div>","null","","","","","","","","","","","",""
"","","","","","html-button-response","64","142117","0.0-64.0","872E23FBC78B443CA4793405A619B555","019cfa6d-9b04-7ce5-810a-760cb0f94aed","019cfa3a-388e-72ab-ad58-bdeb258f96cd","","668","
                <div class=""stimulus-container"">
                    <img src=""images/causal_sequence/the_performance_causal/the_performance_causal_3.png"" class=""exp-image"">
                    <div class=""question-area"">
                        <p style=""font-size: 20px; font-weight: bold; margin: 0;"">Is there a person in this image?</p>
                    </div>
                </div>","0","main_experiment_trial","3","the_performance_causal","causal_sequence","chronological","","","","","","",""
"","","","","","html-keyboard-response","65","143119","0.0-65.0","872E23FBC78B443CA4793405A619B555","019cfa6d-9b04-7ce5-810a-760cb0f94aed","019cfa3a-388e-72ab-ad58-bdeb258f96cd","","null","
                <div class=""stimulus-container"">
                    <img src=""images/causal_sequence/the_performance_causal/the_performance_causal_4.png"" class=""exp-image"">
                    <div class=""question-area""></div> 
                </div>","null","","","","","","","","","","","",""
"","","","","","html-button-response","66","143754","0.0-66.0","872E23FBC78B443CA4793405A619B555","019cfa6d-9b04-7ce5-810a-760cb0f94aed","019cfa3a-388e-72ab-ad58-bdeb258f96cd","","634","
                <div class=""stimulus-container"">
                    <img src=""images/causal_sequence/the_performance_causal/the_performance_causal_4.png"" class=""exp-image"">
                    <div class=""question-area"">
                        <p style=""font-size: 20px; font-weight: bold; margin: 0;"">Is there a person in this image?</p>
                    </div>
                </div>","0","main_experiment_trial","4","the_performance_causal","causal_sequence","chronological","","","","","","",""
"","","","","","html-keyboard-response","67","144756","0.0-67.0","872E23FBC78B443CA4793405A619B555","019cfa6d-9b04-7ce5-810a-760cb0f94aed","019cfa3a-388e-72ab-ad58-bdeb258f96cd","","null","
                <div class=""stimulus-container"">
                    <img src=""images/causal_sequence/the_performance_causal/the_performance_causal_5.png"" class=""exp-image"">
                    <div class=""question-area""></div> 
                </div>","null","","","","","","","","","","","",""
"","","","","","html-button-response","68","145425","0.0-68.0","872E23FBC78B443CA4793405A619B555","019cfa6d-9b04-7ce5-810a-760cb0f94aed","019cfa3a-388e-72ab-ad58-bdeb258f96cd","","668","
                <div class=""stimulus-container"">
                    <img src=""images/causal_sequence/the_performance_causal/the_performance_causal_5.png"" class=""exp-image"">
                    <div class=""question-area"">
                        <p style=""font-size: 20px; font-weight: bold; margin: 0;"">Is there a person in this image?</p>
                    </div>
                </div>","0","main_experiment_trial","5","the_performance_causal","causal_sequence","chronological","","","","","","",""
"","","","","","html-keyboard-response","69","146428","0.0-69.0","872E23FBC78B443CA4793405A619B555","019cfa6d-9b04-7ce5-810a-760cb0f94aed","019cfa3a-388e-72ab-ad58-bdeb258f96cd","","null","
                <div class=""stimulus-container"">
                    <img src=""images/causal_sequence/the_performance_causal/the_performance_causal_6.png"" class=""exp-image"">
                    <div class=""question-area""></div> 
                </div>","null","","","","","","","","","","","",""
"","","","","","html-button-response","70","147047","0.0-70.0","872E23FBC78B443CA4793405A619B555","019cfa6d-9b04-7ce5-810a-760cb0f94aed","019cfa3a-388e-72ab-ad58-bdeb258f96cd","","618","
                <div class=""stimulus-container"">
                    <img src=""images/causal_sequence/the_performance_causal/the_performance_causal_6.png"" class=""exp-image"">
                    <div class=""question-area"">
                        <p style=""font-size: 20px; font-weight: bold; margin: 0;"">Is there a person in this image?</p>
                    </div>
                </div>","0","main_experiment_trial","6","the_performance_causal","causal_sequence","chronological","","","","","","",""
"","","","","","html-keyboard-response","71","148049","0.0-71.0","872E23FBC78B443CA4793405A619B555","019cfa6d-9b04-7ce5-810a-760cb0f94aed","019cfa3a-388e-72ab-ad58-bdeb258f96cd","","null","
                <div class=""stimulus-container"">
                    <img src=""images/causal_sequence/the_performance_causal/the_performance_causal_7.png"" class=""exp-image"">
                    <div class=""question-area""></div> 
                </div>","null","","","","","","","","","","","",""
"","","","","","html-button-response","72","148618","0.0-72.0","872E23FBC78B443CA4793405A619B555","019cfa6d-9b04-7ce5-810a-760cb0f94aed","019cfa3a-388e-72ab-ad58-bdeb258f96cd","","567","
                <div class=""stimulus-container"">
                    <img src=""images/causal_sequence/the_performance_causal/the_performance_causal_7.png"" class=""exp-image"">
                    <div class=""question-area"">
                        <p style=""font-size: 20px; font-weight: bold; margin: 0;"">Is there a person in this image?</p>
                    </div>
                </div>","0","main_experiment_trial","7","the_performance_causal","causal_sequence","chronological","","","","","","",""
"","","","","","html-keyboard-response","73","149619","0.0-73.0","872E23FBC78B443CA4793405A619B555","019cfa6d-9b04-7ce5-810a-760cb0f94aed","019cfa3a-388e-72ab-ad58-bdeb258f96cd","","null","
                <div class=""stimulus-container"">
                    <img src=""images/causal_sequence/the_performance_causal/the_performance_causal_8.png"" class=""exp-image"">
                    <div class=""question-area""></div> 
                </div>","null","","","","","","","","","","","",""
"","","","","","html-button-response","74","150289","0.0-74.0","872E23FBC78B443CA4793405A619B555","019cfa6d-9b04-7ce5-810a-760cb0f94aed","019cfa3a-388e-72ab-ad58-bdeb258f96cd","","669","
                <div class=""stimulus-container"">
                    <img src=""images/causal_sequence/the_performance_causal/the_performance_causal_8.png"" class=""exp-image"">
                    <div class=""question-area"">
                        <p style=""font-size: 20px; font-weight: bold; margin: 0;"">Is there a person in this image?</p>
                    </div>
                </div>","0","main_experiment_trial","8","the_performance_causal","causal_sequence","chronological","","","","","","",""
"","","","","","html-keyboard-response","75","151291","0.0-75.0","872E23FBC78B443CA4793405A619B555","019cfa6d-9b04-7ce5-810a-760cb0f94aed","019cfa3a-388e-72ab-ad58-bdeb258f96cd","","null","
                <div class=""stimulus-container"">
                    <img src=""images/causal_sequence/the_performance_causal/the_performance_causal_9.png"" class=""exp-image"">
                    <div class=""question-area""></div> 
                </div>","null","","","","","","","","","","","",""
"","","","","","html-button-response","76","151910","0.0-76.0","872E23FBC78B443CA4793405A619B555","019cfa6d-9b04-7ce5-810a-760cb0f94aed","019cfa3a-388e-72ab-ad58-bdeb258f96cd","","618","
                <div class=""stimulus-container"">
                    <img src=""images/causal_sequence/the_performance_causal/the_performance_causal_9.png"" class=""exp-image"">
                    <div class=""question-area"">
                        <p style=""font-size: 20px; font-weight: bold; margin: 0;"">Is there a person in this image?</p>
                    </div>
                </div>","0","main_experiment_trial","9","the_performance_causal","causal_sequence","chronological","","","","","","",""
"","","","","","html-keyboard-response","77","152911","0.0-77.0","872E23FBC78B443CA4793405A619B555","019cfa6d-9b04-7ce5-810a-760cb0f94aed","019cfa3a-388e-72ab-ad58-bdeb258f96cd","","null","
                <div class=""stimulus-container"">
                    <img src=""images/causal_sequence/the_performance_causal/the_performance_causal_ten.png"" class=""exp-image"">
                    <div class=""question-area""></div> 
                </div>","null","","","","","","","","","","","",""
"","","","","","html-button-response","78","153447","0.0-78.0","872E23FBC78B443CA4793405A619B555","019cfa6d-9b04-7ce5-810a-760cb0f94aed","019cfa3a-388e-72ab-ad58-bdeb258f96cd","","534","
                <div class=""stimulus-container"">
                    <img src=""images/causal_sequence/the_performance_causal/the_performance_causal_ten.png"" class=""exp-image"">
                    <div class=""question-area"">
                        <p style=""font-size: 20px; font-weight: bold; margin: 0;"">Is there a person in this image?</p>
                    </div>
                </div>","0","main_experiment_trial","ten","the_performance_causal","causal_sequence","chronological","","","","","","",""
"","","","","","html-keyboard-response","79","158449","0.0-79.0","872E23FBC78B443CA4793405A619B555","019cfa6d-9b04-7ce5-810a-760cb0f94aed","019cfa3a-388e-72ab-ad58-bdeb258f96cd","","null","<div style=""background-color: white; width: 100vw; height: 100vh;""></div>","null","","","","","","","","","","","",""
"","","","","","html-keyboard-response","80","159451","0.0-80.0","872E23FBC78B443CA4793405A619B555","019cfa6d-9b04-7ce5-810a-760cb0f94aed","019cfa3a-388e-72ab-ad58-bdeb258f96cd","","null","
                <div class=""stimulus-container"">
                    <img src=""images/semantic_sequence/housework_semantic/housework_semantic_1.png"" class=""exp-image"">
                    <div class=""question-area""></div> 
                </div>","null","","","","","","","","","","","",""
"","","","","","html-button-response","81","160834","0.0-81.0","872E23FBC78B443CA4793405A619B555","019cfa6d-9b04-7ce5-810a-760cb0f94aed","019cfa3a-388e-72ab-ad58-bdeb258f96cd","","1382","
                <div class=""stimulus-container"">
                    <img src=""images/semantic_sequence/housework_semantic/housework_semantic_1.png"" class=""exp-image"">
                    <div class=""question-area"">
                        <p style=""font-size: 20px; font-weight: bold; margin: 0;"">Is there a person in this image?</p>
                    </div>
                </div>","0","main_experiment_trial","1","housework_semantic","semantic_sequence","chronological","","","","","","",""
"","","","","","html-keyboard-response","82","161836","0.0-82.0","872E23FBC78B443CA4793405A619B555","019cfa6d-9b04-7ce5-810a-760cb0f94aed","019cfa3a-388e-72ab-ad58-bdeb258f96cd","","null","
                <div class=""stimulus-container"">
                    <img src=""images/semantic_sequence/housework_semantic/housework_semantic_2.png"" class=""exp-image"">
                    <div class=""question-area""></div> 
                </div>","null","","","","","","","","","","","",""
"","","","","","html-button-response","83","162422","0.0-83.0","872E23FBC78B443CA4793405A619B555","019cfa6d-9b04-7ce5-810a-760cb0f94aed","019cfa3a-388e-72ab-ad58-bdeb258f96cd","","584","
                <div class=""stimulus-container"">
                    <img src=""images/semantic_sequence/housework_semantic/housework_semantic_2.png"" class=""exp-image"">
                    <div class=""question-area"">
                        <p style=""font-size: 20px; font-weight: bold; margin: 0;"">Is there a person in this image?</p>
                    </div>
                </div>","0","main_experiment_trial","2","housework_semantic","semantic_sequence","chronological","","","","","","",""
"","","","","","html-keyboard-response","84","163424","0.0-84.0","872E23FBC78B443CA4793405A619B555","019cfa6d-9b04-7ce5-810a-760cb0f94aed","019cfa3a-388e-72ab-ad58-bdeb258f96cd","","null","
                <div class=""stimulus-container"">
                    <img src=""images/semantic_sequence/housework_semantic/housework_semantic_3.png"" class=""exp-image"">
                    <div class=""question-area""></div> 
                </div>","null","","","","","","","","","","","",""
"","","","","","html-button-response","85","163976","0.0-85.0","872E23FBC78B443CA4793405A619B555","019cfa6d-9b04-7ce5-810a-760cb0f94aed","019cfa3a-388e-72ab-ad58-bdeb258f96cd","","551","
                <div class=""stimulus-container"">
                    <img src=""images/semantic_sequence/housework_semantic/housework_semantic_3.png"" class=""exp-image"">
                    <div class=""question-area"">
                        <p style=""font-size: 20px; font-weight: bold; margin: 0;"">Is there a person in this image?</p>
                    </div>
                </div>","0","main_experiment_trial","3","housework_semantic","semantic_sequence","chronological","","","","","","",""
"","","","","","html-keyboard-response","86","164978","0.0-86.0","872E23FBC78B443CA4793405A619B555","019cfa6d-9b04-7ce5-810a-760cb0f94aed","019cfa3a-388e-72ab-ad58-bdeb258f96cd","","null","
                <div class=""stimulus-container"">
                    <img src=""images/semantic_sequence/housework_semantic/housework_semantic_4.png"" class=""exp-image"">
                    <div class=""question-area""></div> 
                </div>","null","","","","","","","","","","","",""
"","","","","","html-button-response","87","165563","0.0-87.0","872E23FBC78B443CA4793405A619B555","019cfa6d-9b04-7ce5-810a-760cb0f94aed","019cfa3a-388e-72ab-ad58-bdeb258f96cd","","584","
                <div class=""stimulus-container"">
                    <img src=""images/semantic_sequence/housework_semantic/housework_semantic_4.png"" class=""exp-image"">
                    <div class=""question-area"">
                        <p style=""font-size: 20px; font-weight: bold; margin: 0;"">Is there a person in this image?</p>
                    </div>
                </div>","0","main_experiment_trial","4","housework_semantic","semantic_sequence","chronological","","","","","","",""
"","","","","","html-keyboard-response","88","166565","0.0-88.0","872E23FBC78B443CA4793405A619B555","019cfa6d-9b04-7ce5-810a-760cb0f94aed","019cfa3a-388e-72ab-ad58-bdeb258f96cd","","null","
                <div class=""stimulus-container"">
                    <img src=""images/semantic_sequence/housework_semantic/housework_semantic_5.png"" class=""exp-image"">
                    <div class=""question-area""></div> 
                </div>","null","","","","","","","","","","","",""
"","","","","","html-button-response","89","167151","0.0-89.0","872E23FBC78B443CA4793405A619B555","019cfa6d-9b04-7ce5-810a-760cb0f94aed","019cfa3a-388e-72ab-ad58-bdeb258f96cd","","585","
                <div class=""stimulus-container"">
                    <img src=""images/semantic_sequence/housework_semantic/housework_semantic_5.png"" class=""exp-image"">
                    <div class=""question-area"">
                        <p style=""font-size: 20px; font-weight: bold; margin: 0;"">Is there a person in this image?</p>
                    </div>
                </div>","0","main_experiment_trial","5","housework_semantic","semantic_sequence","chronological","","","","","","",""
"","","","","","html-keyboard-response","90","168153","0.0-90.0","872E23FBC78B443CA4793405A619B555","019cfa6d-9b04-7ce5-810a-760cb0f94aed","019cfa3a-388e-72ab-ad58-bdeb258f96cd","","null","
                <div class=""stimulus-container"">
                    <img src=""images/semantic_sequence/housework_semantic/housework_semantic_6.png"" class=""exp-image"">
                    <div class=""question-area""></div> 
                </div>","null","","","","","","","","","","","",""
"","","","","","html-button-response","91","168755","0.0-91.0","872E23FBC78B443CA4793405A619B555","019cfa6d-9b04-7ce5-810a-760cb0f94aed","019cfa3a-388e-72ab-ad58-bdeb258f96cd","","601","
                <div class=""stimulus-container"">
                    <img src=""images/semantic_sequence/housework_semantic/housework_semantic_6.png"" class=""exp-image"">
                    <div class=""question-area"">
                        <p style=""font-size: 20px; font-weight: bold; margin: 0;"">Is there a person in this image?</p>
                    </div>
                </div>","0","main_experiment_trial","6","housework_semantic","semantic_sequence","chronological","","","","","","",""
"","","","","","html-keyboard-response","92","169757","0.0-92.0","872E23FBC78B443CA4793405A619B555","019cfa6d-9b04-7ce5-810a-760cb0f94aed","019cfa3a-388e-72ab-ad58-bdeb258f96cd","","null","
                <div class=""stimulus-container"">
                    <img src=""images/semantic_sequence/housework_semantic/housework_semantic_7.png"" class=""exp-image"">
                    <div class=""question-area""></div> 
                </div>","null","","","","","","","","","","","",""
"","","","","","html-button-response","93","170527","0.0-93.0","872E23FBC78B443CA4793405A619B555","019cfa6d-9b04-7ce5-810a-760cb0f94aed","019cfa3a-388e-72ab-ad58-bdeb258f96cd","","768","
                <div class=""stimulus-container"">
                    <img src=""images/semantic_sequence/housework_semantic/housework_semantic_7.png"" class=""exp-image"">
                    <div class=""question-area"">
                        <p style=""font-size: 20px; font-weight: bold; margin: 0;"">Is there a person in this image?</p>
                    </div>
                </div>","0","main_experiment_trial","7","housework_semantic","semantic_sequence","chronological","","","","","","",""
"","","","","","html-keyboard-response","94","171529","0.0-94.0","872E23FBC78B443CA4793405A619B555","019cfa6d-9b04-7ce5-810a-760cb0f94aed","019cfa3a-388e-72ab-ad58-bdeb258f96cd","","null","
                <div class=""stimulus-container"">
                    <img src=""images/semantic_sequence/housework_semantic/housework_semantic_8.png"" class=""exp-image"">
                    <div class=""question-area""></div> 
                </div>","null","","","","","","","","","","","",""
"","","","","","html-button-response","95","172098","0.0-95.0","872E23FBC78B443CA4793405A619B555","019cfa6d-9b04-7ce5-810a-760cb0f94aed","019cfa3a-388e-72ab-ad58-bdeb258f96cd","","567","
                <div class=""stimulus-container"">
                    <img src=""images/semantic_sequence/housework_semantic/housework_semantic_8.png"" class=""exp-image"">
                    <div class=""question-area"">
                        <p style=""font-size: 20px; font-weight: bold; margin: 0;"">Is there a person in this image?</p>
                    </div>
                </div>","0","main_experiment_trial","8","housework_semantic","semantic_sequence","chronological","","","","","","",""
"","","","","","html-keyboard-response","96","173099","0.0-96.0","872E23FBC78B443CA4793405A619B555","019cfa6d-9b04-7ce5-810a-760cb0f94aed","019cfa3a-388e-72ab-ad58-bdeb258f96cd","","null","
                <div class=""stimulus-container"">
                    <img src=""images/semantic_sequence/housework_semantic/housework_semantic_9.png"" class=""exp-image"">
                    <div class=""question-area""></div> 
                </div>","null","","","","","","","","","","","",""
"","","","","","html-button-response","97","173819","0.0-97.0","872E23FBC78B443CA4793405A619B555","019cfa6d-9b04-7ce5-810a-760cb0f94aed","019cfa3a-388e-72ab-ad58-bdeb258f96cd","","718","
                <div class=""stimulus-container"">
                    <img src=""images/semantic_sequence/housework_semantic/housework_semantic_9.png"" class=""exp-image"">
                    <div class=""question-area"">
                        <p style=""font-size: 20px; font-weight: bold; margin: 0;"">Is there a person in this image?</p>
                    </div>
                </div>","0","main_experiment_trial","9","housework_semantic","semantic_sequence","chronological","","","","","","",""
"","","","","","html-keyboard-response","98","174821","0.0-98.0","872E23FBC78B443CA4793405A619B555","019cfa6d-9b04-7ce5-810a-760cb0f94aed","019cfa3a-388e-72ab-ad58-bdeb258f96cd","","null","
                <div class=""stimulus-container"">
                    <img src=""images/semantic_sequence/housework_semantic/housework_semantic_ten.png"" class=""exp-image"">
                    <div class=""question-area""></div> 
                </div>","null","","","","","","","","","","","",""
"","","","","","html-button-response","99","175474","0.0-99.0","872E23FBC78B443CA4793405A619B555","019cfa6d-9b04-7ce5-810a-760cb0f94aed","019cfa3a-388e-72ab-ad58-bdeb258f96cd","","651","
                <div class=""stimulus-container"">
                    <img src=""images/semantic_sequence/housework_semantic/housework_semantic_ten.png"" class=""exp-image"">
                    <div class=""question-area"">
                        <p style=""font-size: 20px; font-weight: bold; margin: 0;"">Is there a person in this image?</p>
                    </div>
                </div>","0","main_experiment_trial","ten","housework_semantic","semantic_sequence","chronological","","","","","","",""
"","","","","","html-keyboard-response","100","180476","0.0-100.0","872E23FBC78B443CA4793405A619B555","019cfa6d-9b04-7ce5-810a-760cb0f94aed","019cfa3a-388e-72ab-ad58-bdeb258f96cd","","null","<div style=""background-color: white; width: 100vw; height: 100vh;""></div>","null","","","","","","","","","","","",""
"","","","","","html-keyboard-response","101","181479","0.0-101.0","872E23FBC78B443CA4793405A619B555","019cfa6d-9b04-7ce5-810a-760cb0f94aed","019cfa3a-388e-72ab-ad58-bdeb258f96cd","","null","
                <div class=""stimulus-container"">
                    <img src=""images/causal_sequence/museum_causal/museum_causal_1.png"" class=""exp-image"">
                    <div class=""question-area""></div> 
                </div>","null","","","","","","","","","","","",""
"","","","","","html-button-response","102","182543","0.0-102.0","872E23FBC78B443CA4793405A619B555","019cfa6d-9b04-7ce5-810a-760cb0f94aed","019cfa3a-388e-72ab-ad58-bdeb258f96cd","","1062","
                <div class=""stimulus-container"">
                    <img src=""images/causal_sequence/museum_causal/museum_causal_1.png"" class=""exp-image"">
                    <div class=""question-area"">
                        <p style=""font-size: 20px; font-weight: bold; margin: 0;"">Is there a person in this image?</p>
                    </div>
                </div>","0","main_experiment_trial","1","museum_causal","causal_sequence","chronological","","","","","","",""
"","","","","","html-keyboard-response","103","183545","0.0-103.0","872E23FBC78B443CA4793405A619B555","019cfa6d-9b04-7ce5-810a-760cb0f94aed","019cfa3a-388e-72ab-ad58-bdeb258f96cd","","null","
                <div class=""stimulus-container"">
                    <img src=""images/causal_sequence/museum_causal/museum_causal_2.png"" class=""exp-image"">
                    <div class=""question-area""></div> 
                </div>","null","","","","","","","","","","","",""
"","","","","","html-button-response","104","185584","0.0-104.0","872E23FBC78B443CA4793405A619B555","019cfa6d-9b04-7ce5-810a-760cb0f94aed","019cfa3a-388e-72ab-ad58-bdeb258f96cd","","2037","
                <div class=""stimulus-container"">
                    <img src=""images/causal_sequence/museum_causal/museum_causal_2.png"" class=""exp-image"">
                    <div class=""question-area"">
                        <p style=""font-size: 20px; font-weight: bold; margin: 0;"">Is there a person in this image?</p>
                    </div>
                </div>","0","main_experiment_trial","2","museum_causal","causal_sequence","chronological","","","","","","",""
"","","","","","html-keyboard-response","105","186586","0.0-105.0","872E23FBC78B443CA4793405A619B555","019cfa6d-9b04-7ce5-810a-760cb0f94aed","019cfa3a-388e-72ab-ad58-bdeb258f96cd","","null","
                <div class=""stimulus-container"">
                    <img src=""images/causal_sequence/museum_causal/museum_causal_3.png"" class=""exp-image"">
                    <div class=""question-area""></div> 
                </div>","null","","","","","","","","","","","",""
"","","","","","html-button-response","106","187573","0.0-106.0","872E23FBC78B443CA4793405A619B555","019cfa6d-9b04-7ce5-810a-760cb0f94aed","019cfa3a-388e-72ab-ad58-bdeb258f96cd","","985","
                <div class=""stimulus-container"">
                    <img src=""images/causal_sequence/museum_causal/museum_causal_3.png"" class=""exp-image"">
                    <div class=""question-area"">
                        <p style=""font-size: 20px; font-weight: bold; margin: 0;"">Is there a person in this image?</p>
                    </div>
                </div>","0","main_experiment_trial","3","museum_causal","causal_sequence","chronological","","","","","","",""
"","","","","","html-keyboard-response","107","188574","0.0-107.0","872E23FBC78B443CA4793405A619B555","019cfa6d-9b04-7ce5-810a-760cb0f94aed","019cfa3a-388e-72ab-ad58-bdeb258f96cd","","null","
                <div class=""stimulus-container"">
                    <img src=""images/causal_sequence/museum_causal/museum_causal_4.png"" class=""exp-image"">
                    <div class=""question-area""></div> 
                </div>","null","","","","","","","","","","","",""
"","","","","","html-button-response","108","189779","0.0-108.0","872E23FBC78B443CA4793405A619B555","019cfa6d-9b04-7ce5-810a-760cb0f94aed","019cfa3a-388e-72ab-ad58-bdeb258f96cd","","1203","
                <div class=""stimulus-container"">
                    <img src=""images/causal_sequence/museum_causal/museum_causal_4.png"" class=""exp-image"">
                    <div class=""question-area"">
                        <p style=""font-size: 20px; font-weight: bold; margin: 0;"">Is there a person in this image?</p>
                    </div>
                </div>","1","main_experiment_trial","4","museum_causal","causal_sequence","chronological","","","","","","",""
"","","","","","html-keyboard-response","109","190781","0.0-109.0","872E23FBC78B443CA4793405A619B555","019cfa6d-9b04-7ce5-810a-760cb0f94aed","019cfa3a-388e-72ab-ad58-bdeb258f96cd","","null","
                <div class=""stimulus-container"">
                    <img src=""images/causal_sequence/museum_causal/museum_causal_5.png"" class=""exp-image"">
                    <div class=""question-area""></div> 
                </div>","null","","","","","","","","","","","",""
"","","","","","html-button-response","110","191650","0.0-110.0","872E23FBC78B443CA4793405A619B555","019cfa6d-9b04-7ce5-810a-760cb0f94aed","019cfa3a-388e-72ab-ad58-bdeb258f96cd","","868","
                <div class=""stimulus-container"">
                    <img src=""images/causal_sequence/museum_causal/museum_causal_5.png"" class=""exp-image"">
                    <div class=""question-area"">
                        <p style=""font-size: 20px; font-weight: bold; margin: 0;"">Is there a person in this image?</p>
                    </div>
                </div>","0","main_experiment_trial","5","museum_causal","causal_sequence","chronological","","","","","","",""
"","","","","","html-keyboard-response","111","192653","0.0-111.0","872E23FBC78B443CA4793405A619B555","019cfa6d-9b04-7ce5-810a-760cb0f94aed","019cfa3a-388e-72ab-ad58-bdeb258f96cd","","null","
                <div class=""stimulus-container"">
                    <img src=""images/causal_sequence/museum_causal/museum_causal_6.png"" class=""exp-image"">
                    <div class=""question-area""></div> 
                </div>","null","","","","","","","","","","","",""
"","","","","","html-button-response","112","193205","0.0-112.0","872E23FBC78B443CA4793405A619B555","019cfa6d-9b04-7ce5-810a-760cb0f94aed","019cfa3a-388e-72ab-ad58-bdeb258f96cd","","551","
                <div class=""stimulus-container"">
                    <img src=""images/causal_sequence/museum_causal/museum_causal_6.png"" class=""exp-image"">
                    <div class=""question-area"">
                        <p style=""font-size: 20px; font-weight: bold; margin: 0;"">Is there a person in this image?</p>
                    </div>
                </div>","0","main_experiment_trial","6","museum_causal","causal_sequence","chronological","","","","","","",""
"","","","","","html-keyboard-response","113","194207","0.0-113.0","872E23FBC78B443CA4793405A619B555","019cfa6d-9b04-7ce5-810a-760cb0f94aed","019cfa3a-388e-72ab-ad58-bdeb258f96cd","","null","
                <div class=""stimulus-container"">
                    <img src=""images/causal_sequence/museum_causal/museum_causal_7.png"" class=""exp-image"">
                    <div class=""question-area""></div> 
                </div>","null","","","","","","","","","","","",""
"","","","","","html-button-response","114","194809","0.0-114.0","872E23FBC78B443CA4793405A619B555","019cfa6d-9b04-7ce5-810a-760cb0f94aed","019cfa3a-388e-72ab-ad58-bdeb258f96cd","","600","
                <div class=""stimulus-container"">
                    <img src=""images/causal_sequence/museum_causal/museum_causal_7.png"" class=""exp-image"">
                    <div class=""question-area"">
                        <p style=""font-size: 20px; font-weight: bold; margin: 0;"">Is there a person in this image?</p>
                    </div>
                </div>","1","main_experiment_trial","7","museum_causal","causal_sequence","chronological","","","","","","",""
"","","","","","html-keyboard-response","115","195811","0.0-115.0","872E23FBC78B443CA4793405A619B555","019cfa6d-9b04-7ce5-810a-760cb0f94aed","019cfa3a-388e-72ab-ad58-bdeb258f96cd","","null","
                <div class=""stimulus-container"">
                    <img src=""images/causal_sequence/museum_causal/museum_causal_8.png"" class=""exp-image"">
                    <div class=""question-area""></div> 
                </div>","null","","","","","","","","","","","",""
"","","","","","html-button-response","116","196380","0.0-116.0","872E23FBC78B443CA4793405A619B555","019cfa6d-9b04-7ce5-810a-760cb0f94aed","019cfa3a-388e-72ab-ad58-bdeb258f96cd","","567","
                <div class=""stimulus-container"">
                    <img src=""images/causal_sequence/museum_causal/museum_causal_8.png"" class=""exp-image"">
                    <div class=""question-area"">
                        <p style=""font-size: 20px; font-weight: bold; margin: 0;"">Is there a person in this image?</p>
                    </div>
                </div>","0","main_experiment_trial","8","museum_causal","causal_sequence","chronological","","","","","","",""
"","","","","","html-keyboard-response","117","197381","0.0-117.0","872E23FBC78B443CA4793405A619B555","019cfa6d-9b04-7ce5-810a-760cb0f94aed","019cfa3a-388e-72ab-ad58-bdeb258f96cd","","null","
                <div class=""stimulus-container"">
                    <img src=""images/causal_sequence/museum_causal/museum_causal_9.png"" class=""exp-image"">
                    <div class=""question-area""></div> 
                </div>","null","","","","","","","","","","","",""
"","","","","","html-button-response","118","197934","0.0-118.0","872E23FBC78B443CA4793405A619B555","019cfa6d-9b04-7ce5-810a-760cb0f94aed","019cfa3a-388e-72ab-ad58-bdeb258f96cd","","551","
                <div class=""stimulus-container"">
                    <img src=""images/causal_sequence/museum_causal/museum_causal_9.png"" class=""exp-image"">
                    <div class=""question-area"">
                        <p style=""font-size: 20px; font-weight: bold; margin: 0;"">Is there a person in this image?</p>
                    </div>
                </div>","1","main_experiment_trial","9","museum_causal","causal_sequence","chronological","","","","","","",""
"","","","","","html-keyboard-response","119","198936","0.0-119.0","872E23FBC78B443CA4793405A619B555","019cfa6d-9b04-7ce5-810a-760cb0f94aed","019cfa3a-388e-72ab-ad58-bdeb258f96cd","","null","
                <div class=""stimulus-container"">
                    <img src=""images/causal_sequence/museum_causal/museum_causal_ten.png"" class=""exp-image"">
                    <div class=""question-area""></div> 
                </div>","null","","","","","","","","","","","",""
"","","","","","html-button-response","120","199455","0.0-120.0","872E23FBC78B443CA4793405A619B555","019cfa6d-9b04-7ce5-810a-760cb0f94aed","019cfa3a-388e-72ab-ad58-bdeb258f96cd","","517","
                <div class=""stimulus-container"">
                    <img src=""images/causal_sequence/museum_causal/museum_causal_ten.png"" class=""exp-image"">
                    <div class=""question-area"">
                        <p style=""font-size: 20px; font-weight: bold; margin: 0;"">Is there a person in this image?</p>
                    </div>
                </div>","0","main_experiment_trial","ten","museum_causal","causal_sequence","chronological","","","","","","",""
"","","","","","html-keyboard-response","121","204457","0.0-121.0","872E23FBC78B443CA4793405A619B555","019cfa6d-9b04-7ce5-810a-760cb0f94aed","019cfa3a-388e-72ab-ad58-bdeb258f96cd","","null","<div style=""background-color: white; width: 100vw; height: 100vh;""></div>","null","","","","","","","","","","","",""
"","","","","","html-keyboard-response","122","205459","0.0-122.0","872E23FBC78B443CA4793405A619B555","019cfa6d-9b04-7ce5-810a-760cb0f94aed","019cfa3a-388e-72ab-ad58-bdeb258f96cd","","null","
                <div class=""stimulus-container"">
                    <img src=""images/semantic_sequence/maintaining_a_car_semantic/maintaining_a_car_semantic_1.png"" class=""exp-image"">
                    <div class=""question-area""></div> 
                </div>","null","","","","","","","","","","","",""
"","","","","","html-button-response","123","206223","0.0-123.0","872E23FBC78B443CA4793405A619B555","019cfa6d-9b04-7ce5-810a-760cb0f94aed","019cfa3a-388e-72ab-ad58-bdeb258f96cd","","762","
                <div class=""stimulus-container"">
                    <img src=""images/semantic_sequence/maintaining_a_car_semantic/maintaining_a_car_semantic_1.png"" class=""exp-image"">
                    <div class=""question-area"">
                        <p style=""font-size: 20px; font-weight: bold; margin: 0;"">Is there a person in this image?</p>
                    </div>
                </div>","0","main_experiment_trial","1","maintaining_a_car_semantic","semantic_sequence","chronological","","","","","","",""
"","","","","","html-keyboard-response","124","207225","0.0-124.0","872E23FBC78B443CA4793405A619B555","019cfa6d-9b04-7ce5-810a-760cb0f94aed","019cfa3a-388e-72ab-ad58-bdeb258f96cd","","null","
                <div class=""stimulus-container"">
                    <img src=""images/semantic_sequence/maintaining_a_car_semantic/maintaining_a_car_semantic_2.png"" class=""exp-image"">
                    <div class=""question-area""></div> 
                </div>","null","","","","","","","","","","","",""
"","","","","","html-button-response","125","207694","0.0-125.0","872E23FBC78B443CA4793405A619B555","019cfa6d-9b04-7ce5-810a-760cb0f94aed","019cfa3a-388e-72ab-ad58-bdeb258f96cd","","467","
                <div class=""stimulus-container"">
                    <img src=""images/semantic_sequence/maintaining_a_car_semantic/maintaining_a_car_semantic_2.png"" class=""exp-image"">
                    <div class=""question-area"">
                        <p style=""font-size: 20px; font-weight: bold; margin: 0;"">Is there a person in this image?</p>
                    </div>
                </div>","0","main_experiment_trial","2","maintaining_a_car_semantic","semantic_sequence","chronological","","","","","","",""
"","","","","","html-keyboard-response","126","208696","0.0-126.0","872E23FBC78B443CA4793405A619B555","019cfa6d-9b04-7ce5-810a-760cb0f94aed","019cfa3a-388e-72ab-ad58-bdeb258f96cd","","null","
                <div class=""stimulus-container"">
                    <img src=""images/semantic_sequence/maintaining_a_car_semantic/maintaining_a_car_semantic_3.png"" class=""exp-image"">
                    <div class=""question-area""></div> 
                </div>","null","","","","","","","","","","","",""
"","","","","","html-button-response","127","209098","0.0-127.0","872E23FBC78B443CA4793405A619B555","019cfa6d-9b04-7ce5-810a-760cb0f94aed","019cfa3a-388e-72ab-ad58-bdeb258f96cd","","400","
                <div class=""stimulus-container"">
                    <img src=""images/semantic_sequence/maintaining_a_car_semantic/maintaining_a_car_semantic_3.png"" class=""exp-image"">
                    <div class=""question-area"">
                        <p style=""font-size: 20px; font-weight: bold; margin: 0;"">Is there a person in this image?</p>
                    </div>
                </div>","0","main_experiment_trial","3","maintaining_a_car_semantic","semantic_sequence","chronological","","","","","","",""
"","","","","","html-keyboard-response","128","210100","0.0-128.0","872E23FBC78B443CA4793405A619B555","019cfa6d-9b04-7ce5-810a-760cb0f94aed","019cfa3a-388e-72ab-ad58-bdeb258f96cd","","null","
                <div class=""stimulus-container"">
                    <img src=""images/semantic_sequence/maintaining_a_car_semantic/maintaining_a_car_semantic_4.png"" class=""exp-image"">
                    <div class=""question-area""></div> 
                </div>","null","","","","","","","","","","","",""
"","","","","","html-button-response","129","210452","0.0-129.0","872E23FBC78B443CA4793405A619B555","019cfa6d-9b04-7ce5-810a-760cb0f94aed","019cfa3a-388e-72ab-ad58-bdeb258f96cd","","350","
                <div class=""stimulus-container"">
                    <img src=""images/semantic_sequence/maintaining_a_car_semantic/maintaining_a_car_semantic_4.png"" class=""exp-image"">
                    <div class=""question-area"">
                        <p style=""font-size: 20px; font-weight: bold; margin: 0;"">Is there a person in this image?</p>
                    </div>
                </div>","0","main_experiment_trial","4","maintaining_a_car_semantic","semantic_sequence","chronological","","","","","","",""
"","","","","","html-keyboard-response","130","211453","0.0-130.0","872E23FBC78B443CA4793405A619B555","019cfa6d-9b04-7ce5-810a-760cb0f94aed","019cfa3a-388e-72ab-ad58-bdeb258f96cd","","null","
                <div class=""stimulus-container"">
                    <img src=""images/semantic_sequence/maintaining_a_car_semantic/maintaining_a_car_semantic_5.png"" class=""exp-image"">
                    <div class=""question-area""></div> 
                </div>","null","","","","","","","","","","","",""
"","","","","","html-button-response","131","212072","0.0-131.0","872E23FBC78B443CA4793405A619B555","019cfa6d-9b04-7ce5-810a-760cb0f94aed","019cfa3a-388e-72ab-ad58-bdeb258f96cd","","618","
                <div class=""stimulus-container"">
                    <img src=""images/semantic_sequence/maintaining_a_car_semantic/maintaining_a_car_semantic_5.png"" class=""exp-image"">
                    <div class=""question-area"">
                        <p style=""font-size: 20px; font-weight: bold; margin: 0;"">Is there a person in this image?</p>
                    </div>
                </div>","0","main_experiment_trial","5","maintaining_a_car_semantic","semantic_sequence","chronological","","","","","","",""
"","","","","","html-keyboard-response","132","213074","0.0-132.0","872E23FBC78B443CA4793405A619B555","019cfa6d-9b04-7ce5-810a-760cb0f94aed","019cfa3a-388e-72ab-ad58-bdeb258f96cd","","null","
                <div class=""stimulus-container"">
                    <img src=""images/semantic_sequence/maintaining_a_car_semantic/maintaining_a_car_semantic_6.png"" class=""exp-image"">
                    <div class=""question-area""></div> 
                </div>","null","","","","","","","","","","","",""
"","","","","","html-button-response","133","213426","0.0-133.0","872E23FBC78B443CA4793405A619B555","019cfa6d-9b04-7ce5-810a-760cb0f94aed","019cfa3a-388e-72ab-ad58-bdeb258f96cd","","351","
                <div class=""stimulus-container"">
                    <img src=""images/semantic_sequence/maintaining_a_car_semantic/maintaining_a_car_semantic_6.png"" class=""exp-image"">
                    <div class=""question-area"">
                        <p style=""font-size: 20px; font-weight: bold; margin: 0;"">Is there a person in this image?</p>
                    </div>
                </div>","0","main_experiment_trial","6","maintaining_a_car_semantic","semantic_sequence","chronological","","","","","","",""
"","","","","","html-keyboard-response","134","214428","0.0-134.0","872E23FBC78B443CA4793405A619B555","019cfa6d-9b04-7ce5-810a-760cb0f94aed","019cfa3a-388e-72ab-ad58-bdeb258f96cd","","null","
                <div class=""stimulus-container"">
                    <img src=""images/semantic_sequence/maintaining_a_car_semantic/maintaining_a_car_semantic_7.png"" class=""exp-image"">
                    <div class=""question-area""></div> 
                </div>","null","","","","","","","","","","","",""
"","","","","","html-button-response","135","214847","0.0-135.0","872E23FBC78B443CA4793405A619B555","019cfa6d-9b04-7ce5-810a-760cb0f94aed","019cfa3a-388e-72ab-ad58-bdeb258f96cd","","417","
                <div class=""stimulus-container"">
                    <img src=""images/semantic_sequence/maintaining_a_car_semantic/maintaining_a_car_semantic_7.png"" class=""exp-image"">
                    <div class=""question-area"">
                        <p style=""font-size: 20px; font-weight: bold; margin: 0;"">Is there a person in this image?</p>
                    </div>
                </div>","0","main_experiment_trial","7","maintaining_a_car_semantic","semantic_sequence","chronological","","","","","","",""
"","","","","","html-keyboard-response","136","215849","0.0-136.0","872E23FBC78B443CA4793405A619B555","019cfa6d-9b04-7ce5-810a-760cb0f94aed","019cfa3a-388e-72ab-ad58-bdeb258f96cd","","null","
                <div class=""stimulus-container"">
                    <img src=""images/semantic_sequence/maintaining_a_car_semantic/maintaining_a_car_semantic_8.png"" class=""exp-image"">
                    <div class=""question-area""></div> 
                </div>","null","","","","","","","","","","","",""
"","","","","","html-button-response","137","216267","0.0-137.0","872E23FBC78B443CA4793405A619B555","019cfa6d-9b04-7ce5-810a-760cb0f94aed","019cfa3a-388e-72ab-ad58-bdeb258f96cd","","417","
                <div class=""stimulus-container"">
                    <img src=""images/semantic_sequence/maintaining_a_car_semantic/maintaining_a_car_semantic_8.png"" class=""exp-image"">
                    <div class=""question-area"">
                        <p style=""font-size: 20px; font-weight: bold; margin: 0;"">Is there a person in this image?</p>
                    </div>
                </div>","0","main_experiment_trial","8","maintaining_a_car_semantic","semantic_sequence","chronological","","","","","","",""
"","","","","","html-keyboard-response","138","217269","0.0-138.0","872E23FBC78B443CA4793405A619B555","019cfa6d-9b04-7ce5-810a-760cb0f94aed","019cfa3a-388e-72ab-ad58-bdeb258f96cd","","null","
                <div class=""stimulus-container"">
                    <img src=""images/semantic_sequence/maintaining_a_car_semantic/maintaining_a_car_semantic_9.png"" class=""exp-image"">
                    <div class=""question-area""></div> 
                </div>","null","","","","","","","","","","","",""
"","","","","","html-button-response","139","217620","0.0-139.0","872E23FBC78B443CA4793405A619B555","019cfa6d-9b04-7ce5-810a-760cb0f94aed","019cfa3a-388e-72ab-ad58-bdeb258f96cd","","351","
                <div class=""stimulus-container"">
                    <img src=""images/semantic_sequence/maintaining_a_car_semantic/maintaining_a_car_semantic_9.png"" class=""exp-image"">
                    <div class=""question-area"">
                        <p style=""font-size: 20px; font-weight: bold; margin: 0;"">Is there a person in this image?</p>
                    </div>
                </div>","0","main_experiment_trial","9","maintaining_a_car_semantic","semantic_sequence","chronological","","","","","","",""
"","","","","","html-keyboard-response","140","218623","0.0-140.0","872E23FBC78B443CA4793405A619B555","019cfa6d-9b04-7ce5-810a-760cb0f94aed","019cfa3a-388e-72ab-ad58-bdeb258f96cd","","null","
                <div class=""stimulus-container"">
                    <img src=""images/semantic_sequence/maintaining_a_car_semantic/maintaining_a_car_semantic_ten.png"" class=""exp-image"">
                    <div class=""question-area""></div> 
                </div>","null","","","","","","","","","","","",""
"","","","","","html-button-response","141","219024","0.0-141.0","872E23FBC78B443CA4793405A619B555","019cfa6d-9b04-7ce5-810a-760cb0f94aed","019cfa3a-388e-72ab-ad58-bdeb258f96cd","","398","
                <div class=""stimulus-container"">
                    <img src=""images/semantic_sequence/maintaining_a_car_semantic/maintaining_a_car_semantic_ten.png"" class=""exp-image"">
                    <div class=""question-area"">
                        <p style=""font-size: 20px; font-weight: bold; margin: 0;"">Is there a person in this image?</p>
                    </div>
                </div>","0","main_experiment_trial","ten","maintaining_a_car_semantic","semantic_sequence","chronological","","","","","","",""
"","","","","","html-keyboard-response","142","224027","0.0-142.0","872E23FBC78B443CA4793405A619B555","019cfa6d-9b04-7ce5-810a-760cb0f94aed","019cfa3a-388e-72ab-ad58-bdeb258f96cd","","null","<div style=""background-color: white; width: 100vw; height: 100vh;""></div>","null","","","","","","","","","","","",""
"","","","","","html-keyboard-response","143","225029","0.0-143.0","872E23FBC78B443CA4793405A619B555","019cfa6d-9b04-7ce5-810a-760cb0f94aed","019cfa3a-388e-72ab-ad58-bdeb258f96cd","","null","
                <div class=""stimulus-container"">
                    <img src=""images/causal_sequence/saving_a_cat_causal/saving_a_cat_causal_1.png"" class=""exp-image"">
                    <div class=""question-area""></div> 
                </div>","null","","","","","","","","","","","",""
"","","","","","html-button-response","144","225859","0.0-144.0","872E23FBC78B443CA4793405A619B555","019cfa6d-9b04-7ce5-810a-760cb0f94aed","019cfa3a-388e-72ab-ad58-bdeb258f96cd","","829","
                <div class=""stimulus-container"">
                    <img src=""images/causal_sequence/saving_a_cat_causal/saving_a_cat_causal_1.png"" class=""exp-image"">
                    <div class=""question-area"">
                        <p style=""font-size: 20px; font-weight: bold; margin: 0;"">Is there a person in this image?</p>
                    </div>
                </div>","0","main_experiment_trial","1","saving_a_cat_causal","causal_sequence","chronological","","","","","","",""
"","","","","","html-keyboard-response","145","226862","0.0-145.0","872E23FBC78B443CA4793405A619B555","019cfa6d-9b04-7ce5-810a-760cb0f94aed","019cfa3a-388e-72ab-ad58-bdeb258f96cd","","null","
                <div class=""stimulus-container"">
                    <img src=""images/causal_sequence/saving_a_cat_causal/saving_a_cat_causal_2.png"" class=""exp-image"">
                    <div class=""question-area""></div> 
                </div>","null","","","","","","","","","","","",""
"","","","","","html-button-response","146","227614","0.0-146.0","872E23FBC78B443CA4793405A619B555","019cfa6d-9b04-7ce5-810a-760cb0f94aed","019cfa3a-388e-72ab-ad58-bdeb258f96cd","","751","
                <div class=""stimulus-container"">
                    <img src=""images/causal_sequence/saving_a_cat_causal/saving_a_cat_causal_2.png"" class=""exp-image"">
                    <div class=""question-area"">
                        <p style=""font-size: 20px; font-weight: bold; margin: 0;"">Is there a person in this image?</p>
                    </div>
                </div>","1","main_experiment_trial","2","saving_a_cat_causal","causal_sequence","chronological","","","","","","",""
"","","","","","html-keyboard-response","147","228615","0.0-147.0","872E23FBC78B443CA4793405A619B555","019cfa6d-9b04-7ce5-810a-760cb0f94aed","019cfa3a-388e-72ab-ad58-bdeb258f96cd","","null","
                <div class=""stimulus-container"">
                    <img src=""images/causal_sequence/saving_a_cat_causal/saving_a_cat_causal_3.png"" class=""exp-image"">
                    <div class=""question-area""></div> 
                </div>","null","","","","","","","","","","","",""
"","","","","","html-button-response","148","229069","0.0-148.0","872E23FBC78B443CA4793405A619B555","019cfa6d-9b04-7ce5-810a-760cb0f94aed","019cfa3a-388e-72ab-ad58-bdeb258f96cd","","452","
                <div class=""stimulus-container"">
                    <img src=""images/causal_sequence/saving_a_cat_causal/saving_a_cat_causal_3.png"" class=""exp-image"">
                    <div class=""question-area"">
                        <p style=""font-size: 20px; font-weight: bold; margin: 0;"">Is there a person in this image?</p>
                    </div>
                </div>","1","main_experiment_trial","3","saving_a_cat_causal","causal_sequence","chronological","","","","","","",""
"","","","","","html-keyboard-response","149","230070","0.0-149.0","872E23FBC78B443CA4793405A619B555","019cfa6d-9b04-7ce5-810a-760cb0f94aed","019cfa3a-388e-72ab-ad58-bdeb258f96cd","","null","
                <div class=""stimulus-container"">
                    <img src=""images/causal_sequence/saving_a_cat_causal/saving_a_cat_causal_4.png"" class=""exp-image"">
                    <div class=""question-area""></div> 
                </div>","null","","","","","","","","","","","",""
"","","","","","html-button-response","150","232076","0.0-150.0","872E23FBC78B443CA4793405A619B555","019cfa6d-9b04-7ce5-810a-760cb0f94aed","019cfa3a-388e-72ab-ad58-bdeb258f96cd","","2004","
                <div class=""stimulus-container"">
                    <img src=""images/causal_sequence/saving_a_cat_causal/saving_a_cat_causal_4.png"" class=""exp-image"">
                    <div class=""question-area"">
                        <p style=""font-size: 20px; font-weight: bold; margin: 0;"">Is there a person in this image?</p>
                    </div>
                </div>","0","main_experiment_trial","4","saving_a_cat_causal","causal_sequence","chronological","","","","","","",""
"","","","","","html-keyboard-response","151","233077","0.0-151.0","872E23FBC78B443CA4793405A619B555","019cfa6d-9b04-7ce5-810a-760cb0f94aed","019cfa3a-388e-72ab-ad58-bdeb258f96cd","","null","
                <div class=""stimulus-container"">
                    <img src=""images/causal_sequence/saving_a_cat_causal/saving_a_cat_causal_5.png"" class=""exp-image"">
                    <div class=""question-area""></div> 
                </div>","null","","","","","","","","","","","",""
"","","","","","html-button-response","152","233530","0.0-152.0","872E23FBC78B443CA4793405A619B555","019cfa6d-9b04-7ce5-810a-760cb0f94aed","019cfa3a-388e-72ab-ad58-bdeb258f96cd","","451","
                <div class=""stimulus-container"">
                    <img src=""images/causal_sequence/saving_a_cat_causal/saving_a_cat_causal_5.png"" class=""exp-image"">
                    <div class=""question-area"">
                        <p style=""font-size: 20px; font-weight: bold; margin: 0;"">Is there a person in this image?</p>
                    </div>
                </div>","0","main_experiment_trial","5","saving_a_cat_causal","causal_sequence","chronological","","","","","","",""
"","","","","","html-keyboard-response","153","234532","0.0-153.0","872E23FBC78B443CA4793405A619B555","019cfa6d-9b04-7ce5-810a-760cb0f94aed","019cfa3a-388e-72ab-ad58-bdeb258f96cd","","null","
                <div class=""stimulus-container"">
                    <img src=""images/causal_sequence/saving_a_cat_causal/saving_a_cat_causal_6.png"" class=""exp-image"">
                    <div class=""question-area""></div> 
                </div>","null","","","","","","","","","","","",""
"","","","","","html-button-response","154","235318","0.0-154.0","872E23FBC78B443CA4793405A619B555","019cfa6d-9b04-7ce5-810a-760cb0f94aed","019cfa3a-388e-72ab-ad58-bdeb258f96cd","","785","
                <div class=""stimulus-container"">
                    <img src=""images/causal_sequence/saving_a_cat_causal/saving_a_cat_causal_6.png"" class=""exp-image"">
                    <div class=""question-area"">
                        <p style=""font-size: 20px; font-weight: bold; margin: 0;"">Is there a person in this image?</p>
                    </div>
                </div>","0","main_experiment_trial","6","saving_a_cat_causal","causal_sequence","chronological","","","","","","",""
"","","","","","html-keyboard-response","155","236320","0.0-155.0","872E23FBC78B443CA4793405A619B555","019cfa6d-9b04-7ce5-810a-760cb0f94aed","019cfa3a-388e-72ab-ad58-bdeb258f96cd","","null","
                <div class=""stimulus-container"">
                    <img src=""images/causal_sequence/saving_a_cat_causal/saving_a_cat_causal_7.png"" class=""exp-image"">
                    <div class=""question-area""></div> 
                </div>","null","","","","","","","","","","","",""
"","","","","","html-button-response","156","236756","0.0-156.0","872E23FBC78B443CA4793405A619B555","019cfa6d-9b04-7ce5-810a-760cb0f94aed","019cfa3a-388e-72ab-ad58-bdeb258f96cd","","434","
                <div class=""stimulus-container"">
                    <img src=""images/causal_sequence/saving_a_cat_causal/saving_a_cat_causal_7.png"" class=""exp-image"">
                    <div class=""question-area"">
                        <p style=""font-size: 20px; font-weight: bold; margin: 0;"">Is there a person in this image?</p>
                    </div>
                </div>","0","main_experiment_trial","7","saving_a_cat_causal","causal_sequence","chronological","","","","","","",""
"","","","","","html-keyboard-response","157","237759","0.0-157.0","872E23FBC78B443CA4793405A619B555","019cfa6d-9b04-7ce5-810a-760cb0f94aed","019cfa3a-388e-72ab-ad58-bdeb258f96cd","","null","
                <div class=""stimulus-container"">
                    <img src=""images/causal_sequence/saving_a_cat_causal/saving_a_cat_causal_8.png"" class=""exp-image"">
                    <div class=""question-area""></div> 
                </div>","null","","","","","","","","","","","",""
"","","","","","html-button-response","158","238494","0.0-158.0","872E23FBC78B443CA4793405A619B555","019cfa6d-9b04-7ce5-810a-760cb0f94aed","019cfa3a-388e-72ab-ad58-bdeb258f96cd","","732","
                <div class=""stimulus-container"">
                    <img src=""images/causal_sequence/saving_a_cat_causal/saving_a_cat_causal_8.png"" class=""exp-image"">
                    <div class=""question-area"">
                        <p style=""font-size: 20px; font-weight: bold; margin: 0;"">Is there a person in this image?</p>
                    </div>
                </div>","0","main_experiment_trial","8","saving_a_cat_causal","causal_sequence","chronological","","","","","","",""
"","","","","","html-keyboard-response","159","239496","0.0-159.0","872E23FBC78B443CA4793405A619B555","019cfa6d-9b04-7ce5-810a-760cb0f94aed","019cfa3a-388e-72ab-ad58-bdeb258f96cd","","null","
                <div class=""stimulus-container"">
                    <img src=""images/causal_sequence/saving_a_cat_causal/saving_a_cat_causal_9.png"" class=""exp-image"">
                    <div class=""question-area""></div> 
                </div>","null","","","","","","","","","","","",""
"","","","","","html-button-response","160","240131","0.0-160.0","872E23FBC78B443CA4793405A619B555","019cfa6d-9b04-7ce5-810a-760cb0f94aed","019cfa3a-388e-72ab-ad58-bdeb258f96cd","","634","
                <div class=""stimulus-container"">
                    <img src=""images/causal_sequence/saving_a_cat_causal/saving_a_cat_causal_9.png"" class=""exp-image"">
                    <div class=""question-area"">
                        <p style=""font-size: 20px; font-weight: bold; margin: 0;"">Is there a person in this image?</p>
                    </div>
                </div>","0","main_experiment_trial","9","saving_a_cat_causal","causal_sequence","chronological","","","","","","",""
"","","","","","html-keyboard-response","161","241134","0.0-161.0","872E23FBC78B443CA4793405A619B555","019cfa6d-9b04-7ce5-810a-760cb0f94aed","019cfa3a-388e-72ab-ad58-bdeb258f96cd","","null","
                <div class=""stimulus-container"">
                    <img src=""images/causal_sequence/saving_a_cat_causal/saving_a_cat_causal_ten.png"" class=""exp-image"">
                    <div class=""question-area""></div> 
                </div>","null","","","","","","","","","","","",""
"","","","","","html-button-response","162","241602","0.0-162.0","872E23FBC78B443CA4793405A619B555","019cfa6d-9b04-7ce5-810a-760cb0f94aed","019cfa3a-388e-72ab-ad58-bdeb258f96cd","","467","
                <div class=""stimulus-container"">
                    <img src=""images/causal_sequence/saving_a_cat_causal/saving_a_cat_causal_ten.png"" class=""exp-image"">
                    <div class=""question-area"">
                        <p style=""font-size: 20px; font-weight: bold; margin: 0;"">Is there a person in this image?</p>
                    </div>
                </div>","0","main_experiment_trial","ten","saving_a_cat_causal","causal_sequence","chronological","","","","","","",""
"","","","","","html-keyboard-response","163","246605","0.0-163.0","872E23FBC78B443CA4793405A619B555","019cfa6d-9b04-7ce5-810a-760cb0f94aed","019cfa3a-388e-72ab-ad58-bdeb258f96cd","","null","<div style=""background-color: white; width: 100vw; height: 100vh;""></div>","null","","","","","","","","","","","",""
"","","","","","html-keyboard-response","164","247607","0.0-164.0","872E23FBC78B443CA4793405A619B555","019cfa6d-9b04-7ce5-810a-760cb0f94aed","019cfa3a-388e-72ab-ad58-bdeb258f96cd","","null","
                <div class=""stimulus-container"">
                    <img src=""images/semantic_sequence/physical_activity_semantic/physical_activity_semantic_1.png"" class=""exp-image"">
                    <div class=""question-area""></div> 
                </div>","null","","","","","","","","","","","",""
"","","","","","html-button-response","165","248270","0.0-165.0","872E23FBC78B443CA4793405A619B555","019cfa6d-9b04-7ce5-810a-760cb0f94aed","019cfa3a-388e-72ab-ad58-bdeb258f96cd","","661","
                <div class=""stimulus-container"">
                    <img src=""images/semantic_sequence/physical_activity_semantic/physical_activity_semantic_1.png"" class=""exp-image"">
                    <div class=""question-area"">
                        <p style=""font-size: 20px; font-weight: bold; margin: 0;"">Is there a person in this image?</p>
                    </div>
                </div>","0","main_experiment_trial","1","physical_activity_semantic","semantic_sequence","chronological","","","","","","",""
"","","","","","html-keyboard-response","166","249272","0.0-166.0","872E23FBC78B443CA4793405A619B555","019cfa6d-9b04-7ce5-810a-760cb0f94aed","019cfa3a-388e-72ab-ad58-bdeb258f96cd","","null","
                <div class=""stimulus-container"">
                    <img src=""images/semantic_sequence/physical_activity_semantic/physical_activity_semantic_2.png"" class=""exp-image"">
                    <div class=""question-area""></div> 
                </div>","null","","","","","","","","","","","",""
"","","","","","html-button-response","167","252064","0.0-167.0","872E23FBC78B443CA4793405A619B555","019cfa6d-9b04-7ce5-810a-760cb0f94aed","019cfa3a-388e-72ab-ad58-bdeb258f96cd","","2791","
                <div class=""stimulus-container"">
                    <img src=""images/semantic_sequence/physical_activity_semantic/physical_activity_semantic_2.png"" class=""exp-image"">
                    <div class=""question-area"">
                        <p style=""font-size: 20px; font-weight: bold; margin: 0;"">Is there a person in this image?</p>
                    </div>
                </div>","0","main_experiment_trial","2","physical_activity_semantic","semantic_sequence","chronological","","","","","","",""
"","","","","","html-keyboard-response","168","253065","0.0-168.0","872E23FBC78B443CA4793405A619B555","019cfa6d-9b04-7ce5-810a-760cb0f94aed","019cfa3a-388e-72ab-ad58-bdeb258f96cd","","null","
                <div class=""stimulus-container"">
                    <img src=""images/semantic_sequence/physical_activity_semantic/physical_activity_semantic_3.png"" class=""exp-image"">
                    <div class=""question-area""></div> 
                </div>","null","","","","","","","","","","","",""
"","","","","","html-button-response","169","253735","0.0-169.0","872E23FBC78B443CA4793405A619B555","019cfa6d-9b04-7ce5-810a-760cb0f94aed","019cfa3a-388e-72ab-ad58-bdeb258f96cd","","668","
                <div class=""stimulus-container"">
                    <img src=""images/semantic_sequence/physical_activity_semantic/physical_activity_semantic_3.png"" class=""exp-image"">
                    <div class=""question-area"">
                        <p style=""font-size: 20px; font-weight: bold; margin: 0;"">Is there a person in this image?</p>
                    </div>
                </div>","0","main_experiment_trial","3","physical_activity_semantic","semantic_sequence","chronological","","","","","","",""
"","","","","","html-keyboard-response","170","254737","0.0-170.0","872E23FBC78B443CA4793405A619B555","019cfa6d-9b04-7ce5-810a-760cb0f94aed","019cfa3a-388e-72ab-ad58-bdeb258f96cd","","null","
                <div class=""stimulus-container"">
                    <img src=""images/semantic_sequence/physical_activity_semantic/physical_activity_semantic_4.png"" class=""exp-image"">
                    <div class=""question-area""></div> 
                </div>","null","","","","","","","","","","","",""
"","","","","","html-button-response","171","255255","0.0-171.0","872E23FBC78B443CA4793405A619B555","019cfa6d-9b04-7ce5-810a-760cb0f94aed","019cfa3a-388e-72ab-ad58-bdeb258f96cd","","517","
                <div class=""stimulus-container"">
                    <img src=""images/semantic_sequence/physical_activity_semantic/physical_activity_semantic_4.png"" class=""exp-image"">
                    <div class=""question-area"">
                        <p style=""font-size: 20px; font-weight: bold; margin: 0;"">Is there a person in this image?</p>
                    </div>
                </div>","0","main_experiment_trial","4","physical_activity_semantic","semantic_sequence","chronological","","","","","","",""
"","","","","","html-keyboard-response","172","256257","0.0-172.0","872E23FBC78B443CA4793405A619B555","019cfa6d-9b04-7ce5-810a-760cb0f94aed","019cfa3a-388e-72ab-ad58-bdeb258f96cd","","null","
                <div class=""stimulus-container"">
                    <img src=""images/semantic_sequence/physical_activity_semantic/physical_activity_semantic_5.png"" class=""exp-image"">
                    <div class=""question-area""></div> 
                </div>","null","","","","","","","","","","","",""
"","","","","","html-button-response","173","256726","0.0-173.0","872E23FBC78B443CA4793405A619B555","019cfa6d-9b04-7ce5-810a-760cb0f94aed","019cfa3a-388e-72ab-ad58-bdeb258f96cd","","468","
                <div class=""stimulus-container"">
                    <img src=""images/semantic_sequence/physical_activity_semantic/physical_activity_semantic_5.png"" class=""exp-image"">
                    <div class=""question-area"">
                        <p style=""font-size: 20px; font-weight: bold; margin: 0;"">Is there a person in this image?</p>
                    </div>
                </div>","0","main_experiment_trial","5","physical_activity_semantic","semantic_sequence","chronological","","","","","","",""
"","","","","","html-keyboard-response","174","257728","0.0-174.0","872E23FBC78B443CA4793405A619B555","019cfa6d-9b04-7ce5-810a-760cb0f94aed","019cfa3a-388e-72ab-ad58-bdeb258f96cd","","null","
                <div class=""stimulus-container"">
                    <img src=""images/semantic_sequence/physical_activity_semantic/physical_activity_semantic_6.png"" class=""exp-image"">
                    <div class=""question-area""></div> 
                </div>","null","","","","","","","","","","","",""
"","","","","","html-button-response","175","258213","0.0-175.0","872E23FBC78B443CA4793405A619B555","019cfa6d-9b04-7ce5-810a-760cb0f94aed","019cfa3a-388e-72ab-ad58-bdeb258f96cd","","484","
                <div class=""stimulus-container"">
                    <img src=""images/semantic_sequence/physical_activity_semantic/physical_activity_semantic_6.png"" class=""exp-image"">
                    <div class=""question-area"">
                        <p style=""font-size: 20px; font-weight: bold; margin: 0;"">Is there a person in this image?</p>
                    </div>
                </div>","0","main_experiment_trial","6","physical_activity_semantic","semantic_sequence","chronological","","","","","","",""
"","","","","","html-keyboard-response","176","259215","0.0-176.0","872E23FBC78B443CA4793405A619B555","019cfa6d-9b04-7ce5-810a-760cb0f94aed","019cfa3a-388e-72ab-ad58-bdeb258f96cd","","null","
                <div class=""stimulus-container"">
