"success","timeout","failed_images","failed_audio","failed_video","trial_type","trial_index","time_elapsed","internal_node_id","subject_id","study_id","session_id","view_history","rt","stimulus","response","task","image_index","folder","valuable_image_index","valuable_X","chosen_image_index","distance_from_X"
"false","false","[]","[]","[]","preload","0","3611","0.0-0.0","CF3FDC171B364B7FBED6300012D923EB","019ce675-94af-7bab-ad7e-b3215f9cb5d3","019ce643-47c6-74a0-b3d2-7bf5651ded46","","","","","","","","","","",""
"","","","","","instructions","1","14545","0.0-1.0","CF3FDC171B364B7FBED6300012D923EB","019ce675-94af-7bab-ad7e-b3215f9cb5d3","019ce643-47c6-74a0-b3d2-7bf5651ded46","[{""page_index"":0,""viewing_time"":10932}]","10932","","","","","","","","",""
"","","","","","instructions","2","32889","0.0-2.0","CF3FDC171B364B7FBED6300012D923EB","019ce675-94af-7bab-ad7e-b3215f9cb5d3","019ce643-47c6-74a0-b3d2-7bf5651ded46","[{""page_index"":0,""viewing_time"":18343}]","18343","","","","","","","","",""
"true","","","","","fullscreen","3","47013","0.0-3.0","CF3FDC171B364B7FBED6300012D923EB","019ce675-94af-7bab-ad7e-b3215f9cb5d3","019ce643-47c6-74a0-b3d2-7bf5651ded46","","13119","","","","","","","","",""
"","","","","","instructions","4","59793","0.0-4.0","CF3FDC171B364B7FBED6300012D923EB","019ce675-94af-7bab-ad7e-b3215f9cb5d3","019ce643-47c6-74a0-b3d2-7bf5651ded46","[{""page_index"":0,""viewing_time"":12779}]","12779","","","","","","","","",""
"","","","","","instructions","5","66401","0.0-5.0","CF3FDC171B364B7FBED6300012D923EB","019ce675-94af-7bab-ad7e-b3215f9cb5d3","019ce643-47c6-74a0-b3d2-7bf5651ded46","[{""page_index"":0,""viewing_time"":6608}]","6608","","","","","","","","",""
"","","","","","html-keyboard-response","6","70404","0.0-6.0","CF3FDC171B364B7FBED6300012D923EB","019ce675-94af-7bab-ad7e-b3215f9cb5d3","019ce643-47c6-74a0-b3d2-7bf5651ded46","","null","
                <div class=""stimulus-container"">
                    <img src=""images/instructions/movie_1.png"" class=""exp-image"">
                    <div class=""question-area""></div> 
                </div>","null","","","","","","",""
"","","","","","html-button-response","7","73406","0.0-7.0","CF3FDC171B364B7FBED6300012D923EB","019ce675-94af-7bab-ad7e-b3215f9cb5d3","019ce643-47c6-74a0-b3d2-7bf5651ded46","","null","
                <div class=""stimulus-container"">
                    <img src=""images/instructions/movie_1.png"" class=""exp-image"">
                    <div class=""question-area"">
                        <p style=""font-size: 20px; font-weight: bold; margin: 0;"">Was there a person in this image?</p>
                    </div>
                </div>","null","example_question","1","","","","",""
"","","","","","html-keyboard-response","8","77407","0.0-8.0","CF3FDC171B364B7FBED6300012D923EB","019ce675-94af-7bab-ad7e-b3215f9cb5d3","019ce643-47c6-74a0-b3d2-7bf5651ded46","","null","
                <div class=""stimulus-container"">
                    <img src=""images/instructions/movie_2.png"" class=""exp-image"">
                    <div class=""question-area""></div> 
                </div>","null","","","","","","",""
"","","","","","html-button-response","9","80409","0.0-9.0","CF3FDC171B364B7FBED6300012D923EB","019ce675-94af-7bab-ad7e-b3215f9cb5d3","019ce643-47c6-74a0-b3d2-7bf5651ded46","","null","
                <div class=""stimulus-container"">
                    <img src=""images/instructions/movie_2.png"" class=""exp-image"">
                    <div class=""question-area"">
                        <p style=""font-size: 20px; font-weight: bold; margin: 0;"">Was there a person in this image?</p>
                    </div>
                </div>","null","example_question","2","","","","",""
"","","","","","html-keyboard-response","10","84411","0.0-10.0","CF3FDC171B364B7FBED6300012D923EB","019ce675-94af-7bab-ad7e-b3215f9cb5d3","019ce643-47c6-74a0-b3d2-7bf5651ded46","","null","
                <div class=""stimulus-container"">
                    <img src=""images/instructions/movie_3.png"" class=""exp-image"">
                    <div class=""question-area""></div> 
                </div>","null","","","","","","",""
"","","","","","html-button-response","11","87417","0.0-11.0","CF3FDC171B364B7FBED6300012D923EB","019ce675-94af-7bab-ad7e-b3215f9cb5d3","019ce643-47c6-74a0-b3d2-7bf5651ded46","","null","
                <div class=""stimulus-container"">
                    <img src=""images/instructions/movie_3.png"" class=""exp-image"">
                    <div class=""question-area"">
                        <p style=""font-size: 20px; font-weight: bold; margin: 0;"">Was there a person in this image?</p>
                    </div>
                </div>","null","example_question","3","","","","",""
"","","","","","html-keyboard-response","12","91418","0.0-12.0","CF3FDC171B364B7FBED6300012D923EB","019ce675-94af-7bab-ad7e-b3215f9cb5d3","019ce643-47c6-74a0-b3d2-7bf5651ded46","","null","
                <div class=""stimulus-container"">
                    <img src=""images/instructions/movie_4.png"" class=""exp-image"">
                    <div class=""question-area""></div> 
                </div>","null","","","","","","",""
"","","","","","html-button-response","13","94420","0.0-13.0","CF3FDC171B364B7FBED6300012D923EB","019ce675-94af-7bab-ad7e-b3215f9cb5d3","019ce643-47c6-74a0-b3d2-7bf5651ded46","","null","
                <div class=""stimulus-container"">
                    <img src=""images/instructions/movie_4.png"" class=""exp-image"">
                    <div class=""question-area"">
                        <p style=""font-size: 20px; font-weight: bold; margin: 0;"">Was there a person in this image?</p>
                    </div>
                </div>","null","example_question","4","","","","",""
"","","","","","instructions","14","102697","0.0-14.0","CF3FDC171B364B7FBED6300012D923EB","019ce675-94af-7bab-ad7e-b3215f9cb5d3","019ce643-47c6-74a0-b3d2-7bf5651ded46","[{""page_index"":0,""viewing_time"":8276}]","8276","","","","","","","","",""
"","","","","","html-keyboard-response","15","103704","0.0-15.0","CF3FDC171B364B7FBED6300012D923EB","019ce675-94af-7bab-ad7e-b3215f9cb5d3","019ce643-47c6-74a0-b3d2-7bf5651ded46","","null","<div style=""background-color: gray; width: 100vw; height: 100vh;""></div>","null","","","","","","",""
"","","","","","html-keyboard-response","16","108705","0.0-16.0","CF3FDC171B364B7FBED6300012D923EB","019ce675-94af-7bab-ad7e-b3215f9cb5d3","019ce643-47c6-74a0-b3d2-7bf5651ded46","","null","
                    <div class=""stimulus-container"">
                        <img src=""images/causal_sequence/coin_causal/coin_causal_1.png"" class=""exp-image"">
                        <div class=""question-area""></div> 
                    </div>","null","","","","","","",""
"","","","","","html-button-response","17","111708","0.0-17.0","CF3FDC171B364B7FBED6300012D923EB","019ce675-94af-7bab-ad7e-b3215f9cb5d3","019ce643-47c6-74a0-b3d2-7bf5651ded46","","null","
                    <div class=""stimulus-container"">
                        <img src=""images/causal_sequence/coin_causal/coin_causal_1.png"" class=""exp-image"">
                        <div class=""question-area"">
                            <p style=""font-size: 20px; font-weight: bold; margin: 0;"">Is there a person in this image?</p>
                        </div>
                    </div>","null","main_causal_task","1","coin_causal","","","",""
"","","","","","html-keyboard-response","18","116709","0.0-18.0","CF3FDC171B364B7FBED6300012D923EB","019ce675-94af-7bab-ad7e-b3215f9cb5d3","019ce643-47c6-74a0-b3d2-7bf5651ded46","","null","
                    <div class=""stimulus-container"">
                        <img src=""images/causal_sequence/coin_causal/coin_causal_2.png"" class=""exp-image"">
                        <div class=""question-area""></div> 
                    </div>","null","","","","","","",""
"","","","","","html-button-response","19","119715","0.0-19.0","CF3FDC171B364B7FBED6300012D923EB","019ce675-94af-7bab-ad7e-b3215f9cb5d3","019ce643-47c6-74a0-b3d2-7bf5651ded46","","null","
                    <div class=""stimulus-container"">
                        <img src=""images/causal_sequence/coin_causal/coin_causal_2.png"" class=""exp-image"">
                        <div class=""question-area"">
                            <p style=""font-size: 20px; font-weight: bold; margin: 0;"">Is there a person in this image?</p>
                        </div>
                    </div>","null","main_causal_task","2","coin_causal","","","",""
"","","","","","html-keyboard-response","20","124717","0.0-20.0","CF3FDC171B364B7FBED6300012D923EB","019ce675-94af-7bab-ad7e-b3215f9cb5d3","019ce643-47c6-74a0-b3d2-7bf5651ded46","","null","
                    <div class=""stimulus-container"">
                        <img src=""images/causal_sequence/coin_causal/coin_causal_3.png"" class=""exp-image"">
                        <div class=""question-area""></div> 
                    </div>","null","","","","","","",""
"","","","","","html-button-response","21","127719","0.0-21.0","CF3FDC171B364B7FBED6300012D923EB","019ce675-94af-7bab-ad7e-b3215f9cb5d3","019ce643-47c6-74a0-b3d2-7bf5651ded46","","null","
                    <div class=""stimulus-container"">
                        <img src=""images/causal_sequence/coin_causal/coin_causal_3.png"" class=""exp-image"">
                        <div class=""question-area"">
                            <p style=""font-size: 20px; font-weight: bold; margin: 0;"">Is there a person in this image?</p>
                        </div>
                    </div>","null","main_causal_task","3","coin_causal","","","",""
"","","","","","html-keyboard-response","22","132721","0.0-22.0","CF3FDC171B364B7FBED6300012D923EB","019ce675-94af-7bab-ad7e-b3215f9cb5d3","019ce643-47c6-74a0-b3d2-7bf5651ded46","","null","
                    <div class=""stimulus-container"">
                        <img src=""images/causal_sequence/coin_causal/coin_causal_4.png"" class=""exp-image"">
                        <div class=""question-area""></div> 
                    </div>","null","","","","","","",""
"","","","","","html-button-response","23","135723","0.0-23.0","CF3FDC171B364B7FBED6300012D923EB","019ce675-94af-7bab-ad7e-b3215f9cb5d3","019ce643-47c6-74a0-b3d2-7bf5651ded46","","null","
                    <div class=""stimulus-container"">
                        <img src=""images/causal_sequence/coin_causal/coin_causal_4.png"" class=""exp-image"">
                        <div class=""question-area"">
                            <p style=""font-size: 20px; font-weight: bold; margin: 0;"">Is there a person in this image?</p>
                        </div>
                    </div>","null","main_causal_task","4","coin_causal","","","",""
"","","","","","html-keyboard-response","24","140724","0.0-24.0","CF3FDC171B364B7FBED6300012D923EB","019ce675-94af-7bab-ad7e-b3215f9cb5d3","019ce643-47c6-74a0-b3d2-7bf5651ded46","","null","
                    <div class=""stimulus-container"">
                        <img src=""images/causal_sequence/coin_causal/coin_causal_5.png"" class=""exp-image"">
                        <div class=""question-area""></div> 
                    </div>","null","","","","","","",""
"","","","","","html-button-response","25","143732","0.0-25.0","CF3FDC171B364B7FBED6300012D923EB","019ce675-94af-7bab-ad7e-b3215f9cb5d3","019ce643-47c6-74a0-b3d2-7bf5651ded46","","null","
                    <div class=""stimulus-container"">
                        <img src=""images/causal_sequence/coin_causal/coin_causal_5.png"" class=""exp-image"">
                        <div class=""question-area"">
                            <p style=""font-size: 20px; font-weight: bold; margin: 0;"">Is there a person in this image?</p>
                        </div>
                    </div>","null","main_causal_task","5","coin_causal","","","",""
"","","","","","html-keyboard-response","26","148734","0.0-26.0","CF3FDC171B364B7FBED6300012D923EB","019ce675-94af-7bab-ad7e-b3215f9cb5d3","019ce643-47c6-74a0-b3d2-7bf5651ded46","","null","
                    <div class=""stimulus-container"">
                        <img src=""images/causal_sequence/coin_causal/coin_causal_6.png"" class=""exp-image"">
                        <div class=""question-area""></div> 
                    </div>","null","","","","","","",""
"","","","","","html-button-response","27","151736","0.0-27.0","CF3FDC171B364B7FBED6300012D923EB","019ce675-94af-7bab-ad7e-b3215f9cb5d3","019ce643-47c6-74a0-b3d2-7bf5651ded46","","null","
                    <div class=""stimulus-container"">
                        <img src=""images/causal_sequence/coin_causal/coin_causal_6.png"" class=""exp-image"">
                        <div class=""question-area"">
                            <p style=""font-size: 20px; font-weight: bold; margin: 0;"">Is there a person in this image?</p>
                        </div>
                    </div>","null","main_causal_task","6","coin_causal","","","",""
"","","","","","html-keyboard-response","28","156737","0.0-28.0","CF3FDC171B364B7FBED6300012D923EB","019ce675-94af-7bab-ad7e-b3215f9cb5d3","019ce643-47c6-74a0-b3d2-7bf5651ded46","","null","
                    <div class=""stimulus-container"">
                        <img src=""images/causal_sequence/coin_causal/coin_causal_7.png"" class=""exp-image"">
                        <div class=""question-area""></div> 
                    </div>","null","","","","","","",""
"","","","","","html-button-response","29","159739","0.0-29.0","CF3FDC171B364B7FBED6300012D923EB","019ce675-94af-7bab-ad7e-b3215f9cb5d3","019ce643-47c6-74a0-b3d2-7bf5651ded46","","null","
                    <div class=""stimulus-container"">
                        <img src=""images/causal_sequence/coin_causal/coin_causal_7.png"" class=""exp-image"">
                        <div class=""question-area"">
                            <p style=""font-size: 20px; font-weight: bold; margin: 0;"">Is there a person in this image?</p>
                        </div>
                    </div>","null","main_causal_task","7","coin_causal","","","",""
"","","","","","html-keyboard-response","30","164740","0.0-30.0","CF3FDC171B364B7FBED6300012D923EB","019ce675-94af-7bab-ad7e-b3215f9cb5d3","019ce643-47c6-74a0-b3d2-7bf5651ded46","","null","
                    <div class=""stimulus-container"">
                        <img src=""images/causal_sequence/coin_causal/coin_causal_8.png"" class=""exp-image"">
                        <div class=""question-area""></div> 
                    </div>","null","","","","","","",""
"","","","","","html-button-response","31","167742","0.0-31.0","CF3FDC171B364B7FBED6300012D923EB","019ce675-94af-7bab-ad7e-b3215f9cb5d3","019ce643-47c6-74a0-b3d2-7bf5651ded46","","null","
                    <div class=""stimulus-container"">
                        <img src=""images/causal_sequence/coin_causal/coin_causal_8.png"" class=""exp-image"">
                        <div class=""question-area"">
                            <p style=""font-size: 20px; font-weight: bold; margin: 0;"">Is there a person in this image?</p>
                        </div>
                    </div>","null","main_causal_task","8","coin_causal","","","",""
"","","","","","html-keyboard-response","32","172745","0.0-32.0","CF3FDC171B364B7FBED6300012D923EB","019ce675-94af-7bab-ad7e-b3215f9cb5d3","019ce643-47c6-74a0-b3d2-7bf5651ded46","","null","
                    <div class=""stimulus-container"">
                        <img src=""images/causal_sequence/coin_causal/coin_causal_9.png"" class=""exp-image"">
                        <div class=""question-area""></div> 
                    </div>","null","","","","","","",""
"","","","","","html-button-response","33","175749","0.0-33.0","CF3FDC171B364B7FBED6300012D923EB","019ce675-94af-7bab-ad7e-b3215f9cb5d3","019ce643-47c6-74a0-b3d2-7bf5651ded46","","null","
                    <div class=""stimulus-container"">
                        <img src=""images/causal_sequence/coin_causal/coin_causal_9.png"" class=""exp-image"">
                        <div class=""question-area"">
                            <p style=""font-size: 20px; font-weight: bold; margin: 0;"">Is there a person in this image?</p>
                        </div>
                    </div>","null","main_causal_task","9","coin_causal","","","",""
"","","","","","html-keyboard-response","34","176752","0.0-34.0","CF3FDC171B364B7FBED6300012D923EB","019ce675-94af-7bab-ad7e-b3215f9cb5d3","019ce643-47c6-74a0-b3d2-7bf5651ded46","","null","<div style=""background-color: gray; width: 100vw; height: 100vh;""></div>","null","","","","","","",""
"","","","","","html-keyboard-response","35","181754","0.0-35.0","CF3FDC171B364B7FBED6300012D923EB","019ce675-94af-7bab-ad7e-b3215f9cb5d3","019ce643-47c6-74a0-b3d2-7bf5651ded46","","null","
                    <div class=""stimulus-container"">
                        <img src=""images/causal_sequence/dog_causal/dog_causal_1.png"" class=""exp-image"">
                        <div class=""question-area""></div> 
                    </div>","null","","","","","","",""
"","","","","","html-button-response","36","184755","0.0-36.0","CF3FDC171B364B7FBED6300012D923EB","019ce675-94af-7bab-ad7e-b3215f9cb5d3","019ce643-47c6-74a0-b3d2-7bf5651ded46","","null","
                    <div class=""stimulus-container"">
                        <img src=""images/causal_sequence/dog_causal/dog_causal_1.png"" class=""exp-image"">
                        <div class=""question-area"">
                            <p style=""font-size: 20px; font-weight: bold; margin: 0;"">Is there a person in this image?</p>
                        </div>
                    </div>","null","main_causal_task","1","dog_causal","","","",""
"","","","","","html-keyboard-response","37","189756","0.0-37.0","CF3FDC171B364B7FBED6300012D923EB","019ce675-94af-7bab-ad7e-b3215f9cb5d3","019ce643-47c6-74a0-b3d2-7bf5651ded46","","null","
                    <div class=""stimulus-container"">
                        <img src=""images/causal_sequence/dog_causal/dog_causal_2.png"" class=""exp-image"">
                        <div class=""question-area""></div> 
                    </div>","null","","","","","","",""
"","","","","","html-button-response","38","192758","0.0-38.0","CF3FDC171B364B7FBED6300012D923EB","019ce675-94af-7bab-ad7e-b3215f9cb5d3","019ce643-47c6-74a0-b3d2-7bf5651ded46","","null","
                    <div class=""stimulus-container"">
                        <img src=""images/causal_sequence/dog_causal/dog_causal_2.png"" class=""exp-image"">
                        <div class=""question-area"">
                            <p style=""font-size: 20px; font-weight: bold; margin: 0;"">Is there a person in this image?</p>
                        </div>
                    </div>","null","main_causal_task","2","dog_causal","","","",""
"","","","","","html-keyboard-response","39","197759","0.0-39.0","CF3FDC171B364B7FBED6300012D923EB","019ce675-94af-7bab-ad7e-b3215f9cb5d3","019ce643-47c6-74a0-b3d2-7bf5651ded46","","null","
                    <div class=""stimulus-container"">
                        <img src=""images/causal_sequence/dog_causal/dog_causal_3.png"" class=""exp-image"">
                        <div class=""question-area""></div> 
                    </div>","null","","","","","","",""
"","","","","","html-button-response","40","200762","0.0-40.0","CF3FDC171B364B7FBED6300012D923EB","019ce675-94af-7bab-ad7e-b3215f9cb5d3","019ce643-47c6-74a0-b3d2-7bf5651ded46","","null","
                    <div class=""stimulus-container"">
                        <img src=""images/causal_sequence/dog_causal/dog_causal_3.png"" class=""exp-image"">
                        <div class=""question-area"">
                            <p style=""font-size: 20px; font-weight: bold; margin: 0;"">Is there a person in this image?</p>
                        </div>
                    </div>","null","main_causal_task","3","dog_causal","","","",""
"","","","","","html-keyboard-response","41","205764","0.0-41.0","CF3FDC171B364B7FBED6300012D923EB","019ce675-94af-7bab-ad7e-b3215f9cb5d3","019ce643-47c6-74a0-b3d2-7bf5651ded46","","null","
                    <div class=""stimulus-container"">
                        <img src=""images/causal_sequence/dog_causal/dog_causal_4.png"" class=""exp-image"">
                        <div class=""question-area""></div> 
                    </div>","null","","","","","","",""
"","","","","","html-button-response","42","208767","0.0-42.0","CF3FDC171B364B7FBED6300012D923EB","019ce675-94af-7bab-ad7e-b3215f9cb5d3","019ce643-47c6-74a0-b3d2-7bf5651ded46","","null","
                    <div class=""stimulus-container"">
                        <img src=""images/causal_sequence/dog_causal/dog_causal_4.png"" class=""exp-image"">
                        <div class=""question-area"">
                            <p style=""font-size: 20px; font-weight: bold; margin: 0;"">Is there a person in this image?</p>
                        </div>
                    </div>","null","main_causal_task","4","dog_causal","","","",""
"","","","","","html-keyboard-response","43","213770","0.0-43.0","CF3FDC171B364B7FBED6300012D923EB","019ce675-94af-7bab-ad7e-b3215f9cb5d3","019ce643-47c6-74a0-b3d2-7bf5651ded46","","null","
                    <div class=""stimulus-container"">
                        <img src=""images/causal_sequence/dog_causal/dog_causal_5.png"" class=""exp-image"">
                        <div class=""question-area""></div> 
                    </div>","null","","","","","","",""
"","","","","","html-button-response","44","216772","0.0-44.0","CF3FDC171B364B7FBED6300012D923EB","019ce675-94af-7bab-ad7e-b3215f9cb5d3","019ce643-47c6-74a0-b3d2-7bf5651ded46","","null","
                    <div class=""stimulus-container"">
                        <img src=""images/causal_sequence/dog_causal/dog_causal_5.png"" class=""exp-image"">
                        <div class=""question-area"">
                            <p style=""font-size: 20px; font-weight: bold; margin: 0;"">Is there a person in this image?</p>
                        </div>
                    </div>","null","main_causal_task","5","dog_causal","","","",""
"","","","","","html-keyboard-response","45","221773","0.0-45.0","CF3FDC171B364B7FBED6300012D923EB","019ce675-94af-7bab-ad7e-b3215f9cb5d3","019ce643-47c6-74a0-b3d2-7bf5651ded46","","null","
                    <div class=""stimulus-container"">
                        <img src=""images/causal_sequence/dog_causal/dog_causal_6.png"" class=""exp-image"">
                        <div class=""question-area""></div> 
                    </div>","null","","","","","","",""
"","","","","","html-button-response","46","224774","0.0-46.0","CF3FDC171B364B7FBED6300012D923EB","019ce675-94af-7bab-ad7e-b3215f9cb5d3","019ce643-47c6-74a0-b3d2-7bf5651ded46","","null","
                    <div class=""stimulus-container"">
                        <img src=""images/causal_sequence/dog_causal/dog_causal_6.png"" class=""exp-image"">
                        <div class=""question-area"">
                            <p style=""font-size: 20px; font-weight: bold; margin: 0;"">Is there a person in this image?</p>
                        </div>
                    </div>","null","main_causal_task","6","dog_causal","","","",""
"","","","","","html-keyboard-response","47","229788","0.0-47.0","CF3FDC171B364B7FBED6300012D923EB","019ce675-94af-7bab-ad7e-b3215f9cb5d3","019ce643-47c6-74a0-b3d2-7bf5651ded46","","null","
                    <div class=""stimulus-container"">
                        <img src=""images/causal_sequence/dog_causal/dog_causal_7.png"" class=""exp-image"">
                        <div class=""question-area""></div> 
                    </div>","null","","","","","","",""
"","","","","","html-button-response","48","232790","0.0-48.0","CF3FDC171B364B7FBED6300012D923EB","019ce675-94af-7bab-ad7e-b3215f9cb5d3","019ce643-47c6-74a0-b3d2-7bf5651ded46","","null","
                    <div class=""stimulus-container"">
                        <img src=""images/causal_sequence/dog_causal/dog_causal_7.png"" class=""exp-image"">
                        <div class=""question-area"">
                            <p style=""font-size: 20px; font-weight: bold; margin: 0;"">Is there a person in this image?</p>
                        </div>
                    </div>","null","main_causal_task","7","dog_causal","","","",""
"","","","","","html-keyboard-response","49","237791","0.0-49.0","CF3FDC171B364B7FBED6300012D923EB","019ce675-94af-7bab-ad7e-b3215f9cb5d3","019ce643-47c6-74a0-b3d2-7bf5651ded46","","null","
                    <div class=""stimulus-container"">
                        <img src=""images/causal_sequence/dog_causal/dog_causal_8.png"" class=""exp-image"">
                        <div class=""question-area""></div> 
                    </div>","null","","","","","","",""
"","","","","","html-button-response","50","240794","0.0-50.0","CF3FDC171B364B7FBED6300012D923EB","019ce675-94af-7bab-ad7e-b3215f9cb5d3","019ce643-47c6-74a0-b3d2-7bf5651ded46","","null","
                    <div class=""stimulus-container"">
                        <img src=""images/causal_sequence/dog_causal/dog_causal_8.png"" class=""exp-image"">
                        <div class=""question-area"">
                            <p style=""font-size: 20px; font-weight: bold; margin: 0;"">Is there a person in this image?</p>
                        </div>
                    </div>","null","main_causal_task","8","dog_causal","","","",""
"","","","","","html-keyboard-response","51","245796","0.0-51.0","CF3FDC171B364B7FBED6300012D923EB","019ce675-94af-7bab-ad7e-b3215f9cb5d3","019ce643-47c6-74a0-b3d2-7bf5651ded46","","null","
                    <div class=""stimulus-container"">
                        <img src=""images/causal_sequence/dog_causal/dog_causal_9.png"" class=""exp-image"">
                        <div class=""question-area""></div> 
                    </div>","null","","","","","","",""
"","","","","","html-button-response","52","248798","0.0-52.0","CF3FDC171B364B7FBED6300012D923EB","019ce675-94af-7bab-ad7e-b3215f9cb5d3","019ce643-47c6-74a0-b3d2-7bf5651ded46","","null","
                    <div class=""stimulus-container"">
                        <img src=""images/causal_sequence/dog_causal/dog_causal_9.png"" class=""exp-image"">
                        <div class=""question-area"">
                            <p style=""font-size: 20px; font-weight: bold; margin: 0;"">Is there a person in this image?</p>
                        </div>
                    </div>","null","main_causal_task","9","dog_causal","","","",""
"","","","","","html-keyboard-response","53","249800","0.0-53.0","CF3FDC171B364B7FBED6300012D923EB","019ce675-94af-7bab-ad7e-b3215f9cb5d3","019ce643-47c6-74a0-b3d2-7bf5651ded46","","null","<div style=""background-color: gray; width: 100vw; height: 100vh;""></div>","null","","","","","","",""
"","","","","","html-keyboard-response","54","254802","0.0-54.0","CF3FDC171B364B7FBED6300012D923EB","019ce675-94af-7bab-ad7e-b3215f9cb5d3","019ce643-47c6-74a0-b3d2-7bf5651ded46","","null","
                    <div class=""stimulus-container"">
                        <img src=""images/causal_sequence/saving_a_cat_causal/saving_a_cat_causal_1.png"" class=""exp-image"">
                        <div class=""question-area""></div> 
                    </div>","null","","","","","","",""
"","","","","","html-button-response","55","257804","0.0-55.0","CF3FDC171B364B7FBED6300012D923EB","019ce675-94af-7bab-ad7e-b3215f9cb5d3","019ce643-47c6-74a0-b3d2-7bf5651ded46","","null","
                    <div class=""stimulus-container"">
                        <img src=""images/causal_sequence/saving_a_cat_causal/saving_a_cat_causal_1.png"" class=""exp-image"">
                        <div class=""question-area"">
                            <p style=""font-size: 20px; font-weight: bold; margin: 0;"">Is there a person in this image?</p>
                        </div>
                    </div>","null","main_causal_task","1","saving_a_cat_causal","","","",""
"","","","","","html-keyboard-response","56","262805","0.0-56.0","CF3FDC171B364B7FBED6300012D923EB","019ce675-94af-7bab-ad7e-b3215f9cb5d3","019ce643-47c6-74a0-b3d2-7bf5651ded46","","null","
                    <div class=""stimulus-container"">
                        <img src=""images/causal_sequence/saving_a_cat_causal/saving_a_cat_causal_2.png"" class=""exp-image"">
                        <div class=""question-area""></div> 
                    </div>","null","","","","","","",""
"","","","","","html-button-response","57","265807","0.0-57.0","CF3FDC171B364B7FBED6300012D923EB","019ce675-94af-7bab-ad7e-b3215f9cb5d3","019ce643-47c6-74a0-b3d2-7bf5651ded46","","null","
                    <div class=""stimulus-container"">
                        <img src=""images/causal_sequence/saving_a_cat_causal/saving_a_cat_causal_2.png"" class=""exp-image"">
                        <div class=""question-area"">
                            <p style=""font-size: 20px; font-weight: bold; margin: 0;"">Is there a person in this image?</p>
                        </div>
                    </div>","null","main_causal_task","2","saving_a_cat_causal","","","",""
"","","","","","html-keyboard-response","58","270808","0.0-58.0","CF3FDC171B364B7FBED6300012D923EB","019ce675-94af-7bab-ad7e-b3215f9cb5d3","019ce643-47c6-74a0-b3d2-7bf5651ded46","","null","
                    <div class=""stimulus-container"">
                        <img src=""images/causal_sequence/saving_a_cat_causal/saving_a_cat_causal_3.png"" class=""exp-image"">
                        <div class=""question-area""></div> 
                    </div>","null","","","","","","",""
"","","","","","html-button-response","59","273809","0.0-59.0","CF3FDC171B364B7FBED6300012D923EB","019ce675-94af-7bab-ad7e-b3215f9cb5d3","019ce643-47c6-74a0-b3d2-7bf5651ded46","","null","
                    <div class=""stimulus-container"">
                        <img src=""images/causal_sequence/saving_a_cat_causal/saving_a_cat_causal_3.png"" class=""exp-image"">
                        <div class=""question-area"">
                            <p style=""font-size: 20px; font-weight: bold; margin: 0;"">Is there a person in this image?</p>
                        </div>
                    </div>","null","main_causal_task","3","saving_a_cat_causal","","","",""
"","","","","","html-keyboard-response","60","278811","0.0-60.0","CF3FDC171B364B7FBED6300012D923EB","019ce675-94af-7bab-ad7e-b3215f9cb5d3","019ce643-47c6-74a0-b3d2-7bf5651ded46","","null","
                    <div class=""stimulus-container"">
                        <img src=""images/causal_sequence/saving_a_cat_causal/saving_a_cat_causal_4.png"" class=""exp-image"">
                        <div class=""question-area""></div> 
                    </div>","null","","","","","","",""
"","","","","","html-button-response","61","281812","0.0-61.0","CF3FDC171B364B7FBED6300012D923EB","019ce675-94af-7bab-ad7e-b3215f9cb5d3","019ce643-47c6-74a0-b3d2-7bf5651ded46","","null","
                    <div class=""stimulus-container"">
                        <img src=""images/causal_sequence/saving_a_cat_causal/saving_a_cat_causal_4.png"" class=""exp-image"">
                        <div class=""question-area"">
                            <p style=""font-size: 20px; font-weight: bold; margin: 0;"">Is there a person in this image?</p>
                        </div>
                    </div>","null","main_causal_task","4","saving_a_cat_causal","","","",""
"","","","","","html-keyboard-response","62","286817","0.0-62.0","CF3FDC171B364B7FBED6300012D923EB","019ce675-94af-7bab-ad7e-b3215f9cb5d3","019ce643-47c6-74a0-b3d2-7bf5651ded46","","null","
                    <div class=""stimulus-container"">
                        <img src=""images/causal_sequence/saving_a_cat_causal/saving_a_cat_causal_5.png"" class=""exp-image"">
                        <div class=""question-area""></div> 
                    </div>","null","","","","","","",""
"","","","","","html-button-response","63","289819","0.0-63.0","CF3FDC171B364B7FBED6300012D923EB","019ce675-94af-7bab-ad7e-b3215f9cb5d3","019ce643-47c6-74a0-b3d2-7bf5651ded46","","null","
                    <div class=""stimulus-container"">
                        <img src=""images/causal_sequence/saving_a_cat_causal/saving_a_cat_causal_5.png"" class=""exp-image"">
                        <div class=""question-area"">
                            <p style=""font-size: 20px; font-weight: bold; margin: 0;"">Is there a person in this image?</p>
                        </div>
                    </div>","null","main_causal_task","5","saving_a_cat_causal","","","",""
"","","","","","html-keyboard-response","64","294821","0.0-64.0","CF3FDC171B364B7FBED6300012D923EB","019ce675-94af-7bab-ad7e-b3215f9cb5d3","019ce643-47c6-74a0-b3d2-7bf5651ded46","","null","
                    <div class=""stimulus-container"">
                        <img src=""images/causal_sequence/saving_a_cat_causal/saving_a_cat_causal_6.png"" class=""exp-image"">
                        <div class=""question-area""></div> 
                    </div>","null","","","","","","",""
"","","","","","html-button-response","65","297822","0.0-65.0","CF3FDC171B364B7FBED6300012D923EB","019ce675-94af-7bab-ad7e-b3215f9cb5d3","019ce643-47c6-74a0-b3d2-7bf5651ded46","","null","
                    <div class=""stimulus-container"">
                        <img src=""images/causal_sequence/saving_a_cat_causal/saving_a_cat_causal_6.png"" class=""exp-image"">
                        <div class=""question-area"">
                            <p style=""font-size: 20px; font-weight: bold; margin: 0;"">Is there a person in this image?</p>
                        </div>
                    </div>","null","main_causal_task","6","saving_a_cat_causal","","","",""
"","","","","","html-keyboard-response","66","302824","0.0-66.0","CF3FDC171B364B7FBED6300012D923EB","019ce675-94af-7bab-ad7e-b3215f9cb5d3","019ce643-47c6-74a0-b3d2-7bf5651ded46","","null","
                    <div class=""stimulus-container"">
                        <img src=""images/causal_sequence/saving_a_cat_causal/saving_a_cat_causal_7.png"" class=""exp-image"">
                        <div class=""question-area""></div> 
                    </div>","null","","","","","","",""
"","","","","","html-button-response","67","305826","0.0-67.0","CF3FDC171B364B7FBED6300012D923EB","019ce675-94af-7bab-ad7e-b3215f9cb5d3","019ce643-47c6-74a0-b3d2-7bf5651ded46","","null","
                    <div class=""stimulus-container"">
                        <img src=""images/causal_sequence/saving_a_cat_causal/saving_a_cat_causal_7.png"" class=""exp-image"">
                        <div class=""question-area"">
                            <p style=""font-size: 20px; font-weight: bold; margin: 0;"">Is there a person in this image?</p>
                        </div>
                    </div>","null","main_causal_task","7","saving_a_cat_causal","","","",""
"","","","","","html-keyboard-response","68","310828","0.0-68.0","CF3FDC171B364B7FBED6300012D923EB","019ce675-94af-7bab-ad7e-b3215f9cb5d3","019ce643-47c6-74a0-b3d2-7bf5651ded46","","null","
                    <div class=""stimulus-container"">
                        <img src=""images/causal_sequence/saving_a_cat_causal/saving_a_cat_causal_8.png"" class=""exp-image"">
                        <div class=""question-area""></div> 
                    </div>","null","","","","","","",""
"","","","","","html-button-response","69","313830","0.0-69.0","CF3FDC171B364B7FBED6300012D923EB","019ce675-94af-7bab-ad7e-b3215f9cb5d3","019ce643-47c6-74a0-b3d2-7bf5651ded46","","null","
                    <div class=""stimulus-container"">
                        <img src=""images/causal_sequence/saving_a_cat_causal/saving_a_cat_causal_8.png"" class=""exp-image"">
                        <div class=""question-area"">
                            <p style=""font-size: 20px; font-weight: bold; margin: 0;"">Is there a person in this image?</p>
                        </div>
                    </div>","null","main_causal_task","8","saving_a_cat_causal","","","",""
"","","","","","html-keyboard-response","70","318834","0.0-70.0","CF3FDC171B364B7FBED6300012D923EB","019ce675-94af-7bab-ad7e-b3215f9cb5d3","019ce643-47c6-74a0-b3d2-7bf5651ded46","","null","
                    <div class=""stimulus-container"">
                        <img src=""images/causal_sequence/saving_a_cat_causal/saving_a_cat_causal_9.png"" class=""exp-image"">
                        <div class=""question-area""></div> 
                    </div>","null","","","","","","",""
"","","","","","html-button-response","71","321836","0.0-71.0","CF3FDC171B364B7FBED6300012D923EB","019ce675-94af-7bab-ad7e-b3215f9cb5d3","019ce643-47c6-74a0-b3d2-7bf5651ded46","","null","
                    <div class=""stimulus-container"">
                        <img src=""images/causal_sequence/saving_a_cat_causal/saving_a_cat_causal_9.png"" class=""exp-image"">
                        <div class=""question-area"">
                            <p style=""font-size: 20px; font-weight: bold; margin: 0;"">Is there a person in this image?</p>
                        </div>
                    </div>","null","main_causal_task","9","saving_a_cat_causal","","","",""
"","","","","","html-keyboard-response","72","322837","0.0-72.0","CF3FDC171B364B7FBED6300012D923EB","019ce675-94af-7bab-ad7e-b3215f9cb5d3","019ce643-47c6-74a0-b3d2-7bf5651ded46","","null","<div style=""background-color: gray; width: 100vw; height: 100vh;""></div>","null","","","","","","",""
"","","","","","html-keyboard-response","73","327839","0.0-73.0","CF3FDC171B364B7FBED6300012D923EB","019ce675-94af-7bab-ad7e-b3215f9cb5d3","019ce643-47c6-74a0-b3d2-7bf5651ded46","","null","
                    <div class=""stimulus-container"">
                        <img src=""images/causal_sequence/the_performance_causal/the_performance_causal_1.png"" class=""exp-image"">
                        <div class=""question-area""></div> 
                    </div>","null","","","","","","",""
"","","","","","html-button-response","74","330844","0.0-74.0","CF3FDC171B364B7FBED6300012D923EB","019ce675-94af-7bab-ad7e-b3215f9cb5d3","019ce643-47c6-74a0-b3d2-7bf5651ded46","","null","
                    <div class=""stimulus-container"">
                        <img src=""images/causal_sequence/the_performance_causal/the_performance_causal_1.png"" class=""exp-image"">
                        <div class=""question-area"">
                            <p style=""font-size: 20px; font-weight: bold; margin: 0;"">Is there a person in this image?</p>
                        </div>
                    </div>","null","main_causal_task","1","the_performance_causal","","","",""
"","","","","","html-keyboard-response","75","335846","0.0-75.0","CF3FDC171B364B7FBED6300012D923EB","019ce675-94af-7bab-ad7e-b3215f9cb5d3","019ce643-47c6-74a0-b3d2-7bf5651ded46","","null","
                    <div class=""stimulus-container"">
                        <img src=""images/causal_sequence/the_performance_causal/the_performance_causal_2.png"" class=""exp-image"">
                        <div class=""question-area""></div> 
                    </div>","null","","","","","","",""
"","","","","","html-button-response","76","338848","0.0-76.0","CF3FDC171B364B7FBED6300012D923EB","019ce675-94af-7bab-ad7e-b3215f9cb5d3","019ce643-47c6-74a0-b3d2-7bf5651ded46","","null","
                    <div class=""stimulus-container"">
                        <img src=""images/causal_sequence/the_performance_causal/the_performance_causal_2.png"" class=""exp-image"">
                        <div class=""question-area"">
                            <p style=""font-size: 20px; font-weight: bold; margin: 0;"">Is there a person in this image?</p>
                        </div>
                    </div>","null","main_causal_task","2","the_performance_causal","","","",""
"","","","","","html-keyboard-response","77","343850","0.0-77.0","CF3FDC171B364B7FBED6300012D923EB","019ce675-94af-7bab-ad7e-b3215f9cb5d3","019ce643-47c6-74a0-b3d2-7bf5651ded46","","null","
                    <div class=""stimulus-container"">
                        <img src=""images/causal_sequence/the_performance_causal/the_performance_causal_3.png"" class=""exp-image"">
                        <div class=""question-area""></div> 
                    </div>","null","","","","","","",""
"","","","","","html-button-response","78","346851","0.0-78.0","CF3FDC171B364B7FBED6300012D923EB","019ce675-94af-7bab-ad7e-b3215f9cb5d3","019ce643-47c6-74a0-b3d2-7bf5651ded46","","null","
                    <div class=""stimulus-container"">
                        <img src=""images/causal_sequence/the_performance_causal/the_performance_causal_3.png"" class=""exp-image"">
                        <div class=""question-area"">
                            <p style=""font-size: 20px; font-weight: bold; margin: 0;"">Is there a person in this image?</p>
                        </div>
                    </div>","null","main_causal_task","3","the_performance_causal","","","",""
"","","","","","html-keyboard-response","79","351853","0.0-79.0","CF3FDC171B364B7FBED6300012D923EB","019ce675-94af-7bab-ad7e-b3215f9cb5d3","019ce643-47c6-74a0-b3d2-7bf5651ded46","","null","
                    <div class=""stimulus-container"">
                        <img src=""images/causal_sequence/the_performance_causal/the_performance_causal_4.png"" class=""exp-image"">
                        <div class=""question-area""></div> 
                    </div>","null","","","","","","",""
"","","","","","html-button-response","80","354854","0.0-80.0","CF3FDC171B364B7FBED6300012D923EB","019ce675-94af-7bab-ad7e-b3215f9cb5d3","019ce643-47c6-74a0-b3d2-7bf5651ded46","","null","
                    <div class=""stimulus-container"">
                        <img src=""images/causal_sequence/the_performance_causal/the_performance_causal_4.png"" class=""exp-image"">
                        <div class=""question-area"">
                            <p style=""font-size: 20px; font-weight: bold; margin: 0;"">Is there a person in this image?</p>
                        </div>
                    </div>","null","main_causal_task","4","the_performance_causal","","","",""
"","","","","","html-keyboard-response","81","359857","0.0-81.0","CF3FDC171B364B7FBED6300012D923EB","019ce675-94af-7bab-ad7e-b3215f9cb5d3","019ce643-47c6-74a0-b3d2-7bf5651ded46","","null","
                    <div class=""stimulus-container"">
                        <img src=""images/causal_sequence/the_performance_causal/the_performance_causal_5.png"" class=""exp-image"">
                        <div class=""question-area""></div> 
                    </div>","null","","","","","","",""
"","","","","","html-button-response","82","362860","0.0-82.0","CF3FDC171B364B7FBED6300012D923EB","019ce675-94af-7bab-ad7e-b3215f9cb5d3","019ce643-47c6-74a0-b3d2-7bf5651ded46","","null","
                    <div class=""stimulus-container"">
                        <img src=""images/causal_sequence/the_performance_causal/the_performance_causal_5.png"" class=""exp-image"">
                        <div class=""question-area"">
                            <p style=""font-size: 20px; font-weight: bold; margin: 0;"">Is there a person in this image?</p>
                        </div>
                    </div>","null","main_causal_task","5","the_performance_causal","","","",""
"","","","","","html-keyboard-response","83","367861","0.0-83.0","CF3FDC171B364B7FBED6300012D923EB","019ce675-94af-7bab-ad7e-b3215f9cb5d3","019ce643-47c6-74a0-b3d2-7bf5651ded46","","null","
                    <div class=""stimulus-container"">
                        <img src=""images/causal_sequence/the_performance_causal/the_performance_causal_6.png"" class=""exp-image"">
                        <div class=""question-area""></div> 
                    </div>","null","","","","","","",""
"","","","","","html-button-response","84","370864","0.0-84.0","CF3FDC171B364B7FBED6300012D923EB","019ce675-94af-7bab-ad7e-b3215f9cb5d3","019ce643-47c6-74a0-b3d2-7bf5651ded46","","null","
                    <div class=""stimulus-container"">
                        <img src=""images/causal_sequence/the_performance_causal/the_performance_causal_6.png"" class=""exp-image"">
                        <div class=""question-area"">
                            <p style=""font-size: 20px; font-weight: bold; margin: 0;"">Is there a person in this image?</p>
                        </div>
                    </div>","null","main_causal_task","6","the_performance_causal","","","",""
"","","","","","html-keyboard-response","85","375865","0.0-85.0","CF3FDC171B364B7FBED6300012D923EB","019ce675-94af-7bab-ad7e-b3215f9cb5d3","019ce643-47c6-74a0-b3d2-7bf5651ded46","","null","
                    <div class=""stimulus-container"">
                        <img src=""images/causal_sequence/the_performance_causal/the_performance_causal_7.png"" class=""exp-image"">
                        <div class=""question-area""></div> 
                    </div>","null","","","","","","",""
"","","","","","html-button-response","86","378868","0.0-86.0","CF3FDC171B364B7FBED6300012D923EB","019ce675-94af-7bab-ad7e-b3215f9cb5d3","019ce643-47c6-74a0-b3d2-7bf5651ded46","","null","
                    <div class=""stimulus-container"">
                        <img src=""images/causal_sequence/the_performance_causal/the_performance_causal_7.png"" class=""exp-image"">
                        <div class=""question-area"">
                            <p style=""font-size: 20px; font-weight: bold; margin: 0;"">Is there a person in this image?</p>
                        </div>
                    </div>","null","main_causal_task","7","the_performance_causal","","","",""
"","","","","","html-keyboard-response","87","383869","0.0-87.0","CF3FDC171B364B7FBED6300012D923EB","019ce675-94af-7bab-ad7e-b3215f9cb5d3","019ce643-47c6-74a0-b3d2-7bf5651ded46","","null","
                    <div class=""stimulus-container"">
                        <img src=""images/causal_sequence/the_performance_causal/the_performance_causal_8.png"" class=""exp-image"">
                        <div class=""question-area""></div> 
                    </div>","null","","","","","","",""
"","","","","","html-button-response","88","386871","0.0-88.0","CF3FDC171B364B7FBED6300012D923EB","019ce675-94af-7bab-ad7e-b3215f9cb5d3","019ce643-47c6-74a0-b3d2-7bf5651ded46","","null","
                    <div class=""stimulus-container"">
                        <img src=""images/causal_sequence/the_performance_causal/the_performance_causal_8.png"" class=""exp-image"">
                        <div class=""question-area"">
                            <p style=""font-size: 20px; font-weight: bold; margin: 0;"">Is there a person in this image?</p>
                        </div>
                    </div>","null","main_causal_task","8","the_performance_causal","","","",""
"","","","","","html-keyboard-response","89","391874","0.0-89.0","CF3FDC171B364B7FBED6300012D923EB","019ce675-94af-7bab-ad7e-b3215f9cb5d3","019ce643-47c6-74a0-b3d2-7bf5651ded46","","null","
                    <div class=""stimulus-container"">
                        <img src=""images/causal_sequence/the_performance_causal/the_performance_causal_9.png"" class=""exp-image"">
                        <div class=""question-area""></div> 
                    </div>","null","","","","","","",""
"","","","","","html-button-response","90","394876","0.0-90.0","CF3FDC171B364B7FBED6300012D923EB","019ce675-94af-7bab-ad7e-b3215f9cb5d3","019ce643-47c6-74a0-b3d2-7bf5651ded46","","null","
                    <div class=""stimulus-container"">
                        <img src=""images/causal_sequence/the_performance_causal/the_performance_causal_9.png"" class=""exp-image"">
                        <div class=""question-area"">
                            <p style=""font-size: 20px; font-weight: bold; margin: 0;"">Is there a person in this image?</p>
                        </div>
                    </div>","null","main_causal_task","9","the_performance_causal","","","",""
"","","","","","html-keyboard-response","91","395910","0.0-91.0","CF3FDC171B364B7FBED6300012D923EB","019ce675-94af-7bab-ad7e-b3215f9cb5d3","019ce643-47c6-74a0-b3d2-7bf5651ded46","","null","<div style=""background-color: gray; width: 100vw; height: 100vh;""></div>","null","","","","","","",""
"","","","","","html-keyboard-response","92","400912","0.0-92.0","CF3FDC171B364B7FBED6300012D923EB","019ce675-94af-7bab-ad7e-b3215f9cb5d3","019ce643-47c6-74a0-b3d2-7bf5651ded46","","null","
                    <div class=""stimulus-container"">
                        <img src=""images/causal_sequence/museum_causal/museum_causal_1.png"" class=""exp-image"">
                        <div class=""question-area""></div> 
                    </div>","null","","","","","","",""
"","","","","","html-button-response","93","403913","0.0-93.0","CF3FDC171B364B7FBED6300012D923EB","019ce675-94af-7bab-ad7e-b3215f9cb5d3","019ce643-47c6-74a0-b3d2-7bf5651ded46","","null","
                    <div class=""stimulus-container"">
                        <img src=""images/causal_sequence/museum_causal/museum_causal_1.png"" class=""exp-image"">
                        <div class=""question-area"">
                            <p style=""font-size: 20px; font-weight: bold; margin: 0;"">Is there a person in this image?</p>
                        </div>
                    </div>","null","main_causal_task","1","museum_causal","","","",""
"","","","","","html-keyboard-response","94","408916","0.0-94.0","CF3FDC171B364B7FBED6300012D923EB","019ce675-94af-7bab-ad7e-b3215f9cb5d3","019ce643-47c6-74a0-b3d2-7bf5651ded46","","null","
                    <div class=""stimulus-container"">
                        <img src=""images/causal_sequence/museum_causal/museum_causal_2.png"" class=""exp-image"">
                        <div class=""question-area""></div> 
                    </div>","null","","","","","","",""
"","","","","","html-button-response","95","411917","0.0-95.0","CF3FDC171B364B7FBED6300012D923EB","019ce675-94af-7bab-ad7e-b3215f9cb5d3","019ce643-47c6-74a0-b3d2-7bf5651ded46","","null","
                    <div class=""stimulus-container"">
                        <img src=""images/causal_sequence/museum_causal/museum_causal_2.png"" class=""exp-image"">
                        <div class=""question-area"">
                            <p style=""font-size: 20px; font-weight: bold; margin: 0;"">Is there a person in this image?</p>
                        </div>
                    </div>","null","main_causal_task","2","museum_causal","","","",""
"","","","","","html-keyboard-response","96","416919","0.0-96.0","CF3FDC171B364B7FBED6300012D923EB","019ce675-94af-7bab-ad7e-b3215f9cb5d3","019ce643-47c6-74a0-b3d2-7bf5651ded46","","null","
                    <div class=""stimulus-container"">
                        <img src=""images/causal_sequence/museum_causal/museum_causal_3.png"" class=""exp-image"">
                        <div class=""question-area""></div> 
                    </div>","null","","","","","","",""
"","","","","","html-button-response","97","419921","0.0-97.0","CF3FDC171B364B7FBED6300012D923EB","019ce675-94af-7bab-ad7e-b3215f9cb5d3","019ce643-47c6-74a0-b3d2-7bf5651ded46","","null","
                    <div class=""stimulus-container"">
                        <img src=""images/causal_sequence/museum_causal/museum_causal_3.png"" class=""exp-image"">
                        <div class=""question-area"">
                            <p style=""font-size: 20px; font-weight: bold; margin: 0;"">Is there a person in this image?</p>
                        </div>
                    </div>","null","main_causal_task","3","museum_causal","","","",""
"","","","","","html-keyboard-response","98","424922","0.0-98.0","CF3FDC171B364B7FBED6300012D923EB","019ce675-94af-7bab-ad7e-b3215f9cb5d3","019ce643-47c6-74a0-b3d2-7bf5651ded46","","null","
                    <div class=""stimulus-container"">
                        <img src=""images/causal_sequence/museum_causal/museum_causal_4.png"" class=""exp-image"">
                        <div class=""question-area""></div> 
                    </div>","null","","","","","","",""
"","","","","","html-button-response","99","427924","0.0-99.0","CF3FDC171B364B7FBED6300012D923EB","019ce675-94af-7bab-ad7e-b3215f9cb5d3","019ce643-47c6-74a0-b3d2-7bf5651ded46","","null","
                    <div class=""stimulus-container"">
                        <img src=""images/causal_sequence/museum_causal/museum_causal_4.png"" class=""exp-image"">
                        <div class=""question-area"">
                            <p style=""font-size: 20px; font-weight: bold; margin: 0;"">Is there a person in this image?</p>
                        </div>
                    </div>","null","main_causal_task","4","museum_causal","","","",""
"","","","","","html-keyboard-response","100","432925","0.0-100.0","CF3FDC171B364B7FBED6300012D923EB","019ce675-94af-7bab-ad7e-b3215f9cb5d3","019ce643-47c6-74a0-b3d2-7bf5651ded46","","null","
                    <div class=""stimulus-container"">
                        <img src=""images/causal_sequence/museum_causal/museum_causal_5.png"" class=""exp-image"">
                        <div class=""question-area""></div> 
                    </div>","null","","","","","","",""
"","","","","","html-button-response","101","435927","0.0-101.0","CF3FDC171B364B7FBED6300012D923EB","019ce675-94af-7bab-ad7e-b3215f9cb5d3","019ce643-47c6-74a0-b3d2-7bf5651ded46","","null","
                    <div class=""stimulus-container"">
                        <img src=""images/causal_sequence/museum_causal/museum_causal_5.png"" class=""exp-image"">
                        <div class=""question-area"">
                            <p style=""font-size: 20px; font-weight: bold; margin: 0;"">Is there a person in this image?</p>
                        </div>
                    </div>","null","main_causal_task","5","museum_causal","","","",""
"","","","","","html-keyboard-response","102","440929","0.0-102.0","CF3FDC171B364B7FBED6300012D923EB","019ce675-94af-7bab-ad7e-b3215f9cb5d3","019ce643-47c6-74a0-b3d2-7bf5651ded46","","null","
                    <div class=""stimulus-container"">
                        <img src=""images/causal_sequence/museum_causal/museum_causal_6.png"" class=""exp-image"">
                        <div class=""question-area""></div> 
                    </div>","null","","","","","","",""
"","","","","","html-button-response","103","443930","0.0-103.0","CF3FDC171B364B7FBED6300012D923EB","019ce675-94af-7bab-ad7e-b3215f9cb5d3","019ce643-47c6-74a0-b3d2-7bf5651ded46","","null","
                    <div class=""stimulus-container"">
                        <img src=""images/causal_sequence/museum_causal/museum_causal_6.png"" class=""exp-image"">
                        <div class=""question-area"">
                            <p style=""font-size: 20px; font-weight: bold; margin: 0;"">Is there a person in this image?</p>
                        </div>
                    </div>","null","main_causal_task","6","museum_causal","","","",""
"","","","","","html-keyboard-response","104","448932","0.0-104.0","CF3FDC171B364B7FBED6300012D923EB","019ce675-94af-7bab-ad7e-b3215f9cb5d3","019ce643-47c6-74a0-b3d2-7bf5651ded46","","null","
                    <div class=""stimulus-container"">
                        <img src=""images/causal_sequence/museum_causal/museum_causal_7.png"" class=""exp-image"">
                        <div class=""question-area""></div> 
                    </div>","null","","","","","","",""
"","","","","","html-button-response","105","451934","0.0-105.0","CF3FDC171B364B7FBED6300012D923EB","019ce675-94af-7bab-ad7e-b3215f9cb5d3","019ce643-47c6-74a0-b3d2-7bf5651ded46","","null","
                    <div class=""stimulus-container"">
                        <img src=""images/causal_sequence/museum_causal/museum_causal_7.png"" class=""exp-image"">
                        <div class=""question-area"">
                            <p style=""font-size: 20px; font-weight: bold; margin: 0;"">Is there a person in this image?</p>
                        </div>
                    </div>","null","main_causal_task","7","museum_causal","","","",""
"","","","","","html-keyboard-response","106","456936","0.0-106.0","CF3FDC171B364B7FBED6300012D923EB","019ce675-94af-7bab-ad7e-b3215f9cb5d3","019ce643-47c6-74a0-b3d2-7bf5651ded46","","null","
                    <div class=""stimulus-container"">
                        <img src=""images/causal_sequence/museum_causal/museum_causal_8.png"" class=""exp-image"">
                        <div class=""question-area""></div> 
                    </div>","null","","","","","","",""
"","","","","","html-button-response","107","459938","0.0-107.0","CF3FDC171B364B7FBED6300012D923EB","019ce675-94af-7bab-ad7e-b3215f9cb5d3","019ce643-47c6-74a0-b3d2-7bf5651ded46","","null","
                    <div class=""stimulus-container"">
                        <img src=""images/causal_sequence/museum_causal/museum_causal_8.png"" class=""exp-image"">
                        <div class=""question-area"">
                            <p style=""font-size: 20px; font-weight: bold; margin: 0;"">Is there a person in this image?</p>
                        </div>
                    </div>","null","main_causal_task","8","museum_causal","","","",""
"","","","","","html-keyboard-response","108","464939","0.0-108.0","CF3FDC171B364B7FBED6300012D923EB","019ce675-94af-7bab-ad7e-b3215f9cb5d3","019ce643-47c6-74a0-b3d2-7bf5651ded46","","null","
                    <div class=""stimulus-container"">
                        <img src=""images/causal_sequence/museum_causal/museum_causal_9.png"" class=""exp-image"">
                        <div class=""question-area""></div> 
                    </div>","null","","","","","","",""
"","","","","","html-button-response","109","467941","0.0-109.0","CF3FDC171B364B7FBED6300012D923EB","019ce675-94af-7bab-ad7e-b3215f9cb5d3","019ce643-47c6-74a0-b3d2-7bf5651ded46","","null","
                    <div class=""stimulus-container"">
                        <img src=""images/causal_sequence/museum_causal/museum_causal_9.png"" class=""exp-image"">
                        <div class=""question-area"">
                            <p style=""font-size: 20px; font-weight: bold; margin: 0;"">Is there a person in this image?</p>
                        </div>
                    </div>","null","main_causal_task","9","museum_causal","","","",""
"","","","","","html-keyboard-response","110","468943","0.0-110.0","CF3FDC171B364B7FBED6300012D923EB","019ce675-94af-7bab-ad7e-b3215f9cb5d3","019ce643-47c6-74a0-b3d2-7bf5651ded46","","null","<div style=""background-color: gray; width: 100vw; height: 100vh;""></div>","null","","","","","","",""
"","","","","","html-keyboard-response","111","473945","0.0-111.0","CF3FDC171B364B7FBED6300012D923EB","019ce675-94af-7bab-ad7e-b3215f9cb5d3","019ce643-47c6-74a0-b3d2-7bf5651ded46","","null","
                    <div class=""stimulus-container"">
                        <img src=""images/causal_sequence/package_causal/package_causal_1.png"" class=""exp-image"">
                        <div class=""question-area""></div> 
                    </div>","null","","","","","","",""
"","","","","","html-button-response","112","476947","0.0-112.0","CF3FDC171B364B7FBED6300012D923EB","019ce675-94af-7bab-ad7e-b3215f9cb5d3","019ce643-47c6-74a0-b3d2-7bf5651ded46","","null","
                    <div class=""stimulus-container"">
                        <img src=""images/causal_sequence/package_causal/package_causal_1.png"" class=""exp-image"">
                        <div class=""question-area"">
                            <p style=""font-size: 20px; font-weight: bold; margin: 0;"">Is there a person in this image?</p>
                        </div>
                    </div>","null","main_causal_task","1","package_causal","","","",""
"","","","","","html-keyboard-response","113","481949","0.0-113.0","CF3FDC171B364B7FBED6300012D923EB","019ce675-94af-7bab-ad7e-b3215f9cb5d3","019ce643-47c6-74a0-b3d2-7bf5651ded46","","null","
                    <div class=""stimulus-container"">
                        <img src=""images/causal_sequence/package_causal/package_causal_2.png"" class=""exp-image"">
                        <div class=""question-area""></div> 
                    </div>","null","","","","","","",""
"","","","","","html-button-response","114","484952","0.0-114.0","CF3FDC171B364B7FBED6300012D923EB","019ce675-94af-7bab-ad7e-b3215f9cb5d3","019ce643-47c6-74a0-b3d2-7bf5651ded46","","null","
                    <div class=""stimulus-container"">
                        <img src=""images/causal_sequence/package_causal/package_causal_2.png"" class=""exp-image"">
                        <div class=""question-area"">
                            <p style=""font-size: 20px; font-weight: bold; margin: 0;"">Is there a person in this image?</p>
                        </div>
                    </div>","null","main_causal_task","2","package_causal","","","",""
"","","","","","html-keyboard-response","115","489955","0.0-115.0","CF3FDC171B364B7FBED6300012D923EB","019ce675-94af-7bab-ad7e-b3215f9cb5d3","019ce643-47c6-74a0-b3d2-7bf5651ded46","","null","
                    <div class=""stimulus-container"">
                        <img src=""images/causal_sequence/package_causal/package_causal_3.png"" class=""exp-image"">
                        <div class=""question-area""></div> 
                    </div>","null","","","","","","",""
"","","","","","html-button-response","116","492956","0.0-116.0","CF3FDC171B364B7FBED6300012D923EB","019ce675-94af-7bab-ad7e-b3215f9cb5d3","019ce643-47c6-74a0-b3d2-7bf5651ded46","","null","
                    <div class=""stimulus-container"">
                        <img src=""images/causal_sequence/package_causal/package_causal_3.png"" class=""exp-image"">
                        <div class=""question-area"">
                            <p style=""font-size: 20px; font-weight: bold; margin: 0;"">Is there a person in this image?</p>
                        </div>
                    </div>","null","main_causal_task","3","package_causal","","","",""
"","","","","","html-keyboard-response","117","497958","0.0-117.0","CF3FDC171B364B7FBED6300012D923EB","019ce675-94af-7bab-ad7e-b3215f9cb5d3","019ce643-47c6-74a0-b3d2-7bf5651ded46","","null","
                    <div class=""stimulus-container"">
                        <img src=""images/causal_sequence/package_causal/package_causal_4.png"" class=""exp-image"">
                        <div class=""question-area""></div> 
                    </div>","null","","","","","","",""
"","","","","","html-button-response","118","500959","0.0-118.0","CF3FDC171B364B7FBED6300012D923EB","019ce675-94af-7bab-ad7e-b3215f9cb5d3","019ce643-47c6-74a0-b3d2-7bf5651ded46","","null","
                    <div class=""stimulus-container"">
                        <img src=""images/causal_sequence/package_causal/package_causal_4.png"" class=""exp-image"">
                        <div class=""question-area"">
                            <p style=""font-size: 20px; font-weight: bold; margin: 0;"">Is there a person in this image?</p>
                        </div>
                    </div>","null","main_causal_task","4","package_causal","","","",""
"","","","","","html-keyboard-response","119","505959","0.0-119.0","CF3FDC171B364B7FBED6300012D923EB","019ce675-94af-7bab-ad7e-b3215f9cb5d3","019ce643-47c6-74a0-b3d2-7bf5651ded46","","null","
                    <div class=""stimulus-container"">
                        <img src=""images/causal_sequence/package_causal/package_causal_5.png"" class=""exp-image"">
                        <div class=""question-area""></div> 
                    </div>","null","","","","","","",""
"","","","","","html-button-response","120","508962","0.0-120.0","CF3FDC171B364B7FBED6300012D923EB","019ce675-94af-7bab-ad7e-b3215f9cb5d3","019ce643-47c6-74a0-b3d2-7bf5651ded46","","null","
                    <div class=""stimulus-container"">
                        <img src=""images/causal_sequence/package_causal/package_causal_5.png"" class=""exp-image"">
                        <div class=""question-area"">
                            <p style=""font-size: 20px; font-weight: bold; margin: 0;"">Is there a person in this image?</p>
                        </div>
                    </div>","null","main_causal_task","5","package_causal","","","",""
"","","","","","html-keyboard-response","121","513964","0.0-121.0","CF3FDC171B364B7FBED6300012D923EB","019ce675-94af-7bab-ad7e-b3215f9cb5d3","019ce643-47c6-74a0-b3d2-7bf5651ded46","","null","
                    <div class=""stimulus-container"">
                        <img src=""images/causal_sequence/package_causal/package_causal_6.png"" class=""exp-image"">
                        <div class=""question-area""></div> 
                    </div>","null","","","","","","",""
"","","","","","html-button-response","122","516966","0.0-122.0","CF3FDC171B364B7FBED6300012D923EB","019ce675-94af-7bab-ad7e-b3215f9cb5d3","019ce643-47c6-74a0-b3d2-7bf5651ded46","","null","
                    <div class=""stimulus-container"">
                        <img src=""images/causal_sequence/package_causal/package_causal_6.png"" class=""exp-image"">
                        <div class=""question-area"">
                            <p style=""font-size: 20px; font-weight: bold; margin: 0;"">Is there a person in this image?</p>
                        </div>
                    </div>","null","main_causal_task","6","package_causal","","","",""
"","","","","","html-keyboard-response","123","521968","0.0-123.0","CF3FDC171B364B7FBED6300012D923EB","019ce675-94af-7bab-ad7e-b3215f9cb5d3","019ce643-47c6-74a0-b3d2-7bf5651ded46","","null","
                    <div class=""stimulus-container"">
                        <img src=""images/causal_sequence/package_causal/package_causal_7.png"" class=""exp-image"">
                        <div class=""question-area""></div> 
                    </div>","null","","","","","","",""
"","","","","","html-button-response","124","524970","0.0-124.0","CF3FDC171B364B7FBED6300012D923EB","019ce675-94af-7bab-ad7e-b3215f9cb5d3","019ce643-47c6-74a0-b3d2-7bf5651ded46","","null","
                    <div class=""stimulus-container"">
                        <img src=""images/causal_sequence/package_causal/package_causal_7.png"" class=""exp-image"">
                        <div class=""question-area"">
                            <p style=""font-size: 20px; font-weight: bold; margin: 0;"">Is there a person in this image?</p>
                        </div>
                    </div>","null","main_causal_task","7","package_causal","","","",""
"","","","","","html-keyboard-response","125","529971","0.0-125.0","CF3FDC171B364B7FBED6300012D923EB","019ce675-94af-7bab-ad7e-b3215f9cb5d3","019ce643-47c6-74a0-b3d2-7bf5651ded46","","null","
                    <div class=""stimulus-container"">
                        <img src=""images/causal_sequence/package_causal/package_causal_8.png"" class=""exp-image"">
                        <div class=""question-area""></div> 
                    </div>","null","","","","","","",""
"","","","","","html-button-response","126","532973","0.0-126.0","CF3FDC171B364B7FBED6300012D923EB","019ce675-94af-7bab-ad7e-b3215f9cb5d3","019ce643-47c6-74a0-b3d2-7bf5651ded46","","null","
                    <div class=""stimulus-container"">
                        <img src=""images/causal_sequence/package_causal/package_causal_8.png"" class=""exp-image"">
                        <div class=""question-area"">
                            <p style=""font-size: 20px; font-weight: bold; margin: 0;"">Is there a person in this image?</p>
                        </div>
                    </div>","null","main_causal_task","8","package_causal","","","",""
"","","","","","html-keyboard-response","127","537974","0.0-127.0","CF3FDC171B364B7FBED6300012D923EB","019ce675-94af-7bab-ad7e-b3215f9cb5d3","019ce643-47c6-74a0-b3d2-7bf5651ded46","","null","
                    <div class=""stimulus-container"">
                        <img src=""images/causal_sequence/package_causal/package_causal_9.png"" class=""exp-image"">
                        <div class=""question-area""></div> 
                    </div>","null","","","","","","",""
"","","","","","html-button-response","128","540976","0.0-128.0","CF3FDC171B364B7FBED6300012D923EB","019ce675-94af-7bab-ad7e-b3215f9cb5d3","019ce643-47c6-74a0-b3d2-7bf5651ded46","","null","
                    <div class=""stimulus-container"">
                        <img src=""images/causal_sequence/package_causal/package_causal_9.png"" class=""exp-image"">
                        <div class=""question-area"">
                            <p style=""font-size: 20px; font-weight: bold; margin: 0;"">Is there a person in this image?</p>
                        </div>
                    </div>","null","main_causal_task","9","package_causal","","","",""
"","","","","","instructions","129","547993","0.0-129.0","CF3FDC171B364B7FBED6300012D923EB","019ce675-94af-7bab-ad7e-b3215f9cb5d3","019ce643-47c6-74a0-b3d2-7bf5651ded46","[{""page_index"":0,""viewing_time"":7017}]","7017","","","","","","","","",""
"","","","","","instructions","130","553784","0.0-130.0","CF3FDC171B364B7FBED6300012D923EB","019ce675-94af-7bab-ad7e-b3215f9cb5d3","019ce643-47c6-74a0-b3d2-7bf5651ded46","[{""page_index"":0,""viewing_time"":5791}]","5791","","","","","","","","",""
"","","","","","html-keyboard-response","131","554788","0.0-131.0","CF3FDC171B364B7FBED6300012D923EB","019ce675-94af-7bab-ad7e-b3215f9cb5d3","019ce643-47c6-74a0-b3d2-7bf5651ded46","","null","
        <div class=""stimulus-container"" style=""display: flex; align-items: center; justify-content: center; gap: 30px;"">
            <img src=""images/instructions/movie_1.png"" class=""exp-image"">
            <div style=""font-size: 40px; font-weight: bold; color: green; border: 5px solid green; padding: 25px; border-radius: 15px; background-color: #f0fff0;"">
                WORTH<br>$1
            </div>
        </div>
        <div class=""question-area""></div>","null","","","","","","",""
"","","","","","html-button-response","132","557792","0.0-132.0","CF3FDC171B364B7FBED6300012D923EB","019ce675-94af-7bab-ad7e-b3215f9cb5d3","019ce643-47c6-74a0-b3d2-7bf5651ded46","","null","
        <div class=""stimulus-container"" style=""display: flex; align-items: center; justify-content: center; gap: 30px;"">
            <img src=""images/instructions/movie_1.png"" class=""exp-image"">
            <div style=""font-size: 40px; font-weight: bold; color: green; border: 5px solid green; padding: 25px; border-radius: 15px; background-color: #f0fff0;"">
                WORTH<br>$1
            </div>
        </div>
        <div class=""question-area"">
            <p style=""font-size: 20px; font-weight: bold; margin: 0;"">Was there a person in this image?</p>
        </div>","null","","","","","","",""
"","","","","","instructions","133","568350","0.0-133.0","CF3FDC171B364B7FBED6300012D923EB","019ce675-94af-7bab-ad7e-b3215f9cb5d3","019ce643-47c6-74a0-b3d2-7bf5651ded46","[{""page_index"":0,""viewing_time"":10558}]","10558","","","","","","","","",""
"","","","","","html-keyboard-response","134","578352","0.0-134.0","CF3FDC171B364B7FBED6300012D923EB","019ce675-94af-7bab-ad7e-b3215f9cb5d3","019ce643-47c6-74a0-b3d2-7bf5651ded46","","null","
            <div class=""stimulus-container"" style=""display: flex; align-items: center; justify-content: center; gap: 30px;"">
                <img src=""images/causal_sequence/coin_causal/coin_causal_4.png"" class=""exp-image"">
                <div style=""font-size: 40px; font-weight: bold; color: green; border: 5px solid green; padding: 25px; border-radius: 15px; background-color: #f0fff0;"">
                    WORTH<br>$1
                </div>
            </div>
            <div class=""question-area""></div>","null","","","","","","",""
"","","","","","html-button-response","135","581355","0.0-135.0","CF3FDC171B364B7FBED6300012D923EB","019ce675-94af-7bab-ad7e-b3215f9cb5d3","019ce643-47c6-74a0-b3d2-7bf5651ded46","","null","
            <div class=""stimulus-container"" style=""display: flex; align-items: center; justify-content: center; gap: 30px;"">
                <img src=""images/causal_sequence/coin_causal/coin_causal_4.png"" class=""exp-image"">
                <div style=""font-size: 40px; font-weight: bold; color: green; border: 5px solid green; padding: 25px; border-radius: 15px; background-color: #f0fff0;"">
                    WORTH<br>$1
                </div>
            </div>
            <div class=""question-area"">
                <p style=""font-size: 20px; font-weight: bold; margin: 0;"">Was there a person in this image?</p>
            </div>","null","part2_value_learning","","coin_causal","4","","",""
"","","","","","html-keyboard-response","136","591357","0.0-136.0","CF3FDC171B364B7FBED6300012D923EB","019ce675-94af-7bab-ad7e-b3215f9cb5d3","019ce643-47c6-74a0-b3d2-7bf5651ded46","","null","
            <div class=""stimulus-container"" style=""display: flex; align-items: center; justify-content: center; gap: 30px;"">
                <img src=""images/causal_sequence/dog_causal/dog_causal_3.png"" class=""exp-image"">
                <div style=""font-size: 40px; font-weight: bold; color: green; border: 5px solid green; padding: 25px; border-radius: 15px; background-color: #f0fff0;"">
                    WORTH<br>$1
                </div>
            </div>
            <div class=""question-area""></div>","null","","","","","","",""
"","","","","","html-button-response","137","594359","0.0-137.0","CF3FDC171B364B7FBED6300012D923EB","019ce675-94af-7bab-ad7e-b3215f9cb5d3","019ce643-47c6-74a0-b3d2-7bf5651ded46","","null","
            <div class=""stimulus-container"" style=""display: flex; align-items: center; justify-content: center; gap: 30px;"">
                <img src=""images/causal_sequence/dog_causal/dog_causal_3.png"" class=""exp-image"">
                <div style=""font-size: 40px; font-weight: bold; color: green; border: 5px solid green; padding: 25px; border-radius: 15px; background-color: #f0fff0;"">
                    WORTH<br>$1
                </div>
            </div>
            <div class=""question-area"">
                <p style=""font-size: 20px; font-weight: bold; margin: 0;"">Was there a person in this image?</p>
            </div>","null","part2_value_learning","","dog_causal","3","","",""
"","","","","","html-keyboard-response","138","604361","0.0-138.0","CF3FDC171B364B7FBED6300012D923EB","019ce675-94af-7bab-ad7e-b3215f9cb5d3","019ce643-47c6-74a0-b3d2-7bf5651ded46","","null","
            <div class=""stimulus-container"" style=""display: flex; align-items: center; justify-content: center; gap: 30px;"">
                <img src=""images/causal_sequence/package_causal/package_causal_3.png"" class=""exp-image"">
                <div style=""font-size: 40px; font-weight: bold; color: green; border: 5px solid green; padding: 25px; border-radius: 15px; background-color: #f0fff0;"">
                    WORTH<br>$1
                </div>
            </div>
            <div class=""question-area""></div>","null","","","","","","",""
"","","","","","html-button-response","139","607363","0.0-139.0","CF3FDC171B364B7FBED6300012D923EB","019ce675-94af-7bab-ad7e-b3215f9cb5d3","019ce643-47c6-74a0-b3d2-7bf5651ded46","","null","
            <div class=""stimulus-container"" style=""display: flex; align-items: center; justify-content: center; gap: 30px;"">
                <img src=""images/causal_sequence/package_causal/package_causal_3.png"" class=""exp-image"">
                <div style=""font-size: 40px; font-weight: bold; color: green; border: 5px solid green; padding: 25px; border-radius: 15px; background-color: #f0fff0;"">
                    WORTH<br>$1
                </div>
            </div>
            <div class=""question-area"">
                <p style=""font-size: 20px; font-weight: bold; margin: 0;"">Was there a person in this image?</p>
            </div>","null","part2_value_learning","","package_causal","3","","",""
"","","","","","html-keyboard-response","140","617364","0.0-140.0","CF3FDC171B364B7FBED6300012D923EB","019ce675-94af-7bab-ad7e-b3215f9cb5d3","019ce643-47c6-74a0-b3d2-7bf5651ded46","","null","
            <div class=""stimulus-container"" style=""display: flex; align-items: center; justify-content: center; gap: 30px;"">
                <img src=""images/causal_sequence/the_performance_causal/the_performance_causal_5.png"" class=""exp-image"">
                <div style=""font-size: 40px; font-weight: bold; color: green; border: 5px solid green; padding: 25px; border-radius: 15px; background-color: #f0fff0;"">
                    WORTH<br>$1
                </div>
            </div>
            <div class=""question-area""></div>","null","","","","","","",""
"","","","","","html-button-response","141","620367","0.0-141.0","CF3FDC171B364B7FBED6300012D923EB","019ce675-94af-7bab-ad7e-b3215f9cb5d3","019ce643-47c6-74a0-b3d2-7bf5651ded46","","null","
            <div class=""stimulus-container"" style=""display: flex; align-items: center; justify-content: center; gap: 30px;"">
                <img src=""images/causal_sequence/the_performance_causal/the_performance_causal_5.png"" class=""exp-image"">
                <div style=""font-size: 40px; font-weight: bold; color: green; border: 5px solid green; padding: 25px; border-radius: 15px; background-color: #f0fff0;"">
                    WORTH<br>$1
                </div>
            </div>
            <div class=""question-area"">
                <p style=""font-size: 20px; font-weight: bold; margin: 0;"">Was there a person in this image?</p>
            </div>","null","part2_value_learning","","the_performance_causal","5","","",""
"","","","","","html-keyboard-response","142","630368","0.0-142.0","CF3FDC171B364B7FBED6300012D923EB","019ce675-94af-7bab-ad7e-b3215f9cb5d3","019ce643-47c6-74a0-b3d2-7bf5651ded46","","null","
            <div class=""stimulus-container"" style=""display: flex; align-items: center; justify-content: center; gap: 30px;"">
                <img src=""images/causal_sequence/museum_causal/museum_causal_4.png"" class=""exp-image"">
                <div style=""font-size: 40px; font-weight: bold; color: green; border: 5px solid green; padding: 25px; border-radius: 15px; background-color: #f0fff0;"">
                    WORTH<br>$1
                </div>
            </div>
            <div class=""question-area""></div>","null","","","","","","",""
"","","","","","html-button-response","143","633370","0.0-143.0","CF3FDC171B364B7FBED6300012D923EB","019ce675-94af-7bab-ad7e-b3215f9cb5d3","019ce643-47c6-74a0-b3d2-7bf5651ded46","","null","
            <div class=""stimulus-container"" style=""display: flex; align-items: center; justify-content: center; gap: 30px;"">
                <img src=""images/causal_sequence/museum_causal/museum_causal_4.png"" class=""exp-image"">
                <div style=""font-size: 40px; font-weight: bold; color: green; border: 5px solid green; padding: 25px; border-radius: 15px; background-color: #f0fff0;"">
                    WORTH<br>$1
                </div>
            </div>
            <div class=""question-area"">
                <p style=""font-size: 20px; font-weight: bold; margin: 0;"">Was there a person in this image?</p>
            </div>","null","part2_value_learning","","museum_causal","4","","",""
"","","","","","html-keyboard-response","144","643375","0.0-144.0","CF3FDC171B364B7FBED6300012D923EB","019ce675-94af-7bab-ad7e-b3215f9cb5d3","019ce643-47c6-74a0-b3d2-7bf5651ded46","","null","
            <div class=""stimulus-container"" style=""display: flex; align-items: center; justify-content: center; gap: 30px;"">
                <img src=""images/causal_sequence/saving_a_cat_causal/saving_a_cat_causal_5.png"" class=""exp-image"">
                <div style=""font-size: 40px; font-weight: bold; color: green; border: 5px solid green; padding: 25px; border-radius: 15px; background-color: #f0fff0;"">
                    WORTH<br>$1
                </div>
            </div>
            <div class=""question-area""></div>","null","","","","","","",""
"","","","","","html-button-response","145","646378","0.0-145.0","CF3FDC171B364B7FBED6300012D923EB","019ce675-94af-7bab-ad7e-b3215f9cb5d3","019ce643-47c6-74a0-b3d2-7bf5651ded46","","null","
            <div class=""stimulus-container"" style=""display: flex; align-items: center; justify-content: center; gap: 30px;"">
                <img src=""images/causal_sequence/saving_a_cat_causal/saving_a_cat_causal_5.png"" class=""exp-image"">
                <div style=""font-size: 40px; font-weight: bold; color: green; border: 5px solid green; padding: 25px; border-radius: 15px; background-color: #f0fff0;"">
                    WORTH<br>$1
                </div>
            </div>
            <div class=""question-area"">
                <p style=""font-size: 20px; font-weight: bold; margin: 0;"">Was there a person in this image?</p>
            </div>","null","part2_value_learning","","saving_a_cat_causal","5","","",""
"","","","","","instructions","146","656084","0.0-146.0","CF3FDC171B364B7FBED6300012D923EB","019ce675-94af-7bab-ad7e-b3215f9cb5d3","019ce643-47c6-74a0-b3d2-7bf5651ded46","[{""page_index"":0,""viewing_time"":9705}]","9706","","","","","","","","",""
"","","","","","instructions","147","661845","0.0-147.0","CF3FDC171B364B7FBED6300012D923EB","019ce675-94af-7bab-ad7e-b3215f9cb5d3","019ce643-47c6-74a0-b3d2-7bf5651ded46","[{""page_index"":0,""viewing_time"":5760}]","5761","","","","","","","","",""
"","","","","","html-keyboard-response","148","671847","0.0-148.0-0.0","CF3FDC171B364B7FBED6300012D923EB","019ce675-94af-7bab-ad7e-b3215f9cb5d3","019ce643-47c6-74a0-b3d2-7bf5651ded46","","null","
                        <div style=""font-family: Arial; margin-bottom: 20px;""><h3>Which image is more valuable?</h3></div>
                        <div class=""stimulus-container"" style=""display: flex; width: 1100px; justify-content: center; gap: 50px;"">
                            <img src=""images/causal_sequence/saving_a_cat_causal/saving_a_cat_causal_6.png"" class=""exp-image"">
                            <img src=""images/causal_sequence/saving_a_cat_causal/saving_a_cat_causal_4.png"" class=""exp-image"">
                        </div>","null","","","","","","",""
"","","","","","html-button-response","149","682103","0.0-148.0-1.0","CF3FDC171B364B7FBED6300012D923EB","019ce675-94af-7bab-ad7e-b3215f9cb5d3","019ce643-47c6-74a0-b3d2-7bf5651ded46","","10254","
                        <div style=""font-family: Arial; margin-bottom: 20px;""><h3>Which image is more valuable?</h3></div>
                        <div class=""stimulus-container"" style=""display: flex; width: 1100px; justify-content: center; gap: 50px;"">
                            <img src=""images/causal_sequence/saving_a_cat_causal/saving_a_cat_causal_6.png"" class=""exp-image"">
                            <img src=""images/causal_sequence/saving_a_cat_causal/saving_a_cat_causal_4.png"" class=""exp-image"">
                        </div>","1","part3_final_choice","","saving_a_cat_causal","","5","4","-1"
"","","","","","html-keyboard-response","150","692105","0.0-149.0-0.0","CF3FDC171B364B7FBED6300012D923EB","019ce675-94af-7bab-ad7e-b3215f9cb5d3","019ce643-47c6-74a0-b3d2-7bf5651ded46","","null","
                        <div style=""font-family: Arial; margin-bottom: 20px;""><h3>Which image is more valuable?</h3></div>
                        <div class=""stimulus-container"" style=""display: flex; width: 1100px; justify-content: center; gap: 50px;"">
                            <img src=""images/causal_sequence/dog_causal/dog_causal_2.png"" class=""exp-image"">
                            <img src=""images/causal_sequence/dog_causal/dog_causal_4.png"" class=""exp-image"">
                        </div>","null","","","","","","",""
"","","","","","html-button-response","151","714209","0.0-149.0-1.0","CF3FDC171B364B7FBED6300012D923EB","019ce675-94af-7bab-ad7e-b3215f9cb5d3","019ce643-47c6-74a0-b3d2-7bf5651ded46","","22103","
                        <div style=""font-family: Arial; margin-bottom: 20px;""><h3>Which image is more valuable?</h3></div>
                        <div class=""stimulus-container"" style=""display: flex; width: 1100px; justify-content: center; gap: 50px;"">
                            <img src=""images/causal_sequence/dog_causal/dog_causal_2.png"" class=""exp-image"">
                            <img src=""images/causal_sequence/dog_causal/dog_causal_4.png"" class=""exp-image"">
                        </div>","0","part3_final_choice","","dog_causal","","3","2","-1"
"","","","","","html-keyboard-response","152","724211","0.0-150.0-0.0","CF3FDC171B364B7FBED6300012D923EB","019ce675-94af-7bab-ad7e-b3215f9cb5d3","019ce643-47c6-74a0-b3d2-7bf5651ded46","","null","
                        <div style=""font-family: Arial; margin-bottom: 20px;""><h3>Which image is more valuable?</h3></div>
                        <div class=""stimulus-container"" style=""display: flex; width: 1100px; justify-content: center; gap: 50px;"">
                            <img src=""images/causal_sequence/the_performance_causal/the_performance_causal_4.png"" class=""exp-image"">
                            <img src=""images/causal_sequence/the_performance_causal/the_performance_causal_6.png"" class=""exp-image"">
                        </div>","null","","","","","","",""
"","","","","","html-button-response","153","731842","0.0-150.0-1.0","CF3FDC171B364B7FBED6300012D923EB","019ce675-94af-7bab-ad7e-b3215f9cb5d3","019ce643-47c6-74a0-b3d2-7bf5651ded46","","7629","
                        <div style=""font-family: Arial; margin-bottom: 20px;""><h3>Which image is more valuable?</h3></div>
                        <div class=""stimulus-container"" style=""display: flex; width: 1100px; justify-content: center; gap: 50px;"">
                            <img src=""images/causal_sequence/the_performance_causal/the_performance_causal_4.png"" class=""exp-image"">
                            <img src=""images/causal_sequence/the_performance_causal/the_performance_causal_6.png"" class=""exp-image"">
                        </div>","1","part3_final_choice","","the_performance_causal","","5","6","1"
"","","","","","html-keyboard-response","154","741847","0.0-151.0-0.0","CF3FDC171B364B7FBED6300012D923EB","019ce675-94af-7bab-ad7e-b3215f9cb5d3","019ce643-47c6-74a0-b3d2-7bf5651ded46","","null","
                        <div style=""font-family: Arial; margin-bottom: 20px;""><h3>Which image is more valuable?</h3></div>
                        <div class=""stimulus-container"" style=""display: flex; width: 1100px; justify-content: center; gap: 50px;"">
                            <img src=""images/causal_sequence/coin_causal/coin_causal_5.png"" class=""exp-image"">
                            <img src=""images/causal_sequence/coin_causal/coin_causal_3.png"" class=""exp-image"">
                        </div>","null","","","","","","",""
"","","","","","html-button-response","155","747953","0.0-151.0-1.0","CF3FDC171B364B7FBED6300012D923EB","019ce675-94af-7bab-ad7e-b3215f9cb5d3","019ce643-47c6-74a0-b3d2-7bf5651ded46","","6105","
                        <div style=""font-family: Arial; margin-bottom: 20px;""><h3>Which image is more valuable?</h3></div>
                        <div class=""stimulus-container"" style=""display: flex; width: 1100px; justify-content: center; gap: 50px;"">
                            <img src=""images/causal_sequence/coin_causal/coin_causal_5.png"" class=""exp-image"">
                            <img src=""images/causal_sequence/coin_causal/coin_causal_3.png"" class=""exp-image"">
                        </div>","1","part3_final_choice","","coin_causal","","4","3","-1"
"","","","","","html-keyboard-response","156","757955","0.0-152.0-0.0","CF3FDC171B364B7FBED6300012D923EB","019ce675-94af-7bab-ad7e-b3215f9cb5d3","019ce643-47c6-74a0-b3d2-7bf5651ded46","","null","
                        <div style=""font-family: Arial; margin-bottom: 20px;""><h3>Which image is more valuable?</h3></div>
                        <div class=""stimulus-container"" style=""display: flex; width: 1100px; justify-content: center; gap: 50px;"">
                            <img src=""images/causal_sequence/package_causal/package_causal_2.png"" class=""exp-image"">
                            <img src=""images/causal_sequence/package_causal/package_causal_4.png"" class=""exp-image"">
                        </div>","null","","","","","","",""
"","","","","","html-button-response","157","763716","0.0-152.0-1.0","CF3FDC171B364B7FBED6300012D923EB","019ce675-94af-7bab-ad7e-b3215f9cb5d3","019ce643-47c6-74a0-b3d2-7bf5651ded46","","5760","
                        <div style=""font-family: Arial; margin-bottom: 20px;""><h3>Which image is more valuable?</h3></div>
                        <div class=""stimulus-container"" style=""display: flex; width: 1100px; justify-content: center; gap: 50px;"">
                            <img src=""images/causal_sequence/package_causal/package_causal_2.png"" class=""exp-image"">
                            <img src=""images/causal_sequence/package_causal/package_causal_4.png"" class=""exp-image"">
                        </div>","0","part3_final_choice","","package_causal","","3","2","-1"
"","","","","","html-keyboard-response","158","773718","0.0-153.0-0.0","CF3FDC171B364B7FBED6300012D923EB","019ce675-94af-7bab-ad7e-b3215f9cb5d3","019ce643-47c6-74a0-b3d2-7bf5651ded46","","null","
                        <div style=""font-family: Arial; margin-bottom: 20px;""><h3>Which image is more valuable?</h3></div>
                        <div class=""stimulus-container"" style=""display: flex; width: 1100px; justify-content: center; gap: 50px;"">
                            <img src=""images/causal_sequence/museum_causal/museum_causal_5.png"" class=""exp-image"">
                            <img src=""images/causal_sequence/museum_causal/museum_causal_3.png"" class=""exp-image"">
                        </div>","null","","","","","","",""
"","","","","","html-button-response","159","783193","0.0-153.0-1.0","CF3FDC171B364B7FBED6300012D923EB","019ce675-94af-7bab-ad7e-b3215f9cb5d3","019ce643-47c6-74a0-b3d2-7bf5651ded46","","9473","
                        <div style=""font-family: Arial; margin-bottom: 20px;""><h3>Which image is more valuable?</h3></div>
                        <div class=""stimulus-container"" style=""display: flex; width: 1100px; justify-content: center; gap: 50px;"">
                            <img src=""images/causal_sequence/museum_causal/museum_causal_5.png"" class=""exp-image"">
                            <img src=""images/causal_sequence/museum_causal/museum_causal_3.png"" class=""exp-image"">
                        </div>","0","part3_final_choice","","museum_causal","","4","5","1"
"","","","","","survey-text","160","803109","0.0-154.0","CF3FDC171B364B7FBED6300012D923EB","019ce675-94af-7bab-ad7e-b3215f9cb5d3","019ce643-47c6-74a0-b3d2-7bf5651ded46","","19911","","{""gender"":""MALE"",""age"":""20"",""decision_strategy"":""I chose the image that best matched the valuable story I learned earlier in the study."",""consistency_check"":""I used the same logic throughout by matching each pair to the corresponding valuable image from the learning phase.""}","demographics_and_strategy","","","","","",""
"","","","","","instructions","161","809662","0.0-155.0","CF3FDC171B364B7FBED6300012D923EB","019ce675-94af-7bab-ad7e-b3215f9cb5d3","019ce643-47c6-74a0-b3d2-7bf5651ded46","[{""page_index"":0,""viewing_time"":6552}]","6552","","","","","","","","",""
