"success","timeout","failed_images","failed_audio","failed_video","trial_type","trial_index","time_elapsed","internal_node_id","subject_id","study_id","session_id","view_history","rt","stimulus","response","task","image_index","folder","valuable_image_index","valuable_X","chosen_image_index","distance_from_X"
"false","false","[]","[]","[]","preload","0","8610","0.0-0.0","788C0AAC8A924E98B0667144DE400B05","019ce7a9-df25-748c-b63f-bf178d48df3f","019ce7a0-0965-7aa7-a556-174d32a8e773","","","","","","","","","","",""
"","","","","","instructions","1","13378","0.0-1.0","788C0AAC8A924E98B0667144DE400B05","019ce7a9-df25-748c-b63f-bf178d48df3f","019ce7a0-0965-7aa7-a556-174d32a8e773","[{""page_index"":0,""viewing_time"":4768}]","4768","","","","","","","","",""
"","","","","","instructions","2","18642","0.0-2.0","788C0AAC8A924E98B0667144DE400B05","019ce7a9-df25-748c-b63f-bf178d48df3f","019ce7a0-0965-7aa7-a556-174d32a8e773","[{""page_index"":0,""viewing_time"":5264}]","5264","","","","","","","","",""
"true","","","","","fullscreen","3","22399","0.0-3.0","788C0AAC8A924E98B0667144DE400B05","019ce7a9-df25-748c-b63f-bf178d48df3f","019ce7a0-0965-7aa7-a556-174d32a8e773","","2747","","","","","","","","",""
"","","","","","instructions","4","35073","0.0-4.0","788C0AAC8A924E98B0667144DE400B05","019ce7a9-df25-748c-b63f-bf178d48df3f","019ce7a0-0965-7aa7-a556-174d32a8e773","[{""page_index"":0,""viewing_time"":12673}]","12673","","","","","","","","",""
"","","","","","instructions","5","53729","0.0-5.0","788C0AAC8A924E98B0667144DE400B05","019ce7a9-df25-748c-b63f-bf178d48df3f","019ce7a0-0965-7aa7-a556-174d32a8e773","[{""page_index"":0,""viewing_time"":18656}]","18656","","","","","","","","",""
"","","","","","html-keyboard-response","6","57736","0.0-6.0","788C0AAC8A924E98B0667144DE400B05","019ce7a9-df25-748c-b63f-bf178d48df3f","019ce7a0-0965-7aa7-a556-174d32a8e773","","null","
                <div class=""stimulus-container"">
                    <img src=""images/instructions/movie_1.png"" class=""exp-image"">
                    <div class=""question-area""></div> 
                </div>","null","","","","","","",""
"","","","","","html-button-response","7","59949","0.0-7.0","788C0AAC8A924E98B0667144DE400B05","019ce7a9-df25-748c-b63f-bf178d48df3f","019ce7a0-0965-7aa7-a556-174d32a8e773","","2211","
                <div class=""stimulus-container"">
                    <img src=""images/instructions/movie_1.png"" class=""exp-image"">
                    <div class=""question-area"">
                        <p style=""font-size: 20px; font-weight: bold; margin: 0;"">Was there a person in this image?</p>
                    </div>
                </div>","0","example_question","1","","","","",""
"","","","","","html-keyboard-response","8","63956","0.0-8.0","788C0AAC8A924E98B0667144DE400B05","019ce7a9-df25-748c-b63f-bf178d48df3f","019ce7a0-0965-7aa7-a556-174d32a8e773","","null","
                <div class=""stimulus-container"">
                    <img src=""images/instructions/movie_2.png"" class=""exp-image"">
                    <div class=""question-area""></div> 
                </div>","null","","","","","","",""
"","","","","","html-button-response","9","66570","0.0-9.0","788C0AAC8A924E98B0667144DE400B05","019ce7a9-df25-748c-b63f-bf178d48df3f","019ce7a0-0965-7aa7-a556-174d32a8e773","","2613","
                <div class=""stimulus-container"">
                    <img src=""images/instructions/movie_2.png"" class=""exp-image"">
                    <div class=""question-area"">
                        <p style=""font-size: 20px; font-weight: bold; margin: 0;"">Was there a person in this image?</p>
                    </div>
                </div>","1","example_question","2","","","","",""
"","","","","","html-keyboard-response","10","70572","0.0-10.0","788C0AAC8A924E98B0667144DE400B05","019ce7a9-df25-748c-b63f-bf178d48df3f","019ce7a0-0965-7aa7-a556-174d32a8e773","","null","
                <div class=""stimulus-container"">
                    <img src=""images/instructions/movie_3.png"" class=""exp-image"">
                    <div class=""question-area""></div> 
                </div>","null","","","","","","",""
"","","","","","html-button-response","11","71534","0.0-11.0","788C0AAC8A924E98B0667144DE400B05","019ce7a9-df25-748c-b63f-bf178d48df3f","019ce7a0-0965-7aa7-a556-174d32a8e773","","962","
                <div class=""stimulus-container"">
                    <img src=""images/instructions/movie_3.png"" class=""exp-image"">
                    <div class=""question-area"">
                        <p style=""font-size: 20px; font-weight: bold; margin: 0;"">Was there a person in this image?</p>
                    </div>
                </div>","0","example_question","3","","","","",""
"","","","","","html-keyboard-response","12","75555","0.0-12.0","788C0AAC8A924E98B0667144DE400B05","019ce7a9-df25-748c-b63f-bf178d48df3f","019ce7a0-0965-7aa7-a556-174d32a8e773","","null","
                <div class=""stimulus-container"">
                    <img src=""images/instructions/movie_4.png"" class=""exp-image"">
                    <div class=""question-area""></div> 
                </div>","null","","","","","","",""
"","","","","","html-button-response","13","76406","0.0-13.0","788C0AAC8A924E98B0667144DE400B05","019ce7a9-df25-748c-b63f-bf178d48df3f","019ce7a0-0965-7aa7-a556-174d32a8e773","","850","
                <div class=""stimulus-container"">
                    <img src=""images/instructions/movie_4.png"" class=""exp-image"">
                    <div class=""question-area"">
                        <p style=""font-size: 20px; font-weight: bold; margin: 0;"">Was there a person in this image?</p>
                    </div>
                </div>","0","example_question","4","","","","",""
"","","","","","instructions","14","79628","0.0-14.0","788C0AAC8A924E98B0667144DE400B05","019ce7a9-df25-748c-b63f-bf178d48df3f","019ce7a0-0965-7aa7-a556-174d32a8e773","[{""page_index"":0,""viewing_time"":3222}]","3222","","","","","","","","",""
"","","","","","html-keyboard-response","15","80640","0.0-15.0","788C0AAC8A924E98B0667144DE400B05","019ce7a9-df25-748c-b63f-bf178d48df3f","019ce7a0-0965-7aa7-a556-174d32a8e773","","null","<div style=""background-color: gray; width: 100vw; height: 100vh;""></div>","null","","","","","","",""
"","","","","","html-keyboard-response","16","85651","0.0-16.0","788C0AAC8A924E98B0667144DE400B05","019ce7a9-df25-748c-b63f-bf178d48df3f","019ce7a0-0965-7aa7-a556-174d32a8e773","","null","
                    <div class=""stimulus-container"">
                        <img src=""images/causal_sequence/coin_causal/coin_causal_1.png"" class=""exp-image"">
                        <div class=""question-area""></div> 
                    </div>","null","","","","","","",""
"","","","","","html-button-response","17","87826","0.0-17.0","788C0AAC8A924E98B0667144DE400B05","019ce7a9-df25-748c-b63f-bf178d48df3f","019ce7a0-0965-7aa7-a556-174d32a8e773","","2174","
                    <div class=""stimulus-container"">
                        <img src=""images/causal_sequence/coin_causal/coin_causal_1.png"" class=""exp-image"">
                        <div class=""question-area"">
                            <p style=""font-size: 20px; font-weight: bold; margin: 0;"">Is there a person in this image?</p>
                        </div>
                    </div>","0","main_causal_task","1","coin_causal","","","",""
"","","","","","html-keyboard-response","18","92835","0.0-18.0","788C0AAC8A924E98B0667144DE400B05","019ce7a9-df25-748c-b63f-bf178d48df3f","019ce7a0-0965-7aa7-a556-174d32a8e773","","null","
                    <div class=""stimulus-container"">
                        <img src=""images/causal_sequence/coin_causal/coin_causal_2.png"" class=""exp-image"">
                        <div class=""question-area""></div> 
                    </div>","null","","","","","","",""
"","","","","","html-button-response","19","93670","0.0-19.0","788C0AAC8A924E98B0667144DE400B05","019ce7a9-df25-748c-b63f-bf178d48df3f","019ce7a0-0965-7aa7-a556-174d32a8e773","","835","
                    <div class=""stimulus-container"">
                        <img src=""images/causal_sequence/coin_causal/coin_causal_2.png"" class=""exp-image"">
                        <div class=""question-area"">
                            <p style=""font-size: 20px; font-weight: bold; margin: 0;"">Is there a person in this image?</p>
                        </div>
                    </div>","0","main_causal_task","2","coin_causal","","","",""
"","","","","","html-keyboard-response","20","98677","0.0-20.0","788C0AAC8A924E98B0667144DE400B05","019ce7a9-df25-748c-b63f-bf178d48df3f","019ce7a0-0965-7aa7-a556-174d32a8e773","","null","
                    <div class=""stimulus-container"">
                        <img src=""images/causal_sequence/coin_causal/coin_causal_3.png"" class=""exp-image"">
                        <div class=""question-area""></div> 
                    </div>","null","","","","","","",""
"","","","","","html-button-response","21","99696","0.0-21.0","788C0AAC8A924E98B0667144DE400B05","019ce7a9-df25-748c-b63f-bf178d48df3f","019ce7a0-0965-7aa7-a556-174d32a8e773","","1018","
                    <div class=""stimulus-container"">
                        <img src=""images/causal_sequence/coin_causal/coin_causal_3.png"" class=""exp-image"">
                        <div class=""question-area"">
                            <p style=""font-size: 20px; font-weight: bold; margin: 0;"">Is there a person in this image?</p>
                        </div>
                    </div>","0","main_causal_task","3","coin_causal","","","",""
"","","","","","html-keyboard-response","22","104710","0.0-22.0","788C0AAC8A924E98B0667144DE400B05","019ce7a9-df25-748c-b63f-bf178d48df3f","019ce7a0-0965-7aa7-a556-174d32a8e773","","null","
                    <div class=""stimulus-container"">
                        <img src=""images/causal_sequence/coin_causal/coin_causal_4.png"" class=""exp-image"">
                        <div class=""question-area""></div> 
                    </div>","null","","","","","","",""
"","","","","","html-button-response","23","105194","0.0-23.0","788C0AAC8A924E98B0667144DE400B05","019ce7a9-df25-748c-b63f-bf178d48df3f","019ce7a0-0965-7aa7-a556-174d32a8e773","","483","
                    <div class=""stimulus-container"">
                        <img src=""images/causal_sequence/coin_causal/coin_causal_4.png"" class=""exp-image"">
                        <div class=""question-area"">
                            <p style=""font-size: 20px; font-weight: bold; margin: 0;"">Is there a person in this image?</p>
                        </div>
                    </div>","0","main_causal_task","4","coin_causal","","","",""
"","","","","","html-keyboard-response","24","110209","0.0-24.0","788C0AAC8A924E98B0667144DE400B05","019ce7a9-df25-748c-b63f-bf178d48df3f","019ce7a0-0965-7aa7-a556-174d32a8e773","","null","
                    <div class=""stimulus-container"">
                        <img src=""images/causal_sequence/coin_causal/coin_causal_5.png"" class=""exp-image"">
                        <div class=""question-area""></div> 
                    </div>","null","","","","","","",""
"","","","","","html-button-response","25","110708","0.0-25.0","788C0AAC8A924E98B0667144DE400B05","019ce7a9-df25-748c-b63f-bf178d48df3f","019ce7a0-0965-7aa7-a556-174d32a8e773","","499","
                    <div class=""stimulus-container"">
                        <img src=""images/causal_sequence/coin_causal/coin_causal_5.png"" class=""exp-image"">
                        <div class=""question-area"">
                            <p style=""font-size: 20px; font-weight: bold; margin: 0;"">Is there a person in this image?</p>
                        </div>
                    </div>","0","main_causal_task","5","coin_causal","","","",""
"","","","","","html-keyboard-response","26","115720","0.0-26.0","788C0AAC8A924E98B0667144DE400B05","019ce7a9-df25-748c-b63f-bf178d48df3f","019ce7a0-0965-7aa7-a556-174d32a8e773","","null","
                    <div class=""stimulus-container"">
                        <img src=""images/causal_sequence/coin_causal/coin_causal_6.png"" class=""exp-image"">
                        <div class=""question-area""></div> 
                    </div>","null","","","","","","",""
"","","","","","html-button-response","27","116181","0.0-27.0","788C0AAC8A924E98B0667144DE400B05","019ce7a9-df25-748c-b63f-bf178d48df3f","019ce7a0-0965-7aa7-a556-174d32a8e773","","460","
                    <div class=""stimulus-container"">
                        <img src=""images/causal_sequence/coin_causal/coin_causal_6.png"" class=""exp-image"">
                        <div class=""question-area"">
                            <p style=""font-size: 20px; font-weight: bold; margin: 0;"">Is there a person in this image?</p>
                        </div>
                    </div>","0","main_causal_task","6","coin_causal","","","",""
"","","","","","html-keyboard-response","28","121187","0.0-28.0","788C0AAC8A924E98B0667144DE400B05","019ce7a9-df25-748c-b63f-bf178d48df3f","019ce7a0-0965-7aa7-a556-174d32a8e773","","null","
                    <div class=""stimulus-container"">
                        <img src=""images/causal_sequence/coin_causal/coin_causal_7.png"" class=""exp-image"">
                        <div class=""question-area""></div> 
                    </div>","null","","","","","","",""
"","","","","","html-button-response","29","122088","0.0-29.0","788C0AAC8A924E98B0667144DE400B05","019ce7a9-df25-748c-b63f-bf178d48df3f","019ce7a0-0965-7aa7-a556-174d32a8e773","","901","
                    <div class=""stimulus-container"">
                        <img src=""images/causal_sequence/coin_causal/coin_causal_7.png"" class=""exp-image"">
                        <div class=""question-area"">
                            <p style=""font-size: 20px; font-weight: bold; margin: 0;"">Is there a person in this image?</p>
                        </div>
                    </div>","1","main_causal_task","7","coin_causal","","","",""
"","","","","","html-keyboard-response","30","127097","0.0-30.0","788C0AAC8A924E98B0667144DE400B05","019ce7a9-df25-748c-b63f-bf178d48df3f","019ce7a0-0965-7aa7-a556-174d32a8e773","","null","
                    <div class=""stimulus-container"">
                        <img src=""images/causal_sequence/coin_causal/coin_causal_8.png"" class=""exp-image"">
                        <div class=""question-area""></div> 
                    </div>","null","","","","","","",""
"","","","","","html-button-response","31","127624","0.0-31.0","788C0AAC8A924E98B0667144DE400B05","019ce7a9-df25-748c-b63f-bf178d48df3f","019ce7a0-0965-7aa7-a556-174d32a8e773","","526","
                    <div class=""stimulus-container"">
                        <img src=""images/causal_sequence/coin_causal/coin_causal_8.png"" class=""exp-image"">
                        <div class=""question-area"">
                            <p style=""font-size: 20px; font-weight: bold; margin: 0;"">Is there a person in this image?</p>
                        </div>
                    </div>","0","main_causal_task","8","coin_causal","","","",""
"","","","","","html-keyboard-response","32","132631","0.0-32.0","788C0AAC8A924E98B0667144DE400B05","019ce7a9-df25-748c-b63f-bf178d48df3f","019ce7a0-0965-7aa7-a556-174d32a8e773","","null","
                    <div class=""stimulus-container"">
                        <img src=""images/causal_sequence/coin_causal/coin_causal_9.png"" class=""exp-image"">
                        <div class=""question-area""></div> 
                    </div>","null","","","","","","",""
"","","","","","html-button-response","33","133392","0.0-33.0","788C0AAC8A924E98B0667144DE400B05","019ce7a9-df25-748c-b63f-bf178d48df3f","019ce7a0-0965-7aa7-a556-174d32a8e773","","760","
                    <div class=""stimulus-container"">
                        <img src=""images/causal_sequence/coin_causal/coin_causal_9.png"" class=""exp-image"">
                        <div class=""question-area"">
                            <p style=""font-size: 20px; font-weight: bold; margin: 0;"">Is there a person in this image?</p>
                        </div>
                    </div>","0","main_causal_task","9","coin_causal","","","",""
"","","","","","html-keyboard-response","34","134403","0.0-34.0","788C0AAC8A924E98B0667144DE400B05","019ce7a9-df25-748c-b63f-bf178d48df3f","019ce7a0-0965-7aa7-a556-174d32a8e773","","null","<div style=""background-color: gray; width: 100vw; height: 100vh;""></div>","null","","","","","","",""
"","","","","","html-keyboard-response","35","139406","0.0-35.0","788C0AAC8A924E98B0667144DE400B05","019ce7a9-df25-748c-b63f-bf178d48df3f","019ce7a0-0965-7aa7-a556-174d32a8e773","","null","
                    <div class=""stimulus-container"">
                        <img src=""images/causal_sequence/saving_a_cat_causal/saving_a_cat_causal_1.png"" class=""exp-image"">
                        <div class=""question-area""></div> 
                    </div>","null","","","","","","",""
"","","","","","html-button-response","36","139906","0.0-36.0","788C0AAC8A924E98B0667144DE400B05","019ce7a9-df25-748c-b63f-bf178d48df3f","019ce7a0-0965-7aa7-a556-174d32a8e773","","499","
                    <div class=""stimulus-container"">
                        <img src=""images/causal_sequence/saving_a_cat_causal/saving_a_cat_causal_1.png"" class=""exp-image"">
                        <div class=""question-area"">
                            <p style=""font-size: 20px; font-weight: bold; margin: 0;"">Is there a person in this image?</p>
                        </div>
                    </div>","0","main_causal_task","1","saving_a_cat_causal","","","",""
"","","","","","html-keyboard-response","37","144907","0.0-37.0","788C0AAC8A924E98B0667144DE400B05","019ce7a9-df25-748c-b63f-bf178d48df3f","019ce7a0-0965-7aa7-a556-174d32a8e773","","null","
                    <div class=""stimulus-container"">
                        <img src=""images/causal_sequence/saving_a_cat_causal/saving_a_cat_causal_2.png"" class=""exp-image"">
                        <div class=""question-area""></div> 
                    </div>","null","","","","","","",""
"","","","","","html-button-response","38","146122","0.0-38.0","788C0AAC8A924E98B0667144DE400B05","019ce7a9-df25-748c-b63f-bf178d48df3f","019ce7a0-0965-7aa7-a556-174d32a8e773","","1214","
                    <div class=""stimulus-container"">
                        <img src=""images/causal_sequence/saving_a_cat_causal/saving_a_cat_causal_2.png"" class=""exp-image"">
                        <div class=""question-area"">
                            <p style=""font-size: 20px; font-weight: bold; margin: 0;"">Is there a person in this image?</p>
                        </div>
                    </div>","1","main_causal_task","2","saving_a_cat_causal","","","",""
"","","","","","html-keyboard-response","39","151133","0.0-39.0","788C0AAC8A924E98B0667144DE400B05","019ce7a9-df25-748c-b63f-bf178d48df3f","019ce7a0-0965-7aa7-a556-174d32a8e773","","null","
                    <div class=""stimulus-container"">
                        <img src=""images/causal_sequence/saving_a_cat_causal/saving_a_cat_causal_3.png"" class=""exp-image"">
                        <div class=""question-area""></div> 
                    </div>","null","","","","","","",""
"","","","","","html-button-response","40","151974","0.0-40.0","788C0AAC8A924E98B0667144DE400B05","019ce7a9-df25-748c-b63f-bf178d48df3f","019ce7a0-0965-7aa7-a556-174d32a8e773","","840","
                    <div class=""stimulus-container"">
                        <img src=""images/causal_sequence/saving_a_cat_causal/saving_a_cat_causal_3.png"" class=""exp-image"">
                        <div class=""question-area"">
                            <p style=""font-size: 20px; font-weight: bold; margin: 0;"">Is there a person in this image?</p>
                        </div>
                    </div>","1","main_causal_task","3","saving_a_cat_causal","","","",""
"","","","","","html-keyboard-response","41","156979","0.0-41.0","788C0AAC8A924E98B0667144DE400B05","019ce7a9-df25-748c-b63f-bf178d48df3f","019ce7a0-0965-7aa7-a556-174d32a8e773","","null","
                    <div class=""stimulus-container"">
                        <img src=""images/causal_sequence/saving_a_cat_causal/saving_a_cat_causal_4.png"" class=""exp-image"">
                        <div class=""question-area""></div> 
                    </div>","null","","","","","","",""
"","","","","","html-button-response","42","157820","0.0-42.0","788C0AAC8A924E98B0667144DE400B05","019ce7a9-df25-748c-b63f-bf178d48df3f","019ce7a0-0965-7aa7-a556-174d32a8e773","","839","
                    <div class=""stimulus-container"">
                        <img src=""images/causal_sequence/saving_a_cat_causal/saving_a_cat_causal_4.png"" class=""exp-image"">
                        <div class=""question-area"">
                            <p style=""font-size: 20px; font-weight: bold; margin: 0;"">Is there a person in this image?</p>
                        </div>
                    </div>","0","main_causal_task","4","saving_a_cat_causal","","","",""
"","","","","","html-keyboard-response","43","162828","0.0-43.0","788C0AAC8A924E98B0667144DE400B05","019ce7a9-df25-748c-b63f-bf178d48df3f","019ce7a0-0965-7aa7-a556-174d32a8e773","","null","
                    <div class=""stimulus-container"">
                        <img src=""images/causal_sequence/saving_a_cat_causal/saving_a_cat_causal_5.png"" class=""exp-image"">
                        <div class=""question-area""></div> 
                    </div>","null","","","","","","",""
"","","","","","html-button-response","44","164472","0.0-44.0","788C0AAC8A924E98B0667144DE400B05","019ce7a9-df25-748c-b63f-bf178d48df3f","019ce7a0-0965-7aa7-a556-174d32a8e773","","1644","
                    <div class=""stimulus-container"">
                        <img src=""images/causal_sequence/saving_a_cat_causal/saving_a_cat_causal_5.png"" class=""exp-image"">
                        <div class=""question-area"">
                            <p style=""font-size: 20px; font-weight: bold; margin: 0;"">Is there a person in this image?</p>
                        </div>
                    </div>","0","main_causal_task","5","saving_a_cat_causal","","","",""
"","","","","","html-keyboard-response","45","169479","0.0-45.0","788C0AAC8A924E98B0667144DE400B05","019ce7a9-df25-748c-b63f-bf178d48df3f","019ce7a0-0965-7aa7-a556-174d32a8e773","","null","
                    <div class=""stimulus-container"">
                        <img src=""images/causal_sequence/saving_a_cat_causal/saving_a_cat_causal_6.png"" class=""exp-image"">
                        <div class=""question-area""></div> 
                    </div>","null","","","","","","",""
"","","","","","html-button-response","46","170032","0.0-46.0","788C0AAC8A924E98B0667144DE400B05","019ce7a9-df25-748c-b63f-bf178d48df3f","019ce7a0-0965-7aa7-a556-174d32a8e773","","552","
                    <div class=""stimulus-container"">
                        <img src=""images/causal_sequence/saving_a_cat_causal/saving_a_cat_causal_6.png"" class=""exp-image"">
                        <div class=""question-area"">
                            <p style=""font-size: 20px; font-weight: bold; margin: 0;"">Is there a person in this image?</p>
                        </div>
                    </div>","0","main_causal_task","6","saving_a_cat_causal","","","",""
"","","","","","html-keyboard-response","47","175034","0.0-47.0","788C0AAC8A924E98B0667144DE400B05","019ce7a9-df25-748c-b63f-bf178d48df3f","019ce7a0-0965-7aa7-a556-174d32a8e773","","null","
                    <div class=""stimulus-container"">
                        <img src=""images/causal_sequence/saving_a_cat_causal/saving_a_cat_causal_7.png"" class=""exp-image"">
                        <div class=""question-area""></div> 
                    </div>","null","","","","","","",""
"","","","","","html-button-response","48","175558","0.0-48.0","788C0AAC8A924E98B0667144DE400B05","019ce7a9-df25-748c-b63f-bf178d48df3f","019ce7a0-0965-7aa7-a556-174d32a8e773","","523","
                    <div class=""stimulus-container"">
                        <img src=""images/causal_sequence/saving_a_cat_causal/saving_a_cat_causal_7.png"" class=""exp-image"">
                        <div class=""question-area"">
                            <p style=""font-size: 20px; font-weight: bold; margin: 0;"">Is there a person in this image?</p>
                        </div>
                    </div>","0","main_causal_task","7","saving_a_cat_causal","","","",""
"","","","","","html-keyboard-response","49","180566","0.0-49.0","788C0AAC8A924E98B0667144DE400B05","019ce7a9-df25-748c-b63f-bf178d48df3f","019ce7a0-0965-7aa7-a556-174d32a8e773","","null","
                    <div class=""stimulus-container"">
                        <img src=""images/causal_sequence/saving_a_cat_causal/saving_a_cat_causal_8.png"" class=""exp-image"">
                        <div class=""question-area""></div> 
                    </div>","null","","","","","","",""
"","","","","","html-button-response","50","181080","0.0-50.0","788C0AAC8A924E98B0667144DE400B05","019ce7a9-df25-748c-b63f-bf178d48df3f","019ce7a0-0965-7aa7-a556-174d32a8e773","","513","
                    <div class=""stimulus-container"">
                        <img src=""images/causal_sequence/saving_a_cat_causal/saving_a_cat_causal_8.png"" class=""exp-image"">
                        <div class=""question-area"">
                            <p style=""font-size: 20px; font-weight: bold; margin: 0;"">Is there a person in this image?</p>
                        </div>
                    </div>","0","main_causal_task","8","saving_a_cat_causal","","","",""
"","","","","","html-keyboard-response","51","186082","0.0-51.0","788C0AAC8A924E98B0667144DE400B05","019ce7a9-df25-748c-b63f-bf178d48df3f","019ce7a0-0965-7aa7-a556-174d32a8e773","","null","
                    <div class=""stimulus-container"">
                        <img src=""images/causal_sequence/saving_a_cat_causal/saving_a_cat_causal_9.png"" class=""exp-image"">
                        <div class=""question-area""></div> 
                    </div>","null","","","","","","",""
"","","","","","html-button-response","52","186566","0.0-52.0","788C0AAC8A924E98B0667144DE400B05","019ce7a9-df25-748c-b63f-bf178d48df3f","019ce7a0-0965-7aa7-a556-174d32a8e773","","483","
                    <div class=""stimulus-container"">
                        <img src=""images/causal_sequence/saving_a_cat_causal/saving_a_cat_causal_9.png"" class=""exp-image"">
                        <div class=""question-area"">
                            <p style=""font-size: 20px; font-weight: bold; margin: 0;"">Is there a person in this image?</p>
                        </div>
                    </div>","0","main_causal_task","9","saving_a_cat_causal","","","",""
"","","","","","html-keyboard-response","53","187576","0.0-53.0","788C0AAC8A924E98B0667144DE400B05","019ce7a9-df25-748c-b63f-bf178d48df3f","019ce7a0-0965-7aa7-a556-174d32a8e773","","null","<div style=""background-color: gray; width: 100vw; height: 100vh;""></div>","null","","","","","","",""
"","","","","","html-keyboard-response","54","192593","0.0-54.0","788C0AAC8A924E98B0667144DE400B05","019ce7a9-df25-748c-b63f-bf178d48df3f","019ce7a0-0965-7aa7-a556-174d32a8e773","","null","
                    <div class=""stimulus-container"">
                        <img src=""images/causal_sequence/dog_causal/dog_causal_1.png"" class=""exp-image"">
                        <div class=""question-area""></div> 
                    </div>","null","","","","","","",""
"","","","","","html-button-response","55","193234","0.0-55.0","788C0AAC8A924E98B0667144DE400B05","019ce7a9-df25-748c-b63f-bf178d48df3f","019ce7a0-0965-7aa7-a556-174d32a8e773","","640","
                    <div class=""stimulus-container"">
                        <img src=""images/causal_sequence/dog_causal/dog_causal_1.png"" class=""exp-image"">
                        <div class=""question-area"">
                            <p style=""font-size: 20px; font-weight: bold; margin: 0;"">Is there a person in this image?</p>
                        </div>
                    </div>","0","main_causal_task","1","dog_causal","","","",""
"","","","","","html-keyboard-response","56","198249","0.0-56.0","788C0AAC8A924E98B0667144DE400B05","019ce7a9-df25-748c-b63f-bf178d48df3f","019ce7a0-0965-7aa7-a556-174d32a8e773","","null","
                    <div class=""stimulus-container"">
                        <img src=""images/causal_sequence/dog_causal/dog_causal_2.png"" class=""exp-image"">
                        <div class=""question-area""></div> 
                    </div>","null","","","","","","",""
"","","","","","html-button-response","57","198789","0.0-57.0","788C0AAC8A924E98B0667144DE400B05","019ce7a9-df25-748c-b63f-bf178d48df3f","019ce7a0-0965-7aa7-a556-174d32a8e773","","538","
                    <div class=""stimulus-container"">
                        <img src=""images/causal_sequence/dog_causal/dog_causal_2.png"" class=""exp-image"">
                        <div class=""question-area"">
                            <p style=""font-size: 20px; font-weight: bold; margin: 0;"">Is there a person in this image?</p>
                        </div>
                    </div>","0","main_causal_task","2","dog_causal","","","",""
"","","","","","html-keyboard-response","58","203793","0.0-58.0","788C0AAC8A924E98B0667144DE400B05","019ce7a9-df25-748c-b63f-bf178d48df3f","019ce7a0-0965-7aa7-a556-174d32a8e773","","null","
                    <div class=""stimulus-container"">
                        <img src=""images/causal_sequence/dog_causal/dog_causal_3.png"" class=""exp-image"">
                        <div class=""question-area""></div> 
                    </div>","null","","","","","","",""
"","","","","","html-button-response","59","204252","0.0-59.0","788C0AAC8A924E98B0667144DE400B05","019ce7a9-df25-748c-b63f-bf178d48df3f","019ce7a0-0965-7aa7-a556-174d32a8e773","","458","
                    <div class=""stimulus-container"">
                        <img src=""images/causal_sequence/dog_causal/dog_causal_3.png"" class=""exp-image"">
                        <div class=""question-area"">
                            <p style=""font-size: 20px; font-weight: bold; margin: 0;"">Is there a person in this image?</p>
                        </div>
                    </div>","0","main_causal_task","3","dog_causal","","","",""
"","","","","","html-keyboard-response","60","209260","0.0-60.0","788C0AAC8A924E98B0667144DE400B05","019ce7a9-df25-748c-b63f-bf178d48df3f","019ce7a0-0965-7aa7-a556-174d32a8e773","","null","
                    <div class=""stimulus-container"">
                        <img src=""images/causal_sequence/dog_causal/dog_causal_4.png"" class=""exp-image"">
                        <div class=""question-area""></div> 
                    </div>","null","","","","","","",""
"","","","","","html-button-response","61","209836","0.0-61.0","788C0AAC8A924E98B0667144DE400B05","019ce7a9-df25-748c-b63f-bf178d48df3f","019ce7a0-0965-7aa7-a556-174d32a8e773","","575","
                    <div class=""stimulus-container"">
                        <img src=""images/causal_sequence/dog_causal/dog_causal_4.png"" class=""exp-image"">
                        <div class=""question-area"">
                            <p style=""font-size: 20px; font-weight: bold; margin: 0;"">Is there a person in this image?</p>
                        </div>
                    </div>","0","main_causal_task","4","dog_causal","","","",""
"","","","","","html-keyboard-response","62","214849","0.0-62.0","788C0AAC8A924E98B0667144DE400B05","019ce7a9-df25-748c-b63f-bf178d48df3f","019ce7a0-0965-7aa7-a556-174d32a8e773","","null","
                    <div class=""stimulus-container"">
                        <img src=""images/causal_sequence/dog_causal/dog_causal_5.png"" class=""exp-image"">
                        <div class=""question-area""></div> 
                    </div>","null","","","","","","",""
"","","","","","html-button-response","63","215320","0.0-63.0","788C0AAC8A924E98B0667144DE400B05","019ce7a9-df25-748c-b63f-bf178d48df3f","019ce7a0-0965-7aa7-a556-174d32a8e773","","470","
                    <div class=""stimulus-container"">
                        <img src=""images/causal_sequence/dog_causal/dog_causal_5.png"" class=""exp-image"">
                        <div class=""question-area"">
                            <p style=""font-size: 20px; font-weight: bold; margin: 0;"">Is there a person in this image?</p>
                        </div>
                    </div>","0","main_causal_task","5","dog_causal","","","",""
"","","","","","html-keyboard-response","64","220330","0.0-64.0","788C0AAC8A924E98B0667144DE400B05","019ce7a9-df25-748c-b63f-bf178d48df3f","019ce7a0-0965-7aa7-a556-174d32a8e773","","null","
                    <div class=""stimulus-container"">
                        <img src=""images/causal_sequence/dog_causal/dog_causal_6.png"" class=""exp-image"">
                        <div class=""question-area""></div> 
                    </div>","null","","","","","","",""
"","","","","","html-button-response","65","220876","0.0-65.0","788C0AAC8A924E98B0667144DE400B05","019ce7a9-df25-748c-b63f-bf178d48df3f","019ce7a0-0965-7aa7-a556-174d32a8e773","","545","
                    <div class=""stimulus-container"">
                        <img src=""images/causal_sequence/dog_causal/dog_causal_6.png"" class=""exp-image"">
                        <div class=""question-area"">
                            <p style=""font-size: 20px; font-weight: bold; margin: 0;"">Is there a person in this image?</p>
                        </div>
                    </div>","0","main_causal_task","6","dog_causal","","","",""
"","","","","","html-keyboard-response","66","225881","0.0-66.0","788C0AAC8A924E98B0667144DE400B05","019ce7a9-df25-748c-b63f-bf178d48df3f","019ce7a0-0965-7aa7-a556-174d32a8e773","","null","
                    <div class=""stimulus-container"">
                        <img src=""images/causal_sequence/dog_causal/dog_causal_7.png"" class=""exp-image"">
                        <div class=""question-area""></div> 
                    </div>","null","","","","","","",""
"","","","","","html-button-response","67","226401","0.0-67.0","788C0AAC8A924E98B0667144DE400B05","019ce7a9-df25-748c-b63f-bf178d48df3f","019ce7a0-0965-7aa7-a556-174d32a8e773","","520","
                    <div class=""stimulus-container"">
                        <img src=""images/causal_sequence/dog_causal/dog_causal_7.png"" class=""exp-image"">
                        <div class=""question-area"">
                            <p style=""font-size: 20px; font-weight: bold; margin: 0;"">Is there a person in this image?</p>
                        </div>
                    </div>","0","main_causal_task","7","dog_causal","","","",""
"","","","","","html-keyboard-response","68","231412","0.0-68.0","788C0AAC8A924E98B0667144DE400B05","019ce7a9-df25-748c-b63f-bf178d48df3f","019ce7a0-0965-7aa7-a556-174d32a8e773","","null","
                    <div class=""stimulus-container"">
                        <img src=""images/causal_sequence/dog_causal/dog_causal_8.png"" class=""exp-image"">
                        <div class=""question-area""></div> 
                    </div>","null","","","","","","",""
"","","","","","html-button-response","69","231965","0.0-69.0","788C0AAC8A924E98B0667144DE400B05","019ce7a9-df25-748c-b63f-bf178d48df3f","019ce7a0-0965-7aa7-a556-174d32a8e773","","553","
                    <div class=""stimulus-container"">
                        <img src=""images/causal_sequence/dog_causal/dog_causal_8.png"" class=""exp-image"">
                        <div class=""question-area"">
                            <p style=""font-size: 20px; font-weight: bold; margin: 0;"">Is there a person in this image?</p>
                        </div>
                    </div>","0","main_causal_task","8","dog_causal","","","",""
"","","","","","html-keyboard-response","70","236981","0.0-70.0","788C0AAC8A924E98B0667144DE400B05","019ce7a9-df25-748c-b63f-bf178d48df3f","019ce7a0-0965-7aa7-a556-174d32a8e773","","null","
                    <div class=""stimulus-container"">
                        <img src=""images/causal_sequence/dog_causal/dog_causal_9.png"" class=""exp-image"">
                        <div class=""question-area""></div> 
                    </div>","null","","","","","","",""
"","","","","","html-button-response","71","237670","0.0-71.0","788C0AAC8A924E98B0667144DE400B05","019ce7a9-df25-748c-b63f-bf178d48df3f","019ce7a0-0965-7aa7-a556-174d32a8e773","","688","
                    <div class=""stimulus-container"">
                        <img src=""images/causal_sequence/dog_causal/dog_causal_9.png"" class=""exp-image"">
                        <div class=""question-area"">
                            <p style=""font-size: 20px; font-weight: bold; margin: 0;"">Is there a person in this image?</p>
                        </div>
                    </div>","0","main_causal_task","9","dog_causal","","","",""
"","","","","","html-keyboard-response","72","238675","0.0-72.0","788C0AAC8A924E98B0667144DE400B05","019ce7a9-df25-748c-b63f-bf178d48df3f","019ce7a0-0965-7aa7-a556-174d32a8e773","","null","<div style=""background-color: gray; width: 100vw; height: 100vh;""></div>","null","","","","","","",""
"","","","","","html-keyboard-response","73","243680","0.0-73.0","788C0AAC8A924E98B0667144DE400B05","019ce7a9-df25-748c-b63f-bf178d48df3f","019ce7a0-0965-7aa7-a556-174d32a8e773","","null","
                    <div class=""stimulus-container"">
                        <img src=""images/causal_sequence/museum_causal/museum_causal_1.png"" class=""exp-image"">
                        <div class=""question-area""></div> 
                    </div>","null","","","","","","",""
"","","","","","html-button-response","74","244304","0.0-74.0","788C0AAC8A924E98B0667144DE400B05","019ce7a9-df25-748c-b63f-bf178d48df3f","019ce7a0-0965-7aa7-a556-174d32a8e773","","623","
                    <div class=""stimulus-container"">
                        <img src=""images/causal_sequence/museum_causal/museum_causal_1.png"" class=""exp-image"">
                        <div class=""question-area"">
                            <p style=""font-size: 20px; font-weight: bold; margin: 0;"">Is there a person in this image?</p>
                        </div>
                    </div>","0","main_causal_task","1","museum_causal","","","",""
"","","","","","html-keyboard-response","75","249305","0.0-75.0","788C0AAC8A924E98B0667144DE400B05","019ce7a9-df25-748c-b63f-bf178d48df3f","019ce7a0-0965-7aa7-a556-174d32a8e773","","null","
                    <div class=""stimulus-container"">
                        <img src=""images/causal_sequence/museum_causal/museum_causal_2.png"" class=""exp-image"">
                        <div class=""question-area""></div> 
                    </div>","null","","","","","","",""
"","","","","","html-button-response","76","250326","0.0-76.0","788C0AAC8A924E98B0667144DE400B05","019ce7a9-df25-748c-b63f-bf178d48df3f","019ce7a0-0965-7aa7-a556-174d32a8e773","","1020","
                    <div class=""stimulus-container"">
                        <img src=""images/causal_sequence/museum_causal/museum_causal_2.png"" class=""exp-image"">
                        <div class=""question-area"">
                            <p style=""font-size: 20px; font-weight: bold; margin: 0;"">Is there a person in this image?</p>
                        </div>
                    </div>","0","main_causal_task","2","museum_causal","","","",""
"","","","","","html-keyboard-response","77","255329","0.0-77.0","788C0AAC8A924E98B0667144DE400B05","019ce7a9-df25-748c-b63f-bf178d48df3f","019ce7a0-0965-7aa7-a556-174d32a8e773","","null","
                    <div class=""stimulus-container"">
                        <img src=""images/causal_sequence/museum_causal/museum_causal_3.png"" class=""exp-image"">
                        <div class=""question-area""></div> 
                    </div>","null","","","","","","",""
"","","","","","html-button-response","78","256653","0.0-78.0","788C0AAC8A924E98B0667144DE400B05","019ce7a9-df25-748c-b63f-bf178d48df3f","019ce7a0-0965-7aa7-a556-174d32a8e773","","1323","
                    <div class=""stimulus-container"">
                        <img src=""images/causal_sequence/museum_causal/museum_causal_3.png"" class=""exp-image"">
                        <div class=""question-area"">
                            <p style=""font-size: 20px; font-weight: bold; margin: 0;"">Is there a person in this image?</p>
                        </div>
                    </div>","0","main_causal_task","3","museum_causal","","","",""
"","","","","","html-keyboard-response","79","261661","0.0-79.0","788C0AAC8A924E98B0667144DE400B05","019ce7a9-df25-748c-b63f-bf178d48df3f","019ce7a0-0965-7aa7-a556-174d32a8e773","","null","
                    <div class=""stimulus-container"">
                        <img src=""images/causal_sequence/museum_causal/museum_causal_4.png"" class=""exp-image"">
                        <div class=""question-area""></div> 
                    </div>","null","","","","","","",""
"","","","","","html-button-response","80","262744","0.0-80.0","788C0AAC8A924E98B0667144DE400B05","019ce7a9-df25-748c-b63f-bf178d48df3f","019ce7a0-0965-7aa7-a556-174d32a8e773","","1081","
                    <div class=""stimulus-container"">
                        <img src=""images/causal_sequence/museum_causal/museum_causal_4.png"" class=""exp-image"">
                        <div class=""question-area"">
                            <p style=""font-size: 20px; font-weight: bold; margin: 0;"">Is there a person in this image?</p>
                        </div>
                    </div>","1","main_causal_task","4","museum_causal","","","",""
"","","","","","html-keyboard-response","81","267755","0.0-81.0","788C0AAC8A924E98B0667144DE400B05","019ce7a9-df25-748c-b63f-bf178d48df3f","019ce7a0-0965-7aa7-a556-174d32a8e773","","null","
                    <div class=""stimulus-container"">
                        <img src=""images/causal_sequence/museum_causal/museum_causal_5.png"" class=""exp-image"">
                        <div class=""question-area""></div> 
                    </div>","null","","","","","","",""
"","","","","","html-button-response","82","268566","0.0-82.0","788C0AAC8A924E98B0667144DE400B05","019ce7a9-df25-748c-b63f-bf178d48df3f","019ce7a0-0965-7aa7-a556-174d32a8e773","","810","
                    <div class=""stimulus-container"">
                        <img src=""images/causal_sequence/museum_causal/museum_causal_5.png"" class=""exp-image"">
                        <div class=""question-area"">
                            <p style=""font-size: 20px; font-weight: bold; margin: 0;"">Is there a person in this image?</p>
                        </div>
                    </div>","0","main_causal_task","5","museum_causal","","","",""
"","","","","","html-keyboard-response","83","273579","0.0-83.0","788C0AAC8A924E98B0667144DE400B05","019ce7a9-df25-748c-b63f-bf178d48df3f","019ce7a0-0965-7aa7-a556-174d32a8e773","","null","
                    <div class=""stimulus-container"">
                        <img src=""images/causal_sequence/museum_causal/museum_causal_6.png"" class=""exp-image"">
                        <div class=""question-area""></div> 
                    </div>","null","","","","","","",""
"","","","","","html-button-response","84","274242","0.0-84.0","788C0AAC8A924E98B0667144DE400B05","019ce7a9-df25-748c-b63f-bf178d48df3f","019ce7a0-0965-7aa7-a556-174d32a8e773","","662","
                    <div class=""stimulus-container"">
                        <img src=""images/causal_sequence/museum_causal/museum_causal_6.png"" class=""exp-image"">
                        <div class=""question-area"">
                            <p style=""font-size: 20px; font-weight: bold; margin: 0;"">Is there a person in this image?</p>
                        </div>
                    </div>","0","main_causal_task","6","museum_causal","","","",""
"","","","","","html-keyboard-response","85","279247","0.0-85.0","788C0AAC8A924E98B0667144DE400B05","019ce7a9-df25-748c-b63f-bf178d48df3f","019ce7a0-0965-7aa7-a556-174d32a8e773","","null","
                    <div class=""stimulus-container"">
                        <img src=""images/causal_sequence/museum_causal/museum_causal_7.png"" class=""exp-image"">
                        <div class=""question-area""></div> 
                    </div>","null","","","","","","",""
"","","","","","html-button-response","86","279936","0.0-86.0","788C0AAC8A924E98B0667144DE400B05","019ce7a9-df25-748c-b63f-bf178d48df3f","019ce7a0-0965-7aa7-a556-174d32a8e773","","688","
                    <div class=""stimulus-container"">
                        <img src=""images/causal_sequence/museum_causal/museum_causal_7.png"" class=""exp-image"">
                        <div class=""question-area"">
                            <p style=""font-size: 20px; font-weight: bold; margin: 0;"">Is there a person in this image?</p>
                        </div>
                    </div>","1","main_causal_task","7","museum_causal","","","",""
"","","","","","html-keyboard-response","87","284949","0.0-87.0","788C0AAC8A924E98B0667144DE400B05","019ce7a9-df25-748c-b63f-bf178d48df3f","019ce7a0-0965-7aa7-a556-174d32a8e773","","null","
                    <div class=""stimulus-container"">
                        <img src=""images/causal_sequence/museum_causal/museum_causal_8.png"" class=""exp-image"">
                        <div class=""question-area""></div> 
                    </div>","null","","","","","","",""
"","","","","","html-button-response","88","285426","0.0-88.0","788C0AAC8A924E98B0667144DE400B05","019ce7a9-df25-748c-b63f-bf178d48df3f","019ce7a0-0965-7aa7-a556-174d32a8e773","","476","
                    <div class=""stimulus-container"">
                        <img src=""images/causal_sequence/museum_causal/museum_causal_8.png"" class=""exp-image"">
                        <div class=""question-area"">
                            <p style=""font-size: 20px; font-weight: bold; margin: 0;"">Is there a person in this image?</p>
                        </div>
                    </div>","0","main_causal_task","8","museum_causal","","","",""
"","","","","","html-keyboard-response","89","290435","0.0-89.0","788C0AAC8A924E98B0667144DE400B05","019ce7a9-df25-748c-b63f-bf178d48df3f","019ce7a0-0965-7aa7-a556-174d32a8e773","","null","
                    <div class=""stimulus-container"">
                        <img src=""images/causal_sequence/museum_causal/museum_causal_9.png"" class=""exp-image"">
                        <div class=""question-area""></div> 
                    </div>","null","","","","","","",""
"","","","","","html-button-response","90","291302","0.0-90.0","788C0AAC8A924E98B0667144DE400B05","019ce7a9-df25-748c-b63f-bf178d48df3f","019ce7a0-0965-7aa7-a556-174d32a8e773","","867","
                    <div class=""stimulus-container"">
                        <img src=""images/causal_sequence/museum_causal/museum_causal_9.png"" class=""exp-image"">
                        <div class=""question-area"">
                            <p style=""font-size: 20px; font-weight: bold; margin: 0;"">Is there a person in this image?</p>
                        </div>
                    </div>","1","main_causal_task","9","museum_causal","","","",""
"","","","","","html-keyboard-response","91","292312","0.0-91.0","788C0AAC8A924E98B0667144DE400B05","019ce7a9-df25-748c-b63f-bf178d48df3f","019ce7a0-0965-7aa7-a556-174d32a8e773","","null","<div style=""background-color: gray; width: 100vw; height: 100vh;""></div>","null","","","","","","",""
"","","","","","html-keyboard-response","92","297315","0.0-92.0","788C0AAC8A924E98B0667144DE400B05","019ce7a9-df25-748c-b63f-bf178d48df3f","019ce7a0-0965-7aa7-a556-174d32a8e773","","null","
                    <div class=""stimulus-container"">
                        <img src=""images/causal_sequence/the_performance_causal/the_performance_causal_1.png"" class=""exp-image"">
                        <div class=""question-area""></div> 
                    </div>","null","","","","","","",""
"","","","","","html-button-response","93","298049","0.0-93.0","788C0AAC8A924E98B0667144DE400B05","019ce7a9-df25-748c-b63f-bf178d48df3f","019ce7a0-0965-7aa7-a556-174d32a8e773","","734","
                    <div class=""stimulus-container"">
                        <img src=""images/causal_sequence/the_performance_causal/the_performance_causal_1.png"" class=""exp-image"">
                        <div class=""question-area"">
                            <p style=""font-size: 20px; font-weight: bold; margin: 0;"">Is there a person in this image?</p>
                        </div>
                    </div>","0","main_causal_task","1","the_performance_causal","","","",""
"","","","","","html-keyboard-response","94","303051","0.0-94.0","788C0AAC8A924E98B0667144DE400B05","019ce7a9-df25-748c-b63f-bf178d48df3f","019ce7a0-0965-7aa7-a556-174d32a8e773","","null","
                    <div class=""stimulus-container"">
                        <img src=""images/causal_sequence/the_performance_causal/the_performance_causal_2.png"" class=""exp-image"">
                        <div class=""question-area""></div> 
                    </div>","null","","","","","","",""
"","","","","","html-button-response","95","303610","0.0-95.0","788C0AAC8A924E98B0667144DE400B05","019ce7a9-df25-748c-b63f-bf178d48df3f","019ce7a0-0965-7aa7-a556-174d32a8e773","","558","
                    <div class=""stimulus-container"">
                        <img src=""images/causal_sequence/the_performance_causal/the_performance_causal_2.png"" class=""exp-image"">
                        <div class=""question-area"">
                            <p style=""font-size: 20px; font-weight: bold; margin: 0;"">Is there a person in this image?</p>
                        </div>
                    </div>","0","main_causal_task","2","the_performance_causal","","","",""
"","","","","","html-keyboard-response","96","308625","0.0-96.0","788C0AAC8A924E98B0667144DE400B05","019ce7a9-df25-748c-b63f-bf178d48df3f","019ce7a0-0965-7aa7-a556-174d32a8e773","","null","
                    <div class=""stimulus-container"">
                        <img src=""images/causal_sequence/the_performance_causal/the_performance_causal_3.png"" class=""exp-image"">
                        <div class=""question-area""></div> 
                    </div>","null","","","","","","",""
"","","","","","html-button-response","97","309650","0.0-97.0","788C0AAC8A924E98B0667144DE400B05","019ce7a9-df25-748c-b63f-bf178d48df3f","019ce7a0-0965-7aa7-a556-174d32a8e773","","1025","
                    <div class=""stimulus-container"">
                        <img src=""images/causal_sequence/the_performance_causal/the_performance_causal_3.png"" class=""exp-image"">
                        <div class=""question-area"">
                            <p style=""font-size: 20px; font-weight: bold; margin: 0;"">Is there a person in this image?</p>
                        </div>
                    </div>","0","main_causal_task","3","the_performance_causal","","","",""
"","","","","","html-keyboard-response","98","314663","0.0-98.0","788C0AAC8A924E98B0667144DE400B05","019ce7a9-df25-748c-b63f-bf178d48df3f","019ce7a0-0965-7aa7-a556-174d32a8e773","","null","
                    <div class=""stimulus-container"">
                        <img src=""images/causal_sequence/the_performance_causal/the_performance_causal_4.png"" class=""exp-image"">
                        <div class=""question-area""></div> 
                    </div>","null","","","","","","",""
"","","","","","html-button-response","99","315777","0.0-99.0","788C0AAC8A924E98B0667144DE400B05","019ce7a9-df25-748c-b63f-bf178d48df3f","019ce7a0-0965-7aa7-a556-174d32a8e773","","1113","
                    <div class=""stimulus-container"">
                        <img src=""images/causal_sequence/the_performance_causal/the_performance_causal_4.png"" class=""exp-image"">
                        <div class=""question-area"">
                            <p style=""font-size: 20px; font-weight: bold; margin: 0;"">Is there a person in this image?</p>
                        </div>
                    </div>","0","main_causal_task","4","the_performance_causal","","","",""
"","","","","","html-keyboard-response","100","320790","0.0-100.0","788C0AAC8A924E98B0667144DE400B05","019ce7a9-df25-748c-b63f-bf178d48df3f","019ce7a0-0965-7aa7-a556-174d32a8e773","","null","
                    <div class=""stimulus-container"">
                        <img src=""images/causal_sequence/the_performance_causal/the_performance_causal_5.png"" class=""exp-image"">
                        <div class=""question-area""></div> 
                    </div>","null","","","","","","",""
"","","","","","html-button-response","101","321768","0.0-101.0","788C0AAC8A924E98B0667144DE400B05","019ce7a9-df25-748c-b63f-bf178d48df3f","019ce7a0-0965-7aa7-a556-174d32a8e773","","977","
                    <div class=""stimulus-container"">
                        <img src=""images/causal_sequence/the_performance_causal/the_performance_causal_5.png"" class=""exp-image"">
                        <div class=""question-area"">
                            <p style=""font-size: 20px; font-weight: bold; margin: 0;"">Is there a person in this image?</p>
                        </div>
                    </div>","0","main_causal_task","5","the_performance_causal","","","",""
"","","","","","html-keyboard-response","102","326782","0.0-102.0","788C0AAC8A924E98B0667144DE400B05","019ce7a9-df25-748c-b63f-bf178d48df3f","019ce7a0-0965-7aa7-a556-174d32a8e773","","null","
                    <div class=""stimulus-container"">
                        <img src=""images/causal_sequence/the_performance_causal/the_performance_causal_6.png"" class=""exp-image"">
                        <div class=""question-area""></div> 
                    </div>","null","","","","","","",""
"","","","","","html-button-response","103","328192","0.0-103.0","788C0AAC8A924E98B0667144DE400B05","019ce7a9-df25-748c-b63f-bf178d48df3f","019ce7a0-0965-7aa7-a556-174d32a8e773","","1409","
                    <div class=""stimulus-container"">
                        <img src=""images/causal_sequence/the_performance_causal/the_performance_causal_6.png"" class=""exp-image"">
                        <div class=""question-area"">
                            <p style=""font-size: 20px; font-weight: bold; margin: 0;"">Is there a person in this image?</p>
                        </div>
                    </div>","0","main_causal_task","6","the_performance_causal","","","",""
"","","","","","html-keyboard-response","104","333203","0.0-104.0","788C0AAC8A924E98B0667144DE400B05","019ce7a9-df25-748c-b63f-bf178d48df3f","019ce7a0-0965-7aa7-a556-174d32a8e773","","null","
                    <div class=""stimulus-container"">
                        <img src=""images/causal_sequence/the_performance_causal/the_performance_causal_7.png"" class=""exp-image"">
                        <div class=""question-area""></div> 
                    </div>","null","","","","","","",""
"","","","","","html-button-response","105","333927","0.0-105.0","788C0AAC8A924E98B0667144DE400B05","019ce7a9-df25-748c-b63f-bf178d48df3f","019ce7a0-0965-7aa7-a556-174d32a8e773","","723","
                    <div class=""stimulus-container"">
                        <img src=""images/causal_sequence/the_performance_causal/the_performance_causal_7.png"" class=""exp-image"">
                        <div class=""question-area"">
                            <p style=""font-size: 20px; font-weight: bold; margin: 0;"">Is there a person in this image?</p>
                        </div>
                    </div>","0","main_causal_task","7","the_performance_causal","","","",""
"","","","","","html-keyboard-response","106","338934","0.0-106.0","788C0AAC8A924E98B0667144DE400B05","019ce7a9-df25-748c-b63f-bf178d48df3f","019ce7a0-0965-7aa7-a556-174d32a8e773","","null","
                    <div class=""stimulus-container"">
                        <img src=""images/causal_sequence/the_performance_causal/the_performance_causal_8.png"" class=""exp-image"">
                        <div class=""question-area""></div> 
                    </div>","null","","","","","","",""
"","","","","","html-button-response","107","339927","0.0-107.0","788C0AAC8A924E98B0667144DE400B05","019ce7a9-df25-748c-b63f-bf178d48df3f","019ce7a0-0965-7aa7-a556-174d32a8e773","","992","
                    <div class=""stimulus-container"">
                        <img src=""images/causal_sequence/the_performance_causal/the_performance_causal_8.png"" class=""exp-image"">
                        <div class=""question-area"">
                            <p style=""font-size: 20px; font-weight: bold; margin: 0;"">Is there a person in this image?</p>
                        </div>
                    </div>","0","main_causal_task","8","the_performance_causal","","","",""
"","","","","","html-keyboard-response","108","344938","0.0-108.0","788C0AAC8A924E98B0667144DE400B05","019ce7a9-df25-748c-b63f-bf178d48df3f","019ce7a0-0965-7aa7-a556-174d32a8e773","","null","
                    <div class=""stimulus-container"">
                        <img src=""images/causal_sequence/the_performance_causal/the_performance_causal_9.png"" class=""exp-image"">
                        <div class=""question-area""></div> 
                    </div>","null","","","","","","",""
"","","","","","html-button-response","109","346018","0.0-109.0","788C0AAC8A924E98B0667144DE400B05","019ce7a9-df25-748c-b63f-bf178d48df3f","019ce7a0-0965-7aa7-a556-174d32a8e773","","1079","
                    <div class=""stimulus-container"">
                        <img src=""images/causal_sequence/the_performance_causal/the_performance_causal_9.png"" class=""exp-image"">
                        <div class=""question-area"">
                            <p style=""font-size: 20px; font-weight: bold; margin: 0;"">Is there a person in this image?</p>
                        </div>
                    </div>","0","main_causal_task","9","the_performance_causal","","","",""
"","","","","","html-keyboard-response","110","347031","0.0-110.0","788C0AAC8A924E98B0667144DE400B05","019ce7a9-df25-748c-b63f-bf178d48df3f","019ce7a0-0965-7aa7-a556-174d32a8e773","","null","<div style=""background-color: gray; width: 100vw; height: 100vh;""></div>","null","","","","","","",""
"","","","","","html-keyboard-response","111","352035","0.0-111.0","788C0AAC8A924E98B0667144DE400B05","019ce7a9-df25-748c-b63f-bf178d48df3f","019ce7a0-0965-7aa7-a556-174d32a8e773","","null","
                    <div class=""stimulus-container"">
                        <img src=""images/causal_sequence/package_causal/package_causal_1.png"" class=""exp-image"">
                        <div class=""question-area""></div> 
                    </div>","null","","","","","","",""
"","","","","","html-button-response","112","352598","0.0-112.0","788C0AAC8A924E98B0667144DE400B05","019ce7a9-df25-748c-b63f-bf178d48df3f","019ce7a0-0965-7aa7-a556-174d32a8e773","","562","
                    <div class=""stimulus-container"">
                        <img src=""images/causal_sequence/package_causal/package_causal_1.png"" class=""exp-image"">
                        <div class=""question-area"">
                            <p style=""font-size: 20px; font-weight: bold; margin: 0;"">Is there a person in this image?</p>
                        </div>
                    </div>","0","main_causal_task","1","package_causal","","","",""
"","","","","","html-keyboard-response","113","357614","0.0-113.0","788C0AAC8A924E98B0667144DE400B05","019ce7a9-df25-748c-b63f-bf178d48df3f","019ce7a0-0965-7aa7-a556-174d32a8e773","","null","
                    <div class=""stimulus-container"">
                        <img src=""images/causal_sequence/package_causal/package_causal_2.png"" class=""exp-image"">
                        <div class=""question-area""></div> 
                    </div>","null","","","","","","",""
"","","","","","html-button-response","114","358154","0.0-114.0","788C0AAC8A924E98B0667144DE400B05","019ce7a9-df25-748c-b63f-bf178d48df3f","019ce7a0-0965-7aa7-a556-174d32a8e773","","539","
                    <div class=""stimulus-container"">
                        <img src=""images/causal_sequence/package_causal/package_causal_2.png"" class=""exp-image"">
                        <div class=""question-area"">
                            <p style=""font-size: 20px; font-weight: bold; margin: 0;"">Is there a person in this image?</p>
                        </div>
                    </div>","0","main_causal_task","2","package_causal","","","",""
"","","","","","html-keyboard-response","115","363162","0.0-115.0","788C0AAC8A924E98B0667144DE400B05","019ce7a9-df25-748c-b63f-bf178d48df3f","019ce7a0-0965-7aa7-a556-174d32a8e773","","null","
                    <div class=""stimulus-container"">
                        <img src=""images/causal_sequence/package_causal/package_causal_3.png"" class=""exp-image"">
                        <div class=""question-area""></div> 
                    </div>","null","","","","","","",""
"","","","","","html-button-response","116","363960","0.0-116.0","788C0AAC8A924E98B0667144DE400B05","019ce7a9-df25-748c-b63f-bf178d48df3f","019ce7a0-0965-7aa7-a556-174d32a8e773","","797","
                    <div class=""stimulus-container"">
                        <img src=""images/causal_sequence/package_causal/package_causal_3.png"" class=""exp-image"">
                        <div class=""question-area"">
                            <p style=""font-size: 20px; font-weight: bold; margin: 0;"">Is there a person in this image?</p>
                        </div>
                    </div>","0","main_causal_task","3","package_causal","","","",""
"","","","","","html-keyboard-response","117","368966","0.0-117.0","788C0AAC8A924E98B0667144DE400B05","019ce7a9-df25-748c-b63f-bf178d48df3f","019ce7a0-0965-7aa7-a556-174d32a8e773","","null","
                    <div class=""stimulus-container"">
                        <img src=""images/causal_sequence/package_causal/package_causal_4.png"" class=""exp-image"">
                        <div class=""question-area""></div> 
                    </div>","null","","","","","","",""
"","","","","","html-button-response","118","370458","0.0-118.0","788C0AAC8A924E98B0667144DE400B05","019ce7a9-df25-748c-b63f-bf178d48df3f","019ce7a0-0965-7aa7-a556-174d32a8e773","","1491","
                    <div class=""stimulus-container"">
                        <img src=""images/causal_sequence/package_causal/package_causal_4.png"" class=""exp-image"">
                        <div class=""question-area"">
                            <p style=""font-size: 20px; font-weight: bold; margin: 0;"">Is there a person in this image?</p>
                        </div>
                    </div>","1","main_causal_task","4","package_causal","","","",""
"","","","","","html-keyboard-response","119","375468","0.0-119.0","788C0AAC8A924E98B0667144DE400B05","019ce7a9-df25-748c-b63f-bf178d48df3f","019ce7a0-0965-7aa7-a556-174d32a8e773","","null","
                    <div class=""stimulus-container"">
                        <img src=""images/causal_sequence/package_causal/package_causal_5.png"" class=""exp-image"">
                        <div class=""question-area""></div> 
                    </div>","null","","","","","","",""
"","","","","","html-button-response","120","376150","0.0-120.0","788C0AAC8A924E98B0667144DE400B05","019ce7a9-df25-748c-b63f-bf178d48df3f","019ce7a0-0965-7aa7-a556-174d32a8e773","","681","
                    <div class=""stimulus-container"">
                        <img src=""images/causal_sequence/package_causal/package_causal_5.png"" class=""exp-image"">
                        <div class=""question-area"">
                            <p style=""font-size: 20px; font-weight: bold; margin: 0;"">Is there a person in this image?</p>
                        </div>
                    </div>","0","main_causal_task","5","package_causal","","","",""
"","","","","","html-keyboard-response","121","381152","0.0-121.0","788C0AAC8A924E98B0667144DE400B05","019ce7a9-df25-748c-b63f-bf178d48df3f","019ce7a0-0965-7aa7-a556-174d32a8e773","","null","
                    <div class=""stimulus-container"">
                        <img src=""images/causal_sequence/package_causal/package_causal_6.png"" class=""exp-image"">
                        <div class=""question-area""></div> 
                    </div>","null","","","","","","",""
"","","","","","html-button-response","122","383446","0.0-122.0","788C0AAC8A924E98B0667144DE400B05","019ce7a9-df25-748c-b63f-bf178d48df3f","019ce7a0-0965-7aa7-a556-174d32a8e773","","2293","
                    <div class=""stimulus-container"">
                        <img src=""images/causal_sequence/package_causal/package_causal_6.png"" class=""exp-image"">
                        <div class=""question-area"">
                            <p style=""font-size: 20px; font-weight: bold; margin: 0;"">Is there a person in this image?</p>
                        </div>
                    </div>","0","main_causal_task","6","package_causal","","","",""
"","","","","","html-keyboard-response","123","388452","0.0-123.0","788C0AAC8A924E98B0667144DE400B05","019ce7a9-df25-748c-b63f-bf178d48df3f","019ce7a0-0965-7aa7-a556-174d32a8e773","","null","
                    <div class=""stimulus-container"">
                        <img src=""images/causal_sequence/package_causal/package_causal_7.png"" class=""exp-image"">
                        <div class=""question-area""></div> 
                    </div>","null","","","","","","",""
"","","","","","html-button-response","124","391444","0.0-124.0","788C0AAC8A924E98B0667144DE400B05","019ce7a9-df25-748c-b63f-bf178d48df3f","019ce7a0-0965-7aa7-a556-174d32a8e773","","2991","
                    <div class=""stimulus-container"">
                        <img src=""images/causal_sequence/package_causal/package_causal_7.png"" class=""exp-image"">
                        <div class=""question-area"">
                            <p style=""font-size: 20px; font-weight: bold; margin: 0;"">Is there a person in this image?</p>
                        </div>
                    </div>","0","main_causal_task","7","package_causal","","","",""
"","","","","","html-keyboard-response","125","396458","0.0-125.0","788C0AAC8A924E98B0667144DE400B05","019ce7a9-df25-748c-b63f-bf178d48df3f","019ce7a0-0965-7aa7-a556-174d32a8e773","","null","
                    <div class=""stimulus-container"">
                        <img src=""images/causal_sequence/package_causal/package_causal_8.png"" class=""exp-image"">
                        <div class=""question-area""></div> 
                    </div>","null","","","","","","",""
"","","","","","html-button-response","126","397754","0.0-126.0","788C0AAC8A924E98B0667144DE400B05","019ce7a9-df25-748c-b63f-bf178d48df3f","019ce7a0-0965-7aa7-a556-174d32a8e773","","1295","
                    <div class=""stimulus-container"">
                        <img src=""images/causal_sequence/package_causal/package_causal_8.png"" class=""exp-image"">
                        <div class=""question-area"">
                            <p style=""font-size: 20px; font-weight: bold; margin: 0;"">Is there a person in this image?</p>
                        </div>
                    </div>","0","main_causal_task","8","package_causal","","","",""
"","","","","","html-keyboard-response","127","402764","0.0-127.0","788C0AAC8A924E98B0667144DE400B05","019ce7a9-df25-748c-b63f-bf178d48df3f","019ce7a0-0965-7aa7-a556-174d32a8e773","","null","
                    <div class=""stimulus-container"">
                        <img src=""images/causal_sequence/package_causal/package_causal_9.png"" class=""exp-image"">
                        <div class=""question-area""></div> 
                    </div>","null","","","","","","",""
"","","","","","html-button-response","128","403302","0.0-128.0","788C0AAC8A924E98B0667144DE400B05","019ce7a9-df25-748c-b63f-bf178d48df3f","019ce7a0-0965-7aa7-a556-174d32a8e773","","537","
                    <div class=""stimulus-container"">
                        <img src=""images/causal_sequence/package_causal/package_causal_9.png"" class=""exp-image"">
                        <div class=""question-area"">
                            <p style=""font-size: 20px; font-weight: bold; margin: 0;"">Is there a person in this image?</p>
                        </div>
                    </div>","0","main_causal_task","9","package_causal","","","",""
"","","","","","instructions","129","409086","0.0-129.0","788C0AAC8A924E98B0667144DE400B05","019ce7a9-df25-748c-b63f-bf178d48df3f","019ce7a0-0965-7aa7-a556-174d32a8e773","[{""page_index"":0,""viewing_time"":5783}]","5784","","","","","","","","",""
"","","","","","instructions","130","415768","0.0-130.0","788C0AAC8A924E98B0667144DE400B05","019ce7a9-df25-748c-b63f-bf178d48df3f","019ce7a0-0965-7aa7-a556-174d32a8e773","[{""page_index"":0,""viewing_time"":6682}]","6682","","","","","","","","",""
"","","","","","html-keyboard-response","131","416775","0.0-131.0","788C0AAC8A924E98B0667144DE400B05","019ce7a9-df25-748c-b63f-bf178d48df3f","019ce7a0-0965-7aa7-a556-174d32a8e773","","null","
        <div class=""stimulus-container"" style=""display: flex; align-items: center; justify-content: center; gap: 30px;"">
            <img src=""images/instructions/movie_1.png"" class=""exp-image"">
            <div style=""font-size: 40px; font-weight: bold; color: green; border: 5px solid green; padding: 25px; border-radius: 15px; background-color: #f0fff0;"">
                WORTH<br>$1
            </div>
        </div>
        <div class=""question-area""></div>","null","","","","","","",""
"","","","","","html-button-response","132","419785","0.0-132.0","788C0AAC8A924E98B0667144DE400B05","019ce7a9-df25-748c-b63f-bf178d48df3f","019ce7a0-0965-7aa7-a556-174d32a8e773","","null","
        <div class=""stimulus-container"" style=""display: flex; align-items: center; justify-content: center; gap: 30px;"">
            <img src=""images/instructions/movie_1.png"" class=""exp-image"">
            <div style=""font-size: 40px; font-weight: bold; color: green; border: 5px solid green; padding: 25px; border-radius: 15px; background-color: #f0fff0;"">
                WORTH<br>$1
            </div>
        </div>
        <div class=""question-area"">
            <p style=""font-size: 20px; font-weight: bold; margin: 0;"">Was there a person in this image?</p>
        </div>","null","","","","","","",""
"","","","","","instructions","133","425290","0.0-133.0","788C0AAC8A924E98B0667144DE400B05","019ce7a9-df25-748c-b63f-bf178d48df3f","019ce7a0-0965-7aa7-a556-174d32a8e773","[{""page_index"":0,""viewing_time"":5504}]","5504","","","","","","","","",""
"","","","","","html-keyboard-response","134","435300","0.0-134.0","788C0AAC8A924E98B0667144DE400B05","019ce7a9-df25-748c-b63f-bf178d48df3f","019ce7a0-0965-7aa7-a556-174d32a8e773","","null","
            <div class=""stimulus-container"" style=""display: flex; align-items: center; justify-content: center; gap: 30px;"">
                <img src=""images/causal_sequence/the_performance_causal/the_performance_causal_6.png"" class=""exp-image"">
                <div style=""font-size: 40px; font-weight: bold; color: green; border: 5px solid green; padding: 25px; border-radius: 15px; background-color: #f0fff0;"">
                    WORTH<br>$1
                </div>
            </div>
            <div class=""question-area""></div>","null","","","","","","",""
"","","","","","html-button-response","135","438282","0.0-135.0","788C0AAC8A924E98B0667144DE400B05","019ce7a9-df25-748c-b63f-bf178d48df3f","019ce7a0-0965-7aa7-a556-174d32a8e773","","2981","
            <div class=""stimulus-container"" style=""display: flex; align-items: center; justify-content: center; gap: 30px;"">
                <img src=""images/causal_sequence/the_performance_causal/the_performance_causal_6.png"" class=""exp-image"">
                <div style=""font-size: 40px; font-weight: bold; color: green; border: 5px solid green; padding: 25px; border-radius: 15px; background-color: #f0fff0;"">
                    WORTH<br>$1
                </div>
            </div>
            <div class=""question-area"">
                <p style=""font-size: 20px; font-weight: bold; margin: 0;"">Was there a person in this image?</p>
            </div>","0","part2_value_learning","","the_performance_causal","6","","",""
"","","","","","html-keyboard-response","136","448295","0.0-136.0","788C0AAC8A924E98B0667144DE400B05","019ce7a9-df25-748c-b63f-bf178d48df3f","019ce7a0-0965-7aa7-a556-174d32a8e773","","null","
            <div class=""stimulus-container"" style=""display: flex; align-items: center; justify-content: center; gap: 30px;"">
                <img src=""images/causal_sequence/coin_causal/coin_causal_7.png"" class=""exp-image"">
                <div style=""font-size: 40px; font-weight: bold; color: green; border: 5px solid green; padding: 25px; border-radius: 15px; background-color: #f0fff0;"">
                    WORTH<br>$1
                </div>
            </div>
            <div class=""question-area""></div>","null","","","","","","",""
"","","","","","html-button-response","137","449536","0.0-137.0","788C0AAC8A924E98B0667144DE400B05","019ce7a9-df25-748c-b63f-bf178d48df3f","019ce7a0-0965-7aa7-a556-174d32a8e773","","1240","
            <div class=""stimulus-container"" style=""display: flex; align-items: center; justify-content: center; gap: 30px;"">
                <img src=""images/causal_sequence/coin_causal/coin_causal_7.png"" class=""exp-image"">
                <div style=""font-size: 40px; font-weight: bold; color: green; border: 5px solid green; padding: 25px; border-radius: 15px; background-color: #f0fff0;"">
                    WORTH<br>$1
                </div>
            </div>
            <div class=""question-area"">
                <p style=""font-size: 20px; font-weight: bold; margin: 0;"">Was there a person in this image?</p>
            </div>","1","part2_value_learning","","coin_causal","7","","",""
"","","","","","html-keyboard-response","138","459540","0.0-138.0","788C0AAC8A924E98B0667144DE400B05","019ce7a9-df25-748c-b63f-bf178d48df3f","019ce7a0-0965-7aa7-a556-174d32a8e773","","null","
            <div class=""stimulus-container"" style=""display: flex; align-items: center; justify-content: center; gap: 30px;"">
                <img src=""images/causal_sequence/dog_causal/dog_causal_4.png"" class=""exp-image"">
                <div style=""font-size: 40px; font-weight: bold; color: green; border: 5px solid green; padding: 25px; border-radius: 15px; background-color: #f0fff0;"">
                    WORTH<br>$1
                </div>
            </div>
            <div class=""question-area""></div>","null","","","","","","",""
"","","","","","html-button-response","139","460630","0.0-139.0","788C0AAC8A924E98B0667144DE400B05","019ce7a9-df25-748c-b63f-bf178d48df3f","019ce7a0-0965-7aa7-a556-174d32a8e773","","1089","
            <div class=""stimulus-container"" style=""display: flex; align-items: center; justify-content: center; gap: 30px;"">
                <img src=""images/causal_sequence/dog_causal/dog_causal_4.png"" class=""exp-image"">
                <div style=""font-size: 40px; font-weight: bold; color: green; border: 5px solid green; padding: 25px; border-radius: 15px; background-color: #f0fff0;"">
                    WORTH<br>$1
                </div>
            </div>
            <div class=""question-area"">
                <p style=""font-size: 20px; font-weight: bold; margin: 0;"">Was there a person in this image?</p>
            </div>","0","part2_value_learning","","dog_causal","4","","",""
"","","","","","html-keyboard-response","140","470643","0.0-140.0","788C0AAC8A924E98B0667144DE400B05","019ce7a9-df25-748c-b63f-bf178d48df3f","019ce7a0-0965-7aa7-a556-174d32a8e773","","null","
            <div class=""stimulus-container"" style=""display: flex; align-items: center; justify-content: center; gap: 30px;"">
                <img src=""images/causal_sequence/museum_causal/museum_causal_3.png"" class=""exp-image"">
                <div style=""font-size: 40px; font-weight: bold; color: green; border: 5px solid green; padding: 25px; border-radius: 15px; background-color: #f0fff0;"">
                    WORTH<br>$1
                </div>
            </div>
            <div class=""question-area""></div>","null","","","","","","",""
"","","","","","html-button-response","141","473649","0.0-141.0","788C0AAC8A924E98B0667144DE400B05","019ce7a9-df25-748c-b63f-bf178d48df3f","019ce7a0-0965-7aa7-a556-174d32a8e773","","null","
            <div class=""stimulus-container"" style=""display: flex; align-items: center; justify-content: center; gap: 30px;"">
                <img src=""images/causal_sequence/museum_causal/museum_causal_3.png"" class=""exp-image"">
                <div style=""font-size: 40px; font-weight: bold; color: green; border: 5px solid green; padding: 25px; border-radius: 15px; background-color: #f0fff0;"">
                    WORTH<br>$1
                </div>
            </div>
            <div class=""question-area"">
                <p style=""font-size: 20px; font-weight: bold; margin: 0;"">Was there a person in this image?</p>
            </div>","null","part2_value_learning","","museum_causal","3","","",""
"","","","","","html-keyboard-response","142","483652","0.0-142.0","788C0AAC8A924E98B0667144DE400B05","019ce7a9-df25-748c-b63f-bf178d48df3f","019ce7a0-0965-7aa7-a556-174d32a8e773","","null","
            <div class=""stimulus-container"" style=""display: flex; align-items: center; justify-content: center; gap: 30px;"">
                <img src=""images/causal_sequence/saving_a_cat_causal/saving_a_cat_causal_6.png"" class=""exp-image"">
                <div style=""font-size: 40px; font-weight: bold; color: green; border: 5px solid green; padding: 25px; border-radius: 15px; background-color: #f0fff0;"">
                    WORTH<br>$1
                </div>
            </div>
            <div class=""question-area""></div>","null","","","","","","",""
"","","","","","html-button-response","143","484288","0.0-143.0","788C0AAC8A924E98B0667144DE400B05","019ce7a9-df25-748c-b63f-bf178d48df3f","019ce7a0-0965-7aa7-a556-174d32a8e773","","635","
            <div class=""stimulus-container"" style=""display: flex; align-items: center; justify-content: center; gap: 30px;"">
                <img src=""images/causal_sequence/saving_a_cat_causal/saving_a_cat_causal_6.png"" class=""exp-image"">
                <div style=""font-size: 40px; font-weight: bold; color: green; border: 5px solid green; padding: 25px; border-radius: 15px; background-color: #f0fff0;"">
                    WORTH<br>$1
                </div>
            </div>
            <div class=""question-area"">
                <p style=""font-size: 20px; font-weight: bold; margin: 0;"">Was there a person in this image?</p>
            </div>","0","part2_value_learning","","saving_a_cat_causal","6","","",""
"","","","","","html-keyboard-response","144","494297","0.0-144.0","788C0AAC8A924E98B0667144DE400B05","019ce7a9-df25-748c-b63f-bf178d48df3f","019ce7a0-0965-7aa7-a556-174d32a8e773","","null","
            <div class=""stimulus-container"" style=""display: flex; align-items: center; justify-content: center; gap: 30px;"">
                <img src=""images/causal_sequence/package_causal/package_causal_3.png"" class=""exp-image"">
                <div style=""font-size: 40px; font-weight: bold; color: green; border: 5px solid green; padding: 25px; border-radius: 15px; background-color: #f0fff0;"">
                    WORTH<br>$1
                </div>
            </div>
            <div class=""question-area""></div>","null","","","","","","",""
"","","","","","html-button-response","145","494944","0.0-145.0","788C0AAC8A924E98B0667144DE400B05","019ce7a9-df25-748c-b63f-bf178d48df3f","019ce7a0-0965-7aa7-a556-174d32a8e773","","647","
            <div class=""stimulus-container"" style=""display: flex; align-items: center; justify-content: center; gap: 30px;"">
                <img src=""images/causal_sequence/package_causal/package_causal_3.png"" class=""exp-image"">
                <div style=""font-size: 40px; font-weight: bold; color: green; border: 5px solid green; padding: 25px; border-radius: 15px; background-color: #f0fff0;"">
                    WORTH<br>$1
                </div>
            </div>
            <div class=""question-area"">
                <p style=""font-size: 20px; font-weight: bold; margin: 0;"">Was there a person in this image?</p>
            </div>","0","part2_value_learning","","package_causal","3","","",""
"","","","","","instructions","146","496770","0.0-146.0","788C0AAC8A924E98B0667144DE400B05","019ce7a9-df25-748c-b63f-bf178d48df3f","019ce7a0-0965-7aa7-a556-174d32a8e773","[{""page_index"":0,""viewing_time"":1825}]","1825","","","","","","","","",""
"","","","","","instructions","147","501909","0.0-147.0","788C0AAC8A924E98B0667144DE400B05","019ce7a9-df25-748c-b63f-bf178d48df3f","019ce7a0-0965-7aa7-a556-174d32a8e773","[{""page_index"":0,""viewing_time"":5139}]","5139","","","","","","","","",""
"","","","","","html-keyboard-response","148","511914","0.0-148.0-0.0","788C0AAC8A924E98B0667144DE400B05","019ce7a9-df25-748c-b63f-bf178d48df3f","019ce7a0-0965-7aa7-a556-174d32a8e773","","null","
                        <div style=""font-family: Arial; margin-bottom: 20px;""><h3>Which image is more valuable?</h3></div>
                        <div class=""stimulus-container"" style=""display: flex; width: 1100px; justify-content: center; gap: 50px;"">
                            <img src=""images/causal_sequence/the_performance_causal/the_performance_causal_4.png"" class=""exp-image"">
                            <img src=""images/causal_sequence/the_performance_causal/the_performance_causal_8.png"" class=""exp-image"">
                        </div>","null","","","","","","",""
"","","","","","html-button-response","149","514990","0.0-148.0-1.0","788C0AAC8A924E98B0667144DE400B05","019ce7a9-df25-748c-b63f-bf178d48df3f","019ce7a0-0965-7aa7-a556-174d32a8e773","","3075","
                        <div style=""font-family: Arial; margin-bottom: 20px;""><h3>Which image is more valuable?</h3></div>
                        <div class=""stimulus-container"" style=""display: flex; width: 1100px; justify-content: center; gap: 50px;"">
                            <img src=""images/causal_sequence/the_performance_causal/the_performance_causal_4.png"" class=""exp-image"">
                            <img src=""images/causal_sequence/the_performance_causal/the_performance_causal_8.png"" class=""exp-image"">
                        </div>","0","part3_final_choice","","the_performance_causal","","6","4","-2"
"","","","","","html-keyboard-response","150","524999","0.0-149.0-0.0","788C0AAC8A924E98B0667144DE400B05","019ce7a9-df25-748c-b63f-bf178d48df3f","019ce7a0-0965-7aa7-a556-174d32a8e773","","null","
                        <div style=""font-family: Arial; margin-bottom: 20px;""><h3>Which image is more valuable?</h3></div>
                        <div class=""stimulus-container"" style=""display: flex; width: 1100px; justify-content: center; gap: 50px;"">
                            <img src=""images/causal_sequence/dog_causal/dog_causal_2.png"" class=""exp-image"">
                            <img src=""images/causal_sequence/dog_causal/dog_causal_6.png"" class=""exp-image"">
                        </div>","null","","","","","","",""
"","","","","","html-button-response","151","525964","0.0-149.0-1.0","788C0AAC8A924E98B0667144DE400B05","019ce7a9-df25-748c-b63f-bf178d48df3f","019ce7a0-0965-7aa7-a556-174d32a8e773","","964","
                        <div style=""font-family: Arial; margin-bottom: 20px;""><h3>Which image is more valuable?</h3></div>
                        <div class=""stimulus-container"" style=""display: flex; width: 1100px; justify-content: center; gap: 50px;"">
                            <img src=""images/causal_sequence/dog_causal/dog_causal_2.png"" class=""exp-image"">
                            <img src=""images/causal_sequence/dog_causal/dog_causal_6.png"" class=""exp-image"">
                        </div>","0","part3_final_choice","","dog_causal","","4","2","-2"
"","","","","","html-keyboard-response","152","535976","0.0-150.0-0.0","788C0AAC8A924E98B0667144DE400B05","019ce7a9-df25-748c-b63f-bf178d48df3f","019ce7a0-0965-7aa7-a556-174d32a8e773","","null","
                        <div style=""font-family: Arial; margin-bottom: 20px;""><h3>Which image is more valuable?</h3></div>
                        <div class=""stimulus-container"" style=""display: flex; width: 1100px; justify-content: center; gap: 50px;"">
                            <img src=""images/causal_sequence/coin_causal/coin_causal_9.png"" class=""exp-image"">
                            <img src=""images/causal_sequence/coin_causal/coin_causal_5.png"" class=""exp-image"">
                        </div>","null","","","","","","",""
"","","","","","html-button-response","153","536862","0.0-150.0-1.0","788C0AAC8A924E98B0667144DE400B05","019ce7a9-df25-748c-b63f-bf178d48df3f","019ce7a0-0965-7aa7-a556-174d32a8e773","","885","
                        <div style=""font-family: Arial; margin-bottom: 20px;""><h3>Which image is more valuable?</h3></div>
                        <div class=""stimulus-container"" style=""display: flex; width: 1100px; justify-content: center; gap: 50px;"">
                            <img src=""images/causal_sequence/coin_causal/coin_causal_9.png"" class=""exp-image"">
                            <img src=""images/causal_sequence/coin_causal/coin_causal_5.png"" class=""exp-image"">
                        </div>","0","part3_final_choice","","coin_causal","","7","9","2"
"","","","","","html-keyboard-response","154","546865","0.0-151.0-0.0","788C0AAC8A924E98B0667144DE400B05","019ce7a9-df25-748c-b63f-bf178d48df3f","019ce7a0-0965-7aa7-a556-174d32a8e773","","null","
                        <div style=""font-family: Arial; margin-bottom: 20px;""><h3>Which image is more valuable?</h3></div>
                        <div class=""stimulus-container"" style=""display: flex; width: 1100px; justify-content: center; gap: 50px;"">
                            <img src=""images/causal_sequence/package_causal/package_causal_1.png"" class=""exp-image"">
                            <img src=""images/causal_sequence/package_causal/package_causal_5.png"" class=""exp-image"">
                        </div>","null","","","","","","",""
"","","","","","html-button-response","155","547769","0.0-151.0-1.0","788C0AAC8A924E98B0667144DE400B05","019ce7a9-df25-748c-b63f-bf178d48df3f","019ce7a0-0965-7aa7-a556-174d32a8e773","","903","
                        <div style=""font-family: Arial; margin-bottom: 20px;""><h3>Which image is more valuable?</h3></div>
                        <div class=""stimulus-container"" style=""display: flex; width: 1100px; justify-content: center; gap: 50px;"">
                            <img src=""images/causal_sequence/package_causal/package_causal_1.png"" class=""exp-image"">
                            <img src=""images/causal_sequence/package_causal/package_causal_5.png"" class=""exp-image"">
                        </div>","0","part3_final_choice","","package_causal","","3","1","-2"
"","","","","","html-keyboard-response","156","557780","0.0-152.0-0.0","788C0AAC8A924E98B0667144DE400B05","019ce7a9-df25-748c-b63f-bf178d48df3f","019ce7a0-0965-7aa7-a556-174d32a8e773","","null","
                        <div style=""font-family: Arial; margin-bottom: 20px;""><h3>Which image is more valuable?</h3></div>
                        <div class=""stimulus-container"" style=""display: flex; width: 1100px; justify-content: center; gap: 50px;"">
                            <img src=""images/causal_sequence/museum_causal/museum_causal_5.png"" class=""exp-image"">
                            <img src=""images/causal_sequence/museum_causal/museum_causal_1.png"" class=""exp-image"">
                        </div>","null","","","","","","",""
"","","","","","html-button-response","157","558628","0.0-152.0-1.0","788C0AAC8A924E98B0667144DE400B05","019ce7a9-df25-748c-b63f-bf178d48df3f","019ce7a0-0965-7aa7-a556-174d32a8e773","","847","
                        <div style=""font-family: Arial; margin-bottom: 20px;""><h3>Which image is more valuable?</h3></div>
                        <div class=""stimulus-container"" style=""display: flex; width: 1100px; justify-content: center; gap: 50px;"">
                            <img src=""images/causal_sequence/museum_causal/museum_causal_5.png"" class=""exp-image"">
                            <img src=""images/causal_sequence/museum_causal/museum_causal_1.png"" class=""exp-image"">
                        </div>","0","part3_final_choice","","museum_causal","","3","5","2"
"","","","","","html-keyboard-response","158","568645","0.0-153.0-0.0","788C0AAC8A924E98B0667144DE400B05","019ce7a9-df25-748c-b63f-bf178d48df3f","019ce7a0-0965-7aa7-a556-174d32a8e773","","null","
                        <div style=""font-family: Arial; margin-bottom: 20px;""><h3>Which image is more valuable?</h3></div>
                        <div class=""stimulus-container"" style=""display: flex; width: 1100px; justify-content: center; gap: 50px;"">
                            <img src=""images/causal_sequence/saving_a_cat_causal/saving_a_cat_causal_8.png"" class=""exp-image"">
                            <img src=""images/causal_sequence/saving_a_cat_causal/saving_a_cat_causal_4.png"" class=""exp-image"">
                        </div>","null","","","","","","",""
"","","","","","html-button-response","159","569242","0.0-153.0-1.0","788C0AAC8A924E98B0667144DE400B05","019ce7a9-df25-748c-b63f-bf178d48df3f","019ce7a0-0965-7aa7-a556-174d32a8e773","","596","
                        <div style=""font-family: Arial; margin-bottom: 20px;""><h3>Which image is more valuable?</h3></div>
                        <div class=""stimulus-container"" style=""display: flex; width: 1100px; justify-content: center; gap: 50px;"">
                            <img src=""images/causal_sequence/saving_a_cat_causal/saving_a_cat_causal_8.png"" class=""exp-image"">
                            <img src=""images/causal_sequence/saving_a_cat_causal/saving_a_cat_causal_4.png"" class=""exp-image"">
                        </div>","0","part3_final_choice","","saving_a_cat_causal","","6","8","2"
"","","","","","survey-text","160","617220","0.0-154.0","788C0AAC8A924E98B0667144DE400B05","019ce7a9-df25-748c-b63f-bf178d48df3f","019ce7a0-0965-7aa7-a556-174d32a8e773","","47973","","{""gender"":""FEMALE"",""age"":""35"",""decision_strategy"":""just picked left for them all because there was no difference"",""consistency_check"":""did not change logic ""}","demographics_and_strategy","","","","","",""
"","","","","","instructions","161","622342","0.0-155.0","788C0AAC8A924E98B0667144DE400B05","019ce7a9-df25-748c-b63f-bf178d48df3f","019ce7a0-0965-7aa7-a556-174d32a8e773","[{""page_index"":0,""viewing_time"":5121}]","5121","","","","","","","","",""
