"success","timeout","failed_images","failed_audio","failed_video","trial_type","trial_index","time_elapsed","internal_node_id","subject_id","study_id","session_id","view_history","rt","stimulus","response","task","image_index","folder","sequence_type","presentation_order","valuable_image_index","reward_type","distance_from_x","target_X","chosen_image_index","is_x_plus_dist","correct_choice"
"true","false","[]","[]","[]","preload","0","124139","0.0-0.0","8AED8CA5287A4CEFAC9D22CD06A4D239","019cfc7f-40f5-7bd0-b982-597a156a8f5c","019cfc7b-6c7b-7b1b-afe7-acad8efc6711","","","","","","","","","","","","","","","",""
"","","","","","instructions","1","243027","0.0-1.0","8AED8CA5287A4CEFAC9D22CD06A4D239","019cfc7f-40f5-7bd0-b982-597a156a8f5c","019cfc7b-6c7b-7b1b-afe7-acad8efc6711","[{""page_index"":0,""viewing_time"":118886}]","118886","","","","","","","","","","","","","",""
"","","","","","instructions","2","248425","0.0-2.0","8AED8CA5287A4CEFAC9D22CD06A4D239","019cfc7f-40f5-7bd0-b982-597a156a8f5c","019cfc7b-6c7b-7b1b-afe7-acad8efc6711","[{""page_index"":0,""viewing_time"":5397}]","5397","","","","","","","","","","","","","",""
"true","","","","","fullscreen","3","252249","0.0-3.0","8AED8CA5287A4CEFAC9D22CD06A4D239","019cfc7f-40f5-7bd0-b982-597a156a8f5c","019cfc7b-6c7b-7b1b-afe7-acad8efc6711","","2813","","","","","","","","","","","","","",""
"","","","","","instructions","4","258487","0.0-4.0","8AED8CA5287A4CEFAC9D22CD06A4D239","019cfc7f-40f5-7bd0-b982-597a156a8f5c","019cfc7b-6c7b-7b1b-afe7-acad8efc6711","[{""page_index"":0,""viewing_time"":6237}]","6237","","","","","","","","","","","","","",""
"","","","","","instructions","5","262672","0.0-5.0","8AED8CA5287A4CEFAC9D22CD06A4D239","019cfc7f-40f5-7bd0-b982-597a156a8f5c","019cfc7b-6c7b-7b1b-afe7-acad8efc6711","[{""page_index"":0,""viewing_time"":4184}]","4184","","","","","","","","","","","","","",""
"","","","","","html-keyboard-response","6","266678","0.0-6.0","8AED8CA5287A4CEFAC9D22CD06A4D239","019cfc7f-40f5-7bd0-b982-597a156a8f5c","019cfc7b-6c7b-7b1b-afe7-acad8efc6711","","null","
                <div class=""stimulus-container"">
                    <img src=""images/instructions/movie_1.png"" class=""exp-image"">
                    <div class=""question-area""></div> 
                </div>","null","","","","","","","","","","","",""
"","","","","","html-button-response","7","269605","0.0-7.0","8AED8CA5287A4CEFAC9D22CD06A4D239","019cfc7f-40f5-7bd0-b982-597a156a8f5c","019cfc7b-6c7b-7b1b-afe7-acad8efc6711","","2926","
                <div class=""stimulus-container"">
                    <img src=""images/instructions/movie_1.png"" class=""exp-image"">
                    <div class=""question-area"">
                        <p style=""font-size: 20px; font-weight: bold; margin: 0;"">Was there a person in this image?</p>
                    </div>
                </div>","0","example_question","1","","","","","","","","","",""
"","","","","","html-keyboard-response","8","273607","0.0-8.0","8AED8CA5287A4CEFAC9D22CD06A4D239","019cfc7f-40f5-7bd0-b982-597a156a8f5c","019cfc7b-6c7b-7b1b-afe7-acad8efc6711","","null","
                <div class=""stimulus-container"">
                    <img src=""images/instructions/movie_2.png"" class=""exp-image"">
                    <div class=""question-area""></div> 
                </div>","null","","","","","","","","","","","",""
"","","","","","html-button-response","9","274852","0.0-9.0","8AED8CA5287A4CEFAC9D22CD06A4D239","019cfc7f-40f5-7bd0-b982-597a156a8f5c","019cfc7b-6c7b-7b1b-afe7-acad8efc6711","","1244","
                <div class=""stimulus-container"">
                    <img src=""images/instructions/movie_2.png"" class=""exp-image"">
                    <div class=""question-area"">
                        <p style=""font-size: 20px; font-weight: bold; margin: 0;"">Was there a person in this image?</p>
                    </div>
                </div>","0","example_question","2","","","","","","","","","",""
"","","","","","html-keyboard-response","10","278860","0.0-10.0","8AED8CA5287A4CEFAC9D22CD06A4D239","019cfc7f-40f5-7bd0-b982-597a156a8f5c","019cfc7b-6c7b-7b1b-afe7-acad8efc6711","","null","
                <div class=""stimulus-container"">
                    <img src=""images/instructions/movie_3.png"" class=""exp-image"">
                    <div class=""question-area""></div> 
                </div>","null","","","","","","","","","","","",""
"","","","","","html-button-response","11","279944","0.0-11.0","8AED8CA5287A4CEFAC9D22CD06A4D239","019cfc7f-40f5-7bd0-b982-597a156a8f5c","019cfc7b-6c7b-7b1b-afe7-acad8efc6711","","1083","
                <div class=""stimulus-container"">
                    <img src=""images/instructions/movie_3.png"" class=""exp-image"">
                    <div class=""question-area"">
                        <p style=""font-size: 20px; font-weight: bold; margin: 0;"">Was there a person in this image?</p>
                    </div>
                </div>","0","example_question","3","","","","","","","","","",""
"","","","","","html-keyboard-response","12","283956","0.0-12.0","8AED8CA5287A4CEFAC9D22CD06A4D239","019cfc7f-40f5-7bd0-b982-597a156a8f5c","019cfc7b-6c7b-7b1b-afe7-acad8efc6711","","null","
                <div class=""stimulus-container"">
                    <img src=""images/instructions/movie_4.png"" class=""exp-image"">
                    <div class=""question-area""></div> 
                </div>","null","","","","","","","","","","","",""
"","","","","","html-button-response","13","285061","0.0-13.0","8AED8CA5287A4CEFAC9D22CD06A4D239","019cfc7f-40f5-7bd0-b982-597a156a8f5c","019cfc7b-6c7b-7b1b-afe7-acad8efc6711","","1103","
                <div class=""stimulus-container"">
                    <img src=""images/instructions/movie_4.png"" class=""exp-image"">
                    <div class=""question-area"">
                        <p style=""font-size: 20px; font-weight: bold; margin: 0;"">Was there a person in this image?</p>
                    </div>
                </div>","0","example_question","4","","","","","","","","","",""
"","","","","","instructions","14","288527","0.0-14.0","8AED8CA5287A4CEFAC9D22CD06A4D239","019cfc7f-40f5-7bd0-b982-597a156a8f5c","019cfc7b-6c7b-7b1b-afe7-acad8efc6711","[{""page_index"":0,""viewing_time"":3466}]","3466","","","","","","","","","","","","","",""
"","","","","","instructions","15","294417","0.0-15.0","8AED8CA5287A4CEFAC9D22CD06A4D239","019cfc7f-40f5-7bd0-b982-597a156a8f5c","019cfc7b-6c7b-7b1b-afe7-acad8efc6711","[{""page_index"":0,""viewing_time"":5889}]","5890","","","","","","","","","","","","","",""
"","","","","","html-keyboard-response","16","299425","0.0-16.0","8AED8CA5287A4CEFAC9D22CD06A4D239","019cfc7f-40f5-7bd0-b982-597a156a8f5c","019cfc7b-6c7b-7b1b-afe7-acad8efc6711","","null","<div style=""background-color: white; width: 100vw; height: 100vh;""></div>","null","","","","","","","","","","","",""
"","","","","","html-keyboard-response","17","304440","0.0-17.0","8AED8CA5287A4CEFAC9D22CD06A4D239","019cfc7f-40f5-7bd0-b982-597a156a8f5c","019cfc7b-6c7b-7b1b-afe7-acad8efc6711","","null","
                <div class=""stimulus-container"">
                    <img src=""images/causal_sequence/package_causal/package_causal_1.png"" class=""exp-image"">
                    <div class=""question-area""></div> 
                </div>","null","","","","","","","","","","","",""
"","","","","","html-button-response","18","306046","0.0-18.0","8AED8CA5287A4CEFAC9D22CD06A4D239","019cfc7f-40f5-7bd0-b982-597a156a8f5c","019cfc7b-6c7b-7b1b-afe7-acad8efc6711","","1605","
                <div class=""stimulus-container"">
                    <img src=""images/causal_sequence/package_causal/package_causal_1.png"" class=""exp-image"">
                    <div class=""question-area"">
                        <p style=""font-size: 20px; font-weight: bold; margin: 0;"">Is there a person in this image?</p>
                    </div>
                </div>","0","main_experiment_trial","1","package_causal","causal_sequence","chronological","","","","","","",""
"","","","","","html-keyboard-response","19","311063","0.0-19.0","8AED8CA5287A4CEFAC9D22CD06A4D239","019cfc7f-40f5-7bd0-b982-597a156a8f5c","019cfc7b-6c7b-7b1b-afe7-acad8efc6711","","null","
                <div class=""stimulus-container"">
                    <img src=""images/causal_sequence/package_causal/package_causal_2.png"" class=""exp-image"">
                    <div class=""question-area""></div> 
                </div>","null","","","","","","","","","","","",""
"","","","","","html-button-response","20","312199","0.0-20.0","8AED8CA5287A4CEFAC9D22CD06A4D239","019cfc7f-40f5-7bd0-b982-597a156a8f5c","019cfc7b-6c7b-7b1b-afe7-acad8efc6711","","1135","
                <div class=""stimulus-container"">
                    <img src=""images/causal_sequence/package_causal/package_causal_2.png"" class=""exp-image"">
                    <div class=""question-area"">
                        <p style=""font-size: 20px; font-weight: bold; margin: 0;"">Is there a person in this image?</p>
                    </div>
                </div>","0","main_experiment_trial","2","package_causal","causal_sequence","chronological","","","","","","",""
"","","","","","html-keyboard-response","21","317208","0.0-21.0","8AED8CA5287A4CEFAC9D22CD06A4D239","019cfc7f-40f5-7bd0-b982-597a156a8f5c","019cfc7b-6c7b-7b1b-afe7-acad8efc6711","","null","
                <div class=""stimulus-container"">
                    <img src=""images/causal_sequence/package_causal/package_causal_3.png"" class=""exp-image"">
                    <div class=""question-area""></div> 
                </div>","null","","","","","","","","","","","",""
"","","","","","html-button-response","22","318996","0.0-22.0","8AED8CA5287A4CEFAC9D22CD06A4D239","019cfc7f-40f5-7bd0-b982-597a156a8f5c","019cfc7b-6c7b-7b1b-afe7-acad8efc6711","","1787","
                <div class=""stimulus-container"">
                    <img src=""images/causal_sequence/package_causal/package_causal_3.png"" class=""exp-image"">
                    <div class=""question-area"">
                        <p style=""font-size: 20px; font-weight: bold; margin: 0;"">Is there a person in this image?</p>
                    </div>
                </div>","0","main_experiment_trial","3","package_causal","causal_sequence","chronological","","","","","","",""
"","","","","","html-keyboard-response","23","324015","0.0-23.0","8AED8CA5287A4CEFAC9D22CD06A4D239","019cfc7f-40f5-7bd0-b982-597a156a8f5c","019cfc7b-6c7b-7b1b-afe7-acad8efc6711","","null","
                <div class=""stimulus-container"">
                    <img src=""images/causal_sequence/package_causal/package_causal_4.png"" class=""exp-image"">
                    <div class=""question-area""></div> 
                </div>","null","","","","","","","","","","","",""
"","","","","","html-button-response","24","327018","0.0-24.0","8AED8CA5287A4CEFAC9D22CD06A4D239","019cfc7f-40f5-7bd0-b982-597a156a8f5c","019cfc7b-6c7b-7b1b-afe7-acad8efc6711","","null","
                <div class=""stimulus-container"">
                    <img src=""images/causal_sequence/package_causal/package_causal_4.png"" class=""exp-image"">
                    <div class=""question-area"">
                        <p style=""font-size: 20px; font-weight: bold; margin: 0;"">Is there a person in this image?</p>
                    </div>
                </div>","null","main_experiment_trial","4","package_causal","causal_sequence","chronological","","","","","","",""
"","","","","","html-keyboard-response","25","332026","0.0-25.0","8AED8CA5287A4CEFAC9D22CD06A4D239","019cfc7f-40f5-7bd0-b982-597a156a8f5c","019cfc7b-6c7b-7b1b-afe7-acad8efc6711","","null","
                <div class=""stimulus-container"">
                    <img src=""images/causal_sequence/package_causal/package_causal_5.png"" class=""exp-image"">
                    <div class=""question-area""></div> 
                </div>","null","","","","","","","","","","","",""
"","","","","","html-button-response","26","332569","0.0-26.0","8AED8CA5287A4CEFAC9D22CD06A4D239","019cfc7f-40f5-7bd0-b982-597a156a8f5c","019cfc7b-6c7b-7b1b-afe7-acad8efc6711","","542","
                <div class=""stimulus-container"">
                    <img src=""images/causal_sequence/package_causal/package_causal_5.png"" class=""exp-image"">
                    <div class=""question-area"">
                        <p style=""font-size: 20px; font-weight: bold; margin: 0;"">Is there a person in this image?</p>
                    </div>
                </div>","0","main_experiment_trial","5","package_causal","causal_sequence","chronological","","","","","","",""
"","","","","","html-keyboard-response","27","337579","0.0-27.0","8AED8CA5287A4CEFAC9D22CD06A4D239","019cfc7f-40f5-7bd0-b982-597a156a8f5c","019cfc7b-6c7b-7b1b-afe7-acad8efc6711","","null","
                <div class=""stimulus-container"">
                    <img src=""images/causal_sequence/package_causal/package_causal_6.png"" class=""exp-image"">
                    <div class=""question-area""></div> 
                </div>","null","","","","","","","","","","","",""
"","","","","","html-button-response","28","338389","0.0-28.0","8AED8CA5287A4CEFAC9D22CD06A4D239","019cfc7f-40f5-7bd0-b982-597a156a8f5c","019cfc7b-6c7b-7b1b-afe7-acad8efc6711","","809","
                <div class=""stimulus-container"">
                    <img src=""images/causal_sequence/package_causal/package_causal_6.png"" class=""exp-image"">
                    <div class=""question-area"">
                        <p style=""font-size: 20px; font-weight: bold; margin: 0;"">Is there a person in this image?</p>
                    </div>
                </div>","0","main_experiment_trial","6","package_causal","causal_sequence","chronological","","","","","","",""
"","","","","","html-keyboard-response","29","343399","0.0-29.0","8AED8CA5287A4CEFAC9D22CD06A4D239","019cfc7f-40f5-7bd0-b982-597a156a8f5c","019cfc7b-6c7b-7b1b-afe7-acad8efc6711","","null","
                <div class=""stimulus-container"">
                    <img src=""images/causal_sequence/package_causal/package_causal_7.png"" class=""exp-image"">
                    <div class=""question-area""></div> 
                </div>","null","","","","","","","","","","","",""
"","","","","","html-button-response","30","344528","0.0-30.0","8AED8CA5287A4CEFAC9D22CD06A4D239","019cfc7f-40f5-7bd0-b982-597a156a8f5c","019cfc7b-6c7b-7b1b-afe7-acad8efc6711","","1128","
                <div class=""stimulus-container"">
                    <img src=""images/causal_sequence/package_causal/package_causal_7.png"" class=""exp-image"">
                    <div class=""question-area"">
                        <p style=""font-size: 20px; font-weight: bold; margin: 0;"">Is there a person in this image?</p>
                    </div>
                </div>","0","main_experiment_trial","7","package_causal","causal_sequence","chronological","","","","","","",""
"","","","","","html-keyboard-response","31","349531","0.0-31.0","8AED8CA5287A4CEFAC9D22CD06A4D239","019cfc7f-40f5-7bd0-b982-597a156a8f5c","019cfc7b-6c7b-7b1b-afe7-acad8efc6711","","null","
                <div class=""stimulus-container"">
                    <img src=""images/causal_sequence/package_causal/package_causal_8.png"" class=""exp-image"">
                    <div class=""question-area""></div> 
                </div>","null","","","","","","","","","","","",""
"","","","","","html-button-response","32","350622","0.0-32.0","8AED8CA5287A4CEFAC9D22CD06A4D239","019cfc7f-40f5-7bd0-b982-597a156a8f5c","019cfc7b-6c7b-7b1b-afe7-acad8efc6711","","1090","
                <div class=""stimulus-container"">
                    <img src=""images/causal_sequence/package_causal/package_causal_8.png"" class=""exp-image"">
                    <div class=""question-area"">
                        <p style=""font-size: 20px; font-weight: bold; margin: 0;"">Is there a person in this image?</p>
                    </div>
                </div>","0","main_experiment_trial","8","package_causal","causal_sequence","chronological","","","","","","",""
"","","","","","html-keyboard-response","33","355623","0.0-33.0","8AED8CA5287A4CEFAC9D22CD06A4D239","019cfc7f-40f5-7bd0-b982-597a156a8f5c","019cfc7b-6c7b-7b1b-afe7-acad8efc6711","","null","
                <div class=""stimulus-container"">
                    <img src=""images/causal_sequence/package_causal/package_causal_9.png"" class=""exp-image"">
                    <div class=""question-area""></div> 
                </div>","null","","","","","","","","","","","",""
"","","","","","html-button-response","34","358632","0.0-34.0","8AED8CA5287A4CEFAC9D22CD06A4D239","019cfc7f-40f5-7bd0-b982-597a156a8f5c","019cfc7b-6c7b-7b1b-afe7-acad8efc6711","","null","
                <div class=""stimulus-container"">
                    <img src=""images/causal_sequence/package_causal/package_causal_9.png"" class=""exp-image"">
                    <div class=""question-area"">
                        <p style=""font-size: 20px; font-weight: bold; margin: 0;"">Is there a person in this image?</p>
                    </div>
                </div>","null","main_experiment_trial","9","package_causal","causal_sequence","chronological","","","","","","",""
"","","","","","html-keyboard-response","35","363638","0.0-35.0","8AED8CA5287A4CEFAC9D22CD06A4D239","019cfc7f-40f5-7bd0-b982-597a156a8f5c","019cfc7b-6c7b-7b1b-afe7-acad8efc6711","","null","
                <div class=""stimulus-container"">
                    <img src=""images/causal_sequence/package_causal/package_causal_ten.png"" class=""exp-image"">
                    <div class=""question-area""></div> 
                </div>","null","","","","","","","","","","","",""
"","","","","","html-button-response","36","364651","0.0-36.0","8AED8CA5287A4CEFAC9D22CD06A4D239","019cfc7f-40f5-7bd0-b982-597a156a8f5c","019cfc7b-6c7b-7b1b-afe7-acad8efc6711","","1011","
                <div class=""stimulus-container"">
                    <img src=""images/causal_sequence/package_causal/package_causal_ten.png"" class=""exp-image"">
                    <div class=""question-area"">
                        <p style=""font-size: 20px; font-weight: bold; margin: 0;"">Is there a person in this image?</p>
                    </div>
                </div>","0","main_experiment_trial","ten","package_causal","causal_sequence","chronological","","","","","","",""
"","","","","","html-keyboard-response","37","369653","0.0-37.0","8AED8CA5287A4CEFAC9D22CD06A4D239","019cfc7f-40f5-7bd0-b982-597a156a8f5c","019cfc7b-6c7b-7b1b-afe7-acad8efc6711","","null","<div style=""background-color: white; width: 100vw; height: 100vh;""></div>","null","","","","","","","","","","","",""
"","","","","","html-keyboard-response","38","374661","0.0-38.0","8AED8CA5287A4CEFAC9D22CD06A4D239","019cfc7f-40f5-7bd0-b982-597a156a8f5c","019cfc7b-6c7b-7b1b-afe7-acad8efc6711","","null","
                <div class=""stimulus-container"">
                    <img src=""images/schematic_sequence/flight_scheme/flight_scheme_1.png"" class=""exp-image"">
                    <div class=""question-area""></div> 
                </div>","null","","","","","","","","","","","",""
"","","","","","html-button-response","39","376055","0.0-39.0","8AED8CA5287A4CEFAC9D22CD06A4D239","019cfc7f-40f5-7bd0-b982-597a156a8f5c","019cfc7b-6c7b-7b1b-afe7-acad8efc6711","","1392","
                <div class=""stimulus-container"">
                    <img src=""images/schematic_sequence/flight_scheme/flight_scheme_1.png"" class=""exp-image"">
                    <div class=""question-area"">
                        <p style=""font-size: 20px; font-weight: bold; margin: 0;"">Is there a person in this image?</p>
                    </div>
                </div>","0","main_experiment_trial","1","flight_scheme","schematic_sequence","chronological","","","","","","",""
"","","","","","html-keyboard-response","40","381070","0.0-40.0","8AED8CA5287A4CEFAC9D22CD06A4D239","019cfc7f-40f5-7bd0-b982-597a156a8f5c","019cfc7b-6c7b-7b1b-afe7-acad8efc6711","","null","
                <div class=""stimulus-container"">
                    <img src=""images/schematic_sequence/flight_scheme/flight_scheme_2.png"" class=""exp-image"">
                    <div class=""question-area""></div> 
                </div>","null","","","","","","","","","","","",""
"","","","","","html-button-response","41","381922","0.0-41.0","8AED8CA5287A4CEFAC9D22CD06A4D239","019cfc7f-40f5-7bd0-b982-597a156a8f5c","019cfc7b-6c7b-7b1b-afe7-acad8efc6711","","851","
                <div class=""stimulus-container"">
                    <img src=""images/schematic_sequence/flight_scheme/flight_scheme_2.png"" class=""exp-image"">
                    <div class=""question-area"">
                        <p style=""font-size: 20px; font-weight: bold; margin: 0;"">Is there a person in this image?</p>
                    </div>
                </div>","1","main_experiment_trial","2","flight_scheme","schematic_sequence","chronological","","","","","","",""
"","","","","","html-keyboard-response","42","386924","0.0-42.0","8AED8CA5287A4CEFAC9D22CD06A4D239","019cfc7f-40f5-7bd0-b982-597a156a8f5c","019cfc7b-6c7b-7b1b-afe7-acad8efc6711","","null","
                <div class=""stimulus-container"">
                    <img src=""images/schematic_sequence/flight_scheme/flight_scheme_3.png"" class=""exp-image"">
                    <div class=""question-area""></div> 
                </div>","null","","","","","","","","","","","",""
"","","","","","html-button-response","43","387634","0.0-43.0","8AED8CA5287A4CEFAC9D22CD06A4D239","019cfc7f-40f5-7bd0-b982-597a156a8f5c","019cfc7b-6c7b-7b1b-afe7-acad8efc6711","","709","
                <div class=""stimulus-container"">
                    <img src=""images/schematic_sequence/flight_scheme/flight_scheme_3.png"" class=""exp-image"">
                    <div class=""question-area"">
                        <p style=""font-size: 20px; font-weight: bold; margin: 0;"">Is there a person in this image?</p>
                    </div>
                </div>","0","main_experiment_trial","3","flight_scheme","schematic_sequence","chronological","","","","","","",""
"","","","","","html-keyboard-response","44","392636","0.0-44.0","8AED8CA5287A4CEFAC9D22CD06A4D239","019cfc7f-40f5-7bd0-b982-597a156a8f5c","019cfc7b-6c7b-7b1b-afe7-acad8efc6711","","null","
                <div class=""stimulus-container"">
                    <img src=""images/schematic_sequence/flight_scheme/flight_scheme_4.png"" class=""exp-image"">
                    <div class=""question-area""></div> 
                </div>","null","","","","","","","","","","","",""
"","","","","","html-button-response","45","393207","0.0-45.0","8AED8CA5287A4CEFAC9D22CD06A4D239","019cfc7f-40f5-7bd0-b982-597a156a8f5c","019cfc7b-6c7b-7b1b-afe7-acad8efc6711","","569","
                <div class=""stimulus-container"">
                    <img src=""images/schematic_sequence/flight_scheme/flight_scheme_4.png"" class=""exp-image"">
                    <div class=""question-area"">
                        <p style=""font-size: 20px; font-weight: bold; margin: 0;"">Is there a person in this image?</p>
                    </div>
                </div>","0","main_experiment_trial","4","flight_scheme","schematic_sequence","chronological","","","","","","",""
"","","","","","html-keyboard-response","46","398221","0.0-46.0","8AED8CA5287A4CEFAC9D22CD06A4D239","019cfc7f-40f5-7bd0-b982-597a156a8f5c","019cfc7b-6c7b-7b1b-afe7-acad8efc6711","","null","
                <div class=""stimulus-container"">
                    <img src=""images/schematic_sequence/flight_scheme/flight_scheme_5.png"" class=""exp-image"">
                    <div class=""question-area""></div> 
                </div>","null","","","","","","","","","","","",""
"","","","","","html-button-response","47","398911","0.0-47.0","8AED8CA5287A4CEFAC9D22CD06A4D239","019cfc7f-40f5-7bd0-b982-597a156a8f5c","019cfc7b-6c7b-7b1b-afe7-acad8efc6711","","689","
                <div class=""stimulus-container"">
                    <img src=""images/schematic_sequence/flight_scheme/flight_scheme_5.png"" class=""exp-image"">
                    <div class=""question-area"">
                        <p style=""font-size: 20px; font-weight: bold; margin: 0;"">Is there a person in this image?</p>
                    </div>
                </div>","0","main_experiment_trial","5","flight_scheme","schematic_sequence","chronological","","","","","","",""
"","","","","","html-keyboard-response","48","403914","0.0-48.0","8AED8CA5287A4CEFAC9D22CD06A4D239","019cfc7f-40f5-7bd0-b982-597a156a8f5c","019cfc7b-6c7b-7b1b-afe7-acad8efc6711","","null","
                <div class=""stimulus-container"">
                    <img src=""images/schematic_sequence/flight_scheme/flight_scheme_6.png"" class=""exp-image"">
                    <div class=""question-area""></div> 
                </div>","null","","","","","","","","","","","",""
"","","","","","html-button-response","49","404795","0.0-49.0","8AED8CA5287A4CEFAC9D22CD06A4D239","019cfc7f-40f5-7bd0-b982-597a156a8f5c","019cfc7b-6c7b-7b1b-afe7-acad8efc6711","","879","
                <div class=""stimulus-container"">
                    <img src=""images/schematic_sequence/flight_scheme/flight_scheme_6.png"" class=""exp-image"">
                    <div class=""question-area"">
                        <p style=""font-size: 20px; font-weight: bold; margin: 0;"">Is there a person in this image?</p>
                    </div>
                </div>","1","main_experiment_trial","6","flight_scheme","schematic_sequence","chronological","","","","","","",""
"","","","","","html-keyboard-response","50","409811","0.0-50.0","8AED8CA5287A4CEFAC9D22CD06A4D239","019cfc7f-40f5-7bd0-b982-597a156a8f5c","019cfc7b-6c7b-7b1b-afe7-acad8efc6711","","null","
                <div class=""stimulus-container"">
                    <img src=""images/schematic_sequence/flight_scheme/flight_scheme_7.png"" class=""exp-image"">
                    <div class=""question-area""></div> 
                </div>","null","","","","","","","","","","","",""
"","","","","","html-button-response","51","410865","0.0-51.0","8AED8CA5287A4CEFAC9D22CD06A4D239","019cfc7f-40f5-7bd0-b982-597a156a8f5c","019cfc7b-6c7b-7b1b-afe7-acad8efc6711","","1053","
                <div class=""stimulus-container"">
                    <img src=""images/schematic_sequence/flight_scheme/flight_scheme_7.png"" class=""exp-image"">
                    <div class=""question-area"">
                        <p style=""font-size: 20px; font-weight: bold; margin: 0;"">Is there a person in this image?</p>
                    </div>
                </div>","0","main_experiment_trial","7","flight_scheme","schematic_sequence","chronological","","","","","","",""
"","","","","","html-keyboard-response","52","415881","0.0-52.0","8AED8CA5287A4CEFAC9D22CD06A4D239","019cfc7f-40f5-7bd0-b982-597a156a8f5c","019cfc7b-6c7b-7b1b-afe7-acad8efc6711","","null","
                <div class=""stimulus-container"">
                    <img src=""images/schematic_sequence/flight_scheme/flight_scheme_8.png"" class=""exp-image"">
                    <div class=""question-area""></div> 
                </div>","null","","","","","","","","","","","",""
"","","","","","html-button-response","53","416924","0.0-53.0","8AED8CA5287A4CEFAC9D22CD06A4D239","019cfc7f-40f5-7bd0-b982-597a156a8f5c","019cfc7b-6c7b-7b1b-afe7-acad8efc6711","","1042","
                <div class=""stimulus-container"">
                    <img src=""images/schematic_sequence/flight_scheme/flight_scheme_8.png"" class=""exp-image"">
                    <div class=""question-area"">
                        <p style=""font-size: 20px; font-weight: bold; margin: 0;"">Is there a person in this image?</p>
                    </div>
                </div>","1","main_experiment_trial","8","flight_scheme","schematic_sequence","chronological","","","","","","",""
"","","","","","html-keyboard-response","54","421932","0.0-54.0","8AED8CA5287A4CEFAC9D22CD06A4D239","019cfc7f-40f5-7bd0-b982-597a156a8f5c","019cfc7b-6c7b-7b1b-afe7-acad8efc6711","","null","
                <div class=""stimulus-container"">
                    <img src=""images/schematic_sequence/flight_scheme/flight_scheme_9.png"" class=""exp-image"">
                    <div class=""question-area""></div> 
                </div>","null","","","","","","","","","","","",""
"","","","","","html-button-response","55","424948","0.0-55.0","8AED8CA5287A4CEFAC9D22CD06A4D239","019cfc7f-40f5-7bd0-b982-597a156a8f5c","019cfc7b-6c7b-7b1b-afe7-acad8efc6711","","null","
                <div class=""stimulus-container"">
                    <img src=""images/schematic_sequence/flight_scheme/flight_scheme_9.png"" class=""exp-image"">
                    <div class=""question-area"">
                        <p style=""font-size: 20px; font-weight: bold; margin: 0;"">Is there a person in this image?</p>
                    </div>
                </div>","null","main_experiment_trial","9","flight_scheme","schematic_sequence","chronological","","","","","","",""
"","","","","","html-keyboard-response","56","429959","0.0-56.0","8AED8CA5287A4CEFAC9D22CD06A4D239","019cfc7f-40f5-7bd0-b982-597a156a8f5c","019cfc7b-6c7b-7b1b-afe7-acad8efc6711","","null","
                <div class=""stimulus-container"">
                    <img src=""images/schematic_sequence/flight_scheme/flight_scheme_ten.png"" class=""exp-image"">
                    <div class=""question-area""></div> 
                </div>","null","","","","","","","","","","","",""
"","","","","","html-button-response","57","430568","0.0-57.0","8AED8CA5287A4CEFAC9D22CD06A4D239","019cfc7f-40f5-7bd0-b982-597a156a8f5c","019cfc7b-6c7b-7b1b-afe7-acad8efc6711","","607","
                <div class=""stimulus-container"">
                    <img src=""images/schematic_sequence/flight_scheme/flight_scheme_ten.png"" class=""exp-image"">
                    <div class=""question-area"">
                        <p style=""font-size: 20px; font-weight: bold; margin: 0;"">Is there a person in this image?</p>
                    </div>
                </div>","0","main_experiment_trial","ten","flight_scheme","schematic_sequence","chronological","","","","","","",""
"","","","","","html-keyboard-response","58","435583","0.0-58.0","8AED8CA5287A4CEFAC9D22CD06A4D239","019cfc7f-40f5-7bd0-b982-597a156a8f5c","019cfc7b-6c7b-7b1b-afe7-acad8efc6711","","null","<div style=""background-color: white; width: 100vw; height: 100vh;""></div>","null","","","","","","","","","","","",""
"","","","","","html-keyboard-response","59","440593","0.0-59.0","8AED8CA5287A4CEFAC9D22CD06A4D239","019cfc7f-40f5-7bd0-b982-597a156a8f5c","019cfc7b-6c7b-7b1b-afe7-acad8efc6711","","null","
                <div class=""stimulus-container"">
                    <img src=""images/causal_sequence/the_performance_causal/the_performance_causal_1.png"" class=""exp-image"">
                    <div class=""question-area""></div> 
                </div>","null","","","","","","","","","","","",""
"","","","","","html-button-response","60","441396","0.0-60.0","8AED8CA5287A4CEFAC9D22CD06A4D239","019cfc7f-40f5-7bd0-b982-597a156a8f5c","019cfc7b-6c7b-7b1b-afe7-acad8efc6711","","801","
                <div class=""stimulus-container"">
                    <img src=""images/causal_sequence/the_performance_causal/the_performance_causal_1.png"" class=""exp-image"">
                    <div class=""question-area"">
                        <p style=""font-size: 20px; font-weight: bold; margin: 0;"">Is there a person in this image?</p>
                    </div>
                </div>","0","main_experiment_trial","1","the_performance_causal","causal_sequence","chronological","","","","","","",""
"","","","","","html-keyboard-response","61","446398","0.0-61.0","8AED8CA5287A4CEFAC9D22CD06A4D239","019cfc7f-40f5-7bd0-b982-597a156a8f5c","019cfc7b-6c7b-7b1b-afe7-acad8efc6711","","null","
                <div class=""stimulus-container"">
                    <img src=""images/causal_sequence/the_performance_causal/the_performance_causal_2.png"" class=""exp-image"">
                    <div class=""question-area""></div> 
                </div>","null","","","","","","","","","","","",""
"","","","","","html-button-response","62","447093","0.0-62.0","8AED8CA5287A4CEFAC9D22CD06A4D239","019cfc7f-40f5-7bd0-b982-597a156a8f5c","019cfc7b-6c7b-7b1b-afe7-acad8efc6711","","694","
                <div class=""stimulus-container"">
                    <img src=""images/causal_sequence/the_performance_causal/the_performance_causal_2.png"" class=""exp-image"">
                    <div class=""question-area"">
                        <p style=""font-size: 20px; font-weight: bold; margin: 0;"">Is there a person in this image?</p>
                    </div>
                </div>","0","main_experiment_trial","2","the_performance_causal","causal_sequence","chronological","","","","","","",""
"","","","","","html-keyboard-response","63","452094","0.0-63.0","8AED8CA5287A4CEFAC9D22CD06A4D239","019cfc7f-40f5-7bd0-b982-597a156a8f5c","019cfc7b-6c7b-7b1b-afe7-acad8efc6711","","null","
                <div class=""stimulus-container"">
                    <img src=""images/causal_sequence/the_performance_causal/the_performance_causal_3.png"" class=""exp-image"">
                    <div class=""question-area""></div> 
                </div>","null","","","","","","","","","","","",""
"","","","","","html-button-response","64","452929","0.0-64.0","8AED8CA5287A4CEFAC9D22CD06A4D239","019cfc7f-40f5-7bd0-b982-597a156a8f5c","019cfc7b-6c7b-7b1b-afe7-acad8efc6711","","834","
                <div class=""stimulus-container"">
                    <img src=""images/causal_sequence/the_performance_causal/the_performance_causal_3.png"" class=""exp-image"">
                    <div class=""question-area"">
                        <p style=""font-size: 20px; font-weight: bold; margin: 0;"">Is there a person in this image?</p>
                    </div>
                </div>","0","main_experiment_trial","3","the_performance_causal","causal_sequence","chronological","","","","","","",""
"","","","","","html-keyboard-response","65","457937","0.0-65.0","8AED8CA5287A4CEFAC9D22CD06A4D239","019cfc7f-40f5-7bd0-b982-597a156a8f5c","019cfc7b-6c7b-7b1b-afe7-acad8efc6711","","null","
                <div class=""stimulus-container"">
                    <img src=""images/causal_sequence/the_performance_causal/the_performance_causal_4.png"" class=""exp-image"">
                    <div class=""question-area""></div> 
                </div>","null","","","","","","","","","","","",""
"","","","","","html-button-response","66","460948","0.0-66.0","8AED8CA5287A4CEFAC9D22CD06A4D239","019cfc7f-40f5-7bd0-b982-597a156a8f5c","019cfc7b-6c7b-7b1b-afe7-acad8efc6711","","null","
                <div class=""stimulus-container"">
                    <img src=""images/causal_sequence/the_performance_causal/the_performance_causal_4.png"" class=""exp-image"">
                    <div class=""question-area"">
                        <p style=""font-size: 20px; font-weight: bold; margin: 0;"">Is there a person in this image?</p>
                    </div>
                </div>","null","main_experiment_trial","4","the_performance_causal","causal_sequence","chronological","","","","","","",""
"","","","","","html-keyboard-response","67","465954","0.0-67.0","8AED8CA5287A4CEFAC9D22CD06A4D239","019cfc7f-40f5-7bd0-b982-597a156a8f5c","019cfc7b-6c7b-7b1b-afe7-acad8efc6711","","null","
                <div class=""stimulus-container"">
                    <img src=""images/causal_sequence/the_performance_causal/the_performance_causal_5.png"" class=""exp-image"">
                    <div class=""question-area""></div> 
                </div>","null","","","","","","","","","","","",""
"","","","","","html-button-response","68","466647","0.0-68.0","8AED8CA5287A4CEFAC9D22CD06A4D239","019cfc7f-40f5-7bd0-b982-597a156a8f5c","019cfc7b-6c7b-7b1b-afe7-acad8efc6711","","692","
                <div class=""stimulus-container"">
                    <img src=""images/causal_sequence/the_performance_causal/the_performance_causal_5.png"" class=""exp-image"">
                    <div class=""question-area"">
                        <p style=""font-size: 20px; font-weight: bold; margin: 0;"">Is there a person in this image?</p>
                    </div>
                </div>","0","main_experiment_trial","5","the_performance_causal","causal_sequence","chronological","","","","","","",""
"","","","","","html-keyboard-response","69","471650","0.0-69.0","8AED8CA5287A4CEFAC9D22CD06A4D239","019cfc7f-40f5-7bd0-b982-597a156a8f5c","019cfc7b-6c7b-7b1b-afe7-acad8efc6711","","null","
                <div class=""stimulus-container"">
                    <img src=""images/causal_sequence/the_performance_causal/the_performance_causal_6.png"" class=""exp-image"">
                    <div class=""question-area""></div> 
                </div>","null","","","","","","","","","","","",""
"","","","","","html-button-response","70","473027","0.0-70.0","8AED8CA5287A4CEFAC9D22CD06A4D239","019cfc7f-40f5-7bd0-b982-597a156a8f5c","019cfc7b-6c7b-7b1b-afe7-acad8efc6711","","1376","
                <div class=""stimulus-container"">
                    <img src=""images/causal_sequence/the_performance_causal/the_performance_causal_6.png"" class=""exp-image"">
                    <div class=""question-area"">
                        <p style=""font-size: 20px; font-weight: bold; margin: 0;"">Is there a person in this image?</p>
                    </div>
                </div>","0","main_experiment_trial","6","the_performance_causal","causal_sequence","chronological","","","","","","",""
"","","","","","html-keyboard-response","71","478029","0.0-71.0","8AED8CA5287A4CEFAC9D22CD06A4D239","019cfc7f-40f5-7bd0-b982-597a156a8f5c","019cfc7b-6c7b-7b1b-afe7-acad8efc6711","","null","
                <div class=""stimulus-container"">
                    <img src=""images/causal_sequence/the_performance_causal/the_performance_causal_7.png"" class=""exp-image"">
                    <div class=""question-area""></div> 
                </div>","null","","","","","","","","","","","",""
"","","","","","html-button-response","72","478639","0.0-72.0","8AED8CA5287A4CEFAC9D22CD06A4D239","019cfc7f-40f5-7bd0-b982-597a156a8f5c","019cfc7b-6c7b-7b1b-afe7-acad8efc6711","","610","
                <div class=""stimulus-container"">
                    <img src=""images/causal_sequence/the_performance_causal/the_performance_causal_7.png"" class=""exp-image"">
                    <div class=""question-area"">
                        <p style=""font-size: 20px; font-weight: bold; margin: 0;"">Is there a person in this image?</p>
                    </div>
                </div>","0","main_experiment_trial","7","the_performance_causal","causal_sequence","chronological","","","","","","",""
"","","","","","html-keyboard-response","73","483646","0.0-73.0","8AED8CA5287A4CEFAC9D22CD06A4D239","019cfc7f-40f5-7bd0-b982-597a156a8f5c","019cfc7b-6c7b-7b1b-afe7-acad8efc6711","","null","
                <div class=""stimulus-container"">
                    <img src=""images/causal_sequence/the_performance_causal/the_performance_causal_8.png"" class=""exp-image"">
                    <div class=""question-area""></div> 
                </div>","null","","","","","","","","","","","",""
"","","","","","html-button-response","74","484306","0.0-74.0","8AED8CA5287A4CEFAC9D22CD06A4D239","019cfc7f-40f5-7bd0-b982-597a156a8f5c","019cfc7b-6c7b-7b1b-afe7-acad8efc6711","","659","
                <div class=""stimulus-container"">
                    <img src=""images/causal_sequence/the_performance_causal/the_performance_causal_8.png"" class=""exp-image"">
                    <div class=""question-area"">
                        <p style=""font-size: 20px; font-weight: bold; margin: 0;"">Is there a person in this image?</p>
                    </div>
                </div>","0","main_experiment_trial","8","the_performance_causal","causal_sequence","chronological","","","","","","",""
"","","","","","html-keyboard-response","75","489315","0.0-75.0","8AED8CA5287A4CEFAC9D22CD06A4D239","019cfc7f-40f5-7bd0-b982-597a156a8f5c","019cfc7b-6c7b-7b1b-afe7-acad8efc6711","","null","
                <div class=""stimulus-container"">
                    <img src=""images/causal_sequence/the_performance_causal/the_performance_causal_9.png"" class=""exp-image"">
                    <div class=""question-area""></div> 
                </div>","null","","","","","","","","","","","",""
"","","","","","html-button-response","76","490221","0.0-76.0","8AED8CA5287A4CEFAC9D22CD06A4D239","019cfc7f-40f5-7bd0-b982-597a156a8f5c","019cfc7b-6c7b-7b1b-afe7-acad8efc6711","","905","
                <div class=""stimulus-container"">
                    <img src=""images/causal_sequence/the_performance_causal/the_performance_causal_9.png"" class=""exp-image"">
                    <div class=""question-area"">
                        <p style=""font-size: 20px; font-weight: bold; margin: 0;"">Is there a person in this image?</p>
                    </div>
                </div>","0","main_experiment_trial","9","the_performance_causal","causal_sequence","chronological","","","","","","",""
"","","","","","html-keyboard-response","77","495231","0.0-77.0","8AED8CA5287A4CEFAC9D22CD06A4D239","019cfc7f-40f5-7bd0-b982-597a156a8f5c","019cfc7b-6c7b-7b1b-afe7-acad8efc6711","","null","
                <div class=""stimulus-container"">
                    <img src=""images/causal_sequence/the_performance_causal/the_performance_causal_ten.png"" class=""exp-image"">
                    <div class=""question-area""></div> 
                </div>","null","","","","","","","","","","","",""
"","","","","","html-button-response","78","495762","0.0-78.0","8AED8CA5287A4CEFAC9D22CD06A4D239","019cfc7f-40f5-7bd0-b982-597a156a8f5c","019cfc7b-6c7b-7b1b-afe7-acad8efc6711","","530","
                <div class=""stimulus-container"">
                    <img src=""images/causal_sequence/the_performance_causal/the_performance_causal_ten.png"" class=""exp-image"">
                    <div class=""question-area"">
                        <p style=""font-size: 20px; font-weight: bold; margin: 0;"">Is there a person in this image?</p>
                    </div>
                </div>","0","main_experiment_trial","ten","the_performance_causal","causal_sequence","chronological","","","","","","",""
"","","","","","html-keyboard-response","79","500776","0.0-79.0","8AED8CA5287A4CEFAC9D22CD06A4D239","019cfc7f-40f5-7bd0-b982-597a156a8f5c","019cfc7b-6c7b-7b1b-afe7-acad8efc6711","","null","<div style=""background-color: white; width: 100vw; height: 100vh;""></div>","null","","","","","","","","","","","",""
"","","","","","html-keyboard-response","80","505792","0.0-80.0","8AED8CA5287A4CEFAC9D22CD06A4D239","019cfc7f-40f5-7bd0-b982-597a156a8f5c","019cfc7b-6c7b-7b1b-afe7-acad8efc6711","","null","
                <div class=""stimulus-container"">
                    <img src=""images/schematic_sequence/supermarket_scheme/supermarket_scheme_1.png"" class=""exp-image"">
                    <div class=""question-area""></div> 
                </div>","null","","","","","","","","","","","",""
"","","","","","html-button-response","81","506393","0.0-81.0","8AED8CA5287A4CEFAC9D22CD06A4D239","019cfc7f-40f5-7bd0-b982-597a156a8f5c","019cfc7b-6c7b-7b1b-afe7-acad8efc6711","","600","
                <div class=""stimulus-container"">
                    <img src=""images/schematic_sequence/supermarket_scheme/supermarket_scheme_1.png"" class=""exp-image"">
                    <div class=""question-area"">
                        <p style=""font-size: 20px; font-weight: bold; margin: 0;"">Is there a person in this image?</p>
                    </div>
                </div>","1","main_experiment_trial","1","supermarket_scheme","schematic_sequence","chronological","","","","","","",""
"","","","","","html-keyboard-response","82","511402","0.0-82.0","8AED8CA5287A4CEFAC9D22CD06A4D239","019cfc7f-40f5-7bd0-b982-597a156a8f5c","019cfc7b-6c7b-7b1b-afe7-acad8efc6711","","null","
                <div class=""stimulus-container"">
                    <img src=""images/schematic_sequence/supermarket_scheme/supermarket_scheme_2.png"" class=""exp-image"">
                    <div class=""question-area""></div> 
                </div>","null","","","","","","","","","","","",""
"","","","","","html-button-response","83","511879","0.0-83.0","8AED8CA5287A4CEFAC9D22CD06A4D239","019cfc7f-40f5-7bd0-b982-597a156a8f5c","019cfc7b-6c7b-7b1b-afe7-acad8efc6711","","475","
                <div class=""stimulus-container"">
                    <img src=""images/schematic_sequence/supermarket_scheme/supermarket_scheme_2.png"" class=""exp-image"">
                    <div class=""question-area"">
                        <p style=""font-size: 20px; font-weight: bold; margin: 0;"">Is there a person in this image?</p>
                    </div>
                </div>","1","main_experiment_trial","2","supermarket_scheme","schematic_sequence","chronological","","","","","","",""
"","","","","","html-keyboard-response","84","516889","0.0-84.0","8AED8CA5287A4CEFAC9D22CD06A4D239","019cfc7f-40f5-7bd0-b982-597a156a8f5c","019cfc7b-6c7b-7b1b-afe7-acad8efc6711","","null","
                <div class=""stimulus-container"">
                    <img src=""images/schematic_sequence/supermarket_scheme/supermarket_scheme_3.png"" class=""exp-image"">
                    <div class=""question-area""></div> 
                </div>","null","","","","","","","","","","","",""
"","","","","","html-button-response","85","517367","0.0-85.0","8AED8CA5287A4CEFAC9D22CD06A4D239","019cfc7f-40f5-7bd0-b982-597a156a8f5c","019cfc7b-6c7b-7b1b-afe7-acad8efc6711","","477","
                <div class=""stimulus-container"">
                    <img src=""images/schematic_sequence/supermarket_scheme/supermarket_scheme_3.png"" class=""exp-image"">
                    <div class=""question-area"">
                        <p style=""font-size: 20px; font-weight: bold; margin: 0;"">Is there a person in this image?</p>
                    </div>
                </div>","1","main_experiment_trial","3","supermarket_scheme","schematic_sequence","chronological","","","","","","",""
"","","","","","html-keyboard-response","86","522381","0.0-86.0","8AED8CA5287A4CEFAC9D22CD06A4D239","019cfc7f-40f5-7bd0-b982-597a156a8f5c","019cfc7b-6c7b-7b1b-afe7-acad8efc6711","","null","
                <div class=""stimulus-container"">
                    <img src=""images/schematic_sequence/supermarket_scheme/supermarket_scheme_4.png"" class=""exp-image"">
                    <div class=""question-area""></div> 
                </div>","null","","","","","","","","","","","",""
"","","","","","html-button-response","87","522901","0.0-87.0","8AED8CA5287A4CEFAC9D22CD06A4D239","019cfc7f-40f5-7bd0-b982-597a156a8f5c","019cfc7b-6c7b-7b1b-afe7-acad8efc6711","","519","
                <div class=""stimulus-container"">
                    <img src=""images/schematic_sequence/supermarket_scheme/supermarket_scheme_4.png"" class=""exp-image"">
                    <div class=""question-area"">
                        <p style=""font-size: 20px; font-weight: bold; margin: 0;"">Is there a person in this image?</p>
                    </div>
                </div>","0","main_experiment_trial","4","supermarket_scheme","schematic_sequence","chronological","","","","","","",""
"","","","","","html-keyboard-response","88","527902","0.0-88.0","8AED8CA5287A4CEFAC9D22CD06A4D239","019cfc7f-40f5-7bd0-b982-597a156a8f5c","019cfc7b-6c7b-7b1b-afe7-acad8efc6711","","null","
                <div class=""stimulus-container"">
                    <img src=""images/schematic_sequence/supermarket_scheme/supermarket_scheme_5.png"" class=""exp-image"">
                    <div class=""question-area""></div> 
                </div>","null","","","","","","","","","","","",""
"","","","","","html-button-response","89","528613","0.0-89.0","8AED8CA5287A4CEFAC9D22CD06A4D239","019cfc7f-40f5-7bd0-b982-597a156a8f5c","019cfc7b-6c7b-7b1b-afe7-acad8efc6711","","710","
                <div class=""stimulus-container"">
                    <img src=""images/schematic_sequence/supermarket_scheme/supermarket_scheme_5.png"" class=""exp-image"">
                    <div class=""question-area"">
                        <p style=""font-size: 20px; font-weight: bold; margin: 0;"">Is there a person in this image?</p>
                    </div>
                </div>","1","main_experiment_trial","5","supermarket_scheme","schematic_sequence","chronological","","","","","","",""
"","","","","","html-keyboard-response","90","533615","0.0-90.0","8AED8CA5287A4CEFAC9D22CD06A4D239","019cfc7f-40f5-7bd0-b982-597a156a8f5c","019cfc7b-6c7b-7b1b-afe7-acad8efc6711","","null","
                <div class=""stimulus-container"">
                    <img src=""images/schematic_sequence/supermarket_scheme/supermarket_scheme_6.png"" class=""exp-image"">
                    <div class=""question-area""></div> 
                </div>","null","","","","","","","","","","","",""
"","","","","","html-button-response","91","534871","0.0-91.0","8AED8CA5287A4CEFAC9D22CD06A4D239","019cfc7f-40f5-7bd0-b982-597a156a8f5c","019cfc7b-6c7b-7b1b-afe7-acad8efc6711","","1255","
                <div class=""stimulus-container"">
                    <img src=""images/schematic_sequence/supermarket_scheme/supermarket_scheme_6.png"" class=""exp-image"">
                    <div class=""question-area"">
                        <p style=""font-size: 20px; font-weight: bold; margin: 0;"">Is there a person in this image?</p>
                    </div>
                </div>","0","main_experiment_trial","6","supermarket_scheme","schematic_sequence","chronological","","","","","","",""
"","","","","","html-keyboard-response","92","539879","0.0-92.0","8AED8CA5287A4CEFAC9D22CD06A4D239","019cfc7f-40f5-7bd0-b982-597a156a8f5c","019cfc7b-6c7b-7b1b-afe7-acad8efc6711","","null","
                <div class=""stimulus-container"">
                    <img src=""images/schematic_sequence/supermarket_scheme/supermarket_scheme_7.png"" class=""exp-image"">
                    <div class=""question-area""></div> 
                </div>","null","","","","","","","","","","","",""
"","","","","","html-button-response","93","540528","0.0-93.0","8AED8CA5287A4CEFAC9D22CD06A4D239","019cfc7f-40f5-7bd0-b982-597a156a8f5c","019cfc7b-6c7b-7b1b-afe7-acad8efc6711","","648","
                <div class=""stimulus-container"">
                    <img src=""images/schematic_sequence/supermarket_scheme/supermarket_scheme_7.png"" class=""exp-image"">
                    <div class=""question-area"">
                        <p style=""font-size: 20px; font-weight: bold; margin: 0;"">Is there a person in this image?</p>
                    </div>
                </div>","0","main_experiment_trial","7","supermarket_scheme","schematic_sequence","chronological","","","","","","",""
"","","","","","html-keyboard-response","94","545530","0.0-94.0","8AED8CA5287A4CEFAC9D22CD06A4D239","019cfc7f-40f5-7bd0-b982-597a156a8f5c","019cfc7b-6c7b-7b1b-afe7-acad8efc6711","","null","
                <div class=""stimulus-container"">
                    <img src=""images/schematic_sequence/supermarket_scheme/supermarket_scheme_8.png"" class=""exp-image"">
                    <div class=""question-area""></div> 
                </div>","null","","","","","","","","","","","",""
"","","","","","html-button-response","95","546007","0.0-95.0","8AED8CA5287A4CEFAC9D22CD06A4D239","019cfc7f-40f5-7bd0-b982-597a156a8f5c","019cfc7b-6c7b-7b1b-afe7-acad8efc6711","","476","
                <div class=""stimulus-container"">
                    <img src=""images/schematic_sequence/supermarket_scheme/supermarket_scheme_8.png"" class=""exp-image"">
                    <div class=""question-area"">
                        <p style=""font-size: 20px; font-weight: bold; margin: 0;"">Is there a person in this image?</p>
                    </div>
                </div>","0","main_experiment_trial","8","supermarket_scheme","schematic_sequence","chronological","","","","","","",""
"","","","","","html-keyboard-response","96","551011","0.0-96.0","8AED8CA5287A4CEFAC9D22CD06A4D239","019cfc7f-40f5-7bd0-b982-597a156a8f5c","019cfc7b-6c7b-7b1b-afe7-acad8efc6711","","null","
                <div class=""stimulus-container"">
                    <img src=""images/schematic_sequence/supermarket_scheme/supermarket_scheme_9.png"" class=""exp-image"">
                    <div class=""question-area""></div> 
                </div>","null","","","","","","","","","","","",""
"","","","","","html-button-response","97","551526","0.0-97.0","8AED8CA5287A4CEFAC9D22CD06A4D239","019cfc7f-40f5-7bd0-b982-597a156a8f5c","019cfc7b-6c7b-7b1b-afe7-acad8efc6711","","514","
                <div class=""stimulus-container"">
                    <img src=""images/schematic_sequence/supermarket_scheme/supermarket_scheme_9.png"" class=""exp-image"">
                    <div class=""question-area"">
                        <p style=""font-size: 20px; font-weight: bold; margin: 0;"">Is there a person in this image?</p>
                    </div>
                </div>","0","main_experiment_trial","9","supermarket_scheme","schematic_sequence","chronological","","","","","","",""
"","","","","","html-keyboard-response","98","556532","0.0-98.0","8AED8CA5287A4CEFAC9D22CD06A4D239","019cfc7f-40f5-7bd0-b982-597a156a8f5c","019cfc7b-6c7b-7b1b-afe7-acad8efc6711","","null","
                <div class=""stimulus-container"">
                    <img src=""images/schematic_sequence/supermarket_scheme/supermarket_scheme_ten.png"" class=""exp-image"">
                    <div class=""question-area""></div> 
                </div>","null","","","","","","","","","","","",""
"","","","","","html-button-response","99","557279","0.0-99.0","8AED8CA5287A4CEFAC9D22CD06A4D239","019cfc7f-40f5-7bd0-b982-597a156a8f5c","019cfc7b-6c7b-7b1b-afe7-acad8efc6711","","746","
                <div class=""stimulus-container"">
                    <img src=""images/schematic_sequence/supermarket_scheme/supermarket_scheme_ten.png"" class=""exp-image"">
                    <div class=""question-area"">
                        <p style=""font-size: 20px; font-weight: bold; margin: 0;"">Is there a person in this image?</p>
                    </div>
                </div>","1","main_experiment_trial","ten","supermarket_scheme","schematic_sequence","chronological","","","","","","",""
"","","","","","html-keyboard-response","100","562287","0.0-100.0","8AED8CA5287A4CEFAC9D22CD06A4D239","019cfc7f-40f5-7bd0-b982-597a156a8f5c","019cfc7b-6c7b-7b1b-afe7-acad8efc6711","","null","<div style=""background-color: white; width: 100vw; height: 100vh;""></div>","null","","","","","","","","","","","",""
"","","","","","html-keyboard-response","101","567290","0.0-101.0","8AED8CA5287A4CEFAC9D22CD06A4D239","019cfc7f-40f5-7bd0-b982-597a156a8f5c","019cfc7b-6c7b-7b1b-afe7-acad8efc6711","","null","
                <div class=""stimulus-container"">
                    <img src=""images/semantic_sequence/housework_semantic/housework_semantic_1.png"" class=""exp-image"">
                    <div class=""question-area""></div> 
                </div>","null","","","","","","","","","","","",""
"","","","","","html-button-response","102","567959","0.0-102.0","8AED8CA5287A4CEFAC9D22CD06A4D239","019cfc7f-40f5-7bd0-b982-597a156a8f5c","019cfc7b-6c7b-7b1b-afe7-acad8efc6711","","668","
                <div class=""stimulus-container"">
                    <img src=""images/semantic_sequence/housework_semantic/housework_semantic_1.png"" class=""exp-image"">
                    <div class=""question-area"">
                        <p style=""font-size: 20px; font-weight: bold; margin: 0;"">Is there a person in this image?</p>
                    </div>
                </div>","0","main_experiment_trial","1","housework_semantic","semantic_sequence","chronological","","","","","","",""
"","","","","","html-keyboard-response","103","572968","0.0-103.0","8AED8CA5287A4CEFAC9D22CD06A4D239","019cfc7f-40f5-7bd0-b982-597a156a8f5c","019cfc7b-6c7b-7b1b-afe7-acad8efc6711","","null","
                <div class=""stimulus-container"">
                    <img src=""images/semantic_sequence/housework_semantic/housework_semantic_2.png"" class=""exp-image"">
                    <div class=""question-area""></div> 
                </div>","null","","","","","","","","","","","",""
"","","","","","html-button-response","104","573571","0.0-104.0","8AED8CA5287A4CEFAC9D22CD06A4D239","019cfc7f-40f5-7bd0-b982-597a156a8f5c","019cfc7b-6c7b-7b1b-afe7-acad8efc6711","","602","
                <div class=""stimulus-container"">
                    <img src=""images/semantic_sequence/housework_semantic/housework_semantic_2.png"" class=""exp-image"">
                    <div class=""question-area"">
                        <p style=""font-size: 20px; font-weight: bold; margin: 0;"">Is there a person in this image?</p>
                    </div>
                </div>","0","main_experiment_trial","2","housework_semantic","semantic_sequence","chronological","","","","","","",""
"","","","","","html-keyboard-response","105","578573","0.0-105.0","8AED8CA5287A4CEFAC9D22CD06A4D239","019cfc7f-40f5-7bd0-b982-597a156a8f5c","019cfc7b-6c7b-7b1b-afe7-acad8efc6711","","null","
                <div class=""stimulus-container"">
                    <img src=""images/semantic_sequence/housework_semantic/housework_semantic_3.png"" class=""exp-image"">
                    <div class=""question-area""></div> 
                </div>","null","","","","","","","","","","","",""
"","","","","","html-button-response","106","579230","0.0-106.0","8AED8CA5287A4CEFAC9D22CD06A4D239","019cfc7f-40f5-7bd0-b982-597a156a8f5c","019cfc7b-6c7b-7b1b-afe7-acad8efc6711","","656","
                <div class=""stimulus-container"">
                    <img src=""images/semantic_sequence/housework_semantic/housework_semantic_3.png"" class=""exp-image"">
                    <div class=""question-area"">
                        <p style=""font-size: 20px; font-weight: bold; margin: 0;"">Is there a person in this image?</p>
                    </div>
                </div>","0","main_experiment_trial","3","housework_semantic","semantic_sequence","chronological","","","","","","",""
"","","","","","html-keyboard-response","107","584241","0.0-107.0","8AED8CA5287A4CEFAC9D22CD06A4D239","019cfc7f-40f5-7bd0-b982-597a156a8f5c","019cfc7b-6c7b-7b1b-afe7-acad8efc6711","","null","
                <div class=""stimulus-container"">
                    <img src=""images/semantic_sequence/housework_semantic/housework_semantic_4.png"" class=""exp-image"">
                    <div class=""question-area""></div> 
                </div>","null","","","","","","","","","","","",""
"","","","","","html-button-response","108","584896","0.0-108.0","8AED8CA5287A4CEFAC9D22CD06A4D239","019cfc7f-40f5-7bd0-b982-597a156a8f5c","019cfc7b-6c7b-7b1b-afe7-acad8efc6711","","654","
                <div class=""stimulus-container"">
                    <img src=""images/semantic_sequence/housework_semantic/housework_semantic_4.png"" class=""exp-image"">
                    <div class=""question-area"">
                        <p style=""font-size: 20px; font-weight: bold; margin: 0;"">Is there a person in this image?</p>
                    </div>
                </div>","0","main_experiment_trial","4","housework_semantic","semantic_sequence","chronological","","","","","","",""
"","","","","","html-keyboard-response","109","589898","0.0-109.0","8AED8CA5287A4CEFAC9D22CD06A4D239","019cfc7f-40f5-7bd0-b982-597a156a8f5c","019cfc7b-6c7b-7b1b-afe7-acad8efc6711","","null","
                <div class=""stimulus-container"">
                    <img src=""images/semantic_sequence/housework_semantic/housework_semantic_5.png"" class=""exp-image"">
                    <div class=""question-area""></div> 
                </div>","null","","","","","","","","","","","",""
"","","","","","html-button-response","110","590446","0.0-110.0","8AED8CA5287A4CEFAC9D22CD06A4D239","019cfc7f-40f5-7bd0-b982-597a156a8f5c","019cfc7b-6c7b-7b1b-afe7-acad8efc6711","","547","
                <div class=""stimulus-container"">
                    <img src=""images/semantic_sequence/housework_semantic/housework_semantic_5.png"" class=""exp-image"">
                    <div class=""question-area"">
                        <p style=""font-size: 20px; font-weight: bold; margin: 0;"">Is there a person in this image?</p>
                    </div>
                </div>","0","main_experiment_trial","5","housework_semantic","semantic_sequence","chronological","","","","","","",""
"","","","","","html-keyboard-response","111","595456","0.0-111.0","8AED8CA5287A4CEFAC9D22CD06A4D239","019cfc7f-40f5-7bd0-b982-597a156a8f5c","019cfc7b-6c7b-7b1b-afe7-acad8efc6711","","null","
                <div class=""stimulus-container"">
                    <img src=""images/semantic_sequence/housework_semantic/housework_semantic_6.png"" class=""exp-image"">
                    <div class=""question-area""></div> 
                </div>","null","","","","","","","","","","","",""
"","","","","","html-button-response","112","597577","0.0-112.0","8AED8CA5287A4CEFAC9D22CD06A4D239","019cfc7f-40f5-7bd0-b982-597a156a8f5c","019cfc7b-6c7b-7b1b-afe7-acad8efc6711","","2119","
                <div class=""stimulus-container"">
                    <img src=""images/semantic_sequence/housework_semantic/housework_semantic_6.png"" class=""exp-image"">
                    <div class=""question-area"">
                        <p style=""font-size: 20px; font-weight: bold; margin: 0;"">Is there a person in this image?</p>
                    </div>
                </div>","0","main_experiment_trial","6","housework_semantic","semantic_sequence","chronological","","","","","","",""
"","","","","","html-keyboard-response","113","602579","0.0-113.0","8AED8CA5287A4CEFAC9D22CD06A4D239","019cfc7f-40f5-7bd0-b982-597a156a8f5c","019cfc7b-6c7b-7b1b-afe7-acad8efc6711","","null","
                <div class=""stimulus-container"">
                    <img src=""images/semantic_sequence/housework_semantic/housework_semantic_7.png"" class=""exp-image"">
                    <div class=""question-area""></div> 
                </div>","null","","","","","","","","","","","",""
"","","","","","html-button-response","114","603251","0.0-114.0","8AED8CA5287A4CEFAC9D22CD06A4D239","019cfc7f-40f5-7bd0-b982-597a156a8f5c","019cfc7b-6c7b-7b1b-afe7-acad8efc6711","","671","
                <div class=""stimulus-container"">
                    <img src=""images/semantic_sequence/housework_semantic/housework_semantic_7.png"" class=""exp-image"">
                    <div class=""question-area"">
                        <p style=""font-size: 20px; font-weight: bold; margin: 0;"">Is there a person in this image?</p>
                    </div>
                </div>","0","main_experiment_trial","7","housework_semantic","semantic_sequence","chronological","","","","","","",""
"","","","","","html-keyboard-response","115","608254","0.0-115.0","8AED8CA5287A4CEFAC9D22CD06A4D239","019cfc7f-40f5-7bd0-b982-597a156a8f5c","019cfc7b-6c7b-7b1b-afe7-acad8efc6711","","null","
                <div class=""stimulus-container"">
                    <img src=""images/semantic_sequence/housework_semantic/housework_semantic_8.png"" class=""exp-image"">
                    <div class=""question-area""></div> 
                </div>","null","","","","","","","","","","","",""
"","","","","","html-button-response","116","608933","0.0-116.0","8AED8CA5287A4CEFAC9D22CD06A4D239","019cfc7f-40f5-7bd0-b982-597a156a8f5c","019cfc7b-6c7b-7b1b-afe7-acad8efc6711","","677","
                <div class=""stimulus-container"">
                    <img src=""images/semantic_sequence/housework_semantic/housework_semantic_8.png"" class=""exp-image"">
                    <div class=""question-area"">
                        <p style=""font-size: 20px; font-weight: bold; margin: 0;"">Is there a person in this image?</p>
                    </div>
                </div>","0","main_experiment_trial","8","housework_semantic","semantic_sequence","chronological","","","","","","",""
"","","","","","html-keyboard-response","117","613934","0.0-117.0","8AED8CA5287A4CEFAC9D22CD06A4D239","019cfc7f-40f5-7bd0-b982-597a156a8f5c","019cfc7b-6c7b-7b1b-afe7-acad8efc6711","","null","
                <div class=""stimulus-container"">
                    <img src=""images/semantic_sequence/housework_semantic/housework_semantic_9.png"" class=""exp-image"">
                    <div class=""question-area""></div> 
                </div>","null","","","","","","","","","","","",""
"","","","","","html-button-response","118","614747","0.0-118.0","8AED8CA5287A4CEFAC9D22CD06A4D239","019cfc7f-40f5-7bd0-b982-597a156a8f5c","019cfc7b-6c7b-7b1b-afe7-acad8efc6711","","812","
                <div class=""stimulus-container"">
                    <img src=""images/semantic_sequence/housework_semantic/housework_semantic_9.png"" class=""exp-image"">
                    <div class=""question-area"">
                        <p style=""font-size: 20px; font-weight: bold; margin: 0;"">Is there a person in this image?</p>
                    </div>
                </div>","0","main_experiment_trial","9","housework_semantic","semantic_sequence","chronological","","","","","","",""
"","","","","","html-keyboard-response","119","619758","0.0-119.0","8AED8CA5287A4CEFAC9D22CD06A4D239","019cfc7f-40f5-7bd0-b982-597a156a8f5c","019cfc7b-6c7b-7b1b-afe7-acad8efc6711","","null","
                <div class=""stimulus-container"">
                    <img src=""images/semantic_sequence/housework_semantic/housework_semantic_ten.png"" class=""exp-image"">
                    <div class=""question-area""></div> 
                </div>","null","","","","","","","","","","","",""
"","","","","","html-button-response","120","620265","0.0-120.0","8AED8CA5287A4CEFAC9D22CD06A4D239","019cfc7f-40f5-7bd0-b982-597a156a8f5c","019cfc7b-6c7b-7b1b-afe7-acad8efc6711","","507","
                <div class=""stimulus-container"">
                    <img src=""images/semantic_sequence/housework_semantic/housework_semantic_ten.png"" class=""exp-image"">
                    <div class=""question-area"">
                        <p style=""font-size: 20px; font-weight: bold; margin: 0;"">Is there a person in this image?</p>
                    </div>
                </div>","0","main_experiment_trial","ten","housework_semantic","semantic_sequence","chronological","","","","","","",""
"","","","","","html-keyboard-response","121","625266","0.0-121.0","8AED8CA5287A4CEFAC9D22CD06A4D239","019cfc7f-40f5-7bd0-b982-597a156a8f5c","019cfc7b-6c7b-7b1b-afe7-acad8efc6711","","null","<div style=""background-color: white; width: 100vw; height: 100vh;""></div>","null","","","","","","","","","","","",""
"","","","","","html-keyboard-response","122","630280","0.0-122.0","8AED8CA5287A4CEFAC9D22CD06A4D239","019cfc7f-40f5-7bd0-b982-597a156a8f5c","019cfc7b-6c7b-7b1b-afe7-acad8efc6711","","null","
                <div class=""stimulus-container"">
                    <img src=""images/semantic_sequence/visiting_cities_semantic/visiting_cities_semantic_1.png"" class=""exp-image"">
                    <div class=""question-area""></div> 
                </div>","null","","","","","","","","","","","",""
"","","","","","html-button-response","123","630846","0.0-123.0","8AED8CA5287A4CEFAC9D22CD06A4D239","019cfc7f-40f5-7bd0-b982-597a156a8f5c","019cfc7b-6c7b-7b1b-afe7-acad8efc6711","","565","
                <div class=""stimulus-container"">
                    <img src=""images/semantic_sequence/visiting_cities_semantic/visiting_cities_semantic_1.png"" class=""exp-image"">
                    <div class=""question-area"">
                        <p style=""font-size: 20px; font-weight: bold; margin: 0;"">Is there a person in this image?</p>
                    </div>
                </div>","0","main_experiment_trial","1","visiting_cities_semantic","semantic_sequence","chronological","","","","","","",""
"","","","","","html-keyboard-response","124","635849","0.0-124.0","8AED8CA5287A4CEFAC9D22CD06A4D239","019cfc7f-40f5-7bd0-b982-597a156a8f5c","019cfc7b-6c7b-7b1b-afe7-acad8efc6711","","null","
                <div class=""stimulus-container"">
                    <img src=""images/semantic_sequence/visiting_cities_semantic/visiting_cities_semantic_2.png"" class=""exp-image"">
                    <div class=""question-area""></div> 
                </div>","null","","","","","","","","","","","",""
"","","","","","html-button-response","125","636414","0.0-125.0","8AED8CA5287A4CEFAC9D22CD06A4D239","019cfc7f-40f5-7bd0-b982-597a156a8f5c","019cfc7b-6c7b-7b1b-afe7-acad8efc6711","","564","
                <div class=""stimulus-container"">
                    <img src=""images/semantic_sequence/visiting_cities_semantic/visiting_cities_semantic_2.png"" class=""exp-image"">
                    <div class=""question-area"">
                        <p style=""font-size: 20px; font-weight: bold; margin: 0;"">Is there a person in this image?</p>
                    </div>
                </div>","1","main_experiment_trial","2","visiting_cities_semantic","semantic_sequence","chronological","","","","","","",""
"","","","","","html-keyboard-response","126","641417","0.0-126.0","8AED8CA5287A4CEFAC9D22CD06A4D239","019cfc7f-40f5-7bd0-b982-597a156a8f5c","019cfc7b-6c7b-7b1b-afe7-acad8efc6711","","null","
                <div class=""stimulus-container"">
                    <img src=""images/semantic_sequence/visiting_cities_semantic/visiting_cities_semantic_3.png"" class=""exp-image"">
                    <div class=""question-area""></div> 
                </div>","null","","","","","","","","","","","",""
"","","","","","html-button-response","127","642605","0.0-127.0","8AED8CA5287A4CEFAC9D22CD06A4D239","019cfc7f-40f5-7bd0-b982-597a156a8f5c","019cfc7b-6c7b-7b1b-afe7-acad8efc6711","","1185","
                <div class=""stimulus-container"">
                    <img src=""images/semantic_sequence/visiting_cities_semantic/visiting_cities_semantic_3.png"" class=""exp-image"">
                    <div class=""question-area"">
                        <p style=""font-size: 20px; font-weight: bold; margin: 0;"">Is there a person in this image?</p>
                    </div>
                </div>","1","main_experiment_trial","3","visiting_cities_semantic","semantic_sequence","chronological","","","","","","",""
"","","","","","html-keyboard-response","128","647618","0.0-128.0","8AED8CA5287A4CEFAC9D22CD06A4D239","019cfc7f-40f5-7bd0-b982-597a156a8f5c","019cfc7b-6c7b-7b1b-afe7-acad8efc6711","","null","
                <div class=""stimulus-container"">
                    <img src=""images/semantic_sequence/visiting_cities_semantic/visiting_cities_semantic_4.png"" class=""exp-image"">
                    <div class=""question-area""></div> 
                </div>","null","","","","","","","","","","","",""
"","","","","","html-button-response","129","648077","0.0-129.0","8AED8CA5287A4CEFAC9D22CD06A4D239","019cfc7f-40f5-7bd0-b982-597a156a8f5c","019cfc7b-6c7b-7b1b-afe7-acad8efc6711","","458","
                <div class=""stimulus-container"">
                    <img src=""images/semantic_sequence/visiting_cities_semantic/visiting_cities_semantic_4.png"" class=""exp-image"">
                    <div class=""question-area"">
                        <p style=""font-size: 20px; font-weight: bold; margin: 0;"">Is there a person in this image?</p>
                    </div>
                </div>","1","main_experiment_trial","4","visiting_cities_semantic","semantic_sequence","chronological","","","","","","",""
"","","","","","html-keyboard-response","130","653089","0.0-130.0","8AED8CA5287A4CEFAC9D22CD06A4D239","019cfc7f-40f5-7bd0-b982-597a156a8f5c","019cfc7b-6c7b-7b1b-afe7-acad8efc6711","","null","
                <div class=""stimulus-container"">
                    <img src=""images/semantic_sequence/visiting_cities_semantic/visiting_cities_semantic_5.png"" class=""exp-image"">
                    <div class=""question-area""></div> 
                </div>","null","","","","","","","","","","","",""
"","","","","","html-button-response","131","654270","0.0-131.0","8AED8CA5287A4CEFAC9D22CD06A4D239","019cfc7f-40f5-7bd0-b982-597a156a8f5c","019cfc7b-6c7b-7b1b-afe7-acad8efc6711","","1180","
                <div class=""stimulus-container"">
                    <img src=""images/semantic_sequence/visiting_cities_semantic/visiting_cities_semantic_5.png"" class=""exp-image"">
                    <div class=""question-area"">
                        <p style=""font-size: 20px; font-weight: bold; margin: 0;"">Is there a person in this image?</p>
                    </div>
                </div>","1","main_experiment_trial","5","visiting_cities_semantic","semantic_sequence","chronological","","","","","","",""
"","","","","","html-keyboard-response","132","659272","0.0-132.0","8AED8CA5287A4CEFAC9D22CD06A4D239","019cfc7f-40f5-7bd0-b982-597a156a8f5c","019cfc7b-6c7b-7b1b-afe7-acad8efc6711","","null","
                <div class=""stimulus-container"">
                    <img src=""images/semantic_sequence/visiting_cities_semantic/visiting_cities_semantic_6.png"" class=""exp-image"">
                    <div class=""question-area""></div> 
                </div>","null","","","","","","","","","","","",""
"","","","","","html-button-response","133","659775","0.0-133.0","8AED8CA5287A4CEFAC9D22CD06A4D239","019cfc7f-40f5-7bd0-b982-597a156a8f5c","019cfc7b-6c7b-7b1b-afe7-acad8efc6711","","501","
                <div class=""stimulus-container"">
                    <img src=""images/semantic_sequence/visiting_cities_semantic/visiting_cities_semantic_6.png"" class=""exp-image"">
                    <div class=""question-area"">
                        <p style=""font-size: 20px; font-weight: bold; margin: 0;"">Is there a person in this image?</p>
                    </div>
                </div>","1","main_experiment_trial","6","visiting_cities_semantic","semantic_sequence","chronological","","","","","","",""
"","","","","","html-keyboard-response","134","664776","0.0-134.0","8AED8CA5287A4CEFAC9D22CD06A4D239","019cfc7f-40f5-7bd0-b982-597a156a8f5c","019cfc7b-6c7b-7b1b-afe7-acad8efc6711","","null","
                <div class=""stimulus-container"">
                    <img src=""images/semantic_sequence/visiting_cities_semantic/visiting_cities_semantic_7.png"" class=""exp-image"">
                    <div class=""question-area""></div> 
                </div>","null","","","","","","","","","","","",""
"","","","","","html-button-response","135","665278","0.0-135.0","8AED8CA5287A4CEFAC9D22CD06A4D239","019cfc7f-40f5-7bd0-b982-597a156a8f5c","019cfc7b-6c7b-7b1b-afe7-acad8efc6711","","501","
                <div class=""stimulus-container"">
                    <img src=""images/semantic_sequence/visiting_cities_semantic/visiting_cities_semantic_7.png"" class=""exp-image"">
                    <div class=""question-area"">
                        <p style=""font-size: 20px; font-weight: bold; margin: 0;"">Is there a person in this image?</p>
                    </div>
                </div>","1","main_experiment_trial","7","visiting_cities_semantic","semantic_sequence","chronological","","","","","","",""
"","","","","","html-keyboard-response","136","670287","0.0-136.0","8AED8CA5287A4CEFAC9D22CD06A4D239","019cfc7f-40f5-7bd0-b982-597a156a8f5c","019cfc7b-6c7b-7b1b-afe7-acad8efc6711","","null","
                <div class=""stimulus-container"">
                    <img src=""images/semantic_sequence/visiting_cities_semantic/visiting_cities_semantic_8.png"" class=""exp-image"">
                    <div class=""question-area""></div> 
                </div>","null","","","","","","","","","","","",""
"","","","","","html-button-response","137","670805","0.0-137.0","8AED8CA5287A4CEFAC9D22CD06A4D239","019cfc7f-40f5-7bd0-b982-597a156a8f5c","019cfc7b-6c7b-7b1b-afe7-acad8efc6711","","516","
                <div class=""stimulus-container"">
                    <img src=""images/semantic_sequence/visiting_cities_semantic/visiting_cities_semantic_8.png"" class=""exp-image"">
                    <div class=""question-area"">
                        <p style=""font-size: 20px; font-weight: bold; margin: 0;"">Is there a person in this image?</p>
                    </div>
                </div>","1","main_experiment_trial","8","visiting_cities_semantic","semantic_sequence","chronological","","","","","","",""
"","","","","","html-keyboard-response","138","675819","0.0-138.0","8AED8CA5287A4CEFAC9D22CD06A4D239","019cfc7f-40f5-7bd0-b982-597a156a8f5c","019cfc7b-6c7b-7b1b-afe7-acad8efc6711","","null","
                <div class=""stimulus-container"">
                    <img src=""images/semantic_sequence/visiting_cities_semantic/visiting_cities_semantic_9.png"" class=""exp-image"">
                    <div class=""question-area""></div> 
                </div>","null","","","","","","","","","","","",""
"","","","","","html-button-response","139","676309","0.0-139.0","8AED8CA5287A4CEFAC9D22CD06A4D239","019cfc7f-40f5-7bd0-b982-597a156a8f5c","019cfc7b-6c7b-7b1b-afe7-acad8efc6711","","489","
                <div class=""stimulus-container"">
                    <img src=""images/semantic_sequence/visiting_cities_semantic/visiting_cities_semantic_9.png"" class=""exp-image"">
                    <div class=""question-area"">
                        <p style=""font-size: 20px; font-weight: bold; margin: 0;"">Is there a person in this image?</p>
                    </div>
                </div>","1","main_experiment_trial","9","visiting_cities_semantic","semantic_sequence","chronological","","","","","","",""
"","","","","","html-keyboard-response","140","681311","0.0-140.0","8AED8CA5287A4CEFAC9D22CD06A4D239","019cfc7f-40f5-7bd0-b982-597a156a8f5c","019cfc7b-6c7b-7b1b-afe7-acad8efc6711","","null","
                <div class=""stimulus-container"">
                    <img src=""images/semantic_sequence/visiting_cities_semantic/visiting_cities_semantic_ten.png"" class=""exp-image"">
                    <div class=""question-area""></div> 
                </div>","null","","","","","","","","","","","",""
"","","","","","html-button-response","141","681828","0.0-141.0","8AED8CA5287A4CEFAC9D22CD06A4D239","019cfc7f-40f5-7bd0-b982-597a156a8f5c","019cfc7b-6c7b-7b1b-afe7-acad8efc6711","","516","
                <div class=""stimulus-container"">
                    <img src=""images/semantic_sequence/visiting_cities_semantic/visiting_cities_semantic_ten.png"" class=""exp-image"">
                    <div class=""question-area"">
                        <p style=""font-size: 20px; font-weight: bold; margin: 0;"">Is there a person in this image?</p>
                    </div>
                </div>","1","main_experiment_trial","ten","visiting_cities_semantic","semantic_sequence","chronological","","","","","","",""
"","","","","","html-keyboard-response","142","686830","0.0-142.0","8AED8CA5287A4CEFAC9D22CD06A4D239","019cfc7f-40f5-7bd0-b982-597a156a8f5c","019cfc7b-6c7b-7b1b-afe7-acad8efc6711","","null","<div style=""background-color: white; width: 100vw; height: 100vh;""></div>","null","","","","","","","","","","","",""
"","","","","","html-keyboard-response","143","691834","0.0-143.0","8AED8CA5287A4CEFAC9D22CD06A4D239","019cfc7f-40f5-7bd0-b982-597a156a8f5c","019cfc7b-6c7b-7b1b-afe7-acad8efc6711","","null","
                <div class=""stimulus-container"">
                    <img src=""images/semantic_sequence/physical_activity_semantic/physical_activity_semantic_1.png"" class=""exp-image"">
                    <div class=""question-area""></div> 
                </div>","null","","","","","","","","","","","",""
"","","","","","html-button-response","144","693387","0.0-144.0","8AED8CA5287A4CEFAC9D22CD06A4D239","019cfc7f-40f5-7bd0-b982-597a156a8f5c","019cfc7b-6c7b-7b1b-afe7-acad8efc6711","","1552","
                <div class=""stimulus-container"">
                    <img src=""images/semantic_sequence/physical_activity_semantic/physical_activity_semantic_1.png"" class=""exp-image"">
                    <div class=""question-area"">
                        <p style=""font-size: 20px; font-weight: bold; margin: 0;"">Is there a person in this image?</p>
                    </div>
                </div>","0","main_experiment_trial","1","physical_activity_semantic","semantic_sequence","chronological","","","","","","",""
"","","","","","html-keyboard-response","145","698400","0.0-145.0","8AED8CA5287A4CEFAC9D22CD06A4D239","019cfc7f-40f5-7bd0-b982-597a156a8f5c","019cfc7b-6c7b-7b1b-afe7-acad8efc6711","","null","
                <div class=""stimulus-container"">
                    <img src=""images/semantic_sequence/physical_activity_semantic/physical_activity_semantic_2.png"" class=""exp-image"">
                    <div class=""question-area""></div> 
                </div>","null","","","","","","","","","","","",""
"","","","","","html-button-response","146","699065","0.0-146.0","8AED8CA5287A4CEFAC9D22CD06A4D239","019cfc7f-40f5-7bd0-b982-597a156a8f5c","019cfc7b-6c7b-7b1b-afe7-acad8efc6711","","664","
                <div class=""stimulus-container"">
                    <img src=""images/semantic_sequence/physical_activity_semantic/physical_activity_semantic_2.png"" class=""exp-image"">
                    <div class=""question-area"">
                        <p style=""font-size: 20px; font-weight: bold; margin: 0;"">Is there a person in this image?</p>
                    </div>
                </div>","0","main_experiment_trial","2","physical_activity_semantic","semantic_sequence","chronological","","","","","","",""
"","","","","","html-keyboard-response","147","704075","0.0-147.0","8AED8CA5287A4CEFAC9D22CD06A4D239","019cfc7f-40f5-7bd0-b982-597a156a8f5c","019cfc7b-6c7b-7b1b-afe7-acad8efc6711","","null","
                <div class=""stimulus-container"">
                    <img src=""images/semantic_sequence/physical_activity_semantic/physical_activity_semantic_3.png"" class=""exp-image"">
                    <div class=""question-area""></div> 
                </div>","null","","","","","","","","","","","",""
"","","","","","html-button-response","148","704718","0.0-148.0","8AED8CA5287A4CEFAC9D22CD06A4D239","019cfc7f-40f5-7bd0-b982-597a156a8f5c","019cfc7b-6c7b-7b1b-afe7-acad8efc6711","","642","
                <div class=""stimulus-container"">
                    <img src=""images/semantic_sequence/physical_activity_semantic/physical_activity_semantic_3.png"" class=""exp-image"">
                    <div class=""question-area"">
                        <p style=""font-size: 20px; font-weight: bold; margin: 0;"">Is there a person in this image?</p>
                    </div>
                </div>","0","main_experiment_trial","3","physical_activity_semantic","semantic_sequence","chronological","","","","","","",""
"","","","","","html-keyboard-response","149","709731","0.0-149.0","8AED8CA5287A4CEFAC9D22CD06A4D239","019cfc7f-40f5-7bd0-b982-597a156a8f5c","019cfc7b-6c7b-7b1b-afe7-acad8efc6711","","null","
                <div class=""stimulus-container"">
                    <img src=""images/semantic_sequence/physical_activity_semantic/physical_activity_semantic_4.png"" class=""exp-image"">
                    <div class=""question-area""></div> 
                </div>","null","","","","","","","","","","","",""
"","","","","","html-button-response","150","710345","0.0-150.0","8AED8CA5287A4CEFAC9D22CD06A4D239","019cfc7f-40f5-7bd0-b982-597a156a8f5c","019cfc7b-6c7b-7b1b-afe7-acad8efc6711","","612","
                <div class=""stimulus-container"">
                    <img src=""images/semantic_sequence/physical_activity_semantic/physical_activity_semantic_4.png"" class=""exp-image"">
                    <div class=""question-area"">
                        <p style=""font-size: 20px; font-weight: bold; margin: 0;"">Is there a person in this image?</p>
                    </div>
                </div>","0","main_experiment_trial","4","physical_activity_semantic","semantic_sequence","chronological","","","","","","",""
"","","","","","html-keyboard-response","151","715353","0.0-151.0","8AED8CA5287A4CEFAC9D22CD06A4D239","019cfc7f-40f5-7bd0-b982-597a156a8f5c","019cfc7b-6c7b-7b1b-afe7-acad8efc6711","","null","
                <div class=""stimulus-container"">
                    <img src=""images/semantic_sequence/physical_activity_semantic/physical_activity_semantic_5.png"" class=""exp-image"">
                    <div class=""question-area""></div> 
                </div>","null","","","","","","","","","","","",""
"","","","","","html-button-response","152","716934","0.0-152.0","8AED8CA5287A4CEFAC9D22CD06A4D239","019cfc7f-40f5-7bd0-b982-597a156a8f5c","019cfc7b-6c7b-7b1b-afe7-acad8efc6711","","1580","
                <div class=""stimulus-container"">
                    <img src=""images/semantic_sequence/physical_activity_semantic/physical_activity_semantic_5.png"" class=""exp-image"">
                    <div class=""question-area"">
                        <p style=""font-size: 20px; font-weight: bold; margin: 0;"">Is there a person in this image?</p>
                    </div>
                </div>","0","main_experiment_trial","5","physical_activity_semantic","semantic_sequence","chronological","","","","","","",""
"","","","","","html-keyboard-response","153","721940","0.0-153.0","8AED8CA5287A4CEFAC9D22CD06A4D239","019cfc7f-40f5-7bd0-b982-597a156a8f5c","019cfc7b-6c7b-7b1b-afe7-acad8efc6711","","null","
                <div class=""stimulus-container"">
                    <img src=""images/semantic_sequence/physical_activity_semantic/physical_activity_semantic_6.png"" class=""exp-image"">
                    <div class=""question-area""></div> 
                </div>","null","","","","","","","","","","","",""
"","","","","","html-button-response","154","724953","0.0-154.0","8AED8CA5287A4CEFAC9D22CD06A4D239","019cfc7f-40f5-7bd0-b982-597a156a8f5c","019cfc7b-6c7b-7b1b-afe7-acad8efc6711","","null","
                <div class=""stimulus-container"">
                    <img src=""images/semantic_sequence/physical_activity_semantic/physical_activity_semantic_6.png"" class=""exp-image"">
                    <div class=""question-area"">
                        <p style=""font-size: 20px; font-weight: bold; margin: 0;"">Is there a person in this image?</p>
                    </div>
                </div>","null","main_experiment_trial","6","physical_activity_semantic","semantic_sequence","chronological","","","","","","",""
"","","","","","html-keyboard-response","155","729955","0.0-155.0","8AED8CA5287A4CEFAC9D22CD06A4D239","019cfc7f-40f5-7bd0-b982-597a156a8f5c","019cfc7b-6c7b-7b1b-afe7-acad8efc6711","","null","
                <div class=""stimulus-container"">
                    <img src=""images/semantic_sequence/physical_activity_semantic/physical_activity_semantic_7.png"" class=""exp-image"">
                    <div class=""question-area""></div> 
                </div>","null","","","","","","","","","","","",""
"","","","","","html-button-response","156","730841","0.0-156.0","8AED8CA5287A4CEFAC9D22CD06A4D239","019cfc7f-40f5-7bd0-b982-597a156a8f5c","019cfc7b-6c7b-7b1b-afe7-acad8efc6711","","885","
                <div class=""stimulus-container"">
                    <img src=""images/semantic_sequence/physical_activity_semantic/physical_activity_semantic_7.png"" class=""exp-image"">
                    <div class=""question-area"">
                        <p style=""font-size: 20px; font-weight: bold; margin: 0;"">Is there a person in this image?</p>
                    </div>
                </div>","0","main_experiment_trial","7","physical_activity_semantic","semantic_sequence","chronological","","","","","","",""
"","","","","","html-keyboard-response","157","735847","0.0-157.0","8AED8CA5287A4CEFAC9D22CD06A4D239","019cfc7f-40f5-7bd0-b982-597a156a8f5c","019cfc7b-6c7b-7b1b-afe7-acad8efc6711","","null","
                <div class=""stimulus-container"">
                    <img src=""images/semantic_sequence/physical_activity_semantic/physical_activity_semantic_8.png"" class=""exp-image"">
                    <div class=""question-area""></div> 
                </div>","null","","","","","","","","","","","",""
"","","","","","html-button-response","158","736794","0.0-158.0","8AED8CA5287A4CEFAC9D22CD06A4D239","019cfc7f-40f5-7bd0-b982-597a156a8f5c","019cfc7b-6c7b-7b1b-afe7-acad8efc6711","","946","
                <div class=""stimulus-container"">
                    <img src=""images/semantic_sequence/physical_activity_semantic/physical_activity_semantic_8.png"" class=""exp-image"">
                    <div class=""question-area"">
                        <p style=""font-size: 20px; font-weight: bold; margin: 0;"">Is there a person in this image?</p>
                    </div>
                </div>","0","main_experiment_trial","8","physical_activity_semantic","semantic_sequence","chronological","","","","","","",""
"","","","","","html-keyboard-response","159","741802","0.0-159.0","8AED8CA5287A4CEFAC9D22CD06A4D239","019cfc7f-40f5-7bd0-b982-597a156a8f5c","019cfc7b-6c7b-7b1b-afe7-acad8efc6711","","null","
                <div class=""stimulus-container"">
                    <img src=""images/semantic_sequence/physical_activity_semantic/physical_activity_semantic_9.png"" class=""exp-image"">
                    <div class=""question-area""></div> 
                </div>","null","","","","","","","","","","","",""
"","","","","","html-button-response","160","743538","0.0-160.0","8AED8CA5287A4CEFAC9D22CD06A4D239","019cfc7f-40f5-7bd0-b982-597a156a8f5c","019cfc7b-6c7b-7b1b-afe7-acad8efc6711","","1735","
                <div class=""stimulus-container"">
                    <img src=""images/semantic_sequence/physical_activity_semantic/physical_activity_semantic_9.png"" class=""exp-image"">
                    <div class=""question-area"">
                        <p style=""font-size: 20px; font-weight: bold; margin: 0;"">Is there a person in this image?</p>
                    </div>
                </div>","0","main_experiment_trial","9","physical_activity_semantic","semantic_sequence","chronological","","","","","","",""
"","","","","","html-keyboard-response","161","748546","0.0-161.0","8AED8CA5287A4CEFAC9D22CD06A4D239","019cfc7f-40f5-7bd0-b982-597a156a8f5c","019cfc7b-6c7b-7b1b-afe7-acad8efc6711","","null","
                <div class=""stimulus-container"">
                    <img src=""images/semantic_sequence/physical_activity_semantic/physical_activity_semantic_ten.png"" class=""exp-image"">
                    <div class=""question-area""></div> 
                </div>","null","","","","","","","","","","","",""
"","","","","","html-button-response","162","749087","0.0-162.0","8AED8CA5287A4CEFAC9D22CD06A4D239","019cfc7f-40f5-7bd0-b982-597a156a8f5c","019cfc7b-6c7b-7b1b-afe7-acad8efc6711","","540","
                <div class=""stimulus-container"">
                    <img src=""images/semantic_sequence/physical_activity_semantic/physical_activity_semantic_ten.png"" class=""exp-image"">
                    <div class=""question-area"">
                        <p style=""font-size: 20px; font-weight: bold; margin: 0;"">Is there a person in this image?</p>
                    </div>
                </div>","0","main_experiment_trial","ten","physical_activity_semantic","semantic_sequence","chronological","","","","","","",""
"","","","","","html-keyboard-response","163","754103","0.0-163.0","8AED8CA5287A4CEFAC9D22CD06A4D239","019cfc7f-40f5-7bd0-b982-597a156a8f5c","019cfc7b-6c7b-7b1b-afe7-acad8efc6711","","null","<div style=""background-color: white; width: 100vw; height: 100vh;""></div>","null","","","","","","","","","","","",""
"","","","","","html-keyboard-response","164","759120","0.0-164.0","8AED8CA5287A4CEFAC9D22CD06A4D239","019cfc7f-40f5-7bd0-b982-597a156a8f5c","019cfc7b-6c7b-7b1b-afe7-acad8efc6711","","null","
                <div class=""stimulus-container"">
                    <img src=""images/schematic_sequence/dinner_party_scheme/dinner_party_scheme_1.png"" class=""exp-image"">
                    <div class=""question-area""></div> 
                </div>","null","","","","","","","","","","","",""
"","","","","","html-button-response","165","759714","0.0-165.0","8AED8CA5287A4CEFAC9D22CD06A4D239","019cfc7f-40f5-7bd0-b982-597a156a8f5c","019cfc7b-6c7b-7b1b-afe7-acad8efc6711","","593","
                <div class=""stimulus-container"">
                    <img src=""images/schematic_sequence/dinner_party_scheme/dinner_party_scheme_1.png"" class=""exp-image"">
                    <div class=""question-area"">
                        <p style=""font-size: 20px; font-weight: bold; margin: 0;"">Is there a person in this image?</p>
                    </div>
                </div>","0","main_experiment_trial","1","dinner_party_scheme","schematic_sequence","chronological","","","","","","",""
"","","","","","html-keyboard-response","166","764716","0.0-166.0","8AED8CA5287A4CEFAC9D22CD06A4D239","019cfc7f-40f5-7bd0-b982-597a156a8f5c","019cfc7b-6c7b-7b1b-afe7-acad8efc6711","","null","
                <div class=""stimulus-container"">
                    <img src=""images/schematic_sequence/dinner_party_scheme/dinner_party_scheme_2.png"" class=""exp-image"">
                    <div class=""question-area""></div> 
                </div>","null","","","","","","","","","","","",""
"","","","","","html-button-response","167","765359","0.0-167.0","8AED8CA5287A4CEFAC9D22CD06A4D239","019cfc7f-40f5-7bd0-b982-597a156a8f5c","019cfc7b-6c7b-7b1b-afe7-acad8efc6711","","641","
                <div class=""stimulus-container"">
                    <img src=""images/schematic_sequence/dinner_party_scheme/dinner_party_scheme_2.png"" class=""exp-image"">
                    <div class=""question-area"">
                        <p style=""font-size: 20px; font-weight: bold; margin: 0;"">Is there a person in this image?</p>
                    </div>
                </div>","0","main_experiment_trial","2","dinner_party_scheme","schematic_sequence","chronological","","","","","","",""
"","","","","","html-keyboard-response","168","770372","0.0-168.0","8AED8CA5287A4CEFAC9D22CD06A4D239","019cfc7f-40f5-7bd0-b982-597a156a8f5c","019cfc7b-6c7b-7b1b-afe7-acad8efc6711","","null","
                <div class=""stimulus-container"">
                    <img src=""images/schematic_sequence/dinner_party_scheme/dinner_party_scheme_3.png"" class=""exp-image"">
                    <div class=""question-area""></div> 
                </div>","null","","","","","","","","","","","",""
"","","","","","html-button-response","169","770917","0.0-169.0","8AED8CA5287A4CEFAC9D22CD06A4D239","019cfc7f-40f5-7bd0-b982-597a156a8f5c","019cfc7b-6c7b-7b1b-afe7-acad8efc6711","","544","
                <div class=""stimulus-container"">
                    <img src=""images/schematic_sequence/dinner_party_scheme/dinner_party_scheme_3.png"" class=""exp-image"">
                    <div class=""question-area"">
                        <p style=""font-size: 20px; font-weight: bold; margin: 0;"">Is there a person in this image?</p>
                    </div>
                </div>","0","main_experiment_trial","3","dinner_party_scheme","schematic_sequence","chronological","","","","","","",""
"","","","","","html-keyboard-response","170","775922","0.0-170.0","8AED8CA5287A4CEFAC9D22CD06A4D239","019cfc7f-40f5-7bd0-b982-597a156a8f5c","019cfc7b-6c7b-7b1b-afe7-acad8efc6711","","null","
                <div class=""stimulus-container"">
                    <img src=""images/schematic_sequence/dinner_party_scheme/dinner_party_scheme_4.png"" class=""exp-image"">
                    <div class=""question-area""></div> 
                </div>","null","","","","","","","","","","","",""
"","","","","","html-button-response","171","776901","0.0-171.0","8AED8CA5287A4CEFAC9D22CD06A4D239","019cfc7f-40f5-7bd0-b982-597a156a8f5c","019cfc7b-6c7b-7b1b-afe7-acad8efc6711","","978","
                <div class=""stimulus-container"">
                    <img src=""images/schematic_sequence/dinner_party_scheme/dinner_party_scheme_4.png"" class=""exp-image"">
                    <div class=""question-area"">
                        <p style=""font-size: 20px; font-weight: bold; margin: 0;"">Is there a person in this image?</p>
                    </div>
                </div>","0","main_experiment_trial","4","dinner_party_scheme","schematic_sequence","chronological","","","","","","",""
"","","","","","html-keyboard-response","172","781913","0.0-172.0","8AED8CA5287A4CEFAC9D22CD06A4D239","019cfc7f-40f5-7bd0-b982-597a156a8f5c","019cfc7b-6c7b-7b1b-afe7-acad8efc6711","","null","
                <div class=""stimulus-container"">
                    <img src=""images/schematic_sequence/dinner_party_scheme/dinner_party_scheme_5.png"" class=""exp-image"">
                    <div class=""question-area""></div> 
                </div>","null","","","","","","","","","","","",""
"","","","","","html-button-response","173","782358","0.0-173.0","8AED8CA5287A4CEFAC9D22CD06A4D239","019cfc7f-40f5-7bd0-b982-597a156a8f5c","019cfc7b-6c7b-7b1b-afe7-acad8efc6711","","443","
                <div class=""stimulus-container"">
                    <img src=""images/schematic_sequence/dinner_party_scheme/dinner_party_scheme_5.png"" class=""exp-image"">
                    <div class=""question-area"">
                        <p style=""font-size: 20px; font-weight: bold; margin: 0;"">Is there a person in this image?</p>
                    </div>
                </div>","0","main_experiment_trial","5","dinner_party_scheme","schematic_sequence","chronological","","","","","","",""
"","","","","","html-keyboard-response","174","787361","0.0-174.0","8AED8CA5287A4CEFAC9D22CD06A4D239","019cfc7f-40f5-7bd0-b982-597a156a8f5c","019cfc7b-6c7b-7b1b-afe7-acad8efc6711","","null","
                <div class=""stimulus-container"">
                    <img src=""images/schematic_sequence/dinner_party_scheme/dinner_party_scheme_6.png"" class=""exp-image"">
                    <div class=""question-area""></div> 
                </div>","null","","","","","","","","","","","",""
"","","","","","html-button-response","175","787909","0.0-175.0","8AED8CA5287A4CEFAC9D22CD06A4D239","019cfc7f-40f5-7bd0-b982-597a156a8f5c","019cfc7b-6c7b-7b1b-afe7-acad8efc6711","","546","
                <div class=""stimulus-container"">
                    <img src=""images/schematic_sequence/dinner_party_scheme/dinner_party_scheme_6.png"" class=""exp-image"">
                    <div class=""question-area"">
                        <p style=""font-size: 20px; font-weight: bold; margin: 0;"">Is there a person in this image?</p>
                    </div>
                </div>","0","main_experiment_trial","6","dinner_party_scheme","schematic_sequence","chronological","","","","","","",""
"","","","","","html-keyboard-response","176","792922","0.0-176.0","8AED8CA5287A4CEFAC9D22CD06A4D239","019cfc7f-40f5-7bd0-b982-597a156a8f5c","019cfc7b-6c7b-7b1b-afe7-acad8efc6711","","null","
                <div class=""stimulus-container"">
