"success","timeout","failed_images","failed_audio","failed_video","trial_type","trial_index","time_elapsed","internal_node_id","subject_id","study_id","session_id","view_history","rt","stimulus","response","task","image_index","folder","sequence_type","presentation_order","valuable_image_index","reward_type","distance_from_x","target_X","chosen_image_index","is_x_plus_dist","correct_choice"
"true","false","[]","[]","[]","preload","0","7917","0.0-0.0","403FEDA4B9F8400BA54A8C65B0F33CA5","019cfc9a-46b2-71d3-b4b2-f328ce2c49a0","019cfc7b-6c7b-7b1b-afe7-acad8efc6711","","","","","","","","","","","","","","","",""
"","","","","","instructions","1","45851","0.0-1.0","403FEDA4B9F8400BA54A8C65B0F33CA5","019cfc9a-46b2-71d3-b4b2-f328ce2c49a0","019cfc7b-6c7b-7b1b-afe7-acad8efc6711","[{""page_index"":0,""viewing_time"":37933}]","37934","","","","","","","","","","","","","",""
"","","","","","instructions","2","48456","0.0-2.0","403FEDA4B9F8400BA54A8C65B0F33CA5","019cfc9a-46b2-71d3-b4b2-f328ce2c49a0","019cfc7b-6c7b-7b1b-afe7-acad8efc6711","[{""page_index"":0,""viewing_time"":2604}]","2604","","","","","","","","","","","","","",""
"true","","","","","fullscreen","3","50944","0.0-3.0","403FEDA4B9F8400BA54A8C65B0F33CA5","019cfc9a-46b2-71d3-b4b2-f328ce2c49a0","019cfc7b-6c7b-7b1b-afe7-acad8efc6711","","1480","","","","","","","","","","","","","",""
"","","","","","instructions","4","63813","0.0-4.0","403FEDA4B9F8400BA54A8C65B0F33CA5","019cfc9a-46b2-71d3-b4b2-f328ce2c49a0","019cfc7b-6c7b-7b1b-afe7-acad8efc6711","[{""page_index"":0,""viewing_time"":12867}]","12867","","","","","","","","","","","","","",""
"","","","","","instructions","5","69090","0.0-5.0","403FEDA4B9F8400BA54A8C65B0F33CA5","019cfc9a-46b2-71d3-b4b2-f328ce2c49a0","019cfc7b-6c7b-7b1b-afe7-acad8efc6711","[{""page_index"":0,""viewing_time"":5277}]","5278","","","","","","","","","","","","","",""
"","","","","","html-keyboard-response","6","73100","0.0-6.0","403FEDA4B9F8400BA54A8C65B0F33CA5","019cfc9a-46b2-71d3-b4b2-f328ce2c49a0","019cfc7b-6c7b-7b1b-afe7-acad8efc6711","","null","
                <div class=""stimulus-container"">
                    <img src=""images/instructions/movie_1.png"" class=""exp-image"">
                    <div class=""question-area""></div> 
                </div>","null","","","","","","","","","","","",""
"","","","","","html-button-response","7","75094","0.0-7.0","403FEDA4B9F8400BA54A8C65B0F33CA5","019cfc9a-46b2-71d3-b4b2-f328ce2c49a0","019cfc7b-6c7b-7b1b-afe7-acad8efc6711","","1990","
                <div class=""stimulus-container"">
                    <img src=""images/instructions/movie_1.png"" class=""exp-image"">
                    <div class=""question-area"">
                        <p style=""font-size: 20px; font-weight: bold; margin: 0;"">Was there a person in this image?</p>
                    </div>
                </div>","0","example_question","1","","","","","","","","","",""
"","","","","","html-keyboard-response","8","79100","0.0-8.0","403FEDA4B9F8400BA54A8C65B0F33CA5","019cfc9a-46b2-71d3-b4b2-f328ce2c49a0","019cfc7b-6c7b-7b1b-afe7-acad8efc6711","","null","
                <div class=""stimulus-container"">
                    <img src=""images/instructions/movie_2.png"" class=""exp-image"">
                    <div class=""question-area""></div> 
                </div>","null","","","","","","","","","","","",""
"","","","","","html-button-response","9","79992","0.0-9.0","403FEDA4B9F8400BA54A8C65B0F33CA5","019cfc9a-46b2-71d3-b4b2-f328ce2c49a0","019cfc7b-6c7b-7b1b-afe7-acad8efc6711","","890","
                <div class=""stimulus-container"">
                    <img src=""images/instructions/movie_2.png"" class=""exp-image"">
                    <div class=""question-area"">
                        <p style=""font-size: 20px; font-weight: bold; margin: 0;"">Was there a person in this image?</p>
                    </div>
                </div>","0","example_question","2","","","","","","","","","",""
"","","","","","html-keyboard-response","10","84003","0.0-10.0","403FEDA4B9F8400BA54A8C65B0F33CA5","019cfc9a-46b2-71d3-b4b2-f328ce2c49a0","019cfc7b-6c7b-7b1b-afe7-acad8efc6711","","null","
                <div class=""stimulus-container"">
                    <img src=""images/instructions/movie_3.png"" class=""exp-image"">
                    <div class=""question-area""></div> 
                </div>","null","","","","","","","","","","","",""
"","","","","","html-button-response","11","86085","0.0-11.0","403FEDA4B9F8400BA54A8C65B0F33CA5","019cfc9a-46b2-71d3-b4b2-f328ce2c49a0","019cfc7b-6c7b-7b1b-afe7-acad8efc6711","","2080","
                <div class=""stimulus-container"">
                    <img src=""images/instructions/movie_3.png"" class=""exp-image"">
                    <div class=""question-area"">
                        <p style=""font-size: 20px; font-weight: bold; margin: 0;"">Was there a person in this image?</p>
                    </div>
                </div>","0","example_question","3","","","","","","","","","",""
"","","","","","html-keyboard-response","12","90095","0.0-12.0","403FEDA4B9F8400BA54A8C65B0F33CA5","019cfc9a-46b2-71d3-b4b2-f328ce2c49a0","019cfc7b-6c7b-7b1b-afe7-acad8efc6711","","null","
                <div class=""stimulus-container"">
                    <img src=""images/instructions/movie_4.png"" class=""exp-image"">
                    <div class=""question-area""></div> 
                </div>","null","","","","","","","","","","","",""
"","","","","","html-button-response","13","91415","0.0-13.0","403FEDA4B9F8400BA54A8C65B0F33CA5","019cfc9a-46b2-71d3-b4b2-f328ce2c49a0","019cfc7b-6c7b-7b1b-afe7-acad8efc6711","","1318","
                <div class=""stimulus-container"">
                    <img src=""images/instructions/movie_4.png"" class=""exp-image"">
                    <div class=""question-area"">
                        <p style=""font-size: 20px; font-weight: bold; margin: 0;"">Was there a person in this image?</p>
                    </div>
                </div>","0","example_question","4","","","","","","","","","",""
"","","","","","instructions","14","92927","0.0-14.0","403FEDA4B9F8400BA54A8C65B0F33CA5","019cfc9a-46b2-71d3-b4b2-f328ce2c49a0","019cfc7b-6c7b-7b1b-afe7-acad8efc6711","[{""page_index"":0,""viewing_time"":1512}]","1512","","","","","","","","","","","","","",""
"","","","","","instructions","15","99949","0.0-15.0","403FEDA4B9F8400BA54A8C65B0F33CA5","019cfc9a-46b2-71d3-b4b2-f328ce2c49a0","019cfc7b-6c7b-7b1b-afe7-acad8efc6711","[{""page_index"":0,""viewing_time"":7021}]","7021","","","","","","","","","","","","","",""
"","","","","","html-keyboard-response","16","104960","0.0-16.0","403FEDA4B9F8400BA54A8C65B0F33CA5","019cfc9a-46b2-71d3-b4b2-f328ce2c49a0","019cfc7b-6c7b-7b1b-afe7-acad8efc6711","","null","<div style=""background-color: white; width: 100vw; height: 100vh;""></div>","null","","","","","","","","","","","",""
"","","","","","html-keyboard-response","17","109962","0.0-17.0","403FEDA4B9F8400BA54A8C65B0F33CA5","019cfc9a-46b2-71d3-b4b2-f328ce2c49a0","019cfc7b-6c7b-7b1b-afe7-acad8efc6711","","null","
                <div class=""stimulus-container"">
                    <img src=""images/schematic_sequence/flight_scheme/flight_scheme_1.png"" class=""exp-image"">
                    <div class=""question-area""></div> 
                </div>","null","","","","","","","","","","","",""
"","","","","","html-button-response","18","111007","0.0-18.0","403FEDA4B9F8400BA54A8C65B0F33CA5","019cfc9a-46b2-71d3-b4b2-f328ce2c49a0","019cfc7b-6c7b-7b1b-afe7-acad8efc6711","","1043","
                <div class=""stimulus-container"">
                    <img src=""images/schematic_sequence/flight_scheme/flight_scheme_1.png"" class=""exp-image"">
                    <div class=""question-area"">
                        <p style=""font-size: 20px; font-weight: bold; margin: 0;"">Is there a person in this image?</p>
                    </div>
                </div>","0","main_experiment_trial","1","flight_scheme","schematic_sequence","chronological","","","","","","",""
"","","","","","html-keyboard-response","19","116011","0.0-19.0","403FEDA4B9F8400BA54A8C65B0F33CA5","019cfc9a-46b2-71d3-b4b2-f328ce2c49a0","019cfc7b-6c7b-7b1b-afe7-acad8efc6711","","null","
                <div class=""stimulus-container"">
                    <img src=""images/schematic_sequence/flight_scheme/flight_scheme_2.png"" class=""exp-image"">
                    <div class=""question-area""></div> 
                </div>","null","","","","","","","","","","","",""
"","","","","","html-button-response","20","117907","0.0-20.0","403FEDA4B9F8400BA54A8C65B0F33CA5","019cfc9a-46b2-71d3-b4b2-f328ce2c49a0","019cfc7b-6c7b-7b1b-afe7-acad8efc6711","","1894","
                <div class=""stimulus-container"">
                    <img src=""images/schematic_sequence/flight_scheme/flight_scheme_2.png"" class=""exp-image"">
                    <div class=""question-area"">
                        <p style=""font-size: 20px; font-weight: bold; margin: 0;"">Is there a person in this image?</p>
                    </div>
                </div>","1","main_experiment_trial","2","flight_scheme","schematic_sequence","chronological","","","","","","",""
"","","","","","html-keyboard-response","21","122916","0.0-21.0","403FEDA4B9F8400BA54A8C65B0F33CA5","019cfc9a-46b2-71d3-b4b2-f328ce2c49a0","019cfc7b-6c7b-7b1b-afe7-acad8efc6711","","null","
                <div class=""stimulus-container"">
                    <img src=""images/schematic_sequence/flight_scheme/flight_scheme_3.png"" class=""exp-image"">
                    <div class=""question-area""></div> 
                </div>","null","","","","","","","","","","","",""
"","","","","","html-button-response","22","123631","0.0-22.0","403FEDA4B9F8400BA54A8C65B0F33CA5","019cfc9a-46b2-71d3-b4b2-f328ce2c49a0","019cfc7b-6c7b-7b1b-afe7-acad8efc6711","","713","
                <div class=""stimulus-container"">
                    <img src=""images/schematic_sequence/flight_scheme/flight_scheme_3.png"" class=""exp-image"">
                    <div class=""question-area"">
                        <p style=""font-size: 20px; font-weight: bold; margin: 0;"">Is there a person in this image?</p>
                    </div>
                </div>","0","main_experiment_trial","3","flight_scheme","schematic_sequence","chronological","","","","","","",""
"","","","","","html-keyboard-response","23","128644","0.0-23.0","403FEDA4B9F8400BA54A8C65B0F33CA5","019cfc9a-46b2-71d3-b4b2-f328ce2c49a0","019cfc7b-6c7b-7b1b-afe7-acad8efc6711","","null","
                <div class=""stimulus-container"">
                    <img src=""images/schematic_sequence/flight_scheme/flight_scheme_4.png"" class=""exp-image"">
                    <div class=""question-area""></div> 
                </div>","null","","","","","","","","","","","",""
"","","","","","html-button-response","24","129673","0.0-24.0","403FEDA4B9F8400BA54A8C65B0F33CA5","019cfc9a-46b2-71d3-b4b2-f328ce2c49a0","019cfc7b-6c7b-7b1b-afe7-acad8efc6711","","1027","
                <div class=""stimulus-container"">
                    <img src=""images/schematic_sequence/flight_scheme/flight_scheme_4.png"" class=""exp-image"">
                    <div class=""question-area"">
                        <p style=""font-size: 20px; font-weight: bold; margin: 0;"">Is there a person in this image?</p>
                    </div>
                </div>","0","main_experiment_trial","4","flight_scheme","schematic_sequence","chronological","","","","","","",""
"","","","","","html-keyboard-response","25","134678","0.0-25.0","403FEDA4B9F8400BA54A8C65B0F33CA5","019cfc9a-46b2-71d3-b4b2-f328ce2c49a0","019cfc7b-6c7b-7b1b-afe7-acad8efc6711","","null","
                <div class=""stimulus-container"">
                    <img src=""images/schematic_sequence/flight_scheme/flight_scheme_5.png"" class=""exp-image"">
                    <div class=""question-area""></div> 
                </div>","null","","","","","","","","","","","",""
"","","","","","html-button-response","26","135713","0.0-26.0","403FEDA4B9F8400BA54A8C65B0F33CA5","019cfc9a-46b2-71d3-b4b2-f328ce2c49a0","019cfc7b-6c7b-7b1b-afe7-acad8efc6711","","1033","
                <div class=""stimulus-container"">
                    <img src=""images/schematic_sequence/flight_scheme/flight_scheme_5.png"" class=""exp-image"">
                    <div class=""question-area"">
                        <p style=""font-size: 20px; font-weight: bold; margin: 0;"">Is there a person in this image?</p>
                    </div>
                </div>","0","main_experiment_trial","5","flight_scheme","schematic_sequence","chronological","","","","","","",""
"","","","","","html-keyboard-response","27","140727","0.0-27.0","403FEDA4B9F8400BA54A8C65B0F33CA5","019cfc9a-46b2-71d3-b4b2-f328ce2c49a0","019cfc7b-6c7b-7b1b-afe7-acad8efc6711","","null","
                <div class=""stimulus-container"">
                    <img src=""images/schematic_sequence/flight_scheme/flight_scheme_6.png"" class=""exp-image"">
                    <div class=""question-area""></div> 
                </div>","null","","","","","","","","","","","",""
"","","","","","html-button-response","28","142173","0.0-28.0","403FEDA4B9F8400BA54A8C65B0F33CA5","019cfc9a-46b2-71d3-b4b2-f328ce2c49a0","019cfc7b-6c7b-7b1b-afe7-acad8efc6711","","1444","
                <div class=""stimulus-container"">
                    <img src=""images/schematic_sequence/flight_scheme/flight_scheme_6.png"" class=""exp-image"">
                    <div class=""question-area"">
                        <p style=""font-size: 20px; font-weight: bold; margin: 0;"">Is there a person in this image?</p>
                    </div>
                </div>","1","main_experiment_trial","6","flight_scheme","schematic_sequence","chronological","","","","","","",""
"","","","","","html-keyboard-response","29","147179","0.0-29.0","403FEDA4B9F8400BA54A8C65B0F33CA5","019cfc9a-46b2-71d3-b4b2-f328ce2c49a0","019cfc7b-6c7b-7b1b-afe7-acad8efc6711","","null","
                <div class=""stimulus-container"">
                    <img src=""images/schematic_sequence/flight_scheme/flight_scheme_7.png"" class=""exp-image"">
                    <div class=""question-area""></div> 
                </div>","null","","","","","","","","","","","",""
"","","","","","html-button-response","30","148093","0.0-30.0","403FEDA4B9F8400BA54A8C65B0F33CA5","019cfc9a-46b2-71d3-b4b2-f328ce2c49a0","019cfc7b-6c7b-7b1b-afe7-acad8efc6711","","914","
                <div class=""stimulus-container"">
                    <img src=""images/schematic_sequence/flight_scheme/flight_scheme_7.png"" class=""exp-image"">
                    <div class=""question-area"">
                        <p style=""font-size: 20px; font-weight: bold; margin: 0;"">Is there a person in this image?</p>
                    </div>
                </div>","0","main_experiment_trial","7","flight_scheme","schematic_sequence","chronological","","","","","","",""
"","","","","","html-keyboard-response","31","153099","0.0-31.0","403FEDA4B9F8400BA54A8C65B0F33CA5","019cfc9a-46b2-71d3-b4b2-f328ce2c49a0","019cfc7b-6c7b-7b1b-afe7-acad8efc6711","","null","
                <div class=""stimulus-container"">
                    <img src=""images/schematic_sequence/flight_scheme/flight_scheme_8.png"" class=""exp-image"">
                    <div class=""question-area""></div> 
                </div>","null","","","","","","","","","","","",""
"","","","","","html-button-response","32","154329","0.0-32.0","403FEDA4B9F8400BA54A8C65B0F33CA5","019cfc9a-46b2-71d3-b4b2-f328ce2c49a0","019cfc7b-6c7b-7b1b-afe7-acad8efc6711","","1229","
                <div class=""stimulus-container"">
                    <img src=""images/schematic_sequence/flight_scheme/flight_scheme_8.png"" class=""exp-image"">
                    <div class=""question-area"">
                        <p style=""font-size: 20px; font-weight: bold; margin: 0;"">Is there a person in this image?</p>
                    </div>
                </div>","1","main_experiment_trial","8","flight_scheme","schematic_sequence","chronological","","","","","","",""
"","","","","","html-keyboard-response","33","159337","0.0-33.0","403FEDA4B9F8400BA54A8C65B0F33CA5","019cfc9a-46b2-71d3-b4b2-f328ce2c49a0","019cfc7b-6c7b-7b1b-afe7-acad8efc6711","","null","
                <div class=""stimulus-container"">
                    <img src=""images/schematic_sequence/flight_scheme/flight_scheme_9.png"" class=""exp-image"">
                    <div class=""question-area""></div> 
                </div>","null","","","","","","","","","","","",""
"","","","","","html-button-response","34","160435","0.0-34.0","403FEDA4B9F8400BA54A8C65B0F33CA5","019cfc9a-46b2-71d3-b4b2-f328ce2c49a0","019cfc7b-6c7b-7b1b-afe7-acad8efc6711","","1096","
                <div class=""stimulus-container"">
                    <img src=""images/schematic_sequence/flight_scheme/flight_scheme_9.png"" class=""exp-image"">
                    <div class=""question-area"">
                        <p style=""font-size: 20px; font-weight: bold; margin: 0;"">Is there a person in this image?</p>
                    </div>
                </div>","0","main_experiment_trial","9","flight_scheme","schematic_sequence","chronological","","","","","","",""
"","","","","","html-keyboard-response","35","165445","0.0-35.0","403FEDA4B9F8400BA54A8C65B0F33CA5","019cfc9a-46b2-71d3-b4b2-f328ce2c49a0","019cfc7b-6c7b-7b1b-afe7-acad8efc6711","","null","
                <div class=""stimulus-container"">
                    <img src=""images/schematic_sequence/flight_scheme/flight_scheme_ten.png"" class=""exp-image"">
                    <div class=""question-area""></div> 
                </div>","null","","","","","","","","","","","",""
"","","","","","html-button-response","36","165971","0.0-36.0","403FEDA4B9F8400BA54A8C65B0F33CA5","019cfc9a-46b2-71d3-b4b2-f328ce2c49a0","019cfc7b-6c7b-7b1b-afe7-acad8efc6711","","525","
                <div class=""stimulus-container"">
                    <img src=""images/schematic_sequence/flight_scheme/flight_scheme_ten.png"" class=""exp-image"">
                    <div class=""question-area"">
                        <p style=""font-size: 20px; font-weight: bold; margin: 0;"">Is there a person in this image?</p>
                    </div>
                </div>","0","main_experiment_trial","ten","flight_scheme","schematic_sequence","chronological","","","","","","",""
"","","","","","html-keyboard-response","37","170972","0.0-37.0","403FEDA4B9F8400BA54A8C65B0F33CA5","019cfc9a-46b2-71d3-b4b2-f328ce2c49a0","019cfc7b-6c7b-7b1b-afe7-acad8efc6711","","null","<div style=""background-color: white; width: 100vw; height: 100vh;""></div>","null","","","","","","","","","","","",""
"","","","","","html-keyboard-response","38","175980","0.0-38.0","403FEDA4B9F8400BA54A8C65B0F33CA5","019cfc9a-46b2-71d3-b4b2-f328ce2c49a0","019cfc7b-6c7b-7b1b-afe7-acad8efc6711","","null","
                <div class=""stimulus-container"">
                    <img src=""images/schematic_sequence/restaurant_scheme/restaurant_scheme_1.png"" class=""exp-image"">
                    <div class=""question-area""></div> 
                </div>","null","","","","","","","","","","","",""
"","","","","","html-button-response","39","176528","0.0-39.0","403FEDA4B9F8400BA54A8C65B0F33CA5","019cfc9a-46b2-71d3-b4b2-f328ce2c49a0","019cfc7b-6c7b-7b1b-afe7-acad8efc6711","","547","
                <div class=""stimulus-container"">
                    <img src=""images/schematic_sequence/restaurant_scheme/restaurant_scheme_1.png"" class=""exp-image"">
                    <div class=""question-area"">
                        <p style=""font-size: 20px; font-weight: bold; margin: 0;"">Is there a person in this image?</p>
                    </div>
                </div>","0","main_experiment_trial","1","restaurant_scheme","schematic_sequence","chronological","","","","","","",""
"","","","","","html-keyboard-response","40","181531","0.0-40.0","403FEDA4B9F8400BA54A8C65B0F33CA5","019cfc9a-46b2-71d3-b4b2-f328ce2c49a0","019cfc7b-6c7b-7b1b-afe7-acad8efc6711","","null","
                <div class=""stimulus-container"">
                    <img src=""images/schematic_sequence/restaurant_scheme/restaurant_scheme_2.png"" class=""exp-image"">
                    <div class=""question-area""></div> 
                </div>","null","","","","","","","","","","","",""
"","","","","","html-button-response","41","183041","0.0-41.0","403FEDA4B9F8400BA54A8C65B0F33CA5","019cfc9a-46b2-71d3-b4b2-f328ce2c49a0","019cfc7b-6c7b-7b1b-afe7-acad8efc6711","","1509","
                <div class=""stimulus-container"">
                    <img src=""images/schematic_sequence/restaurant_scheme/restaurant_scheme_2.png"" class=""exp-image"">
                    <div class=""question-area"">
                        <p style=""font-size: 20px; font-weight: bold; margin: 0;"">Is there a person in this image?</p>
                    </div>
                </div>","1","main_experiment_trial","2","restaurant_scheme","schematic_sequence","chronological","","","","","","",""
"","","","","","html-keyboard-response","42","188042","0.0-42.0","403FEDA4B9F8400BA54A8C65B0F33CA5","019cfc9a-46b2-71d3-b4b2-f328ce2c49a0","019cfc7b-6c7b-7b1b-afe7-acad8efc6711","","null","
                <div class=""stimulus-container"">
                    <img src=""images/schematic_sequence/restaurant_scheme/restaurant_scheme_3.png"" class=""exp-image"">
                    <div class=""question-area""></div> 
                </div>","null","","","","","","","","","","","",""
"","","","","","html-button-response","43","188774","0.0-43.0","403FEDA4B9F8400BA54A8C65B0F33CA5","019cfc9a-46b2-71d3-b4b2-f328ce2c49a0","019cfc7b-6c7b-7b1b-afe7-acad8efc6711","","732","
                <div class=""stimulus-container"">
                    <img src=""images/schematic_sequence/restaurant_scheme/restaurant_scheme_3.png"" class=""exp-image"">
                    <div class=""question-area"">
                        <p style=""font-size: 20px; font-weight: bold; margin: 0;"">Is there a person in this image?</p>
                    </div>
                </div>","1","main_experiment_trial","3","restaurant_scheme","schematic_sequence","chronological","","","","","","",""
"","","","","","html-keyboard-response","44","193779","0.0-44.0","403FEDA4B9F8400BA54A8C65B0F33CA5","019cfc9a-46b2-71d3-b4b2-f328ce2c49a0","019cfc7b-6c7b-7b1b-afe7-acad8efc6711","","null","
                <div class=""stimulus-container"">
                    <img src=""images/schematic_sequence/restaurant_scheme/restaurant_scheme_4.png"" class=""exp-image"">
                    <div class=""question-area""></div> 
                </div>","null","","","","","","","","","","","",""
"","","","","","html-button-response","45","194914","0.0-45.0","403FEDA4B9F8400BA54A8C65B0F33CA5","019cfc9a-46b2-71d3-b4b2-f328ce2c49a0","019cfc7b-6c7b-7b1b-afe7-acad8efc6711","","1134","
                <div class=""stimulus-container"">
                    <img src=""images/schematic_sequence/restaurant_scheme/restaurant_scheme_4.png"" class=""exp-image"">
                    <div class=""question-area"">
                        <p style=""font-size: 20px; font-weight: bold; margin: 0;"">Is there a person in this image?</p>
                    </div>
                </div>","0","main_experiment_trial","4","restaurant_scheme","schematic_sequence","chronological","","","","","","",""
"","","","","","html-keyboard-response","46","199920","0.0-46.0","403FEDA4B9F8400BA54A8C65B0F33CA5","019cfc9a-46b2-71d3-b4b2-f328ce2c49a0","019cfc7b-6c7b-7b1b-afe7-acad8efc6711","","null","
                <div class=""stimulus-container"">
                    <img src=""images/schematic_sequence/restaurant_scheme/restaurant_scheme_5.png"" class=""exp-image"">
                    <div class=""question-area""></div> 
                </div>","null","","","","","","","","","","","",""
"","","","","","html-button-response","47","200711","0.0-47.0","403FEDA4B9F8400BA54A8C65B0F33CA5","019cfc9a-46b2-71d3-b4b2-f328ce2c49a0","019cfc7b-6c7b-7b1b-afe7-acad8efc6711","","789","
                <div class=""stimulus-container"">
                    <img src=""images/schematic_sequence/restaurant_scheme/restaurant_scheme_5.png"" class=""exp-image"">
                    <div class=""question-area"">
                        <p style=""font-size: 20px; font-weight: bold; margin: 0;"">Is there a person in this image?</p>
                    </div>
                </div>","0","main_experiment_trial","5","restaurant_scheme","schematic_sequence","chronological","","","","","","",""
"","","","","","html-keyboard-response","48","205720","0.0-48.0","403FEDA4B9F8400BA54A8C65B0F33CA5","019cfc9a-46b2-71d3-b4b2-f328ce2c49a0","019cfc7b-6c7b-7b1b-afe7-acad8efc6711","","null","
                <div class=""stimulus-container"">
                    <img src=""images/schematic_sequence/restaurant_scheme/restaurant_scheme_6.png"" class=""exp-image"">
                    <div class=""question-area""></div> 
                </div>","null","","","","","","","","","","","",""
"","","","","","html-button-response","49","206698","0.0-49.0","403FEDA4B9F8400BA54A8C65B0F33CA5","019cfc9a-46b2-71d3-b4b2-f328ce2c49a0","019cfc7b-6c7b-7b1b-afe7-acad8efc6711","","978","
                <div class=""stimulus-container"">
                    <img src=""images/schematic_sequence/restaurant_scheme/restaurant_scheme_6.png"" class=""exp-image"">
                    <div class=""question-area"">
                        <p style=""font-size: 20px; font-weight: bold; margin: 0;"">Is there a person in this image?</p>
                    </div>
                </div>","1","main_experiment_trial","6","restaurant_scheme","schematic_sequence","chronological","","","","","","",""
"","","","","","html-keyboard-response","50","211699","0.0-50.0","403FEDA4B9F8400BA54A8C65B0F33CA5","019cfc9a-46b2-71d3-b4b2-f328ce2c49a0","019cfc7b-6c7b-7b1b-afe7-acad8efc6711","","null","
                <div class=""stimulus-container"">
                    <img src=""images/schematic_sequence/restaurant_scheme/restaurant_scheme_7.png"" class=""exp-image"">
                    <div class=""question-area""></div> 
                </div>","null","","","","","","","","","","","",""
"","","","","","html-button-response","51","213299","0.0-51.0","403FEDA4B9F8400BA54A8C65B0F33CA5","019cfc9a-46b2-71d3-b4b2-f328ce2c49a0","019cfc7b-6c7b-7b1b-afe7-acad8efc6711","","1598","
                <div class=""stimulus-container"">
                    <img src=""images/schematic_sequence/restaurant_scheme/restaurant_scheme_7.png"" class=""exp-image"">
                    <div class=""question-area"">
                        <p style=""font-size: 20px; font-weight: bold; margin: 0;"">Is there a person in this image?</p>
                    </div>
                </div>","1","main_experiment_trial","7","restaurant_scheme","schematic_sequence","chronological","","","","","","",""
"","","","","","html-keyboard-response","52","218302","0.0-52.0","403FEDA4B9F8400BA54A8C65B0F33CA5","019cfc9a-46b2-71d3-b4b2-f328ce2c49a0","019cfc7b-6c7b-7b1b-afe7-acad8efc6711","","null","
                <div class=""stimulus-container"">
                    <img src=""images/schematic_sequence/restaurant_scheme/restaurant_scheme_8.png"" class=""exp-image"">
                    <div class=""question-area""></div> 
                </div>","null","","","","","","","","","","","",""
"","","","","","html-button-response","53","219664","0.0-53.0","403FEDA4B9F8400BA54A8C65B0F33CA5","019cfc9a-46b2-71d3-b4b2-f328ce2c49a0","019cfc7b-6c7b-7b1b-afe7-acad8efc6711","","1360","
                <div class=""stimulus-container"">
                    <img src=""images/schematic_sequence/restaurant_scheme/restaurant_scheme_8.png"" class=""exp-image"">
                    <div class=""question-area"">
                        <p style=""font-size: 20px; font-weight: bold; margin: 0;"">Is there a person in this image?</p>
                    </div>
                </div>","1","main_experiment_trial","8","restaurant_scheme","schematic_sequence","chronological","","","","","","",""
"","","","","","html-keyboard-response","54","224672","0.0-54.0","403FEDA4B9F8400BA54A8C65B0F33CA5","019cfc9a-46b2-71d3-b4b2-f328ce2c49a0","019cfc7b-6c7b-7b1b-afe7-acad8efc6711","","null","
                <div class=""stimulus-container"">
                    <img src=""images/schematic_sequence/restaurant_scheme/restaurant_scheme_9.png"" class=""exp-image"">
                    <div class=""question-area""></div> 
                </div>","null","","","","","","","","","","","",""
"","","","","","html-button-response","55","225347","0.0-55.0","403FEDA4B9F8400BA54A8C65B0F33CA5","019cfc9a-46b2-71d3-b4b2-f328ce2c49a0","019cfc7b-6c7b-7b1b-afe7-acad8efc6711","","673","
                <div class=""stimulus-container"">
                    <img src=""images/schematic_sequence/restaurant_scheme/restaurant_scheme_9.png"" class=""exp-image"">
                    <div class=""question-area"">
                        <p style=""font-size: 20px; font-weight: bold; margin: 0;"">Is there a person in this image?</p>
                    </div>
                </div>","0","main_experiment_trial","9","restaurant_scheme","schematic_sequence","chronological","","","","","","",""
"","","","","","html-keyboard-response","56","230363","0.0-56.0","403FEDA4B9F8400BA54A8C65B0F33CA5","019cfc9a-46b2-71d3-b4b2-f328ce2c49a0","019cfc7b-6c7b-7b1b-afe7-acad8efc6711","","null","
                <div class=""stimulus-container"">
                    <img src=""images/schematic_sequence/restaurant_scheme/restaurant_scheme_ten.png"" class=""exp-image"">
                    <div class=""question-area""></div> 
                </div>","null","","","","","","","","","","","",""
"","","","","","html-button-response","57","231294","0.0-57.0","403FEDA4B9F8400BA54A8C65B0F33CA5","019cfc9a-46b2-71d3-b4b2-f328ce2c49a0","019cfc7b-6c7b-7b1b-afe7-acad8efc6711","","929","
                <div class=""stimulus-container"">
                    <img src=""images/schematic_sequence/restaurant_scheme/restaurant_scheme_ten.png"" class=""exp-image"">
                    <div class=""question-area"">
                        <p style=""font-size: 20px; font-weight: bold; margin: 0;"">Is there a person in this image?</p>
                    </div>
                </div>","0","main_experiment_trial","ten","restaurant_scheme","schematic_sequence","chronological","","","","","","",""
"","","","","","html-keyboard-response","58","236306","0.0-58.0","403FEDA4B9F8400BA54A8C65B0F33CA5","019cfc9a-46b2-71d3-b4b2-f328ce2c49a0","019cfc7b-6c7b-7b1b-afe7-acad8efc6711","","null","<div style=""background-color: white; width: 100vw; height: 100vh;""></div>","null","","","","","","","","","","","",""
"","","","","","html-keyboard-response","59","241318","0.0-59.0","403FEDA4B9F8400BA54A8C65B0F33CA5","019cfc9a-46b2-71d3-b4b2-f328ce2c49a0","019cfc7b-6c7b-7b1b-afe7-acad8efc6711","","null","
                <div class=""stimulus-container"">
                    <img src=""images/causal_sequence/museum_causal/museum_causal_1.png"" class=""exp-image"">
                    <div class=""question-area""></div> 
                </div>","null","","","","","","","","","","","",""
"","","","","","html-button-response","60","241997","0.0-60.0","403FEDA4B9F8400BA54A8C65B0F33CA5","019cfc9a-46b2-71d3-b4b2-f328ce2c49a0","019cfc7b-6c7b-7b1b-afe7-acad8efc6711","","677","
                <div class=""stimulus-container"">
                    <img src=""images/causal_sequence/museum_causal/museum_causal_1.png"" class=""exp-image"">
                    <div class=""question-area"">
                        <p style=""font-size: 20px; font-weight: bold; margin: 0;"">Is there a person in this image?</p>
                    </div>
                </div>","0","main_experiment_trial","1","museum_causal","causal_sequence","chronological","","","","","","",""
"","","","","","html-keyboard-response","61","247004","0.0-61.0","403FEDA4B9F8400BA54A8C65B0F33CA5","019cfc9a-46b2-71d3-b4b2-f328ce2c49a0","019cfc7b-6c7b-7b1b-afe7-acad8efc6711","","null","
                <div class=""stimulus-container"">
                    <img src=""images/causal_sequence/museum_causal/museum_causal_2.png"" class=""exp-image"">
                    <div class=""question-area""></div> 
                </div>","null","","","","","","","","","","","",""
"","","","","","html-button-response","62","248411","0.0-62.0","403FEDA4B9F8400BA54A8C65B0F33CA5","019cfc9a-46b2-71d3-b4b2-f328ce2c49a0","019cfc7b-6c7b-7b1b-afe7-acad8efc6711","","1406","
                <div class=""stimulus-container"">
                    <img src=""images/causal_sequence/museum_causal/museum_causal_2.png"" class=""exp-image"">
                    <div class=""question-area"">
                        <p style=""font-size: 20px; font-weight: bold; margin: 0;"">Is there a person in this image?</p>
                    </div>
                </div>","0","main_experiment_trial","2","museum_causal","causal_sequence","chronological","","","","","","",""
"","","","","","html-keyboard-response","63","253423","0.0-63.0","403FEDA4B9F8400BA54A8C65B0F33CA5","019cfc9a-46b2-71d3-b4b2-f328ce2c49a0","019cfc7b-6c7b-7b1b-afe7-acad8efc6711","","null","
                <div class=""stimulus-container"">
                    <img src=""images/causal_sequence/museum_causal/museum_causal_3.png"" class=""exp-image"">
                    <div class=""question-area""></div> 
                </div>","null","","","","","","","","","","","",""
"","","","","","html-button-response","64","254507","0.0-64.0","403FEDA4B9F8400BA54A8C65B0F33CA5","019cfc9a-46b2-71d3-b4b2-f328ce2c49a0","019cfc7b-6c7b-7b1b-afe7-acad8efc6711","","1083","
                <div class=""stimulus-container"">
                    <img src=""images/causal_sequence/museum_causal/museum_causal_3.png"" class=""exp-image"">
                    <div class=""question-area"">
                        <p style=""font-size: 20px; font-weight: bold; margin: 0;"">Is there a person in this image?</p>
                    </div>
                </div>","0","main_experiment_trial","3","museum_causal","causal_sequence","chronological","","","","","","",""
"","","","","","html-keyboard-response","65","259521","0.0-65.0","403FEDA4B9F8400BA54A8C65B0F33CA5","019cfc9a-46b2-71d3-b4b2-f328ce2c49a0","019cfc7b-6c7b-7b1b-afe7-acad8efc6711","","null","
                <div class=""stimulus-container"">
                    <img src=""images/causal_sequence/museum_causal/museum_causal_4.png"" class=""exp-image"">
                    <div class=""question-area""></div> 
                </div>","null","","","","","","","","","","","",""
"","","","","","html-button-response","66","260805","0.0-66.0","403FEDA4B9F8400BA54A8C65B0F33CA5","019cfc9a-46b2-71d3-b4b2-f328ce2c49a0","019cfc7b-6c7b-7b1b-afe7-acad8efc6711","","1282","
                <div class=""stimulus-container"">
                    <img src=""images/causal_sequence/museum_causal/museum_causal_4.png"" class=""exp-image"">
                    <div class=""question-area"">
                        <p style=""font-size: 20px; font-weight: bold; margin: 0;"">Is there a person in this image?</p>
                    </div>
                </div>","1","main_experiment_trial","4","museum_causal","causal_sequence","chronological","","","","","","",""
"","","","","","html-keyboard-response","67","265811","0.0-67.0","403FEDA4B9F8400BA54A8C65B0F33CA5","019cfc9a-46b2-71d3-b4b2-f328ce2c49a0","019cfc7b-6c7b-7b1b-afe7-acad8efc6711","","null","
                <div class=""stimulus-container"">
                    <img src=""images/causal_sequence/museum_causal/museum_causal_5.png"" class=""exp-image"">
                    <div class=""question-area""></div> 
                </div>","null","","","","","","","","","","","",""
"","","","","","html-button-response","68","267221","0.0-68.0","403FEDA4B9F8400BA54A8C65B0F33CA5","019cfc9a-46b2-71d3-b4b2-f328ce2c49a0","019cfc7b-6c7b-7b1b-afe7-acad8efc6711","","1408","
                <div class=""stimulus-container"">
                    <img src=""images/causal_sequence/museum_causal/museum_causal_5.png"" class=""exp-image"">
                    <div class=""question-area"">
                        <p style=""font-size: 20px; font-weight: bold; margin: 0;"">Is there a person in this image?</p>
                    </div>
                </div>","0","main_experiment_trial","5","museum_causal","causal_sequence","chronological","","","","","","",""
"","","","","","html-keyboard-response","69","272230","0.0-69.0","403FEDA4B9F8400BA54A8C65B0F33CA5","019cfc9a-46b2-71d3-b4b2-f328ce2c49a0","019cfc7b-6c7b-7b1b-afe7-acad8efc6711","","null","
                <div class=""stimulus-container"">
                    <img src=""images/causal_sequence/museum_causal/museum_causal_6.png"" class=""exp-image"">
                    <div class=""question-area""></div> 
                </div>","null","","","","","","","","","","","",""
"","","","","","html-button-response","70","273181","0.0-70.0","403FEDA4B9F8400BA54A8C65B0F33CA5","019cfc9a-46b2-71d3-b4b2-f328ce2c49a0","019cfc7b-6c7b-7b1b-afe7-acad8efc6711","","949","
                <div class=""stimulus-container"">
                    <img src=""images/causal_sequence/museum_causal/museum_causal_6.png"" class=""exp-image"">
                    <div class=""question-area"">
                        <p style=""font-size: 20px; font-weight: bold; margin: 0;"">Is there a person in this image?</p>
                    </div>
                </div>","0","main_experiment_trial","6","museum_causal","causal_sequence","chronological","","","","","","",""
"","","","","","html-keyboard-response","71","278189","0.0-71.0","403FEDA4B9F8400BA54A8C65B0F33CA5","019cfc9a-46b2-71d3-b4b2-f328ce2c49a0","019cfc7b-6c7b-7b1b-afe7-acad8efc6711","","null","
                <div class=""stimulus-container"">
                    <img src=""images/causal_sequence/museum_causal/museum_causal_7.png"" class=""exp-image"">
                    <div class=""question-area""></div> 
                </div>","null","","","","","","","","","","","",""
"","","","","","html-button-response","72","280243","0.0-72.0","403FEDA4B9F8400BA54A8C65B0F33CA5","019cfc9a-46b2-71d3-b4b2-f328ce2c49a0","019cfc7b-6c7b-7b1b-afe7-acad8efc6711","","2052","
                <div class=""stimulus-container"">
                    <img src=""images/causal_sequence/museum_causal/museum_causal_7.png"" class=""exp-image"">
                    <div class=""question-area"">
                        <p style=""font-size: 20px; font-weight: bold; margin: 0;"">Is there a person in this image?</p>
                    </div>
                </div>","1","main_experiment_trial","7","museum_causal","causal_sequence","chronological","","","","","","",""
"","","","","","html-keyboard-response","73","285253","0.0-73.0","403FEDA4B9F8400BA54A8C65B0F33CA5","019cfc9a-46b2-71d3-b4b2-f328ce2c49a0","019cfc7b-6c7b-7b1b-afe7-acad8efc6711","","null","
                <div class=""stimulus-container"">
                    <img src=""images/causal_sequence/museum_causal/museum_causal_8.png"" class=""exp-image"">
                    <div class=""question-area""></div> 
                </div>","null","","","","","","","","","","","",""
"","","","","","html-button-response","74","286329","0.0-74.0","403FEDA4B9F8400BA54A8C65B0F33CA5","019cfc9a-46b2-71d3-b4b2-f328ce2c49a0","019cfc7b-6c7b-7b1b-afe7-acad8efc6711","","1074","
                <div class=""stimulus-container"">
                    <img src=""images/causal_sequence/museum_causal/museum_causal_8.png"" class=""exp-image"">
                    <div class=""question-area"">
                        <p style=""font-size: 20px; font-weight: bold; margin: 0;"">Is there a person in this image?</p>
                    </div>
                </div>","0","main_experiment_trial","8","museum_causal","causal_sequence","chronological","","","","","","",""
"","","","","","html-keyboard-response","75","291335","0.0-75.0","403FEDA4B9F8400BA54A8C65B0F33CA5","019cfc9a-46b2-71d3-b4b2-f328ce2c49a0","019cfc7b-6c7b-7b1b-afe7-acad8efc6711","","null","
                <div class=""stimulus-container"">
                    <img src=""images/causal_sequence/museum_causal/museum_causal_9.png"" class=""exp-image"">
                    <div class=""question-area""></div> 
                </div>","null","","","","","","","","","","","",""
"","","","","","html-button-response","76","292655","0.0-76.0","403FEDA4B9F8400BA54A8C65B0F33CA5","019cfc9a-46b2-71d3-b4b2-f328ce2c49a0","019cfc7b-6c7b-7b1b-afe7-acad8efc6711","","1318","
                <div class=""stimulus-container"">
                    <img src=""images/causal_sequence/museum_causal/museum_causal_9.png"" class=""exp-image"">
                    <div class=""question-area"">
                        <p style=""font-size: 20px; font-weight: bold; margin: 0;"">Is there a person in this image?</p>
                    </div>
                </div>","1","main_experiment_trial","9","museum_causal","causal_sequence","chronological","","","","","","",""
"","","","","","html-keyboard-response","77","297664","0.0-77.0","403FEDA4B9F8400BA54A8C65B0F33CA5","019cfc9a-46b2-71d3-b4b2-f328ce2c49a0","019cfc7b-6c7b-7b1b-afe7-acad8efc6711","","null","
                <div class=""stimulus-container"">
                    <img src=""images/causal_sequence/museum_causal/museum_causal_ten.png"" class=""exp-image"">
                    <div class=""question-area""></div> 
                </div>","null","","","","","","","","","","","",""
"","","","","","html-button-response","78","300197","0.0-78.0","403FEDA4B9F8400BA54A8C65B0F33CA5","019cfc9a-46b2-71d3-b4b2-f328ce2c49a0","019cfc7b-6c7b-7b1b-afe7-acad8efc6711","","2530","
                <div class=""stimulus-container"">
                    <img src=""images/causal_sequence/museum_causal/museum_causal_ten.png"" class=""exp-image"">
                    <div class=""question-area"">
                        <p style=""font-size: 20px; font-weight: bold; margin: 0;"">Is there a person in this image?</p>
                    </div>
                </div>","0","main_experiment_trial","ten","museum_causal","causal_sequence","chronological","","","","","","",""
"","","","","","html-keyboard-response","79","305212","0.0-79.0","403FEDA4B9F8400BA54A8C65B0F33CA5","019cfc9a-46b2-71d3-b4b2-f328ce2c49a0","019cfc7b-6c7b-7b1b-afe7-acad8efc6711","","null","<div style=""background-color: white; width: 100vw; height: 100vh;""></div>","null","","","","","","","","","","","",""
"","","","","","html-keyboard-response","80","310215","0.0-80.0","403FEDA4B9F8400BA54A8C65B0F33CA5","019cfc9a-46b2-71d3-b4b2-f328ce2c49a0","019cfc7b-6c7b-7b1b-afe7-acad8efc6711","","null","
                <div class=""stimulus-container"">
                    <img src=""images/semantic_sequence/housework_semantic/housework_semantic_1.png"" class=""exp-image"">
                    <div class=""question-area""></div> 
                </div>","null","","","","","","","","","","","",""
"","","","","","html-button-response","81","311554","0.0-81.0","403FEDA4B9F8400BA54A8C65B0F33CA5","019cfc9a-46b2-71d3-b4b2-f328ce2c49a0","019cfc7b-6c7b-7b1b-afe7-acad8efc6711","","1336","
                <div class=""stimulus-container"">
                    <img src=""images/semantic_sequence/housework_semantic/housework_semantic_1.png"" class=""exp-image"">
                    <div class=""question-area"">
                        <p style=""font-size: 20px; font-weight: bold; margin: 0;"">Is there a person in this image?</p>
                    </div>
                </div>","0","main_experiment_trial","1","housework_semantic","semantic_sequence","chronological","","","","","","",""
"","","","","","html-keyboard-response","82","316556","0.0-82.0","403FEDA4B9F8400BA54A8C65B0F33CA5","019cfc9a-46b2-71d3-b4b2-f328ce2c49a0","019cfc7b-6c7b-7b1b-afe7-acad8efc6711","","null","
                <div class=""stimulus-container"">
                    <img src=""images/semantic_sequence/housework_semantic/housework_semantic_2.png"" class=""exp-image"">
                    <div class=""question-area""></div> 
                </div>","null","","","","","","","","","","","",""
"","","","","","html-button-response","83","317754","0.0-83.0","403FEDA4B9F8400BA54A8C65B0F33CA5","019cfc9a-46b2-71d3-b4b2-f328ce2c49a0","019cfc7b-6c7b-7b1b-afe7-acad8efc6711","","1196","
                <div class=""stimulus-container"">
                    <img src=""images/semantic_sequence/housework_semantic/housework_semantic_2.png"" class=""exp-image"">
                    <div class=""question-area"">
                        <p style=""font-size: 20px; font-weight: bold; margin: 0;"">Is there a person in this image?</p>
                    </div>
                </div>","0","main_experiment_trial","2","housework_semantic","semantic_sequence","chronological","","","","","","",""
"","","","","","html-keyboard-response","84","322764","0.0-84.0","403FEDA4B9F8400BA54A8C65B0F33CA5","019cfc9a-46b2-71d3-b4b2-f328ce2c49a0","019cfc7b-6c7b-7b1b-afe7-acad8efc6711","","null","
                <div class=""stimulus-container"">
                    <img src=""images/semantic_sequence/housework_semantic/housework_semantic_3.png"" class=""exp-image"">
                    <div class=""question-area""></div> 
                </div>","null","","","","","","","","","","","",""
"","","","","","html-button-response","85","324847","0.0-85.0","403FEDA4B9F8400BA54A8C65B0F33CA5","019cfc9a-46b2-71d3-b4b2-f328ce2c49a0","019cfc7b-6c7b-7b1b-afe7-acad8efc6711","","2082","
                <div class=""stimulus-container"">
                    <img src=""images/semantic_sequence/housework_semantic/housework_semantic_3.png"" class=""exp-image"">
                    <div class=""question-area"">
                        <p style=""font-size: 20px; font-weight: bold; margin: 0;"">Is there a person in this image?</p>
                    </div>
                </div>","0","main_experiment_trial","3","housework_semantic","semantic_sequence","chronological","","","","","","",""
"","","","","","html-keyboard-response","86","329855","0.0-86.0","403FEDA4B9F8400BA54A8C65B0F33CA5","019cfc9a-46b2-71d3-b4b2-f328ce2c49a0","019cfc7b-6c7b-7b1b-afe7-acad8efc6711","","null","
                <div class=""stimulus-container"">
                    <img src=""images/semantic_sequence/housework_semantic/housework_semantic_4.png"" class=""exp-image"">
                    <div class=""question-area""></div> 
                </div>","null","","","","","","","","","","","",""
"","","","","","html-button-response","87","331977","0.0-87.0","403FEDA4B9F8400BA54A8C65B0F33CA5","019cfc9a-46b2-71d3-b4b2-f328ce2c49a0","019cfc7b-6c7b-7b1b-afe7-acad8efc6711","","2121","
                <div class=""stimulus-container"">
                    <img src=""images/semantic_sequence/housework_semantic/housework_semantic_4.png"" class=""exp-image"">
                    <div class=""question-area"">
                        <p style=""font-size: 20px; font-weight: bold; margin: 0;"">Is there a person in this image?</p>
                    </div>
                </div>","0","main_experiment_trial","4","housework_semantic","semantic_sequence","chronological","","","","","","",""
"","","","","","html-keyboard-response","88","336990","0.0-88.0","403FEDA4B9F8400BA54A8C65B0F33CA5","019cfc9a-46b2-71d3-b4b2-f328ce2c49a0","019cfc7b-6c7b-7b1b-afe7-acad8efc6711","","null","
                <div class=""stimulus-container"">
                    <img src=""images/semantic_sequence/housework_semantic/housework_semantic_5.png"" class=""exp-image"">
                    <div class=""question-area""></div> 
                </div>","null","","","","","","","","","","","",""
"","","","","","html-button-response","89","338789","0.0-89.0","403FEDA4B9F8400BA54A8C65B0F33CA5","019cfc9a-46b2-71d3-b4b2-f328ce2c49a0","019cfc7b-6c7b-7b1b-afe7-acad8efc6711","","1797","
                <div class=""stimulus-container"">
                    <img src=""images/semantic_sequence/housework_semantic/housework_semantic_5.png"" class=""exp-image"">
                    <div class=""question-area"">
                        <p style=""font-size: 20px; font-weight: bold; margin: 0;"">Is there a person in this image?</p>
                    </div>
                </div>","0","main_experiment_trial","5","housework_semantic","semantic_sequence","chronological","","","","","","",""
"","","","","","html-keyboard-response","90","343791","0.0-90.0","403FEDA4B9F8400BA54A8C65B0F33CA5","019cfc9a-46b2-71d3-b4b2-f328ce2c49a0","019cfc7b-6c7b-7b1b-afe7-acad8efc6711","","null","
                <div class=""stimulus-container"">
                    <img src=""images/semantic_sequence/housework_semantic/housework_semantic_6.png"" class=""exp-image"">
                    <div class=""question-area""></div> 
                </div>","null","","","","","","","","","","","",""
"","","","","","html-button-response","91","344941","0.0-91.0","403FEDA4B9F8400BA54A8C65B0F33CA5","019cfc9a-46b2-71d3-b4b2-f328ce2c49a0","019cfc7b-6c7b-7b1b-afe7-acad8efc6711","","1148","
                <div class=""stimulus-container"">
                    <img src=""images/semantic_sequence/housework_semantic/housework_semantic_6.png"" class=""exp-image"">
                    <div class=""question-area"">
                        <p style=""font-size: 20px; font-weight: bold; margin: 0;"">Is there a person in this image?</p>
                    </div>
                </div>","0","main_experiment_trial","6","housework_semantic","semantic_sequence","chronological","","","","","","",""
"","","","","","html-keyboard-response","92","349949","0.0-92.0","403FEDA4B9F8400BA54A8C65B0F33CA5","019cfc9a-46b2-71d3-b4b2-f328ce2c49a0","019cfc7b-6c7b-7b1b-afe7-acad8efc6711","","null","
                <div class=""stimulus-container"">
                    <img src=""images/semantic_sequence/housework_semantic/housework_semantic_7.png"" class=""exp-image"">
                    <div class=""question-area""></div> 
                </div>","null","","","","","","","","","","","",""
"","","","","","html-button-response","93","352070","0.0-93.0","403FEDA4B9F8400BA54A8C65B0F33CA5","019cfc9a-46b2-71d3-b4b2-f328ce2c49a0","019cfc7b-6c7b-7b1b-afe7-acad8efc6711","","2120","
                <div class=""stimulus-container"">
                    <img src=""images/semantic_sequence/housework_semantic/housework_semantic_7.png"" class=""exp-image"">
                    <div class=""question-area"">
                        <p style=""font-size: 20px; font-weight: bold; margin: 0;"">Is there a person in this image?</p>
                    </div>
                </div>","0","main_experiment_trial","7","housework_semantic","semantic_sequence","chronological","","","","","","",""
"","","","","","html-keyboard-response","94","357072","0.0-94.0","403FEDA4B9F8400BA54A8C65B0F33CA5","019cfc9a-46b2-71d3-b4b2-f328ce2c49a0","019cfc7b-6c7b-7b1b-afe7-acad8efc6711","","null","
                <div class=""stimulus-container"">
                    <img src=""images/semantic_sequence/housework_semantic/housework_semantic_8.png"" class=""exp-image"">
                    <div class=""question-area""></div> 
                </div>","null","","","","","","","","","","","",""
"","","","","","html-button-response","95","358699","0.0-95.0","403FEDA4B9F8400BA54A8C65B0F33CA5","019cfc9a-46b2-71d3-b4b2-f328ce2c49a0","019cfc7b-6c7b-7b1b-afe7-acad8efc6711","","1626","
                <div class=""stimulus-container"">
                    <img src=""images/semantic_sequence/housework_semantic/housework_semantic_8.png"" class=""exp-image"">
                    <div class=""question-area"">
                        <p style=""font-size: 20px; font-weight: bold; margin: 0;"">Is there a person in this image?</p>
                    </div>
                </div>","0","main_experiment_trial","8","housework_semantic","semantic_sequence","chronological","","","","","","",""
"","","","","","html-keyboard-response","96","363710","0.0-96.0","403FEDA4B9F8400BA54A8C65B0F33CA5","019cfc9a-46b2-71d3-b4b2-f328ce2c49a0","019cfc7b-6c7b-7b1b-afe7-acad8efc6711","","null","
                <div class=""stimulus-container"">
                    <img src=""images/semantic_sequence/housework_semantic/housework_semantic_9.png"" class=""exp-image"">
                    <div class=""question-area""></div> 
                </div>","null","","","","","","","","","","","",""
"","","","","","html-button-response","97","365332","0.0-97.0","403FEDA4B9F8400BA54A8C65B0F33CA5","019cfc9a-46b2-71d3-b4b2-f328ce2c49a0","019cfc7b-6c7b-7b1b-afe7-acad8efc6711","","1620","
                <div class=""stimulus-container"">
                    <img src=""images/semantic_sequence/housework_semantic/housework_semantic_9.png"" class=""exp-image"">
                    <div class=""question-area"">
                        <p style=""font-size: 20px; font-weight: bold; margin: 0;"">Is there a person in this image?</p>
                    </div>
                </div>","0","main_experiment_trial","9","housework_semantic","semantic_sequence","chronological","","","","","","",""
"","","","","","html-keyboard-response","98","370340","0.0-98.0","403FEDA4B9F8400BA54A8C65B0F33CA5","019cfc9a-46b2-71d3-b4b2-f328ce2c49a0","019cfc7b-6c7b-7b1b-afe7-acad8efc6711","","null","
                <div class=""stimulus-container"">
                    <img src=""images/semantic_sequence/housework_semantic/housework_semantic_ten.png"" class=""exp-image"">
                    <div class=""question-area""></div> 
                </div>","null","","","","","","","","","","","",""
"","","","","","html-button-response","99","371227","0.0-99.0","403FEDA4B9F8400BA54A8C65B0F33CA5","019cfc9a-46b2-71d3-b4b2-f328ce2c49a0","019cfc7b-6c7b-7b1b-afe7-acad8efc6711","","885","
                <div class=""stimulus-container"">
                    <img src=""images/semantic_sequence/housework_semantic/housework_semantic_ten.png"" class=""exp-image"">
                    <div class=""question-area"">
                        <p style=""font-size: 20px; font-weight: bold; margin: 0;"">Is there a person in this image?</p>
                    </div>
                </div>","0","main_experiment_trial","ten","housework_semantic","semantic_sequence","chronological","","","","","","",""
"","","","","","html-keyboard-response","100","376240","0.0-100.0","403FEDA4B9F8400BA54A8C65B0F33CA5","019cfc9a-46b2-71d3-b4b2-f328ce2c49a0","019cfc7b-6c7b-7b1b-afe7-acad8efc6711","","null","<div style=""background-color: white; width: 100vw; height: 100vh;""></div>","null","","","","","","","","","","","",""
"","","","","","html-keyboard-response","101","381245","0.0-101.0","403FEDA4B9F8400BA54A8C65B0F33CA5","019cfc9a-46b2-71d3-b4b2-f328ce2c49a0","019cfc7b-6c7b-7b1b-afe7-acad8efc6711","","null","
                <div class=""stimulus-container"">
                    <img src=""images/causal_sequence/the_performance_causal/the_performance_causal_1.png"" class=""exp-image"">
                    <div class=""question-area""></div> 
                </div>","null","","","","","","","","","","","",""
"","","","","","html-button-response","102","382028","0.0-102.0","403FEDA4B9F8400BA54A8C65B0F33CA5","019cfc9a-46b2-71d3-b4b2-f328ce2c49a0","019cfc7b-6c7b-7b1b-afe7-acad8efc6711","","781","
                <div class=""stimulus-container"">
                    <img src=""images/causal_sequence/the_performance_causal/the_performance_causal_1.png"" class=""exp-image"">
                    <div class=""question-area"">
                        <p style=""font-size: 20px; font-weight: bold; margin: 0;"">Is there a person in this image?</p>
                    </div>
                </div>","0","main_experiment_trial","1","the_performance_causal","causal_sequence","chronological","","","","","","",""
"","","","","","html-keyboard-response","103","387042","0.0-103.0","403FEDA4B9F8400BA54A8C65B0F33CA5","019cfc9a-46b2-71d3-b4b2-f328ce2c49a0","019cfc7b-6c7b-7b1b-afe7-acad8efc6711","","null","
                <div class=""stimulus-container"">
                    <img src=""images/causal_sequence/the_performance_causal/the_performance_causal_2.png"" class=""exp-image"">
                    <div class=""question-area""></div> 
                </div>","null","","","","","","","","","","","",""
"","","","","","html-button-response","104","387937","0.0-104.0","403FEDA4B9F8400BA54A8C65B0F33CA5","019cfc9a-46b2-71d3-b4b2-f328ce2c49a0","019cfc7b-6c7b-7b1b-afe7-acad8efc6711","","893","
                <div class=""stimulus-container"">
                    <img src=""images/causal_sequence/the_performance_causal/the_performance_causal_2.png"" class=""exp-image"">
                    <div class=""question-area"">
                        <p style=""font-size: 20px; font-weight: bold; margin: 0;"">Is there a person in this image?</p>
                    </div>
                </div>","0","main_experiment_trial","2","the_performance_causal","causal_sequence","chronological","","","","","","",""
"","","","","","html-keyboard-response","105","392943","0.0-105.0","403FEDA4B9F8400BA54A8C65B0F33CA5","019cfc9a-46b2-71d3-b4b2-f328ce2c49a0","019cfc7b-6c7b-7b1b-afe7-acad8efc6711","","null","
                <div class=""stimulus-container"">
                    <img src=""images/causal_sequence/the_performance_causal/the_performance_causal_3.png"" class=""exp-image"">
                    <div class=""question-area""></div> 
                </div>","null","","","","","","","","","","","",""
"","","","","","html-button-response","106","393719","0.0-106.0","403FEDA4B9F8400BA54A8C65B0F33CA5","019cfc9a-46b2-71d3-b4b2-f328ce2c49a0","019cfc7b-6c7b-7b1b-afe7-acad8efc6711","","774","
                <div class=""stimulus-container"">
                    <img src=""images/causal_sequence/the_performance_causal/the_performance_causal_3.png"" class=""exp-image"">
                    <div class=""question-area"">
                        <p style=""font-size: 20px; font-weight: bold; margin: 0;"">Is there a person in this image?</p>
                    </div>
                </div>","0","main_experiment_trial","3","the_performance_causal","causal_sequence","chronological","","","","","","",""
"","","","","","html-keyboard-response","107","398730","0.0-107.0","403FEDA4B9F8400BA54A8C65B0F33CA5","019cfc9a-46b2-71d3-b4b2-f328ce2c49a0","019cfc7b-6c7b-7b1b-afe7-acad8efc6711","","null","
                <div class=""stimulus-container"">
                    <img src=""images/causal_sequence/the_performance_causal/the_performance_causal_4.png"" class=""exp-image"">
                    <div class=""question-area""></div> 
                </div>","null","","","","","","","","","","","",""
"","","","","","html-button-response","108","399692","0.0-108.0","403FEDA4B9F8400BA54A8C65B0F33CA5","019cfc9a-46b2-71d3-b4b2-f328ce2c49a0","019cfc7b-6c7b-7b1b-afe7-acad8efc6711","","960","
                <div class=""stimulus-container"">
                    <img src=""images/causal_sequence/the_performance_causal/the_performance_causal_4.png"" class=""exp-image"">
                    <div class=""question-area"">
                        <p style=""font-size: 20px; font-weight: bold; margin: 0;"">Is there a person in this image?</p>
                    </div>
                </div>","0","main_experiment_trial","4","the_performance_causal","causal_sequence","chronological","","","","","","",""
"","","","","","html-keyboard-response","109","404697","0.0-109.0","403FEDA4B9F8400BA54A8C65B0F33CA5","019cfc9a-46b2-71d3-b4b2-f328ce2c49a0","019cfc7b-6c7b-7b1b-afe7-acad8efc6711","","null","
                <div class=""stimulus-container"">
                    <img src=""images/causal_sequence/the_performance_causal/the_performance_causal_5.png"" class=""exp-image"">
                    <div class=""question-area""></div> 
                </div>","null","","","","","","","","","","","",""
"","","","","","html-button-response","110","406106","0.0-110.0","403FEDA4B9F8400BA54A8C65B0F33CA5","019cfc9a-46b2-71d3-b4b2-f328ce2c49a0","019cfc7b-6c7b-7b1b-afe7-acad8efc6711","","1408","
                <div class=""stimulus-container"">
                    <img src=""images/causal_sequence/the_performance_causal/the_performance_causal_5.png"" class=""exp-image"">
                    <div class=""question-area"">
                        <p style=""font-size: 20px; font-weight: bold; margin: 0;"">Is there a person in this image?</p>
                    </div>
                </div>","0","main_experiment_trial","5","the_performance_causal","causal_sequence","chronological","","","","","","",""
"","","","","","html-keyboard-response","111","411115","0.0-111.0","403FEDA4B9F8400BA54A8C65B0F33CA5","019cfc9a-46b2-71d3-b4b2-f328ce2c49a0","019cfc7b-6c7b-7b1b-afe7-acad8efc6711","","null","
                <div class=""stimulus-container"">
                    <img src=""images/causal_sequence/the_performance_causal/the_performance_causal_6.png"" class=""exp-image"">
                    <div class=""question-area""></div> 
                </div>","null","","","","","","","","","","","",""
"","","","","","html-button-response","112","412756","0.0-112.0","403FEDA4B9F8400BA54A8C65B0F33CA5","019cfc9a-46b2-71d3-b4b2-f328ce2c49a0","019cfc7b-6c7b-7b1b-afe7-acad8efc6711","","1639","
                <div class=""stimulus-container"">
                    <img src=""images/causal_sequence/the_performance_causal/the_performance_causal_6.png"" class=""exp-image"">
                    <div class=""question-area"">
                        <p style=""font-size: 20px; font-weight: bold; margin: 0;"">Is there a person in this image?</p>
                    </div>
                </div>","0","main_experiment_trial","6","the_performance_causal","causal_sequence","chronological","","","","","","",""
"","","","","","html-keyboard-response","113","417764","0.0-113.0","403FEDA4B9F8400BA54A8C65B0F33CA5","019cfc9a-46b2-71d3-b4b2-f328ce2c49a0","019cfc7b-6c7b-7b1b-afe7-acad8efc6711","","null","
                <div class=""stimulus-container"">
                    <img src=""images/causal_sequence/the_performance_causal/the_performance_causal_7.png"" class=""exp-image"">
                    <div class=""question-area""></div> 
                </div>","null","","","","","","","","","","","",""
"","","","","","html-button-response","114","419061","0.0-114.0","403FEDA4B9F8400BA54A8C65B0F33CA5","019cfc9a-46b2-71d3-b4b2-f328ce2c49a0","019cfc7b-6c7b-7b1b-afe7-acad8efc6711","","1295","
                <div class=""stimulus-container"">
                    <img src=""images/causal_sequence/the_performance_causal/the_performance_causal_7.png"" class=""exp-image"">
                    <div class=""question-area"">
                        <p style=""font-size: 20px; font-weight: bold; margin: 0;"">Is there a person in this image?</p>
                    </div>
                </div>","0","main_experiment_trial","7","the_performance_causal","causal_sequence","chronological","","","","","","",""
"","","","","","html-keyboard-response","115","424064","0.0-115.0","403FEDA4B9F8400BA54A8C65B0F33CA5","019cfc9a-46b2-71d3-b4b2-f328ce2c49a0","019cfc7b-6c7b-7b1b-afe7-acad8efc6711","","null","
                <div class=""stimulus-container"">
                    <img src=""images/causal_sequence/the_performance_causal/the_performance_causal_8.png"" class=""exp-image"">
                    <div class=""question-area""></div> 
                </div>","null","","","","","","","","","","","",""
"","","","","","html-button-response","116","426009","0.0-116.0","403FEDA4B9F8400BA54A8C65B0F33CA5","019cfc9a-46b2-71d3-b4b2-f328ce2c49a0","019cfc7b-6c7b-7b1b-afe7-acad8efc6711","","1943","
                <div class=""stimulus-container"">
                    <img src=""images/causal_sequence/the_performance_causal/the_performance_causal_8.png"" class=""exp-image"">
                    <div class=""question-area"">
                        <p style=""font-size: 20px; font-weight: bold; margin: 0;"">Is there a person in this image?</p>
                    </div>
                </div>","0","main_experiment_trial","8","the_performance_causal","causal_sequence","chronological","","","","","","",""
"","","","","","html-keyboard-response","117","431016","0.0-117.0","403FEDA4B9F8400BA54A8C65B0F33CA5","019cfc9a-46b2-71d3-b4b2-f328ce2c49a0","019cfc7b-6c7b-7b1b-afe7-acad8efc6711","","null","
                <div class=""stimulus-container"">
                    <img src=""images/causal_sequence/the_performance_causal/the_performance_causal_9.png"" class=""exp-image"">
                    <div class=""question-area""></div> 
                </div>","null","","","","","","","","","","","",""
"","","","","","html-button-response","118","432299","0.0-118.0","403FEDA4B9F8400BA54A8C65B0F33CA5","019cfc9a-46b2-71d3-b4b2-f328ce2c49a0","019cfc7b-6c7b-7b1b-afe7-acad8efc6711","","1280","
                <div class=""stimulus-container"">
                    <img src=""images/causal_sequence/the_performance_causal/the_performance_causal_9.png"" class=""exp-image"">
                    <div class=""question-area"">
                        <p style=""font-size: 20px; font-weight: bold; margin: 0;"">Is there a person in this image?</p>
                    </div>
                </div>","0","main_experiment_trial","9","the_performance_causal","causal_sequence","chronological","","","","","","",""
"","","","","","html-keyboard-response","119","437304","0.0-119.0","403FEDA4B9F8400BA54A8C65B0F33CA5","019cfc9a-46b2-71d3-b4b2-f328ce2c49a0","019cfc7b-6c7b-7b1b-afe7-acad8efc6711","","null","
                <div class=""stimulus-container"">
                    <img src=""images/causal_sequence/the_performance_causal/the_performance_causal_ten.png"" class=""exp-image"">
                    <div class=""question-area""></div> 
                </div>","null","","","","","","","","","","","",""
"","","","","","html-button-response","120","438540","0.0-120.0","403FEDA4B9F8400BA54A8C65B0F33CA5","019cfc9a-46b2-71d3-b4b2-f328ce2c49a0","019cfc7b-6c7b-7b1b-afe7-acad8efc6711","","1235","
                <div class=""stimulus-container"">
                    <img src=""images/causal_sequence/the_performance_causal/the_performance_causal_ten.png"" class=""exp-image"">
                    <div class=""question-area"">
                        <p style=""font-size: 20px; font-weight: bold; margin: 0;"">Is there a person in this image?</p>
                    </div>
                </div>","0","main_experiment_trial","ten","the_performance_causal","causal_sequence","chronological","","","","","","",""
"","","","","","html-keyboard-response","121","443551","0.0-121.0","403FEDA4B9F8400BA54A8C65B0F33CA5","019cfc9a-46b2-71d3-b4b2-f328ce2c49a0","019cfc7b-6c7b-7b1b-afe7-acad8efc6711","","null","<div style=""background-color: white; width: 100vw; height: 100vh;""></div>","null","","","","","","","","","","","",""
"","","","","","html-keyboard-response","122","448561","0.0-122.0","403FEDA4B9F8400BA54A8C65B0F33CA5","019cfc9a-46b2-71d3-b4b2-f328ce2c49a0","019cfc7b-6c7b-7b1b-afe7-acad8efc6711","","null","
                <div class=""stimulus-container"">
                    <img src=""images/schematic_sequence/dinner_party_scheme/dinner_party_scheme_1.png"" class=""exp-image"">
                    <div class=""question-area""></div> 
                </div>","null","","","","","","","","","","","",""
"","","","","","html-button-response","123","449418","0.0-123.0","403FEDA4B9F8400BA54A8C65B0F33CA5","019cfc9a-46b2-71d3-b4b2-f328ce2c49a0","019cfc7b-6c7b-7b1b-afe7-acad8efc6711","","856","
                <div class=""stimulus-container"">
                    <img src=""images/schematic_sequence/dinner_party_scheme/dinner_party_scheme_1.png"" class=""exp-image"">
                    <div class=""question-area"">
                        <p style=""font-size: 20px; font-weight: bold; margin: 0;"">Is there a person in this image?</p>
                    </div>
                </div>","0","main_experiment_trial","1","dinner_party_scheme","schematic_sequence","chronological","","","","","","",""
"","","","","","html-keyboard-response","124","454426","0.0-124.0","403FEDA4B9F8400BA54A8C65B0F33CA5","019cfc9a-46b2-71d3-b4b2-f328ce2c49a0","019cfc7b-6c7b-7b1b-afe7-acad8efc6711","","null","
                <div class=""stimulus-container"">
                    <img src=""images/schematic_sequence/dinner_party_scheme/dinner_party_scheme_2.png"" class=""exp-image"">
                    <div class=""question-area""></div> 
                </div>","null","","","","","","","","","","","",""
"","","","","","html-button-response","125","455159","0.0-125.0","403FEDA4B9F8400BA54A8C65B0F33CA5","019cfc9a-46b2-71d3-b4b2-f328ce2c49a0","019cfc7b-6c7b-7b1b-afe7-acad8efc6711","","731","
                <div class=""stimulus-container"">
                    <img src=""images/schematic_sequence/dinner_party_scheme/dinner_party_scheme_2.png"" class=""exp-image"">
                    <div class=""question-area"">
                        <p style=""font-size: 20px; font-weight: bold; margin: 0;"">Is there a person in this image?</p>
                    </div>
                </div>","0","main_experiment_trial","2","dinner_party_scheme","schematic_sequence","chronological","","","","","","",""
"","","","","","html-keyboard-response","126","460174","0.0-126.0","403FEDA4B9F8400BA54A8C65B0F33CA5","019cfc9a-46b2-71d3-b4b2-f328ce2c49a0","019cfc7b-6c7b-7b1b-afe7-acad8efc6711","","null","
                <div class=""stimulus-container"">
                    <img src=""images/schematic_sequence/dinner_party_scheme/dinner_party_scheme_3.png"" class=""exp-image"">
                    <div class=""question-area""></div> 
                </div>","null","","","","","","","","","","","",""
"","","","","","html-button-response","127","460634","0.0-127.0","403FEDA4B9F8400BA54A8C65B0F33CA5","019cfc9a-46b2-71d3-b4b2-f328ce2c49a0","019cfc7b-6c7b-7b1b-afe7-acad8efc6711","","458","
                <div class=""stimulus-container"">
                    <img src=""images/schematic_sequence/dinner_party_scheme/dinner_party_scheme_3.png"" class=""exp-image"">
                    <div class=""question-area"">
                        <p style=""font-size: 20px; font-weight: bold; margin: 0;"">Is there a person in this image?</p>
                    </div>
                </div>","0","main_experiment_trial","3","dinner_party_scheme","schematic_sequence","chronological","","","","","","",""
"","","","","","html-keyboard-response","128","465648","0.0-128.0","403FEDA4B9F8400BA54A8C65B0F33CA5","019cfc9a-46b2-71d3-b4b2-f328ce2c49a0","019cfc7b-6c7b-7b1b-afe7-acad8efc6711","","null","
                <div class=""stimulus-container"">
                    <img src=""images/schematic_sequence/dinner_party_scheme/dinner_party_scheme_4.png"" class=""exp-image"">
                    <div class=""question-area""></div> 
                </div>","null","","","","","","","","","","","",""
"","","","","","html-button-response","129","466916","0.0-129.0","403FEDA4B9F8400BA54A8C65B0F33CA5","019cfc9a-46b2-71d3-b4b2-f328ce2c49a0","019cfc7b-6c7b-7b1b-afe7-acad8efc6711","","1266","
                <div class=""stimulus-container"">
                    <img src=""images/schematic_sequence/dinner_party_scheme/dinner_party_scheme_4.png"" class=""exp-image"">
                    <div class=""question-area"">
                        <p style=""font-size: 20px; font-weight: bold; margin: 0;"">Is there a person in this image?</p>
                    </div>
                </div>","0","main_experiment_trial","4","dinner_party_scheme","schematic_sequence","chronological","","","","","","",""
"","","","","","html-keyboard-response","130","471922","0.0-130.0","403FEDA4B9F8400BA54A8C65B0F33CA5","019cfc9a-46b2-71d3-b4b2-f328ce2c49a0","019cfc7b-6c7b-7b1b-afe7-acad8efc6711","","null","
                <div class=""stimulus-container"">
                    <img src=""images/schematic_sequence/dinner_party_scheme/dinner_party_scheme_5.png"" class=""exp-image"">
                    <div class=""question-area""></div> 
                </div>","null","","","","","","","","","","","",""
"","","","","","html-button-response","131","472549","0.0-131.0","403FEDA4B9F8400BA54A8C65B0F33CA5","019cfc9a-46b2-71d3-b4b2-f328ce2c49a0","019cfc7b-6c7b-7b1b-afe7-acad8efc6711","","626","
                <div class=""stimulus-container"">
                    <img src=""images/schematic_sequence/dinner_party_scheme/dinner_party_scheme_5.png"" class=""exp-image"">
                    <div class=""question-area"">
                        <p style=""font-size: 20px; font-weight: bold; margin: 0;"">Is there a person in this image?</p>
                    </div>
                </div>","0","main_experiment_trial","5","dinner_party_scheme","schematic_sequence","chronological","","","","","","",""
"","","","","","html-keyboard-response","132","477557","0.0-132.0","403FEDA4B9F8400BA54A8C65B0F33CA5","019cfc9a-46b2-71d3-b4b2-f328ce2c49a0","019cfc7b-6c7b-7b1b-afe7-acad8efc6711","","null","
                <div class=""stimulus-container"">
                    <img src=""images/schematic_sequence/dinner_party_scheme/dinner_party_scheme_6.png"" class=""exp-image"">
                    <div class=""question-area""></div> 
                </div>","null","","","","","","","","","","","",""
"","","","","","html-button-response","133","478068","0.0-133.0","403FEDA4B9F8400BA54A8C65B0F33CA5","019cfc9a-46b2-71d3-b4b2-f328ce2c49a0","019cfc7b-6c7b-7b1b-afe7-acad8efc6711","","510","
                <div class=""stimulus-container"">
                    <img src=""images/schematic_sequence/dinner_party_scheme/dinner_party_scheme_6.png"" class=""exp-image"">
                    <div class=""question-area"">
                        <p style=""font-size: 20px; font-weight: bold; margin: 0;"">Is there a person in this image?</p>
                    </div>
                </div>","0","main_experiment_trial","6","dinner_party_scheme","schematic_sequence","chronological","","","","","","",""
"","","","","","html-keyboard-response","134","483070","0.0-134.0","403FEDA4B9F8400BA54A8C65B0F33CA5","019cfc9a-46b2-71d3-b4b2-f328ce2c49a0","019cfc7b-6c7b-7b1b-afe7-acad8efc6711","","null","
                <div class=""stimulus-container"">
                    <img src=""images/schematic_sequence/dinner_party_scheme/dinner_party_scheme_7.png"" class=""exp-image"">
                    <div class=""question-area""></div> 
                </div>","null","","","","","","","","","","","",""
"","","","","","html-button-response","135","483784","0.0-135.0","403FEDA4B9F8400BA54A8C65B0F33CA5","019cfc9a-46b2-71d3-b4b2-f328ce2c49a0","019cfc7b-6c7b-7b1b-afe7-acad8efc6711","","712","
                <div class=""stimulus-container"">
                    <img src=""images/schematic_sequence/dinner_party_scheme/dinner_party_scheme_7.png"" class=""exp-image"">
                    <div class=""question-area"">
                        <p style=""font-size: 20px; font-weight: bold; margin: 0;"">Is there a person in this image?</p>
                    </div>
                </div>","0","main_experiment_trial","7","dinner_party_scheme","schematic_sequence","chronological","","","","","","",""
"","","","","","html-keyboard-response","136","488788","0.0-136.0","403FEDA4B9F8400BA54A8C65B0F33CA5","019cfc9a-46b2-71d3-b4b2-f328ce2c49a0","019cfc7b-6c7b-7b1b-afe7-acad8efc6711","","null","
                <div class=""stimulus-container"">
                    <img src=""images/schematic_sequence/dinner_party_scheme/dinner_party_scheme_8.png"" class=""exp-image"">
                    <div class=""question-area""></div> 
                </div>","null","","","","","","","","","","","",""
"","","","","","html-button-response","137","490379","0.0-137.0","403FEDA4B9F8400BA54A8C65B0F33CA5","019cfc9a-46b2-71d3-b4b2-f328ce2c49a0","019cfc7b-6c7b-7b1b-afe7-acad8efc6711","","1589","
                <div class=""stimulus-container"">
                    <img src=""images/schematic_sequence/dinner_party_scheme/dinner_party_scheme_8.png"" class=""exp-image"">
                    <div class=""question-area"">
                        <p style=""font-size: 20px; font-weight: bold; margin: 0;"">Is there a person in this image?</p>
                    </div>
                </div>","0","main_experiment_trial","8","dinner_party_scheme","schematic_sequence","chronological","","","","","","",""
"","","","","","html-keyboard-response","138","495396","0.0-138.0","403FEDA4B9F8400BA54A8C65B0F33CA5","019cfc9a-46b2-71d3-b4b2-f328ce2c49a0","019cfc7b-6c7b-7b1b-afe7-acad8efc6711","","null","
                <div class=""stimulus-container"">
                    <img src=""images/schematic_sequence/dinner_party_scheme/dinner_party_scheme_9.png"" class=""exp-image"">
                    <div class=""question-area""></div> 
                </div>","null","","","","","","","","","","","",""
"","","","","","html-button-response","139","496001","0.0-139.0","403FEDA4B9F8400BA54A8C65B0F33CA5","019cfc9a-46b2-71d3-b4b2-f328ce2c49a0","019cfc7b-6c7b-7b1b-afe7-acad8efc6711","","604","
                <div class=""stimulus-container"">
                    <img src=""images/schematic_sequence/dinner_party_scheme/dinner_party_scheme_9.png"" class=""exp-image"">
                    <div class=""question-area"">
                        <p style=""font-size: 20px; font-weight: bold; margin: 0;"">Is there a person in this image?</p>
                    </div>
                </div>","0","main_experiment_trial","9","dinner_party_scheme","schematic_sequence","chronological","","","","","","",""
"","","","","","html-keyboard-response","140","501009","0.0-140.0","403FEDA4B9F8400BA54A8C65B0F33CA5","019cfc9a-46b2-71d3-b4b2-f328ce2c49a0","019cfc7b-6c7b-7b1b-afe7-acad8efc6711","","null","
                <div class=""stimulus-container"">
                    <img src=""images/schematic_sequence/dinner_party_scheme/dinner_party_scheme_ten.png"" class=""exp-image"">
                    <div class=""question-area""></div> 
                </div>","null","","","","","","","","","","","",""
"","","","","","html-button-response","141","501560","0.0-141.0","403FEDA4B9F8400BA54A8C65B0F33CA5","019cfc9a-46b2-71d3-b4b2-f328ce2c49a0","019cfc7b-6c7b-7b1b-afe7-acad8efc6711","","548","
                <div class=""stimulus-container"">
                    <img src=""images/schematic_sequence/dinner_party_scheme/dinner_party_scheme_ten.png"" class=""exp-image"">
                    <div class=""question-area"">
                        <p style=""font-size: 20px; font-weight: bold; margin: 0;"">Is there a person in this image?</p>
                    </div>
                </div>","0","main_experiment_trial","ten","dinner_party_scheme","schematic_sequence","chronological","","","","","","",""
"","","","","","html-keyboard-response","142","506562","0.0-142.0","403FEDA4B9F8400BA54A8C65B0F33CA5","019cfc9a-46b2-71d3-b4b2-f328ce2c49a0","019cfc7b-6c7b-7b1b-afe7-acad8efc6711","","null","<div style=""background-color: white; width: 100vw; height: 100vh;""></div>","null","","","","","","","","","","","",""
"","","","","","html-keyboard-response","143","511566","0.0-143.0","403FEDA4B9F8400BA54A8C65B0F33CA5","019cfc9a-46b2-71d3-b4b2-f328ce2c49a0","019cfc7b-6c7b-7b1b-afe7-acad8efc6711","","null","
                <div class=""stimulus-container"">
                    <img src=""images/schematic_sequence/interview_scheme/interview_scheme_1.png"" class=""exp-image"">
                    <div class=""question-area""></div> 
                </div>","null","","","","","","","","","","","",""
"","","","","","html-button-response","144","512716","0.0-144.0","403FEDA4B9F8400BA54A8C65B0F33CA5","019cfc9a-46b2-71d3-b4b2-f328ce2c49a0","019cfc7b-6c7b-7b1b-afe7-acad8efc6711","","1149","
                <div class=""stimulus-container"">
                    <img src=""images/schematic_sequence/interview_scheme/interview_scheme_1.png"" class=""exp-image"">
                    <div class=""question-area"">
                        <p style=""font-size: 20px; font-weight: bold; margin: 0;"">Is there a person in this image?</p>
                    </div>
                </div>","1","main_experiment_trial","1","interview_scheme","schematic_sequence","chronological","","","","","","",""
"","","","","","html-keyboard-response","145","517725","0.0-145.0","403FEDA4B9F8400BA54A8C65B0F33CA5","019cfc9a-46b2-71d3-b4b2-f328ce2c49a0","019cfc7b-6c7b-7b1b-afe7-acad8efc6711","","null","
                <div class=""stimulus-container"">
                    <img src=""images/schematic_sequence/interview_scheme/interview_scheme_2.png"" class=""exp-image"">
                    <div class=""question-area""></div> 
                </div>","null","","","","","","","","","","","",""
"","","","","","html-button-response","146","519318","0.0-146.0","403FEDA4B9F8400BA54A8C65B0F33CA5","019cfc9a-46b2-71d3-b4b2-f328ce2c49a0","019cfc7b-6c7b-7b1b-afe7-acad8efc6711","","1593","
                <div class=""stimulus-container"">
                    <img src=""images/schematic_sequence/interview_scheme/interview_scheme_2.png"" class=""exp-image"">
                    <div class=""question-area"">
                        <p style=""font-size: 20px; font-weight: bold; margin: 0;"">Is there a person in this image?</p>
                    </div>
                </div>","0","main_experiment_trial","2","interview_scheme","schematic_sequence","chronological","","","","","","",""
"","","","","","html-keyboard-response","147","524321","0.0-147.0","403FEDA4B9F8400BA54A8C65B0F33CA5","019cfc9a-46b2-71d3-b4b2-f328ce2c49a0","019cfc7b-6c7b-7b1b-afe7-acad8efc6711","","null","
                <div class=""stimulus-container"">
                    <img src=""images/schematic_sequence/interview_scheme/interview_scheme_3.png"" class=""exp-image"">
                    <div class=""question-area""></div> 
                </div>","null","","","","","","","","","","","",""
"","","","","","html-button-response","148","525582","0.0-148.0","403FEDA4B9F8400BA54A8C65B0F33CA5","019cfc9a-46b2-71d3-b4b2-f328ce2c49a0","019cfc7b-6c7b-7b1b-afe7-acad8efc6711","","1260","
                <div class=""stimulus-container"">
                    <img src=""images/schematic_sequence/interview_scheme/interview_scheme_3.png"" class=""exp-image"">
                    <div class=""question-area"">
                        <p style=""font-size: 20px; font-weight: bold; margin: 0;"">Is there a person in this image?</p>
                    </div>
                </div>","1","main_experiment_trial","3","interview_scheme","schematic_sequence","chronological","","","","","","",""
"","","","","","html-keyboard-response","149","530597","0.0-149.0","403FEDA4B9F8400BA54A8C65B0F33CA5","019cfc9a-46b2-71d3-b4b2-f328ce2c49a0","019cfc7b-6c7b-7b1b-afe7-acad8efc6711","","null","
                <div class=""stimulus-container"">
                    <img src=""images/schematic_sequence/interview_scheme/interview_scheme_4.png"" class=""exp-image"">
                    <div class=""question-area""></div> 
                </div>","null","","","","","","","","","","","",""
"","","","","","html-button-response","150","531792","0.0-150.0","403FEDA4B9F8400BA54A8C65B0F33CA5","019cfc9a-46b2-71d3-b4b2-f328ce2c49a0","019cfc7b-6c7b-7b1b-afe7-acad8efc6711","","1194","
                <div class=""stimulus-container"">
                    <img src=""images/schematic_sequence/interview_scheme/interview_scheme_4.png"" class=""exp-image"">
                    <div class=""question-area"">
                        <p style=""font-size: 20px; font-weight: bold; margin: 0;"">Is there a person in this image?</p>
                    </div>
                </div>","1","main_experiment_trial","4","interview_scheme","schematic_sequence","chronological","","","","","","",""
"","","","","","html-keyboard-response","151","536804","0.0-151.0","403FEDA4B9F8400BA54A8C65B0F33CA5","019cfc9a-46b2-71d3-b4b2-f328ce2c49a0","019cfc7b-6c7b-7b1b-afe7-acad8efc6711","","null","
                <div class=""stimulus-container"">
                    <img src=""images/schematic_sequence/interview_scheme/interview_scheme_5.png"" class=""exp-image"">
                    <div class=""question-area""></div> 
                </div>","null","","","","","","","","","","","",""
"","","","","","html-button-response","152","537629","0.0-152.0","403FEDA4B9F8400BA54A8C65B0F33CA5","019cfc9a-46b2-71d3-b4b2-f328ce2c49a0","019cfc7b-6c7b-7b1b-afe7-acad8efc6711","","824","
                <div class=""stimulus-container"">
                    <img src=""images/schematic_sequence/interview_scheme/interview_scheme_5.png"" class=""exp-image"">
                    <div class=""question-area"">
                        <p style=""font-size: 20px; font-weight: bold; margin: 0;"">Is there a person in this image?</p>
                    </div>
                </div>","0","main_experiment_trial","5","interview_scheme","schematic_sequence","chronological","","","","","","",""
"","","","","","html-keyboard-response","153","542643","0.0-153.0","403FEDA4B9F8400BA54A8C65B0F33CA5","019cfc9a-46b2-71d3-b4b2-f328ce2c49a0","019cfc7b-6c7b-7b1b-afe7-acad8efc6711","","null","
                <div class=""stimulus-container"">
                    <img src=""images/schematic_sequence/interview_scheme/interview_scheme_6.png"" class=""exp-image"">
                    <div class=""question-area""></div> 
                </div>","null","","","","","","","","","","","",""
"","","","","","html-button-response","154","545320","0.0-154.0","403FEDA4B9F8400BA54A8C65B0F33CA5","019cfc9a-46b2-71d3-b4b2-f328ce2c49a0","019cfc7b-6c7b-7b1b-afe7-acad8efc6711","","2676","
                <div class=""stimulus-container"">
                    <img src=""images/schematic_sequence/interview_scheme/interview_scheme_6.png"" class=""exp-image"">
                    <div class=""question-area"">
                        <p style=""font-size: 20px; font-weight: bold; margin: 0;"">Is there a person in this image?</p>
                    </div>
                </div>","0","main_experiment_trial","6","interview_scheme","schematic_sequence","chronological","","","","","","",""
"","","","","","html-keyboard-response","155","550328","0.0-155.0","403FEDA4B9F8400BA54A8C65B0F33CA5","019cfc9a-46b2-71d3-b4b2-f328ce2c49a0","019cfc7b-6c7b-7b1b-afe7-acad8efc6711","","null","
                <div class=""stimulus-container"">
                    <img src=""images/schematic_sequence/interview_scheme/interview_scheme_7.png"" class=""exp-image"">
                    <div class=""question-area""></div> 
                </div>","null","","","","","","","","","","","",""
"","","","","","html-button-response","156","551741","0.0-156.0","403FEDA4B9F8400BA54A8C65B0F33CA5","019cfc9a-46b2-71d3-b4b2-f328ce2c49a0","019cfc7b-6c7b-7b1b-afe7-acad8efc6711","","1411","
                <div class=""stimulus-container"">
                    <img src=""images/schematic_sequence/interview_scheme/interview_scheme_7.png"" class=""exp-image"">
                    <div class=""question-area"">
                        <p style=""font-size: 20px; font-weight: bold; margin: 0;"">Is there a person in this image?</p>
                    </div>
                </div>","0","main_experiment_trial","7","interview_scheme","schematic_sequence","chronological","","","","","","",""
"","","","","","html-keyboard-response","157","556754","0.0-157.0","403FEDA4B9F8400BA54A8C65B0F33CA5","019cfc9a-46b2-71d3-b4b2-f328ce2c49a0","019cfc7b-6c7b-7b1b-afe7-acad8efc6711","","null","
                <div class=""stimulus-container"">
                    <img src=""images/schematic_sequence/interview_scheme/interview_scheme_8.png"" class=""exp-image"">
                    <div class=""question-area""></div> 
                </div>","null","","","","","","","","","","","",""
"","","","","","html-button-response","158","557698","0.0-158.0","403FEDA4B9F8400BA54A8C65B0F33CA5","019cfc9a-46b2-71d3-b4b2-f328ce2c49a0","019cfc7b-6c7b-7b1b-afe7-acad8efc6711","","944","
                <div class=""stimulus-container"">
                    <img src=""images/schematic_sequence/interview_scheme/interview_scheme_8.png"" class=""exp-image"">
                    <div class=""question-area"">
                        <p style=""font-size: 20px; font-weight: bold; margin: 0;"">Is there a person in this image?</p>
                    </div>
                </div>","0","main_experiment_trial","8","interview_scheme","schematic_sequence","chronological","","","","","","",""
"","","","","","html-keyboard-response","159","562710","0.0-159.0","403FEDA4B9F8400BA54A8C65B0F33CA5","019cfc9a-46b2-71d3-b4b2-f328ce2c49a0","019cfc7b-6c7b-7b1b-afe7-acad8efc6711","","null","
                <div class=""stimulus-container"">
                    <img src=""images/schematic_sequence/interview_scheme/interview_scheme_9.png"" class=""exp-image"">
                    <div class=""question-area""></div> 
                </div>","null","","","","","","","","","","","",""
"","","","","","html-button-response","160","564033","0.0-160.0","403FEDA4B9F8400BA54A8C65B0F33CA5","019cfc9a-46b2-71d3-b4b2-f328ce2c49a0","019cfc7b-6c7b-7b1b-afe7-acad8efc6711","","1321","
                <div class=""stimulus-container"">
                    <img src=""images/schematic_sequence/interview_scheme/interview_scheme_9.png"" class=""exp-image"">
                    <div class=""question-area"">
                        <p style=""font-size: 20px; font-weight: bold; margin: 0;"">Is there a person in this image?</p>
                    </div>
                </div>","0","main_experiment_trial","9","interview_scheme","schematic_sequence","chronological","","","","","","",""
"","","","","","html-keyboard-response","161","569047","0.0-161.0","403FEDA4B9F8400BA54A8C65B0F33CA5","019cfc9a-46b2-71d3-b4b2-f328ce2c49a0","019cfc7b-6c7b-7b1b-afe7-acad8efc6711","","null","
                <div class=""stimulus-container"">
                    <img src=""images/schematic_sequence/interview_scheme/interview_scheme_ten.png"" class=""exp-image"">
                    <div class=""question-area""></div> 
                </div>","null","","","","","","","","","","","",""
"","","","","","html-button-response","162","571825","0.0-162.0","403FEDA4B9F8400BA54A8C65B0F33CA5","019cfc9a-46b2-71d3-b4b2-f328ce2c49a0","019cfc7b-6c7b-7b1b-afe7-acad8efc6711","","2777","
                <div class=""stimulus-container"">
                    <img src=""images/schematic_sequence/interview_scheme/interview_scheme_ten.png"" class=""exp-image"">
                    <div class=""question-area"">
                        <p style=""font-size: 20px; font-weight: bold; margin: 0;"">Is there a person in this image?</p>
                    </div>
                </div>","0","main_experiment_trial","ten","interview_scheme","schematic_sequence","chronological","","","","","","",""
"","","","","","html-keyboard-response","163","576835","0.0-163.0","403FEDA4B9F8400BA54A8C65B0F33CA5","019cfc9a-46b2-71d3-b4b2-f328ce2c49a0","019cfc7b-6c7b-7b1b-afe7-acad8efc6711","","null","<div style=""background-color: white; width: 100vw; height: 100vh;""></div>","null","","","","","","","","","","","",""
"","","","","","html-keyboard-response","164","581840","0.0-164.0","403FEDA4B9F8400BA54A8C65B0F33CA5","019cfc9a-46b2-71d3-b4b2-f328ce2c49a0","019cfc7b-6c7b-7b1b-afe7-acad8efc6711","","null","
                <div class=""stimulus-container"">
                    <img src=""images/causal_sequence/package_causal/package_causal_1.png"" class=""exp-image"">
                    <div class=""question-area""></div> 
                </div>","null","","","","","","","","","","","",""
"","","","","","html-button-response","165","582705","0.0-165.0","403FEDA4B9F8400BA54A8C65B0F33CA5","019cfc9a-46b2-71d3-b4b2-f328ce2c49a0","019cfc7b-6c7b-7b1b-afe7-acad8efc6711","","863","
                <div class=""stimulus-container"">
                    <img src=""images/causal_sequence/package_causal/package_causal_1.png"" class=""exp-image"">
                    <div class=""question-area"">
                        <p style=""font-size: 20px; font-weight: bold; margin: 0;"">Is there a person in this image?</p>
                    </div>
                </div>","0","main_experiment_trial","1","package_causal","causal_sequence","chronological","","","","","","",""
"","","","","","html-keyboard-response","166","587707","0.0-166.0","403FEDA4B9F8400BA54A8C65B0F33CA5","019cfc9a-46b2-71d3-b4b2-f328ce2c49a0","019cfc7b-6c7b-7b1b-afe7-acad8efc6711","","null","
                <div class=""stimulus-container"">
                    <img src=""images/causal_sequence/package_causal/package_causal_2.png"" class=""exp-image"">
                    <div class=""question-area""></div> 
                </div>","null","","","","","","","","","","","",""
"","","","","","html-button-response","167","589070","0.0-167.0","403FEDA4B9F8400BA54A8C65B0F33CA5","019cfc9a-46b2-71d3-b4b2-f328ce2c49a0","019cfc7b-6c7b-7b1b-afe7-acad8efc6711","","1362","
                <div class=""stimulus-container"">
                    <img src=""images/causal_sequence/package_causal/package_causal_2.png"" class=""exp-image"">
                    <div class=""question-area"">
                        <p style=""font-size: 20px; font-weight: bold; margin: 0;"">Is there a person in this image?</p>
                    </div>
                </div>","0","main_experiment_trial","2","package_causal","causal_sequence","chronological","","","","","","",""
"","","","","","html-keyboard-response","168","594078","0.0-168.0","403FEDA4B9F8400BA54A8C65B0F33CA5","019cfc9a-46b2-71d3-b4b2-f328ce2c49a0","019cfc7b-6c7b-7b1b-afe7-acad8efc6711","","null","
                <div class=""stimulus-container"">
                    <img src=""images/causal_sequence/package_causal/package_causal_3.png"" class=""exp-image"">
                    <div class=""question-area""></div> 
                </div>","null","","","","","","","","","","","",""
"","","","","","html-button-response","169","597086","0.0-169.0","403FEDA4B9F8400BA54A8C65B0F33CA5","019cfc9a-46b2-71d3-b4b2-f328ce2c49a0","019cfc7b-6c7b-7b1b-afe7-acad8efc6711","","null","
                <div class=""stimulus-container"">
                    <img src=""images/causal_sequence/package_causal/package_causal_3.png"" class=""exp-image"">
                    <div class=""question-area"">
                        <p style=""font-size: 20px; font-weight: bold; margin: 0;"">Is there a person in this image?</p>
                    </div>
                </div>","null","main_experiment_trial","3","package_causal","causal_sequence","chronological","","","","","","",""
"","","","","","html-keyboard-response","170","602097","0.0-170.0","403FEDA4B9F8400BA54A8C65B0F33CA5","019cfc9a-46b2-71d3-b4b2-f328ce2c49a0","019cfc7b-6c7b-7b1b-afe7-acad8efc6711","","null","
                <div class=""stimulus-container"">
                    <img src=""images/causal_sequence/package_causal/package_causal_4.png"" class=""exp-image"">
                    <div class=""question-area""></div> 
                </div>","null","","","","","","","","","","","",""
"","","","","","html-button-response","171","602755","0.0-171.0","403FEDA4B9F8400BA54A8C65B0F33CA5","019cfc9a-46b2-71d3-b4b2-f328ce2c49a0","019cfc7b-6c7b-7b1b-afe7-acad8efc6711","","656","
                <div class=""stimulus-container"">
                    <img src=""images/causal_sequence/package_causal/package_causal_4.png"" class=""exp-image"">
                    <div class=""question-area"">
                        <p style=""font-size: 20px; font-weight: bold; margin: 0;"">Is there a person in this image?</p>
                    </div>
                </div>","1","main_experiment_trial","4","package_causal","causal_sequence","chronological","","","","","","",""
"","","","","","html-keyboard-response","172","607770","0.0-172.0","403FEDA4B9F8400BA54A8C65B0F33CA5","019cfc9a-46b2-71d3-b4b2-f328ce2c49a0","019cfc7b-6c7b-7b1b-afe7-acad8efc6711","","null","
                <div class=""stimulus-container"">
                    <img src=""images/causal_sequence/package_causal/package_causal_5.png"" class=""exp-image"">
                    <div class=""question-area""></div> 
                </div>","null","","","","","","","","","","","",""
"","","","","","html-button-response","173","609084","0.0-173.0","403FEDA4B9F8400BA54A8C65B0F33CA5","019cfc9a-46b2-71d3-b4b2-f328ce2c49a0","019cfc7b-6c7b-7b1b-afe7-acad8efc6711","","1312","
                <div class=""stimulus-container"">
                    <img src=""images/causal_sequence/package_causal/package_causal_5.png"" class=""exp-image"">
                    <div class=""question-area"">
                        <p style=""font-size: 20px; font-weight: bold; margin: 0;"">Is there a person in this image?</p>
                    </div>
                </div>","0","main_experiment_trial","5","package_causal","causal_sequence","chronological","","","","","","",""
"","","","","","html-keyboard-response","174","614090","0.0-174.0","403FEDA4B9F8400BA54A8C65B0F33CA5","019cfc9a-46b2-71d3-b4b2-f328ce2c49a0","019cfc7b-6c7b-7b1b-afe7-acad8efc6711","","null","
                <div class=""stimulus-container"">
                    <img src=""images/causal_sequence/package_causal/package_causal_6.png"" class=""exp-image"">
                    <div class=""question-area""></div> 
                </div>","null","","","","","","","","","","","",""
"","","","","","html-button-response","175","615186","0.0-175.0","403FEDA4B9F8400BA54A8C65B0F33CA5","019cfc9a-46b2-71d3-b4b2-f328ce2c49a0","019cfc7b-6c7b-7b1b-afe7-acad8efc6711","","1094","
                <div class=""stimulus-container"">
                    <img src=""images/causal_sequence/package_causal/package_causal_6.png"" class=""exp-image"">
                    <div class=""question-area"">
                        <p style=""font-size: 20px; font-weight: bold; margin: 0;"">Is there a person in this image?</p>
                    </div>
                </div>","0","main_experiment_trial","6","package_causal","causal_sequence","chronological","","","","","","",""
"","","","","","html-keyboard-response","176","620193","0.0-176.0","403FEDA4B9F8400BA54A8C65B0F33CA5","019cfc9a-46b2-71d3-b4b2-f328ce2c49a0","019cfc7b-6c7b-7b1b-afe7-acad8efc6711","","null","
                <div class=""stimulus-container"">
                    <img src=""images/causal_sequence/package_causal/package_causal_7.png"" class=""exp-image"">
                    <div class=""question-area""></div> 
                </div>","null","","","","","","","","","","","",""
"","","","","","html-button-response","177","620926","0.0-177.0","403FEDA4B9F8400BA54A8C65B0F33CA5","019cfc9a-46b2-71d3-b4b2-f328ce2c49a0","019cfc7b-6c7b-7b1b-afe7-acad8efc6711","","731","
                <div class=""stimulus-container"">
                    <img src=""images/causal_sequence/package_causal/package_causal_7.png"" class=""exp-image"">
                    <div class=""question-area"">
                        <p style=""font-size: 20px; font-weight: bold; margin: 0;"">Is there a person in this image?</p>
                    </div>
                </div>","0","main_experiment_trial","7","package_causal","causal_sequence","chronological","","","","","","",""
