"success","timeout","failed_images","failed_audio","failed_video","trial_type","trial_index","time_elapsed","internal_node_id","subject_id","study_id","session_id","view_history","rt","stimulus","response","task","image_index","folder","sequence_type","valuable_image_index","reward_type","chosen_image_index","target_X","correct_choice"
"true","false","[]","[]","[]","preload","0","5598","0.0-0.0","CE791658D24940268E2D468FDC7A2F88","019cf712-621d-79e2-ba1f-5afe96fd34b9","019cf6fe-235e-7d95-bb9b-b011d2fe188e","","","","","","","","","","","","",""
"","","","","","instructions","1","7149","0.0-1.0","CE791658D24940268E2D468FDC7A2F88","019cf712-621d-79e2-ba1f-5afe96fd34b9","019cf6fe-235e-7d95-bb9b-b011d2fe188e","[{""page_index"":0,""viewing_time"":1551}]","1551","","","","","","","","","","",""
"","","","","","instructions","2","12279","0.0-2.0","CE791658D24940268E2D468FDC7A2F88","019cf712-621d-79e2-ba1f-5afe96fd34b9","019cf6fe-235e-7d95-bb9b-b011d2fe188e","[{""page_index"":0,""viewing_time"":5129}]","5129","","","","","","","","","","",""
"true","","","","","fullscreen","3","14609","0.0-3.0","CE791658D24940268E2D468FDC7A2F88","019cf712-621d-79e2-ba1f-5afe96fd34b9","019cf6fe-235e-7d95-bb9b-b011d2fe188e","","1315","","","","","","","","","","",""
"","","","","","instructions","4","25379","0.0-4.0","CE791658D24940268E2D468FDC7A2F88","019cf712-621d-79e2-ba1f-5afe96fd34b9","019cf6fe-235e-7d95-bb9b-b011d2fe188e","[{""page_index"":0,""viewing_time"":10770}]","10770","","","","","","","","","","",""
"","","","","","instructions","5","27539","0.0-5.0","CE791658D24940268E2D468FDC7A2F88","019cf712-621d-79e2-ba1f-5afe96fd34b9","019cf6fe-235e-7d95-bb9b-b011d2fe188e","[{""page_index"":0,""viewing_time"":2160}]","2160","","","","","","","","","","",""
"","","","","","html-keyboard-response","6","31555","0.0-6.0","CE791658D24940268E2D468FDC7A2F88","019cf712-621d-79e2-ba1f-5afe96fd34b9","019cf6fe-235e-7d95-bb9b-b011d2fe188e","","null","
                <div class=""stimulus-container"">
                    <img src=""images/instructions/movie_1.png"" class=""exp-image"">
                    <div class=""question-area""></div> 
                </div>","null","","","","","","","","",""
"","","","","","html-button-response","7","33474","0.0-7.0","CE791658D24940268E2D468FDC7A2F88","019cf712-621d-79e2-ba1f-5afe96fd34b9","019cf6fe-235e-7d95-bb9b-b011d2fe188e","","1919","
                <div class=""stimulus-container"">
                    <img src=""images/instructions/movie_1.png"" class=""exp-image"">
                    <div class=""question-area"">
                        <p style=""font-size: 20px; font-weight: bold; margin: 0;"">Was there a person in this image?</p>
                    </div>
                </div>","0","example_question","1","","","","","","",""
"","","","","","html-keyboard-response","8","37487","0.0-8.0","CE791658D24940268E2D468FDC7A2F88","019cf712-621d-79e2-ba1f-5afe96fd34b9","019cf6fe-235e-7d95-bb9b-b011d2fe188e","","null","
                <div class=""stimulus-container"">
                    <img src=""images/instructions/movie_2.png"" class=""exp-image"">
                    <div class=""question-area""></div> 
                </div>","null","","","","","","","","",""
"","","","","","html-button-response","9","37949","0.0-9.0","CE791658D24940268E2D468FDC7A2F88","019cf712-621d-79e2-ba1f-5afe96fd34b9","019cf6fe-235e-7d95-bb9b-b011d2fe188e","","462","
                <div class=""stimulus-container"">
                    <img src=""images/instructions/movie_2.png"" class=""exp-image"">
                    <div class=""question-area"">
                        <p style=""font-size: 20px; font-weight: bold; margin: 0;"">Was there a person in this image?</p>
                    </div>
                </div>","1","example_question","2","","","","","","",""
"","","","","","html-keyboard-response","10","41955","0.0-10.0","CE791658D24940268E2D468FDC7A2F88","019cf712-621d-79e2-ba1f-5afe96fd34b9","019cf6fe-235e-7d95-bb9b-b011d2fe188e","","null","
                <div class=""stimulus-container"">
                    <img src=""images/instructions/movie_3.png"" class=""exp-image"">
                    <div class=""question-area""></div> 
                </div>","null","","","","","","","","",""
"","","","","","html-button-response","11","42399","0.0-11.0","CE791658D24940268E2D468FDC7A2F88","019cf712-621d-79e2-ba1f-5afe96fd34b9","019cf6fe-235e-7d95-bb9b-b011d2fe188e","","443","
                <div class=""stimulus-container"">
                    <img src=""images/instructions/movie_3.png"" class=""exp-image"">
                    <div class=""question-area"">
                        <p style=""font-size: 20px; font-weight: bold; margin: 0;"">Was there a person in this image?</p>
                    </div>
                </div>","0","example_question","3","","","","","","",""
"","","","","","html-keyboard-response","12","46402","0.0-12.0","CE791658D24940268E2D468FDC7A2F88","019cf712-621d-79e2-ba1f-5afe96fd34b9","019cf6fe-235e-7d95-bb9b-b011d2fe188e","","null","
                <div class=""stimulus-container"">
                    <img src=""images/instructions/movie_4.png"" class=""exp-image"">
                    <div class=""question-area""></div> 
                </div>","null","","","","","","","","",""
"","","","","","html-button-response","13","46775","0.0-13.0","CE791658D24940268E2D468FDC7A2F88","019cf712-621d-79e2-ba1f-5afe96fd34b9","019cf6fe-235e-7d95-bb9b-b011d2fe188e","","372","
                <div class=""stimulus-container"">
                    <img src=""images/instructions/movie_4.png"" class=""exp-image"">
                    <div class=""question-area"">
                        <p style=""font-size: 20px; font-weight: bold; margin: 0;"">Was there a person in this image?</p>
                    </div>
                </div>","0","example_question","4","","","","","","",""
"","","","","","instructions","14","48689","0.0-14.0","CE791658D24940268E2D468FDC7A2F88","019cf712-621d-79e2-ba1f-5afe96fd34b9","019cf6fe-235e-7d95-bb9b-b011d2fe188e","[{""page_index"":0,""viewing_time"":1914}]","1914","","","","","","","","","","",""
"","","","","","instructions","15","61209","0.0-15.0","CE791658D24940268E2D468FDC7A2F88","019cf712-621d-79e2-ba1f-5afe96fd34b9","019cf6fe-235e-7d95-bb9b-b011d2fe188e","[{""page_index"":0,""viewing_time"":12515}]","12515","","","","","","","","","","",""
"","","","","","html-keyboard-response","16","62214","0.0-16.0","CE791658D24940268E2D468FDC7A2F88","019cf712-621d-79e2-ba1f-5afe96fd34b9","019cf6fe-235e-7d95-bb9b-b011d2fe188e","","null","<div style=""background-color: white; width: 100vw; height: 100vh;""></div>","null","","","","","","","","",""
"","","","","","html-keyboard-response","17","67216","0.0-17.0","CE791658D24940268E2D468FDC7A2F88","019cf712-621d-79e2-ba1f-5afe96fd34b9","019cf6fe-235e-7d95-bb9b-b011d2fe188e","","null","
                <div class=""stimulus-container"">
                    <img src=""images/schematic_sequence/restaurant_scheme/restaurant_scheme_1.png"" class=""exp-image"">
                    <div class=""question-area""></div> 
                </div>","null","","","","","","","","",""
"","","","","","html-button-response","18","68338","0.0-18.0","CE791658D24940268E2D468FDC7A2F88","019cf712-621d-79e2-ba1f-5afe96fd34b9","019cf6fe-235e-7d95-bb9b-b011d2fe188e","","1122","
                <div class=""stimulus-container"">
                    <img src=""images/schematic_sequence/restaurant_scheme/restaurant_scheme_1.png"" class=""exp-image"">
                    <div class=""question-area"">
                        <p style=""font-size: 20px; font-weight: bold; margin: 0;"">Is there a person in this image?</p>
                    </div>
                </div>","0","main_experiment_trial","1","restaurant_scheme","schematic_sequence","","","","",""
"","","","","","html-keyboard-response","19","73350","0.0-19.0","CE791658D24940268E2D468FDC7A2F88","019cf712-621d-79e2-ba1f-5afe96fd34b9","019cf6fe-235e-7d95-bb9b-b011d2fe188e","","null","
                <div class=""stimulus-container"">
                    <img src=""images/schematic_sequence/restaurant_scheme/restaurant_scheme_2.png"" class=""exp-image"">
                    <div class=""question-area""></div> 
                </div>","null","","","","","","","","",""
"","","","","","html-button-response","20","74488","0.0-20.0","CE791658D24940268E2D468FDC7A2F88","019cf712-621d-79e2-ba1f-5afe96fd34b9","019cf6fe-235e-7d95-bb9b-b011d2fe188e","","1138","
                <div class=""stimulus-container"">
                    <img src=""images/schematic_sequence/restaurant_scheme/restaurant_scheme_2.png"" class=""exp-image"">
                    <div class=""question-area"">
                        <p style=""font-size: 20px; font-weight: bold; margin: 0;"">Is there a person in this image?</p>
                    </div>
                </div>","1","main_experiment_trial","2","restaurant_scheme","schematic_sequence","","","","",""
"","","","","","html-keyboard-response","21","79491","0.0-21.0","CE791658D24940268E2D468FDC7A2F88","019cf712-621d-79e2-ba1f-5afe96fd34b9","019cf6fe-235e-7d95-bb9b-b011d2fe188e","","null","
                <div class=""stimulus-container"">
                    <img src=""images/schematic_sequence/restaurant_scheme/restaurant_scheme_3.png"" class=""exp-image"">
                    <div class=""question-area""></div> 
                </div>","null","","","","","","","","",""
"","","","","","html-button-response","22","80093","0.0-22.0","CE791658D24940268E2D468FDC7A2F88","019cf712-621d-79e2-ba1f-5afe96fd34b9","019cf6fe-235e-7d95-bb9b-b011d2fe188e","","602","
                <div class=""stimulus-container"">
                    <img src=""images/schematic_sequence/restaurant_scheme/restaurant_scheme_3.png"" class=""exp-image"">
                    <div class=""question-area"">
                        <p style=""font-size: 20px; font-weight: bold; margin: 0;"">Is there a person in this image?</p>
                    </div>
                </div>","1","main_experiment_trial","3","restaurant_scheme","schematic_sequence","","","","",""
"","","","","","html-keyboard-response","23","85109","0.0-23.0","CE791658D24940268E2D468FDC7A2F88","019cf712-621d-79e2-ba1f-5afe96fd34b9","019cf6fe-235e-7d95-bb9b-b011d2fe188e","","null","
                <div class=""stimulus-container"">
                    <img src=""images/schematic_sequence/restaurant_scheme/restaurant_scheme_4.png"" class=""exp-image"">
                    <div class=""question-area""></div> 
                </div>","null","","","","","","","","",""
"","","","","","html-button-response","24","85488","0.0-24.0","CE791658D24940268E2D468FDC7A2F88","019cf712-621d-79e2-ba1f-5afe96fd34b9","019cf6fe-235e-7d95-bb9b-b011d2fe188e","","379","
                <div class=""stimulus-container"">
                    <img src=""images/schematic_sequence/restaurant_scheme/restaurant_scheme_4.png"" class=""exp-image"">
                    <div class=""question-area"">
                        <p style=""font-size: 20px; font-weight: bold; margin: 0;"">Is there a person in this image?</p>
                    </div>
                </div>","0","main_experiment_trial","4","restaurant_scheme","schematic_sequence","","","","",""
"","","","","","html-keyboard-response","25","90493","0.0-25.0","CE791658D24940268E2D468FDC7A2F88","019cf712-621d-79e2-ba1f-5afe96fd34b9","019cf6fe-235e-7d95-bb9b-b011d2fe188e","","null","
                <div class=""stimulus-container"">
                    <img src=""images/schematic_sequence/restaurant_scheme/restaurant_scheme_5.png"" class=""exp-image"">
                    <div class=""question-area""></div> 
                </div>","null","","","","","","","","",""
"","","","","","html-button-response","26","90853","0.0-26.0","CE791658D24940268E2D468FDC7A2F88","019cf712-621d-79e2-ba1f-5afe96fd34b9","019cf6fe-235e-7d95-bb9b-b011d2fe188e","","360","
                <div class=""stimulus-container"">
                    <img src=""images/schematic_sequence/restaurant_scheme/restaurant_scheme_5.png"" class=""exp-image"">
                    <div class=""question-area"">
                        <p style=""font-size: 20px; font-weight: bold; margin: 0;"">Is there a person in this image?</p>
                    </div>
                </div>","0","main_experiment_trial","5","restaurant_scheme","schematic_sequence","","","","",""
"","","","","","html-keyboard-response","27","95862","0.0-27.0","CE791658D24940268E2D468FDC7A2F88","019cf712-621d-79e2-ba1f-5afe96fd34b9","019cf6fe-235e-7d95-bb9b-b011d2fe188e","","null","
                <div class=""stimulus-container"">
                    <img src=""images/schematic_sequence/restaurant_scheme/restaurant_scheme_6.png"" class=""exp-image"">
                    <div class=""question-area""></div> 
                </div>","null","","","","","","","","",""
"","","","","","html-button-response","28","96369","0.0-28.0","CE791658D24940268E2D468FDC7A2F88","019cf712-621d-79e2-ba1f-5afe96fd34b9","019cf6fe-235e-7d95-bb9b-b011d2fe188e","","506","
                <div class=""stimulus-container"">
                    <img src=""images/schematic_sequence/restaurant_scheme/restaurant_scheme_6.png"" class=""exp-image"">
                    <div class=""question-area"">
                        <p style=""font-size: 20px; font-weight: bold; margin: 0;"">Is there a person in this image?</p>
                    </div>
                </div>","1","main_experiment_trial","6","restaurant_scheme","schematic_sequence","","","","",""
"","","","","","html-keyboard-response","29","101377","0.0-29.0","CE791658D24940268E2D468FDC7A2F88","019cf712-621d-79e2-ba1f-5afe96fd34b9","019cf6fe-235e-7d95-bb9b-b011d2fe188e","","null","
                <div class=""stimulus-container"">
                    <img src=""images/schematic_sequence/restaurant_scheme/restaurant_scheme_7.png"" class=""exp-image"">
                    <div class=""question-area""></div> 
                </div>","null","","","","","","","","",""
"","","","","","html-button-response","30","101713","0.0-30.0","CE791658D24940268E2D468FDC7A2F88","019cf712-621d-79e2-ba1f-5afe96fd34b9","019cf6fe-235e-7d95-bb9b-b011d2fe188e","","335","
                <div class=""stimulus-container"">
                    <img src=""images/schematic_sequence/restaurant_scheme/restaurant_scheme_7.png"" class=""exp-image"">
                    <div class=""question-area"">
                        <p style=""font-size: 20px; font-weight: bold; margin: 0;"">Is there a person in this image?</p>
                    </div>
                </div>","1","main_experiment_trial","7","restaurant_scheme","schematic_sequence","","","","",""
"","","","","","html-keyboard-response","31","106720","0.0-31.0","CE791658D24940268E2D468FDC7A2F88","019cf712-621d-79e2-ba1f-5afe96fd34b9","019cf6fe-235e-7d95-bb9b-b011d2fe188e","","null","
                <div class=""stimulus-container"">
                    <img src=""images/schematic_sequence/restaurant_scheme/restaurant_scheme_8.png"" class=""exp-image"">
                    <div class=""question-area""></div> 
                </div>","null","","","","","","","","",""
"","","","","","html-button-response","32","107078","0.0-32.0","CE791658D24940268E2D468FDC7A2F88","019cf712-621d-79e2-ba1f-5afe96fd34b9","019cf6fe-235e-7d95-bb9b-b011d2fe188e","","357","
                <div class=""stimulus-container"">
                    <img src=""images/schematic_sequence/restaurant_scheme/restaurant_scheme_8.png"" class=""exp-image"">
                    <div class=""question-area"">
                        <p style=""font-size: 20px; font-weight: bold; margin: 0;"">Is there a person in this image?</p>
                    </div>
                </div>","0","main_experiment_trial","8","restaurant_scheme","schematic_sequence","","","","",""
"","","","","","html-keyboard-response","33","112080","0.0-33.0","CE791658D24940268E2D468FDC7A2F88","019cf712-621d-79e2-ba1f-5afe96fd34b9","019cf6fe-235e-7d95-bb9b-b011d2fe188e","","null","
                <div class=""stimulus-container"">
                    <img src=""images/schematic_sequence/restaurant_scheme/restaurant_scheme_9.png"" class=""exp-image"">
                    <div class=""question-area""></div> 
                </div>","null","","","","","","","","",""
"","","","","","html-button-response","34","112468","0.0-34.0","CE791658D24940268E2D468FDC7A2F88","019cf712-621d-79e2-ba1f-5afe96fd34b9","019cf6fe-235e-7d95-bb9b-b011d2fe188e","","388","
                <div class=""stimulus-container"">
                    <img src=""images/schematic_sequence/restaurant_scheme/restaurant_scheme_9.png"" class=""exp-image"">
                    <div class=""question-area"">
                        <p style=""font-size: 20px; font-weight: bold; margin: 0;"">Is there a person in this image?</p>
                    </div>
                </div>","0","main_experiment_trial","9","restaurant_scheme","schematic_sequence","","","","",""
"","","","","","html-keyboard-response","35","117485","0.0-35.0","CE791658D24940268E2D468FDC7A2F88","019cf712-621d-79e2-ba1f-5afe96fd34b9","019cf6fe-235e-7d95-bb9b-b011d2fe188e","","null","
                <div class=""stimulus-container"">
                    <img src=""images/schematic_sequence/restaurant_scheme/restaurant_scheme_ten.png"" class=""exp-image"">
                    <div class=""question-area""></div> 
                </div>","null","","","","","","","","",""
"","","","","","html-button-response","36","117873","0.0-36.0","CE791658D24940268E2D468FDC7A2F88","019cf712-621d-79e2-ba1f-5afe96fd34b9","019cf6fe-235e-7d95-bb9b-b011d2fe188e","","387","
                <div class=""stimulus-container"">
                    <img src=""images/schematic_sequence/restaurant_scheme/restaurant_scheme_ten.png"" class=""exp-image"">
                    <div class=""question-area"">
                        <p style=""font-size: 20px; font-weight: bold; margin: 0;"">Is there a person in this image?</p>
                    </div>
                </div>","0","main_experiment_trial","ten","restaurant_scheme","schematic_sequence","","","","",""
"","","","","","html-keyboard-response","37","118876","0.0-37.0","CE791658D24940268E2D468FDC7A2F88","019cf712-621d-79e2-ba1f-5afe96fd34b9","019cf6fe-235e-7d95-bb9b-b011d2fe188e","","null","<div style=""background-color: white; width: 100vw; height: 100vh;""></div>","null","","","","","","","","",""
"","","","","","html-keyboard-response","38","123881","0.0-38.0","CE791658D24940268E2D468FDC7A2F88","019cf712-621d-79e2-ba1f-5afe96fd34b9","019cf6fe-235e-7d95-bb9b-b011d2fe188e","","null","
                <div class=""stimulus-container"">
                    <img src=""images/causal_sequence/museum_causal/museum_causal_1.png"" class=""exp-image"">
                    <div class=""question-area""></div> 
                </div>","null","","","","","","","","",""
"","","","","","html-button-response","39","124378","0.0-39.0","CE791658D24940268E2D468FDC7A2F88","019cf712-621d-79e2-ba1f-5afe96fd34b9","019cf6fe-235e-7d95-bb9b-b011d2fe188e","","496","
                <div class=""stimulus-container"">
                    <img src=""images/causal_sequence/museum_causal/museum_causal_1.png"" class=""exp-image"">
                    <div class=""question-area"">
                        <p style=""font-size: 20px; font-weight: bold; margin: 0;"">Is there a person in this image?</p>
                    </div>
                </div>","0","main_experiment_trial","1","museum_causal","causal_sequence","","","","",""
"","","","","","html-keyboard-response","40","129383","0.0-40.0","CE791658D24940268E2D468FDC7A2F88","019cf712-621d-79e2-ba1f-5afe96fd34b9","019cf6fe-235e-7d95-bb9b-b011d2fe188e","","null","
                <div class=""stimulus-container"">
                    <img src=""images/causal_sequence/museum_causal/museum_causal_2.png"" class=""exp-image"">
                    <div class=""question-area""></div> 
                </div>","null","","","","","","","","",""
"","","","","","html-button-response","41","130118","0.0-41.0","CE791658D24940268E2D468FDC7A2F88","019cf712-621d-79e2-ba1f-5afe96fd34b9","019cf6fe-235e-7d95-bb9b-b011d2fe188e","","734","
                <div class=""stimulus-container"">
                    <img src=""images/causal_sequence/museum_causal/museum_causal_2.png"" class=""exp-image"">
                    <div class=""question-area"">
                        <p style=""font-size: 20px; font-weight: bold; margin: 0;"">Is there a person in this image?</p>
                    </div>
                </div>","0","main_experiment_trial","2","museum_causal","causal_sequence","","","","",""
"","","","","","html-keyboard-response","42","135122","0.0-42.0","CE791658D24940268E2D468FDC7A2F88","019cf712-621d-79e2-ba1f-5afe96fd34b9","019cf6fe-235e-7d95-bb9b-b011d2fe188e","","null","
                <div class=""stimulus-container"">
                    <img src=""images/causal_sequence/museum_causal/museum_causal_3.png"" class=""exp-image"">
                    <div class=""question-area""></div> 
                </div>","null","","","","","","","","",""
"","","","","","html-button-response","43","135672","0.0-43.0","CE791658D24940268E2D468FDC7A2F88","019cf712-621d-79e2-ba1f-5afe96fd34b9","019cf6fe-235e-7d95-bb9b-b011d2fe188e","","550","
                <div class=""stimulus-container"">
                    <img src=""images/causal_sequence/museum_causal/museum_causal_3.png"" class=""exp-image"">
                    <div class=""question-area"">
                        <p style=""font-size: 20px; font-weight: bold; margin: 0;"">Is there a person in this image?</p>
                    </div>
                </div>","0","main_experiment_trial","3","museum_causal","causal_sequence","","","","",""
"","","","","","html-keyboard-response","44","140675","0.0-44.0","CE791658D24940268E2D468FDC7A2F88","019cf712-621d-79e2-ba1f-5afe96fd34b9","019cf6fe-235e-7d95-bb9b-b011d2fe188e","","null","
                <div class=""stimulus-container"">
                    <img src=""images/causal_sequence/museum_causal/museum_causal_4.png"" class=""exp-image"">
                    <div class=""question-area""></div> 
                </div>","null","","","","","","","","",""
"","","","","","html-button-response","45","143690","0.0-45.0","CE791658D24940268E2D468FDC7A2F88","019cf712-621d-79e2-ba1f-5afe96fd34b9","019cf6fe-235e-7d95-bb9b-b011d2fe188e","","null","
                <div class=""stimulus-container"">
                    <img src=""images/causal_sequence/museum_causal/museum_causal_4.png"" class=""exp-image"">
                    <div class=""question-area"">
                        <p style=""font-size: 20px; font-weight: bold; margin: 0;"">Is there a person in this image?</p>
                    </div>
                </div>","null","main_experiment_trial","4","museum_causal","causal_sequence","","","","",""
"","","","","","html-keyboard-response","46","148699","0.0-46.0","CE791658D24940268E2D468FDC7A2F88","019cf712-621d-79e2-ba1f-5afe96fd34b9","019cf6fe-235e-7d95-bb9b-b011d2fe188e","","null","
                <div class=""stimulus-container"">
                    <img src=""images/causal_sequence/museum_causal/museum_causal_5.png"" class=""exp-image"">
                    <div class=""question-area""></div> 
                </div>","null","","","","","","","","",""
"","","","","","html-button-response","47","149527","0.0-47.0","CE791658D24940268E2D468FDC7A2F88","019cf712-621d-79e2-ba1f-5afe96fd34b9","019cf6fe-235e-7d95-bb9b-b011d2fe188e","","828","
                <div class=""stimulus-container"">
                    <img src=""images/causal_sequence/museum_causal/museum_causal_5.png"" class=""exp-image"">
                    <div class=""question-area"">
                        <p style=""font-size: 20px; font-weight: bold; margin: 0;"">Is there a person in this image?</p>
                    </div>
                </div>","0","main_experiment_trial","5","museum_causal","causal_sequence","","","","",""
"","","","","","html-keyboard-response","48","154538","0.0-48.0","CE791658D24940268E2D468FDC7A2F88","019cf712-621d-79e2-ba1f-5afe96fd34b9","019cf6fe-235e-7d95-bb9b-b011d2fe188e","","null","
                <div class=""stimulus-container"">
                    <img src=""images/causal_sequence/museum_causal/museum_causal_6.png"" class=""exp-image"">
                    <div class=""question-area""></div> 
                </div>","null","","","","","","","","",""
"","","","","","html-button-response","49","155078","0.0-49.0","CE791658D24940268E2D468FDC7A2F88","019cf712-621d-79e2-ba1f-5afe96fd34b9","019cf6fe-235e-7d95-bb9b-b011d2fe188e","","540","
                <div class=""stimulus-container"">
                    <img src=""images/causal_sequence/museum_causal/museum_causal_6.png"" class=""exp-image"">
                    <div class=""question-area"">
                        <p style=""font-size: 20px; font-weight: bold; margin: 0;"">Is there a person in this image?</p>
                    </div>
                </div>","0","main_experiment_trial","6","museum_causal","causal_sequence","","","","",""
"","","","","","html-keyboard-response","50","160093","0.0-50.0","CE791658D24940268E2D468FDC7A2F88","019cf712-621d-79e2-ba1f-5afe96fd34b9","019cf6fe-235e-7d95-bb9b-b011d2fe188e","","null","
                <div class=""stimulus-container"">
                    <img src=""images/causal_sequence/museum_causal/museum_causal_7.png"" class=""exp-image"">
                    <div class=""question-area""></div> 
                </div>","null","","","","","","","","",""
"","","","","","html-button-response","51","160673","0.0-51.0","CE791658D24940268E2D468FDC7A2F88","019cf712-621d-79e2-ba1f-5afe96fd34b9","019cf6fe-235e-7d95-bb9b-b011d2fe188e","","579","
                <div class=""stimulus-container"">
                    <img src=""images/causal_sequence/museum_causal/museum_causal_7.png"" class=""exp-image"">
                    <div class=""question-area"">
                        <p style=""font-size: 20px; font-weight: bold; margin: 0;"">Is there a person in this image?</p>
                    </div>
                </div>","1","main_experiment_trial","7","museum_causal","causal_sequence","","","","",""
"","","","","","html-keyboard-response","52","165681","0.0-52.0","CE791658D24940268E2D468FDC7A2F88","019cf712-621d-79e2-ba1f-5afe96fd34b9","019cf6fe-235e-7d95-bb9b-b011d2fe188e","","null","
                <div class=""stimulus-container"">
                    <img src=""images/causal_sequence/museum_causal/museum_causal_8.png"" class=""exp-image"">
                    <div class=""question-area""></div> 
                </div>","null","","","","","","","","",""
"","","","","","html-button-response","53","166438","0.0-53.0","CE791658D24940268E2D468FDC7A2F88","019cf712-621d-79e2-ba1f-5afe96fd34b9","019cf6fe-235e-7d95-bb9b-b011d2fe188e","","756","
                <div class=""stimulus-container"">
                    <img src=""images/causal_sequence/museum_causal/museum_causal_8.png"" class=""exp-image"">
                    <div class=""question-area"">
                        <p style=""font-size: 20px; font-weight: bold; margin: 0;"">Is there a person in this image?</p>
                    </div>
                </div>","0","main_experiment_trial","8","museum_causal","causal_sequence","","","","",""
"","","","","","html-keyboard-response","54","171443","0.0-54.0","CE791658D24940268E2D468FDC7A2F88","019cf712-621d-79e2-ba1f-5afe96fd34b9","019cf6fe-235e-7d95-bb9b-b011d2fe188e","","null","
                <div class=""stimulus-container"">
                    <img src=""images/causal_sequence/museum_causal/museum_causal_9.png"" class=""exp-image"">
                    <div class=""question-area""></div> 
                </div>","null","","","","","","","","",""
"","","","","","html-button-response","55","171838","0.0-55.0","CE791658D24940268E2D468FDC7A2F88","019cf712-621d-79e2-ba1f-5afe96fd34b9","019cf6fe-235e-7d95-bb9b-b011d2fe188e","","395","
                <div class=""stimulus-container"">
                    <img src=""images/causal_sequence/museum_causal/museum_causal_9.png"" class=""exp-image"">
                    <div class=""question-area"">
                        <p style=""font-size: 20px; font-weight: bold; margin: 0;"">Is there a person in this image?</p>
                    </div>
                </div>","1","main_experiment_trial","9","museum_causal","causal_sequence","","","","",""
"","","","","","html-keyboard-response","56","176842","0.0-56.0","CE791658D24940268E2D468FDC7A2F88","019cf712-621d-79e2-ba1f-5afe96fd34b9","019cf6fe-235e-7d95-bb9b-b011d2fe188e","","null","
                <div class=""stimulus-container"">
                    <img src=""images/causal_sequence/museum_causal/museum_causal_ten.png"" class=""exp-image"">
                    <div class=""question-area""></div> 
                </div>","null","","","","","","","","",""
"","","","","","html-button-response","57","177343","0.0-57.0","CE791658D24940268E2D468FDC7A2F88","019cf712-621d-79e2-ba1f-5afe96fd34b9","019cf6fe-235e-7d95-bb9b-b011d2fe188e","","500","
                <div class=""stimulus-container"">
                    <img src=""images/causal_sequence/museum_causal/museum_causal_ten.png"" class=""exp-image"">
                    <div class=""question-area"">
                        <p style=""font-size: 20px; font-weight: bold; margin: 0;"">Is there a person in this image?</p>
                    </div>
                </div>","0","main_experiment_trial","ten","museum_causal","causal_sequence","","","","",""
"","","","","","html-keyboard-response","58","178348","0.0-58.0","CE791658D24940268E2D468FDC7A2F88","019cf712-621d-79e2-ba1f-5afe96fd34b9","019cf6fe-235e-7d95-bb9b-b011d2fe188e","","null","<div style=""background-color: white; width: 100vw; height: 100vh;""></div>","null","","","","","","","","",""
"","","","","","html-keyboard-response","59","183361","0.0-59.0","CE791658D24940268E2D468FDC7A2F88","019cf712-621d-79e2-ba1f-5afe96fd34b9","019cf6fe-235e-7d95-bb9b-b011d2fe188e","","null","
                <div class=""stimulus-container"">
                    <img src=""images/schematic_sequence/supermarket_scheme/supermarket_scheme_1.png"" class=""exp-image"">
                    <div class=""question-area""></div> 
                </div>","null","","","","","","","","",""
"","","","","","html-button-response","60","183922","0.0-60.0","CE791658D24940268E2D468FDC7A2F88","019cf712-621d-79e2-ba1f-5afe96fd34b9","019cf6fe-235e-7d95-bb9b-b011d2fe188e","","560","
                <div class=""stimulus-container"">
                    <img src=""images/schematic_sequence/supermarket_scheme/supermarket_scheme_1.png"" class=""exp-image"">
                    <div class=""question-area"">
                        <p style=""font-size: 20px; font-weight: bold; margin: 0;"">Is there a person in this image?</p>
                    </div>
                </div>","1","main_experiment_trial","1","supermarket_scheme","schematic_sequence","","","","",""
"","","","","","html-keyboard-response","61","188927","0.0-61.0","CE791658D24940268E2D468FDC7A2F88","019cf712-621d-79e2-ba1f-5afe96fd34b9","019cf6fe-235e-7d95-bb9b-b011d2fe188e","","null","
                <div class=""stimulus-container"">
                    <img src=""images/schematic_sequence/supermarket_scheme/supermarket_scheme_2.png"" class=""exp-image"">
                    <div class=""question-area""></div> 
                </div>","null","","","","","","","","",""
"","","","","","html-button-response","62","189362","0.0-62.0","CE791658D24940268E2D468FDC7A2F88","019cf712-621d-79e2-ba1f-5afe96fd34b9","019cf6fe-235e-7d95-bb9b-b011d2fe188e","","434","
                <div class=""stimulus-container"">
                    <img src=""images/schematic_sequence/supermarket_scheme/supermarket_scheme_2.png"" class=""exp-image"">
                    <div class=""question-area"">
                        <p style=""font-size: 20px; font-weight: bold; margin: 0;"">Is there a person in this image?</p>
                    </div>
                </div>","1","main_experiment_trial","2","supermarket_scheme","schematic_sequence","","","","",""
"","","","","","html-keyboard-response","63","194377","0.0-63.0","CE791658D24940268E2D468FDC7A2F88","019cf712-621d-79e2-ba1f-5afe96fd34b9","019cf6fe-235e-7d95-bb9b-b011d2fe188e","","null","
                <div class=""stimulus-container"">
                    <img src=""images/schematic_sequence/supermarket_scheme/supermarket_scheme_3.png"" class=""exp-image"">
                    <div class=""question-area""></div> 
                </div>","null","","","","","","","","",""
"","","","","","html-button-response","64","194777","0.0-64.0","CE791658D24940268E2D468FDC7A2F88","019cf712-621d-79e2-ba1f-5afe96fd34b9","019cf6fe-235e-7d95-bb9b-b011d2fe188e","","399","
                <div class=""stimulus-container"">
                    <img src=""images/schematic_sequence/supermarket_scheme/supermarket_scheme_3.png"" class=""exp-image"">
                    <div class=""question-area"">
                        <p style=""font-size: 20px; font-weight: bold; margin: 0;"">Is there a person in this image?</p>
                    </div>
                </div>","1","main_experiment_trial","3","supermarket_scheme","schematic_sequence","","","","",""
"","","","","","html-keyboard-response","65","199790","0.0-65.0","CE791658D24940268E2D468FDC7A2F88","019cf712-621d-79e2-ba1f-5afe96fd34b9","019cf6fe-235e-7d95-bb9b-b011d2fe188e","","null","
                <div class=""stimulus-container"">
                    <img src=""images/schematic_sequence/supermarket_scheme/supermarket_scheme_4.png"" class=""exp-image"">
                    <div class=""question-area""></div> 
                </div>","null","","","","","","","","",""
"","","","","","html-button-response","66","200392","0.0-66.0","CE791658D24940268E2D468FDC7A2F88","019cf712-621d-79e2-ba1f-5afe96fd34b9","019cf6fe-235e-7d95-bb9b-b011d2fe188e","","601","
                <div class=""stimulus-container"">
                    <img src=""images/schematic_sequence/supermarket_scheme/supermarket_scheme_4.png"" class=""exp-image"">
                    <div class=""question-area"">
                        <p style=""font-size: 20px; font-weight: bold; margin: 0;"">Is there a person in this image?</p>
                    </div>
                </div>","0","main_experiment_trial","4","supermarket_scheme","schematic_sequence","","","","",""
"","","","","","html-keyboard-response","67","205405","0.0-67.0","CE791658D24940268E2D468FDC7A2F88","019cf712-621d-79e2-ba1f-5afe96fd34b9","019cf6fe-235e-7d95-bb9b-b011d2fe188e","","null","
                <div class=""stimulus-container"">
                    <img src=""images/schematic_sequence/supermarket_scheme/supermarket_scheme_5.png"" class=""exp-image"">
                    <div class=""question-area""></div> 
                </div>","null","","","","","","","","",""
"","","","","","html-button-response","68","205762","0.0-68.0","CE791658D24940268E2D468FDC7A2F88","019cf712-621d-79e2-ba1f-5afe96fd34b9","019cf6fe-235e-7d95-bb9b-b011d2fe188e","","357","
                <div class=""stimulus-container"">
                    <img src=""images/schematic_sequence/supermarket_scheme/supermarket_scheme_5.png"" class=""exp-image"">
                    <div class=""question-area"">
                        <p style=""font-size: 20px; font-weight: bold; margin: 0;"">Is there a person in this image?</p>
                    </div>
                </div>","1","main_experiment_trial","5","supermarket_scheme","schematic_sequence","","","","",""
"","","","","","html-keyboard-response","69","210765","0.0-69.0","CE791658D24940268E2D468FDC7A2F88","019cf712-621d-79e2-ba1f-5afe96fd34b9","019cf6fe-235e-7d95-bb9b-b011d2fe188e","","null","
                <div class=""stimulus-container"">
                    <img src=""images/schematic_sequence/supermarket_scheme/supermarket_scheme_6.png"" class=""exp-image"">
                    <div class=""question-area""></div> 
                </div>","null","","","","","","","","",""
"","","","","","html-button-response","70","211122","0.0-70.0","CE791658D24940268E2D468FDC7A2F88","019cf712-621d-79e2-ba1f-5afe96fd34b9","019cf6fe-235e-7d95-bb9b-b011d2fe188e","","357","
                <div class=""stimulus-container"">
                    <img src=""images/schematic_sequence/supermarket_scheme/supermarket_scheme_6.png"" class=""exp-image"">
                    <div class=""question-area"">
                        <p style=""font-size: 20px; font-weight: bold; margin: 0;"">Is there a person in this image?</p>
                    </div>
                </div>","0","main_experiment_trial","6","supermarket_scheme","schematic_sequence","","","","",""
"","","","","","html-keyboard-response","71","216127","0.0-71.0","CE791658D24940268E2D468FDC7A2F88","019cf712-621d-79e2-ba1f-5afe96fd34b9","019cf6fe-235e-7d95-bb9b-b011d2fe188e","","null","
                <div class=""stimulus-container"">
                    <img src=""images/schematic_sequence/supermarket_scheme/supermarket_scheme_7.png"" class=""exp-image"">
                    <div class=""question-area""></div> 
                </div>","null","","","","","","","","",""
"","","","","","html-button-response","72","217342","0.0-72.0","CE791658D24940268E2D468FDC7A2F88","019cf712-621d-79e2-ba1f-5afe96fd34b9","019cf6fe-235e-7d95-bb9b-b011d2fe188e","","1215","
                <div class=""stimulus-container"">
                    <img src=""images/schematic_sequence/supermarket_scheme/supermarket_scheme_7.png"" class=""exp-image"">
                    <div class=""question-area"">
                        <p style=""font-size: 20px; font-weight: bold; margin: 0;"">Is there a person in this image?</p>
                    </div>
                </div>","0","main_experiment_trial","7","supermarket_scheme","schematic_sequence","","","","",""
"","","","","","html-keyboard-response","73","222355","0.0-73.0","CE791658D24940268E2D468FDC7A2F88","019cf712-621d-79e2-ba1f-5afe96fd34b9","019cf6fe-235e-7d95-bb9b-b011d2fe188e","","null","
                <div class=""stimulus-container"">
                    <img src=""images/schematic_sequence/supermarket_scheme/supermarket_scheme_8.png"" class=""exp-image"">
                    <div class=""question-area""></div> 
                </div>","null","","","","","","","","",""
"","","","","","html-button-response","74","222722","0.0-74.0","CE791658D24940268E2D468FDC7A2F88","019cf712-621d-79e2-ba1f-5afe96fd34b9","019cf6fe-235e-7d95-bb9b-b011d2fe188e","","367","
                <div class=""stimulus-container"">
                    <img src=""images/schematic_sequence/supermarket_scheme/supermarket_scheme_8.png"" class=""exp-image"">
                    <div class=""question-area"">
                        <p style=""font-size: 20px; font-weight: bold; margin: 0;"">Is there a person in this image?</p>
                    </div>
                </div>","0","main_experiment_trial","8","supermarket_scheme","schematic_sequence","","","","",""
"","","","","","html-keyboard-response","75","227730","0.0-75.0","CE791658D24940268E2D468FDC7A2F88","019cf712-621d-79e2-ba1f-5afe96fd34b9","019cf6fe-235e-7d95-bb9b-b011d2fe188e","","null","
                <div class=""stimulus-container"">
                    <img src=""images/schematic_sequence/supermarket_scheme/supermarket_scheme_9.png"" class=""exp-image"">
                    <div class=""question-area""></div> 
                </div>","null","","","","","","","","",""
"","","","","","html-button-response","76","228167","0.0-76.0","CE791658D24940268E2D468FDC7A2F88","019cf712-621d-79e2-ba1f-5afe96fd34b9","019cf6fe-235e-7d95-bb9b-b011d2fe188e","","437","
                <div class=""stimulus-container"">
                    <img src=""images/schematic_sequence/supermarket_scheme/supermarket_scheme_9.png"" class=""exp-image"">
                    <div class=""question-area"">
                        <p style=""font-size: 20px; font-weight: bold; margin: 0;"">Is there a person in this image?</p>
                    </div>
                </div>","0","main_experiment_trial","9","supermarket_scheme","schematic_sequence","","","","",""
"","","","","","html-keyboard-response","77","233170","0.0-77.0","CE791658D24940268E2D468FDC7A2F88","019cf712-621d-79e2-ba1f-5afe96fd34b9","019cf6fe-235e-7d95-bb9b-b011d2fe188e","","null","
                <div class=""stimulus-container"">
                    <img src=""images/schematic_sequence/supermarket_scheme/supermarket_scheme_ten.png"" class=""exp-image"">
                    <div class=""question-area""></div> 
                </div>","null","","","","","","","","",""
"","","","","","html-button-response","78","233652","0.0-78.0","CE791658D24940268E2D468FDC7A2F88","019cf712-621d-79e2-ba1f-5afe96fd34b9","019cf6fe-235e-7d95-bb9b-b011d2fe188e","","481","
                <div class=""stimulus-container"">
                    <img src=""images/schematic_sequence/supermarket_scheme/supermarket_scheme_ten.png"" class=""exp-image"">
                    <div class=""question-area"">
                        <p style=""font-size: 20px; font-weight: bold; margin: 0;"">Is there a person in this image?</p>
                    </div>
                </div>","1","main_experiment_trial","ten","supermarket_scheme","schematic_sequence","","","","",""
"","","","","","html-keyboard-response","79","234663","0.0-79.0","CE791658D24940268E2D468FDC7A2F88","019cf712-621d-79e2-ba1f-5afe96fd34b9","019cf6fe-235e-7d95-bb9b-b011d2fe188e","","null","<div style=""background-color: white; width: 100vw; height: 100vh;""></div>","null","","","","","","","","",""
"","","","","","html-keyboard-response","80","239682","0.0-80.0","CE791658D24940268E2D468FDC7A2F88","019cf712-621d-79e2-ba1f-5afe96fd34b9","019cf6fe-235e-7d95-bb9b-b011d2fe188e","","null","
                <div class=""stimulus-container"">
                    <img src=""images/causal_sequence/package_causal/package_causal_1.png"" class=""exp-image"">
                    <div class=""question-area""></div> 
                </div>","null","","","","","","","","",""
"","","","","","html-button-response","81","240642","0.0-81.0","CE791658D24940268E2D468FDC7A2F88","019cf712-621d-79e2-ba1f-5afe96fd34b9","019cf6fe-235e-7d95-bb9b-b011d2fe188e","","959","
                <div class=""stimulus-container"">
                    <img src=""images/causal_sequence/package_causal/package_causal_1.png"" class=""exp-image"">
                    <div class=""question-area"">
                        <p style=""font-size: 20px; font-weight: bold; margin: 0;"">Is there a person in this image?</p>
                    </div>
                </div>","0","main_experiment_trial","1","package_causal","causal_sequence","","","","",""
"","","","","","html-keyboard-response","82","245653","0.0-82.0","CE791658D24940268E2D468FDC7A2F88","019cf712-621d-79e2-ba1f-5afe96fd34b9","019cf6fe-235e-7d95-bb9b-b011d2fe188e","","null","
                <div class=""stimulus-container"">
                    <img src=""images/causal_sequence/package_causal/package_causal_2.png"" class=""exp-image"">
                    <div class=""question-area""></div> 
                </div>","null","","","","","","","","",""
"","","","","","html-button-response","83","246001","0.0-83.0","CE791658D24940268E2D468FDC7A2F88","019cf712-621d-79e2-ba1f-5afe96fd34b9","019cf6fe-235e-7d95-bb9b-b011d2fe188e","","348","
                <div class=""stimulus-container"">
                    <img src=""images/causal_sequence/package_causal/package_causal_2.png"" class=""exp-image"">
                    <div class=""question-area"">
                        <p style=""font-size: 20px; font-weight: bold; margin: 0;"">Is there a person in this image?</p>
                    </div>
                </div>","0","main_experiment_trial","2","package_causal","causal_sequence","","","","",""
"","","","","","html-keyboard-response","84","251009","0.0-84.0","CE791658D24940268E2D468FDC7A2F88","019cf712-621d-79e2-ba1f-5afe96fd34b9","019cf6fe-235e-7d95-bb9b-b011d2fe188e","","null","
                <div class=""stimulus-container"">
                    <img src=""images/causal_sequence/package_causal/package_causal_3.png"" class=""exp-image"">
                    <div class=""question-area""></div> 
                </div>","null","","","","","","","","",""
"","","","","","html-button-response","85","251526","0.0-85.0","CE791658D24940268E2D468FDC7A2F88","019cf712-621d-79e2-ba1f-5afe96fd34b9","019cf6fe-235e-7d95-bb9b-b011d2fe188e","","516","
                <div class=""stimulus-container"">
                    <img src=""images/causal_sequence/package_causal/package_causal_3.png"" class=""exp-image"">
                    <div class=""question-area"">
                        <p style=""font-size: 20px; font-weight: bold; margin: 0;"">Is there a person in this image?</p>
                    </div>
                </div>","0","main_experiment_trial","3","package_causal","causal_sequence","","","","",""
"","","","","","html-keyboard-response","86","256537","0.0-86.0","CE791658D24940268E2D468FDC7A2F88","019cf712-621d-79e2-ba1f-5afe96fd34b9","019cf6fe-235e-7d95-bb9b-b011d2fe188e","","null","
                <div class=""stimulus-container"">
                    <img src=""images/causal_sequence/package_causal/package_causal_4.png"" class=""exp-image"">
                    <div class=""question-area""></div> 
                </div>","null","","","","","","","","",""
"","","","","","html-button-response","87","257121","0.0-87.0","CE791658D24940268E2D468FDC7A2F88","019cf712-621d-79e2-ba1f-5afe96fd34b9","019cf6fe-235e-7d95-bb9b-b011d2fe188e","","583","
                <div class=""stimulus-container"">
                    <img src=""images/causal_sequence/package_causal/package_causal_4.png"" class=""exp-image"">
                    <div class=""question-area"">
                        <p style=""font-size: 20px; font-weight: bold; margin: 0;"">Is there a person in this image?</p>
                    </div>
                </div>","1","main_experiment_trial","4","package_causal","causal_sequence","","","","",""
"","","","","","html-keyboard-response","88","262133","0.0-88.0","CE791658D24940268E2D468FDC7A2F88","019cf712-621d-79e2-ba1f-5afe96fd34b9","019cf6fe-235e-7d95-bb9b-b011d2fe188e","","null","
                <div class=""stimulus-container"">
                    <img src=""images/causal_sequence/package_causal/package_causal_5.png"" class=""exp-image"">
                    <div class=""question-area""></div> 
                </div>","null","","","","","","","","",""
"","","","","","html-button-response","89","262922","0.0-89.0","CE791658D24940268E2D468FDC7A2F88","019cf712-621d-79e2-ba1f-5afe96fd34b9","019cf6fe-235e-7d95-bb9b-b011d2fe188e","","788","
                <div class=""stimulus-container"">
                    <img src=""images/causal_sequence/package_causal/package_causal_5.png"" class=""exp-image"">
                    <div class=""question-area"">
                        <p style=""font-size: 20px; font-weight: bold; margin: 0;"">Is there a person in this image?</p>
                    </div>
                </div>","0","main_experiment_trial","5","package_causal","causal_sequence","","","","",""
"","","","","","html-keyboard-response","90","267934","0.0-90.0","CE791658D24940268E2D468FDC7A2F88","019cf712-621d-79e2-ba1f-5afe96fd34b9","019cf6fe-235e-7d95-bb9b-b011d2fe188e","","null","
                <div class=""stimulus-container"">
                    <img src=""images/causal_sequence/package_causal/package_causal_6.png"" class=""exp-image"">
                    <div class=""question-area""></div> 
                </div>","null","","","","","","","","",""
"","","","","","html-button-response","91","268861","0.0-91.0","CE791658D24940268E2D468FDC7A2F88","019cf712-621d-79e2-ba1f-5afe96fd34b9","019cf6fe-235e-7d95-bb9b-b011d2fe188e","","926","
                <div class=""stimulus-container"">
                    <img src=""images/causal_sequence/package_causal/package_causal_6.png"" class=""exp-image"">
                    <div class=""question-area"">
                        <p style=""font-size: 20px; font-weight: bold; margin: 0;"">Is there a person in this image?</p>
                    </div>
                </div>","0","main_experiment_trial","6","package_causal","causal_sequence","","","","",""
"","","","","","html-keyboard-response","92","273874","0.0-92.0","CE791658D24940268E2D468FDC7A2F88","019cf712-621d-79e2-ba1f-5afe96fd34b9","019cf6fe-235e-7d95-bb9b-b011d2fe188e","","null","
                <div class=""stimulus-container"">
                    <img src=""images/causal_sequence/package_causal/package_causal_7.png"" class=""exp-image"">
                    <div class=""question-area""></div> 
                </div>","null","","","","","","","","",""
"","","","","","html-button-response","93","274552","0.0-93.0","CE791658D24940268E2D468FDC7A2F88","019cf712-621d-79e2-ba1f-5afe96fd34b9","019cf6fe-235e-7d95-bb9b-b011d2fe188e","","677","
                <div class=""stimulus-container"">
                    <img src=""images/causal_sequence/package_causal/package_causal_7.png"" class=""exp-image"">
                    <div class=""question-area"">
                        <p style=""font-size: 20px; font-weight: bold; margin: 0;"">Is there a person in this image?</p>
                    </div>
                </div>","0","main_experiment_trial","7","package_causal","causal_sequence","","","","",""
"","","","","","html-keyboard-response","94","279567","0.0-94.0","CE791658D24940268E2D468FDC7A2F88","019cf712-621d-79e2-ba1f-5afe96fd34b9","019cf6fe-235e-7d95-bb9b-b011d2fe188e","","null","
                <div class=""stimulus-container"">
                    <img src=""images/causal_sequence/package_causal/package_causal_8.png"" class=""exp-image"">
                    <div class=""question-area""></div> 
                </div>","null","","","","","","","","",""
"","","","","","html-button-response","95","280292","0.0-95.0","CE791658D24940268E2D468FDC7A2F88","019cf712-621d-79e2-ba1f-5afe96fd34b9","019cf6fe-235e-7d95-bb9b-b011d2fe188e","","724","
                <div class=""stimulus-container"">
                    <img src=""images/causal_sequence/package_causal/package_causal_8.png"" class=""exp-image"">
                    <div class=""question-area"">
                        <p style=""font-size: 20px; font-weight: bold; margin: 0;"">Is there a person in this image?</p>
                    </div>
                </div>","0","main_experiment_trial","8","package_causal","causal_sequence","","","","",""
"","","","","","html-keyboard-response","96","285301","0.0-96.0","CE791658D24940268E2D468FDC7A2F88","019cf712-621d-79e2-ba1f-5afe96fd34b9","019cf6fe-235e-7d95-bb9b-b011d2fe188e","","null","
                <div class=""stimulus-container"">
                    <img src=""images/causal_sequence/package_causal/package_causal_9.png"" class=""exp-image"">
                    <div class=""question-area""></div> 
                </div>","null","","","","","","","","",""
"","","","","","html-button-response","97","285862","0.0-97.0","CE791658D24940268E2D468FDC7A2F88","019cf712-621d-79e2-ba1f-5afe96fd34b9","019cf6fe-235e-7d95-bb9b-b011d2fe188e","","560","
                <div class=""stimulus-container"">
                    <img src=""images/causal_sequence/package_causal/package_causal_9.png"" class=""exp-image"">
                    <div class=""question-area"">
                        <p style=""font-size: 20px; font-weight: bold; margin: 0;"">Is there a person in this image?</p>
                    </div>
                </div>","0","main_experiment_trial","9","package_causal","causal_sequence","","","","",""
"","","","","","html-keyboard-response","98","290873","0.0-98.0","CE791658D24940268E2D468FDC7A2F88","019cf712-621d-79e2-ba1f-5afe96fd34b9","019cf6fe-235e-7d95-bb9b-b011d2fe188e","","null","
                <div class=""stimulus-container"">
                    <img src=""images/causal_sequence/package_causal/package_causal_ten.png"" class=""exp-image"">
                    <div class=""question-area""></div> 
                </div>","null","","","","","","","","",""
"","","","","","html-button-response","99","291272","0.0-99.0","CE791658D24940268E2D468FDC7A2F88","019cf712-621d-79e2-ba1f-5afe96fd34b9","019cf6fe-235e-7d95-bb9b-b011d2fe188e","","398","
                <div class=""stimulus-container"">
                    <img src=""images/causal_sequence/package_causal/package_causal_ten.png"" class=""exp-image"">
                    <div class=""question-area"">
                        <p style=""font-size: 20px; font-weight: bold; margin: 0;"">Is there a person in this image?</p>
                    </div>
                </div>","0","main_experiment_trial","ten","package_causal","causal_sequence","","","","",""
"","","","","","html-keyboard-response","100","292274","0.0-100.0","CE791658D24940268E2D468FDC7A2F88","019cf712-621d-79e2-ba1f-5afe96fd34b9","019cf6fe-235e-7d95-bb9b-b011d2fe188e","","null","<div style=""background-color: white; width: 100vw; height: 100vh;""></div>","null","","","","","","","","",""
"","","","","","html-keyboard-response","101","297291","0.0-101.0","CE791658D24940268E2D468FDC7A2F88","019cf712-621d-79e2-ba1f-5afe96fd34b9","019cf6fe-235e-7d95-bb9b-b011d2fe188e","","null","
                <div class=""stimulus-container"">
                    <img src=""images/causal_sequence/dog_causal/dog_causal_1.png"" class=""exp-image"">
                    <div class=""question-area""></div> 
                </div>","null","","","","","","","","",""
"","","","","","html-button-response","102","298012","0.0-102.0","CE791658D24940268E2D468FDC7A2F88","019cf712-621d-79e2-ba1f-5afe96fd34b9","019cf6fe-235e-7d95-bb9b-b011d2fe188e","","720","
                <div class=""stimulus-container"">
                    <img src=""images/causal_sequence/dog_causal/dog_causal_1.png"" class=""exp-image"">
                    <div class=""question-area"">
                        <p style=""font-size: 20px; font-weight: bold; margin: 0;"">Is there a person in this image?</p>
                    </div>
                </div>","0","main_experiment_trial","1","dog_causal","causal_sequence","","","","",""
"","","","","","html-keyboard-response","103","303018","0.0-103.0","CE791658D24940268E2D468FDC7A2F88","019cf712-621d-79e2-ba1f-5afe96fd34b9","019cf6fe-235e-7d95-bb9b-b011d2fe188e","","null","
                <div class=""stimulus-container"">
                    <img src=""images/causal_sequence/dog_causal/dog_causal_2.png"" class=""exp-image"">
                    <div class=""question-area""></div> 
                </div>","null","","","","","","","","",""
"","","","","","html-button-response","104","303581","0.0-104.0","CE791658D24940268E2D468FDC7A2F88","019cf712-621d-79e2-ba1f-5afe96fd34b9","019cf6fe-235e-7d95-bb9b-b011d2fe188e","","563","
                <div class=""stimulus-container"">
                    <img src=""images/causal_sequence/dog_causal/dog_causal_2.png"" class=""exp-image"">
                    <div class=""question-area"">
                        <p style=""font-size: 20px; font-weight: bold; margin: 0;"">Is there a person in this image?</p>
                    </div>
                </div>","0","main_experiment_trial","2","dog_causal","causal_sequence","","","","",""
"","","","","","html-keyboard-response","105","308594","0.0-105.0","CE791658D24940268E2D468FDC7A2F88","019cf712-621d-79e2-ba1f-5afe96fd34b9","019cf6fe-235e-7d95-bb9b-b011d2fe188e","","null","
                <div class=""stimulus-container"">
                    <img src=""images/causal_sequence/dog_causal/dog_causal_3.png"" class=""exp-image"">
                    <div class=""question-area""></div> 
                </div>","null","","","","","","","","",""
"","","","","","html-button-response","106","308937","0.0-106.0","CE791658D24940268E2D468FDC7A2F88","019cf712-621d-79e2-ba1f-5afe96fd34b9","019cf6fe-235e-7d95-bb9b-b011d2fe188e","","342","
                <div class=""stimulus-container"">
                    <img src=""images/causal_sequence/dog_causal/dog_causal_3.png"" class=""exp-image"">
                    <div class=""question-area"">
                        <p style=""font-size: 20px; font-weight: bold; margin: 0;"">Is there a person in this image?</p>
                    </div>
                </div>","0","main_experiment_trial","3","dog_causal","causal_sequence","","","","",""
"","","","","","html-keyboard-response","107","313944","0.0-107.0","CE791658D24940268E2D468FDC7A2F88","019cf712-621d-79e2-ba1f-5afe96fd34b9","019cf6fe-235e-7d95-bb9b-b011d2fe188e","","null","
                <div class=""stimulus-container"">
                    <img src=""images/causal_sequence/dog_causal/dog_causal_4.png"" class=""exp-image"">
                    <div class=""question-area""></div> 
                </div>","null","","","","","","","","",""
"","","","","","html-button-response","108","314291","0.0-108.0","CE791658D24940268E2D468FDC7A2F88","019cf712-621d-79e2-ba1f-5afe96fd34b9","019cf6fe-235e-7d95-bb9b-b011d2fe188e","","347","
                <div class=""stimulus-container"">
                    <img src=""images/causal_sequence/dog_causal/dog_causal_4.png"" class=""exp-image"">
                    <div class=""question-area"">
                        <p style=""font-size: 20px; font-weight: bold; margin: 0;"">Is there a person in this image?</p>
                    </div>
                </div>","0","main_experiment_trial","4","dog_causal","causal_sequence","","","","",""
"","","","","","html-keyboard-response","109","319302","0.0-109.0","CE791658D24940268E2D468FDC7A2F88","019cf712-621d-79e2-ba1f-5afe96fd34b9","019cf6fe-235e-7d95-bb9b-b011d2fe188e","","null","
                <div class=""stimulus-container"">
                    <img src=""images/causal_sequence/dog_causal/dog_causal_5.png"" class=""exp-image"">
                    <div class=""question-area""></div> 
                </div>","null","","","","","","","","",""
"","","","","","html-button-response","110","319606","0.0-110.0","CE791658D24940268E2D468FDC7A2F88","019cf712-621d-79e2-ba1f-5afe96fd34b9","019cf6fe-235e-7d95-bb9b-b011d2fe188e","","303","
                <div class=""stimulus-container"">
                    <img src=""images/causal_sequence/dog_causal/dog_causal_5.png"" class=""exp-image"">
                    <div class=""question-area"">
                        <p style=""font-size: 20px; font-weight: bold; margin: 0;"">Is there a person in this image?</p>
                    </div>
                </div>","0","main_experiment_trial","5","dog_causal","causal_sequence","","","","",""
"","","","","","html-keyboard-response","111","324613","0.0-111.0","CE791658D24940268E2D468FDC7A2F88","019cf712-621d-79e2-ba1f-5afe96fd34b9","019cf6fe-235e-7d95-bb9b-b011d2fe188e","","null","
                <div class=""stimulus-container"">
                    <img src=""images/causal_sequence/dog_causal/dog_causal_6.png"" class=""exp-image"">
                    <div class=""question-area""></div> 
                </div>","null","","","","","","","","",""
"","","","","","html-button-response","112","325001","0.0-112.0","CE791658D24940268E2D468FDC7A2F88","019cf712-621d-79e2-ba1f-5afe96fd34b9","019cf6fe-235e-7d95-bb9b-b011d2fe188e","","388","
                <div class=""stimulus-container"">
                    <img src=""images/causal_sequence/dog_causal/dog_causal_6.png"" class=""exp-image"">
                    <div class=""question-area"">
                        <p style=""font-size: 20px; font-weight: bold; margin: 0;"">Is there a person in this image?</p>
                    </div>
                </div>","0","main_experiment_trial","6","dog_causal","causal_sequence","","","","",""
"","","","","","html-keyboard-response","113","330012","0.0-113.0","CE791658D24940268E2D468FDC7A2F88","019cf712-621d-79e2-ba1f-5afe96fd34b9","019cf6fe-235e-7d95-bb9b-b011d2fe188e","","null","
                <div class=""stimulus-container"">
                    <img src=""images/causal_sequence/dog_causal/dog_causal_7.png"" class=""exp-image"">
                    <div class=""question-area""></div> 
                </div>","null","","","","","","","","",""
"","","","","","html-button-response","114","330361","0.0-114.0","CE791658D24940268E2D468FDC7A2F88","019cf712-621d-79e2-ba1f-5afe96fd34b9","019cf6fe-235e-7d95-bb9b-b011d2fe188e","","348","
                <div class=""stimulus-container"">
                    <img src=""images/causal_sequence/dog_causal/dog_causal_7.png"" class=""exp-image"">
                    <div class=""question-area"">
                        <p style=""font-size: 20px; font-weight: bold; margin: 0;"">Is there a person in this image?</p>
                    </div>
                </div>","0","main_experiment_trial","7","dog_causal","causal_sequence","","","","",""
"","","","","","html-keyboard-response","115","335374","0.0-115.0","CE791658D24940268E2D468FDC7A2F88","019cf712-621d-79e2-ba1f-5afe96fd34b9","019cf6fe-235e-7d95-bb9b-b011d2fe188e","","null","
                <div class=""stimulus-container"">
                    <img src=""images/causal_sequence/dog_causal/dog_causal_8.png"" class=""exp-image"">
                    <div class=""question-area""></div> 
                </div>","null","","","","","","","","",""
"","","","","","html-button-response","116","336946","0.0-116.0","CE791658D24940268E2D468FDC7A2F88","019cf712-621d-79e2-ba1f-5afe96fd34b9","019cf6fe-235e-7d95-bb9b-b011d2fe188e","","1571","
                <div class=""stimulus-container"">
                    <img src=""images/causal_sequence/dog_causal/dog_causal_8.png"" class=""exp-image"">
                    <div class=""question-area"">
                        <p style=""font-size: 20px; font-weight: bold; margin: 0;"">Is there a person in this image?</p>
                    </div>
                </div>","0","main_experiment_trial","8","dog_causal","causal_sequence","","","","",""
"","","","","","html-keyboard-response","117","341961","0.0-117.0","CE791658D24940268E2D468FDC7A2F88","019cf712-621d-79e2-ba1f-5afe96fd34b9","019cf6fe-235e-7d95-bb9b-b011d2fe188e","","null","
                <div class=""stimulus-container"">
                    <img src=""images/causal_sequence/dog_causal/dog_causal_9.png"" class=""exp-image"">
                    <div class=""question-area""></div> 
                </div>","null","","","","","","","","",""
"","","","","","html-button-response","118","342761","0.0-118.0","CE791658D24940268E2D468FDC7A2F88","019cf712-621d-79e2-ba1f-5afe96fd34b9","019cf6fe-235e-7d95-bb9b-b011d2fe188e","","800","
                <div class=""stimulus-container"">
                    <img src=""images/causal_sequence/dog_causal/dog_causal_9.png"" class=""exp-image"">
                    <div class=""question-area"">
                        <p style=""font-size: 20px; font-weight: bold; margin: 0;"">Is there a person in this image?</p>
                    </div>
                </div>","0","main_experiment_trial","9","dog_causal","causal_sequence","","","","",""
"","","","","","html-keyboard-response","119","347770","0.0-119.0","CE791658D24940268E2D468FDC7A2F88","019cf712-621d-79e2-ba1f-5afe96fd34b9","019cf6fe-235e-7d95-bb9b-b011d2fe188e","","null","
                <div class=""stimulus-container"">
                    <img src=""images/causal_sequence/dog_causal/dog_causal_ten.png"" class=""exp-image"">
                    <div class=""question-area""></div> 
                </div>","null","","","","","","","","",""
"","","","","","html-button-response","120","348237","0.0-120.0","CE791658D24940268E2D468FDC7A2F88","019cf712-621d-79e2-ba1f-5afe96fd34b9","019cf6fe-235e-7d95-bb9b-b011d2fe188e","","466","
                <div class=""stimulus-container"">
                    <img src=""images/causal_sequence/dog_causal/dog_causal_ten.png"" class=""exp-image"">
                    <div class=""question-area"">
                        <p style=""font-size: 20px; font-weight: bold; margin: 0;"">Is there a person in this image?</p>
                    </div>
                </div>","0","main_experiment_trial","ten","dog_causal","causal_sequence","","","","",""
"","","","","","html-keyboard-response","121","349247","0.0-121.0","CE791658D24940268E2D468FDC7A2F88","019cf712-621d-79e2-ba1f-5afe96fd34b9","019cf6fe-235e-7d95-bb9b-b011d2fe188e","","null","<div style=""background-color: white; width: 100vw; height: 100vh;""></div>","null","","","","","","","","",""
"","","","","","html-keyboard-response","122","354250","0.0-122.0","CE791658D24940268E2D468FDC7A2F88","019cf712-621d-79e2-ba1f-5afe96fd34b9","019cf6fe-235e-7d95-bb9b-b011d2fe188e","","null","
                <div class=""stimulus-container"">
                    <img src=""images/causal_sequence/coin_causal/coin_causal_1.png"" class=""exp-image"">
                    <div class=""question-area""></div> 
                </div>","null","","","","","","","","",""
"","","","","","html-button-response","123","354691","0.0-123.0","CE791658D24940268E2D468FDC7A2F88","019cf712-621d-79e2-ba1f-5afe96fd34b9","019cf6fe-235e-7d95-bb9b-b011d2fe188e","","440","
                <div class=""stimulus-container"">
                    <img src=""images/causal_sequence/coin_causal/coin_causal_1.png"" class=""exp-image"">
                    <div class=""question-area"">
                        <p style=""font-size: 20px; font-weight: bold; margin: 0;"">Is there a person in this image?</p>
                    </div>
                </div>","0","main_experiment_trial","1","coin_causal","causal_sequence","","","","",""
"","","","","","html-keyboard-response","124","359702","0.0-124.0","CE791658D24940268E2D468FDC7A2F88","019cf712-621d-79e2-ba1f-5afe96fd34b9","019cf6fe-235e-7d95-bb9b-b011d2fe188e","","null","
                <div class=""stimulus-container"">
                    <img src=""images/causal_sequence/coin_causal/coin_causal_2.png"" class=""exp-image"">
                    <div class=""question-area""></div> 
                </div>","null","","","","","","","","",""
"","","","","","html-button-response","125","360161","0.0-125.0","CE791658D24940268E2D468FDC7A2F88","019cf712-621d-79e2-ba1f-5afe96fd34b9","019cf6fe-235e-7d95-bb9b-b011d2fe188e","","458","
                <div class=""stimulus-container"">
                    <img src=""images/causal_sequence/coin_causal/coin_causal_2.png"" class=""exp-image"">
                    <div class=""question-area"">
                        <p style=""font-size: 20px; font-weight: bold; margin: 0;"">Is there a person in this image?</p>
                    </div>
                </div>","0","main_experiment_trial","2","coin_causal","causal_sequence","","","","",""
"","","","","","html-keyboard-response","126","365178","0.0-126.0","CE791658D24940268E2D468FDC7A2F88","019cf712-621d-79e2-ba1f-5afe96fd34b9","019cf6fe-235e-7d95-bb9b-b011d2fe188e","","null","
                <div class=""stimulus-container"">
                    <img src=""images/causal_sequence/coin_causal/coin_causal_3.png"" class=""exp-image"">
                    <div class=""question-area""></div> 
                </div>","null","","","","","","","","",""
"","","","","","html-button-response","127","365590","0.0-127.0","CE791658D24940268E2D468FDC7A2F88","019cf712-621d-79e2-ba1f-5afe96fd34b9","019cf6fe-235e-7d95-bb9b-b011d2fe188e","","412","
                <div class=""stimulus-container"">
                    <img src=""images/causal_sequence/coin_causal/coin_causal_3.png"" class=""exp-image"">
                    <div class=""question-area"">
                        <p style=""font-size: 20px; font-weight: bold; margin: 0;"">Is there a person in this image?</p>
                    </div>
                </div>","0","main_experiment_trial","3","coin_causal","causal_sequence","","","","",""
"","","","","","html-keyboard-response","128","370601","0.0-128.0","CE791658D24940268E2D468FDC7A2F88","019cf712-621d-79e2-ba1f-5afe96fd34b9","019cf6fe-235e-7d95-bb9b-b011d2fe188e","","null","
                <div class=""stimulus-container"">
                    <img src=""images/causal_sequence/coin_causal/coin_causal_4.png"" class=""exp-image"">
                    <div class=""question-area""></div> 
                </div>","null","","","","","","","","",""
"","","","","","html-button-response","129","370986","0.0-129.0","CE791658D24940268E2D468FDC7A2F88","019cf712-621d-79e2-ba1f-5afe96fd34b9","019cf6fe-235e-7d95-bb9b-b011d2fe188e","","384","
                <div class=""stimulus-container"">
                    <img src=""images/causal_sequence/coin_causal/coin_causal_4.png"" class=""exp-image"">
                    <div class=""question-area"">
                        <p style=""font-size: 20px; font-weight: bold; margin: 0;"">Is there a person in this image?</p>
                    </div>
                </div>","0","main_experiment_trial","4","coin_causal","causal_sequence","","","","",""
"","","","","","html-keyboard-response","130","375998","0.0-130.0","CE791658D24940268E2D468FDC7A2F88","019cf712-621d-79e2-ba1f-5afe96fd34b9","019cf6fe-235e-7d95-bb9b-b011d2fe188e","","null","
                <div class=""stimulus-container"">
                    <img src=""images/causal_sequence/coin_causal/coin_causal_5.png"" class=""exp-image"">
                    <div class=""question-area""></div> 
                </div>","null","","","","","","","","",""
"","","","","","html-button-response","131","376325","0.0-131.0","CE791658D24940268E2D468FDC7A2F88","019cf712-621d-79e2-ba1f-5afe96fd34b9","019cf6fe-235e-7d95-bb9b-b011d2fe188e","","326","
                <div class=""stimulus-container"">
                    <img src=""images/causal_sequence/coin_causal/coin_causal_5.png"" class=""exp-image"">
                    <div class=""question-area"">
                        <p style=""font-size: 20px; font-weight: bold; margin: 0;"">Is there a person in this image?</p>
                    </div>
                </div>","0","main_experiment_trial","5","coin_causal","causal_sequence","","","","",""
"","","","","","html-keyboard-response","132","381337","0.0-132.0","CE791658D24940268E2D468FDC7A2F88","019cf712-621d-79e2-ba1f-5afe96fd34b9","019cf6fe-235e-7d95-bb9b-b011d2fe188e","","null","
                <div class=""stimulus-container"">
                    <img src=""images/causal_sequence/coin_causal/coin_causal_6.png"" class=""exp-image"">
                    <div class=""question-area""></div> 
                </div>","null","","","","","","","","",""
"","","","","","html-button-response","133","381825","0.0-133.0","CE791658D24940268E2D468FDC7A2F88","019cf712-621d-79e2-ba1f-5afe96fd34b9","019cf6fe-235e-7d95-bb9b-b011d2fe188e","","488","
                <div class=""stimulus-container"">
                    <img src=""images/causal_sequence/coin_causal/coin_causal_6.png"" class=""exp-image"">
                    <div class=""question-area"">
                        <p style=""font-size: 20px; font-weight: bold; margin: 0;"">Is there a person in this image?</p>
                    </div>
                </div>","0","main_experiment_trial","6","coin_causal","causal_sequence","","","","",""
"","","","","","html-keyboard-response","134","386834","0.0-134.0","CE791658D24940268E2D468FDC7A2F88","019cf712-621d-79e2-ba1f-5afe96fd34b9","019cf6fe-235e-7d95-bb9b-b011d2fe188e","","null","
                <div class=""stimulus-container"">
                    <img src=""images/causal_sequence/coin_causal/coin_causal_7.png"" class=""exp-image"">
                    <div class=""question-area""></div> 
                </div>","null","","","","","","","","",""
"","","","","","html-button-response","135","387545","0.0-135.0","CE791658D24940268E2D468FDC7A2F88","019cf712-621d-79e2-ba1f-5afe96fd34b9","019cf6fe-235e-7d95-bb9b-b011d2fe188e","","711","
                <div class=""stimulus-container"">
                    <img src=""images/causal_sequence/coin_causal/coin_causal_7.png"" class=""exp-image"">
                    <div class=""question-area"">
                        <p style=""font-size: 20px; font-weight: bold; margin: 0;"">Is there a person in this image?</p>
                    </div>
                </div>","1","main_experiment_trial","7","coin_causal","causal_sequence","","","","",""
"","","","","","html-keyboard-response","136","392555","0.0-136.0","CE791658D24940268E2D468FDC7A2F88","019cf712-621d-79e2-ba1f-5afe96fd34b9","019cf6fe-235e-7d95-bb9b-b011d2fe188e","","null","
                <div class=""stimulus-container"">
                    <img src=""images/causal_sequence/coin_causal/coin_causal_8.png"" class=""exp-image"">
                    <div class=""question-area""></div> 
                </div>","null","","","","","","","","",""
"","","","","","html-button-response","137","392945","0.0-137.0","CE791658D24940268E2D468FDC7A2F88","019cf712-621d-79e2-ba1f-5afe96fd34b9","019cf6fe-235e-7d95-bb9b-b011d2fe188e","","389","
                <div class=""stimulus-container"">
                    <img src=""images/causal_sequence/coin_causal/coin_causal_8.png"" class=""exp-image"">
                    <div class=""question-area"">
                        <p style=""font-size: 20px; font-weight: bold; margin: 0;"">Is there a person in this image?</p>
                    </div>
                </div>","0","main_experiment_trial","8","coin_causal","causal_sequence","","","","",""
"","","","","","html-keyboard-response","138","397950","0.0-138.0","CE791658D24940268E2D468FDC7A2F88","019cf712-621d-79e2-ba1f-5afe96fd34b9","019cf6fe-235e-7d95-bb9b-b011d2fe188e","","null","
                <div class=""stimulus-container"">
                    <img src=""images/causal_sequence/coin_causal/coin_causal_9.png"" class=""exp-image"">
                    <div class=""question-area""></div> 
                </div>","null","","","","","","","","",""
"","","","","","html-button-response","139","398375","0.0-139.0","CE791658D24940268E2D468FDC7A2F88","019cf712-621d-79e2-ba1f-5afe96fd34b9","019cf6fe-235e-7d95-bb9b-b011d2fe188e","","425","
                <div class=""stimulus-container"">
                    <img src=""images/causal_sequence/coin_causal/coin_causal_9.png"" class=""exp-image"">
                    <div class=""question-area"">
                        <p style=""font-size: 20px; font-weight: bold; margin: 0;"">Is there a person in this image?</p>
                    </div>
                </div>","0","main_experiment_trial","9","coin_causal","causal_sequence","","","","",""
"","","","","","html-keyboard-response","140","403382","0.0-140.0","CE791658D24940268E2D468FDC7A2F88","019cf712-621d-79e2-ba1f-5afe96fd34b9","019cf6fe-235e-7d95-bb9b-b011d2fe188e","","null","
                <div class=""stimulus-container"">
                    <img src=""images/causal_sequence/coin_causal/coin_causal_ten.png"" class=""exp-image"">
                    <div class=""question-area""></div> 
                </div>","null","","","","","","","","",""
"","","","","","html-button-response","141","403700","0.0-141.0","CE791658D24940268E2D468FDC7A2F88","019cf712-621d-79e2-ba1f-5afe96fd34b9","019cf6fe-235e-7d95-bb9b-b011d2fe188e","","318","
                <div class=""stimulus-container"">
                    <img src=""images/causal_sequence/coin_causal/coin_causal_ten.png"" class=""exp-image"">
                    <div class=""question-area"">
                        <p style=""font-size: 20px; font-weight: bold; margin: 0;"">Is there a person in this image?</p>
                    </div>
                </div>","0","main_experiment_trial","ten","coin_causal","causal_sequence","","","","",""
"","","","","","html-keyboard-response","142","404710","0.0-142.0","CE791658D24940268E2D468FDC7A2F88","019cf712-621d-79e2-ba1f-5afe96fd34b9","019cf6fe-235e-7d95-bb9b-b011d2fe188e","","null","<div style=""background-color: white; width: 100vw; height: 100vh;""></div>","null","","","","","","","","",""
"","","","","","html-keyboard-response","143","409713","0.0-143.0","CE791658D24940268E2D468FDC7A2F88","019cf712-621d-79e2-ba1f-5afe96fd34b9","019cf6fe-235e-7d95-bb9b-b011d2fe188e","","null","
                <div class=""stimulus-container"">
                    <img src=""images/causal_sequence/the_performance_causal/the_performance_causal_1.png"" class=""exp-image"">
                    <div class=""question-area""></div> 
                </div>","null","","","","","","","","",""
"","","","","","html-button-response","144","410105","0.0-144.0","CE791658D24940268E2D468FDC7A2F88","019cf712-621d-79e2-ba1f-5afe96fd34b9","019cf6fe-235e-7d95-bb9b-b011d2fe188e","","392","
                <div class=""stimulus-container"">
                    <img src=""images/causal_sequence/the_performance_causal/the_performance_causal_1.png"" class=""exp-image"">
                    <div class=""question-area"">
                        <p style=""font-size: 20px; font-weight: bold; margin: 0;"">Is there a person in this image?</p>
                    </div>
                </div>","0","main_experiment_trial","1","the_performance_causal","causal_sequence","","","","",""
"","","","","","html-keyboard-response","145","415116","0.0-145.0","CE791658D24940268E2D468FDC7A2F88","019cf712-621d-79e2-ba1f-5afe96fd34b9","019cf6fe-235e-7d95-bb9b-b011d2fe188e","","null","
                <div class=""stimulus-container"">
                    <img src=""images/causal_sequence/the_performance_causal/the_performance_causal_2.png"" class=""exp-image"">
                    <div class=""question-area""></div> 
                </div>","null","","","","","","","","",""
"","","","","","html-button-response","146","415611","0.0-146.0","CE791658D24940268E2D468FDC7A2F88","019cf712-621d-79e2-ba1f-5afe96fd34b9","019cf6fe-235e-7d95-bb9b-b011d2fe188e","","494","
                <div class=""stimulus-container"">
                    <img src=""images/causal_sequence/the_performance_causal/the_performance_causal_2.png"" class=""exp-image"">
                    <div class=""question-area"">
                        <p style=""font-size: 20px; font-weight: bold; margin: 0;"">Is there a person in this image?</p>
                    </div>
                </div>","0","main_experiment_trial","2","the_performance_causal","causal_sequence","","","","",""
"","","","","","html-keyboard-response","147","420616","0.0-147.0","CE791658D24940268E2D468FDC7A2F88","019cf712-621d-79e2-ba1f-5afe96fd34b9","019cf6fe-235e-7d95-bb9b-b011d2fe188e","","null","
                <div class=""stimulus-container"">
                    <img src=""images/causal_sequence/the_performance_causal/the_performance_causal_3.png"" class=""exp-image"">
                    <div class=""question-area""></div> 
                </div>","null","","","","","","","","",""
"","","","","","html-button-response","148","421416","0.0-148.0","CE791658D24940268E2D468FDC7A2F88","019cf712-621d-79e2-ba1f-5afe96fd34b9","019cf6fe-235e-7d95-bb9b-b011d2fe188e","","799","
                <div class=""stimulus-container"">
                    <img src=""images/causal_sequence/the_performance_causal/the_performance_causal_3.png"" class=""exp-image"">
                    <div class=""question-area"">
                        <p style=""font-size: 20px; font-weight: bold; margin: 0;"">Is there a person in this image?</p>
                    </div>
                </div>","0","main_experiment_trial","3","the_performance_causal","causal_sequence","","","","",""
"","","","","","html-keyboard-response","149","426429","0.0-149.0","CE791658D24940268E2D468FDC7A2F88","019cf712-621d-79e2-ba1f-5afe96fd34b9","019cf6fe-235e-7d95-bb9b-b011d2fe188e","","null","
                <div class=""stimulus-container"">
                    <img src=""images/causal_sequence/the_performance_causal/the_performance_causal_4.png"" class=""exp-image"">
                    <div class=""question-area""></div> 
                </div>","null","","","","","","","","",""
"","","","","","html-button-response","150","427799","0.0-150.0","CE791658D24940268E2D468FDC7A2F88","019cf712-621d-79e2-ba1f-5afe96fd34b9","019cf6fe-235e-7d95-bb9b-b011d2fe188e","","1370","
                <div class=""stimulus-container"">
                    <img src=""images/causal_sequence/the_performance_causal/the_performance_causal_4.png"" class=""exp-image"">
                    <div class=""question-area"">
                        <p style=""font-size: 20px; font-weight: bold; margin: 0;"">Is there a person in this image?</p>
                    </div>
                </div>","0","main_experiment_trial","4","the_performance_causal","causal_sequence","","","","",""
"","","","","","html-keyboard-response","151","432804","0.0-151.0","CE791658D24940268E2D468FDC7A2F88","019cf712-621d-79e2-ba1f-5afe96fd34b9","019cf6fe-235e-7d95-bb9b-b011d2fe188e","","null","
                <div class=""stimulus-container"">
                    <img src=""images/causal_sequence/the_performance_causal/the_performance_causal_5.png"" class=""exp-image"">
                    <div class=""question-area""></div> 
                </div>","null","","","","","","","","",""
"","","","","","html-button-response","152","433500","0.0-152.0","CE791658D24940268E2D468FDC7A2F88","019cf712-621d-79e2-ba1f-5afe96fd34b9","019cf6fe-235e-7d95-bb9b-b011d2fe188e","","695","
                <div class=""stimulus-container"">
                    <img src=""images/causal_sequence/the_performance_causal/the_performance_causal_5.png"" class=""exp-image"">
                    <div class=""question-area"">
                        <p style=""font-size: 20px; font-weight: bold; margin: 0;"">Is there a person in this image?</p>
                    </div>
                </div>","0","main_experiment_trial","5","the_performance_causal","causal_sequence","","","","",""
"","","","","","html-keyboard-response","153","438503","0.0-153.0","CE791658D24940268E2D468FDC7A2F88","019cf712-621d-79e2-ba1f-5afe96fd34b9","019cf6fe-235e-7d95-bb9b-b011d2fe188e","","null","
                <div class=""stimulus-container"">
                    <img src=""images/causal_sequence/the_performance_causal/the_performance_causal_6.png"" class=""exp-image"">
                    <div class=""question-area""></div> 
                </div>","null","","","","","","","","",""
"","","","","","html-button-response","154","440114","0.0-154.0","CE791658D24940268E2D468FDC7A2F88","019cf712-621d-79e2-ba1f-5afe96fd34b9","019cf6fe-235e-7d95-bb9b-b011d2fe188e","","1611","
                <div class=""stimulus-container"">
                    <img src=""images/causal_sequence/the_performance_causal/the_performance_causal_6.png"" class=""exp-image"">
                    <div class=""question-area"">
                        <p style=""font-size: 20px; font-weight: bold; margin: 0;"">Is there a person in this image?</p>
                    </div>
                </div>","0","main_experiment_trial","6","the_performance_causal","causal_sequence","","","","",""
"","","","","","html-keyboard-response","155","445115","0.0-155.0","CE791658D24940268E2D468FDC7A2F88","019cf712-621d-79e2-ba1f-5afe96fd34b9","019cf6fe-235e-7d95-bb9b-b011d2fe188e","","null","
                <div class=""stimulus-container"">
                    <img src=""images/causal_sequence/the_performance_causal/the_performance_causal_7.png"" class=""exp-image"">
                    <div class=""question-area""></div> 
                </div>","null","","","","","","","","",""
"","","","","","html-button-response","156","445609","0.0-156.0","CE791658D24940268E2D468FDC7A2F88","019cf712-621d-79e2-ba1f-5afe96fd34b9","019cf6fe-235e-7d95-bb9b-b011d2fe188e","","493","
                <div class=""stimulus-container"">
                    <img src=""images/causal_sequence/the_performance_causal/the_performance_causal_7.png"" class=""exp-image"">
                    <div class=""question-area"">
                        <p style=""font-size: 20px; font-weight: bold; margin: 0;"">Is there a person in this image?</p>
                    </div>
                </div>","0","main_experiment_trial","7","the_performance_causal","causal_sequence","","","","",""
"","","","","","html-keyboard-response","157","450625","0.0-157.0","CE791658D24940268E2D468FDC7A2F88","019cf712-621d-79e2-ba1f-5afe96fd34b9","019cf6fe-235e-7d95-bb9b-b011d2fe188e","","null","
                <div class=""stimulus-container"">
                    <img src=""images/causal_sequence/the_performance_causal/the_performance_causal_8.png"" class=""exp-image"">
                    <div class=""question-area""></div> 
                </div>","null","","","","","","","","",""
"","","","","","html-button-response","158","451375","0.0-158.0","CE791658D24940268E2D468FDC7A2F88","019cf712-621d-79e2-ba1f-5afe96fd34b9","019cf6fe-235e-7d95-bb9b-b011d2fe188e","","749","
                <div class=""stimulus-container"">
                    <img src=""images/causal_sequence/the_performance_causal/the_performance_causal_8.png"" class=""exp-image"">
                    <div class=""question-area"">
                        <p style=""font-size: 20px; font-weight: bold; margin: 0;"">Is there a person in this image?</p>
                    </div>
                </div>","0","main_experiment_trial","8","the_performance_causal","causal_sequence","","","","",""
"","","","","","html-keyboard-response","159","456376","0.0-159.0","CE791658D24940268E2D468FDC7A2F88","019cf712-621d-79e2-ba1f-5afe96fd34b9","019cf6fe-235e-7d95-bb9b-b011d2fe188e","","null","
                <div class=""stimulus-container"">
                    <img src=""images/causal_sequence/the_performance_causal/the_performance_causal_9.png"" class=""exp-image"">
                    <div class=""question-area""></div> 
                </div>","null","","","","","","","","",""
"","","","","","html-button-response","160","457009","0.0-160.0","CE791658D24940268E2D468FDC7A2F88","019cf712-621d-79e2-ba1f-5afe96fd34b9","019cf6fe-235e-7d95-bb9b-b011d2fe188e","","633","
                <div class=""stimulus-container"">
                    <img src=""images/causal_sequence/the_performance_causal/the_performance_causal_9.png"" class=""exp-image"">
                    <div class=""question-area"">
                        <p style=""font-size: 20px; font-weight: bold; margin: 0;"">Is there a person in this image?</p>
                    </div>
                </div>","0","main_experiment_trial","9","the_performance_causal","causal_sequence","","","","",""
"","","","","","html-keyboard-response","161","462025","0.0-161.0","CE791658D24940268E2D468FDC7A2F88","019cf712-621d-79e2-ba1f-5afe96fd34b9","019cf6fe-235e-7d95-bb9b-b011d2fe188e","","null","
                <div class=""stimulus-container"">
                    <img src=""images/causal_sequence/the_performance_causal/the_performance_causal_ten.png"" class=""exp-image"">
                    <div class=""question-area""></div> 
                </div>","null","","","","","","","","",""
"","","","","","html-button-response","162","462645","0.0-162.0","CE791658D24940268E2D468FDC7A2F88","019cf712-621d-79e2-ba1f-5afe96fd34b9","019cf6fe-235e-7d95-bb9b-b011d2fe188e","","620","
                <div class=""stimulus-container"">
                    <img src=""images/causal_sequence/the_performance_causal/the_performance_causal_ten.png"" class=""exp-image"">
                    <div class=""question-area"">
                        <p style=""font-size: 20px; font-weight: bold; margin: 0;"">Is there a person in this image?</p>
                    </div>
                </div>","0","main_experiment_trial","ten","the_performance_causal","causal_sequence","","","","",""
"","","","","","html-keyboard-response","163","463646","0.0-163.0","CE791658D24940268E2D468FDC7A2F88","019cf712-621d-79e2-ba1f-5afe96fd34b9","019cf6fe-235e-7d95-bb9b-b011d2fe188e","","null","<div style=""background-color: white; width: 100vw; height: 100vh;""></div>","null","","","","","","","","",""
"","","","","","html-keyboard-response","164","468662","0.0-164.0","CE791658D24940268E2D468FDC7A2F88","019cf712-621d-79e2-ba1f-5afe96fd34b9","019cf6fe-235e-7d95-bb9b-b011d2fe188e","","null","
                <div class=""stimulus-container"">
                    <img src=""images/schematic_sequence/hotel_scheme/hotel_scheme_1.png"" class=""exp-image"">
                    <div class=""question-area""></div> 
                </div>","null","","","","","","","","",""
"","","","","","html-button-response","165","469630","0.0-165.0","CE791658D24940268E2D468FDC7A2F88","019cf712-621d-79e2-ba1f-5afe96fd34b9","019cf6fe-235e-7d95-bb9b-b011d2fe188e","","968","
                <div class=""stimulus-container"">
                    <img src=""images/schematic_sequence/hotel_scheme/hotel_scheme_1.png"" class=""exp-image"">
                    <div class=""question-area"">
                        <p style=""font-size: 20px; font-weight: bold; margin: 0;"">Is there a person in this image?</p>
                    </div>
                </div>","1","main_experiment_trial","1","hotel_scheme","schematic_sequence","","","","",""
"","","","","","html-keyboard-response","166","474646","0.0-166.0","CE791658D24940268E2D468FDC7A2F88","019cf712-621d-79e2-ba1f-5afe96fd34b9","019cf6fe-235e-7d95-bb9b-b011d2fe188e","","null","
                <div class=""stimulus-container"">
                    <img src=""images/schematic_sequence/hotel_scheme/hotel_scheme_2.png"" class=""exp-image"">
                    <div class=""question-area""></div> 
                </div>","null","","","","","","","","",""
"","","","","","html-button-response","167","475204","0.0-167.0","CE791658D24940268E2D468FDC7A2F88","019cf712-621d-79e2-ba1f-5afe96fd34b9","019cf6fe-235e-7d95-bb9b-b011d2fe188e","","558","
                <div class=""stimulus-container"">
                    <img src=""images/schematic_sequence/hotel_scheme/hotel_scheme_2.png"" class=""exp-image"">
                    <div class=""question-area"">
                        <p style=""font-size: 20px; font-weight: bold; margin: 0;"">Is there a person in this image?</p>
                    </div>
                </div>","0","main_experiment_trial","2","hotel_scheme","schematic_sequence","","","","",""
"","","","","","html-keyboard-response","168","480220","0.0-168.0","CE791658D24940268E2D468FDC7A2F88","019cf712-621d-79e2-ba1f-5afe96fd34b9","019cf6fe-235e-7d95-bb9b-b011d2fe188e","","null","
                <div class=""stimulus-container"">
                    <img src=""images/schematic_sequence/hotel_scheme/hotel_scheme_3.png"" class=""exp-image"">
                    <div class=""question-area""></div> 
                </div>","null","","","","","","","","",""
"","","","","","html-button-response","169","480660","0.0-169.0","CE791658D24940268E2D468FDC7A2F88","019cf712-621d-79e2-ba1f-5afe96fd34b9","019cf6fe-235e-7d95-bb9b-b011d2fe188e","","439","
                <div class=""stimulus-container"">
                    <img src=""images/schematic_sequence/hotel_scheme/hotel_scheme_3.png"" class=""exp-image"">
                    <div class=""question-area"">
                        <p style=""font-size: 20px; font-weight: bold; margin: 0;"">Is there a person in this image?</p>
                    </div>
                </div>","0","main_experiment_trial","3","hotel_scheme","schematic_sequence","","","","",""
"","","","","","html-keyboard-response","170","485662","0.0-170.0","CE791658D24940268E2D468FDC7A2F88","019cf712-621d-79e2-ba1f-5afe96fd34b9","019cf6fe-235e-7d95-bb9b-b011d2fe188e","","null","
                <div class=""stimulus-container"">
                    <img src=""images/schematic_sequence/hotel_scheme/hotel_scheme_4.png"" class=""exp-image"">
                    <div class=""question-area""></div> 
                </div>","null","","","","","","","","",""
"","","","","","html-button-response","171","487119","0.0-171.0","CE791658D24940268E2D468FDC7A2F88","019cf712-621d-79e2-ba1f-5afe96fd34b9","019cf6fe-235e-7d95-bb9b-b011d2fe188e","","1452","
                <div class=""stimulus-container"">
                    <img src=""images/schematic_sequence/hotel_scheme/hotel_scheme_4.png"" class=""exp-image"">
                    <div class=""question-area"">
                        <p style=""font-size: 20px; font-weight: bold; margin: 0;"">Is there a person in this image?</p>
                    </div>
                </div>","1","main_experiment_trial","4","hotel_scheme","schematic_sequence","","","","",""
"","","","","","html-keyboard-response","172","492123","0.0-172.0","CE791658D24940268E2D468FDC7A2F88","019cf712-621d-79e2-ba1f-5afe96fd34b9","019cf6fe-235e-7d95-bb9b-b011d2fe188e","","null","
                <div class=""stimulus-container"">
                    <img src=""images/schematic_sequence/hotel_scheme/hotel_scheme_5.png"" class=""exp-image"">
                    <div class=""question-area""></div> 
                </div>","null","","","","","","","","",""
"","","","","","html-button-response","173","493894","0.0-173.0","CE791658D24940268E2D468FDC7A2F88","019cf712-621d-79e2-ba1f-5afe96fd34b9","019cf6fe-235e-7d95-bb9b-b011d2fe188e","","1770","
                <div class=""stimulus-container"">
                    <img src=""images/schematic_sequence/hotel_scheme/hotel_scheme_5.png"" class=""exp-image"">
                    <div class=""question-area"">
                        <p style=""font-size: 20px; font-weight: bold; margin: 0;"">Is there a person in this image?</p>
                    </div>
                </div>","0","main_experiment_trial","5","hotel_scheme","schematic_sequence","","","","",""
"","","","","","html-keyboard-response","174","498905","0.0-174.0","CE791658D24940268E2D468FDC7A2F88","019cf712-621d-79e2-ba1f-5afe96fd34b9","019cf6fe-235e-7d95-bb9b-b011d2fe188e","","null","
                <div class=""stimulus-container"">
                    <img src=""images/schematic_sequence/hotel_scheme/hotel_scheme_6.png"" class=""exp-image"">
                    <div class=""question-area""></div> 
                </div>","null","","","","","","","","",""
"","","","","","html-button-response","175","500239","0.0-175.0","CE791658D24940268E2D468FDC7A2F88","019cf712-621d-79e2-ba1f-5afe96fd34b9","019cf6fe-235e-7d95-bb9b-b011d2fe188e","","1333","
                <div class=""stimulus-container"">
                    <img src=""images/schematic_sequence/hotel_scheme/hotel_scheme_6.png"" class=""exp-image"">
                    <div class=""question-area"">
                        <p style=""font-size: 20px; font-weight: bold; margin: 0;"">Is there a person in this image?</p>
                    </div>
                </div>","0","main_experiment_trial","6","hotel_scheme","schematic_sequence","","","","",""
"","","","","","html-keyboard-response","176","505246","0.0-176.0","CE791658D24940268E2D468FDC7A2F88","019cf712-621d-79e2-ba1f-5afe96fd34b9","019cf6fe-235e-7d95-bb9b-b011d2fe188e","","null","
                <div class=""stimulus-container"">
                    <img src=""images/schematic_sequence/hotel_scheme/hotel_scheme_7.png"" class=""exp-image"">
                    <div class=""question-area""></div> 
                </div>","null","","","","","","","","",""
"","","","","","html-button-response","177","506959","0.0-177.0","CE791658D24940268E2D468FDC7A2F88","019cf712-621d-79e2-ba1f-5afe96fd34b9","019cf6fe-235e-7d95-bb9b-b011d2fe188e","","1712","
                <div class=""stimulus-container"">
                    <img src=""images/schematic_sequence/hotel_scheme/hotel_scheme_7.png"" class=""exp-image"">
                    <div class=""question-area"">
                        <p style=""font-size: 20px; font-weight: bold; margin: 0;"">Is there a person in this image?</p>
                    </div>
                </div>","0","main_experiment_trial","7","hotel_scheme","schematic_sequence","","","","",""
"","","","","","html-keyboard-response","178","511964","0.0-178.0","CE791658D24940268E2D468FDC7A2F88","019cf712-621d-79e2-ba1f-5afe96fd34b9","019cf6fe-235e-7d95-bb9b-b011d2fe188e","","null","
                <div class=""stimulus-container"">
                    <img src=""images/schematic_sequence/hotel_scheme/hotel_scheme_8.png"" class=""exp-image"">
                    <div class=""question-area""></div> 
                </div>","null","","","","","","","","",""
"","","","","","html-button-response","179","512839","0.0-179.0","CE791658D24940268E2D468FDC7A2F88","019cf712-621d-79e2-ba1f-5afe96fd34b9","019cf6fe-235e-7d95-bb9b-b011d2fe188e","","875","
                <div class=""stimulus-container"">
                    <img src=""images/schematic_sequence/hotel_scheme/hotel_scheme_8.png"" class=""exp-image"">
                    <div class=""question-area"">
                        <p style=""font-size: 20px; font-weight: bold; margin: 0;"">Is there a person in this image?</p>
                    </div>
                </div>","0","main_experiment_trial","8","hotel_scheme","schematic_sequence","","","","",""
"","","","","","html-keyboard-response","180","517855","0.0-180.0","CE791658D24940268E2D468FDC7A2F88","019cf712-621d-79e2-ba1f-5afe96fd34b9","019cf6fe-235e-7d95-bb9b-b011d2fe188e","","null","
                <div class=""stimulus-container"">
                    <img src=""images/schematic_sequence/hotel_scheme/hotel_scheme_9.png"" class=""exp-image"">
                    <div class=""question-area""></div> 
                </div>","null","","","","","","","","",""
"","","","","","html-button-response","181","518560","0.0-181.0","CE791658D24940268E2D468FDC7A2F88","019cf712-621d-79e2-ba1f-5afe96fd34b9","019cf6fe-235e-7d95-bb9b-b011d2fe188e","","704","
                <div class=""stimulus-container"">
                    <img src=""images/schematic_sequence/hotel_scheme/hotel_scheme_9.png"" class=""exp-image"">
                    <div class=""question-area"">
                        <p style=""font-size: 20px; font-weight: bold; margin: 0;"">Is there a person in this image?</p>
                    </div>
                </div>","0","main_experiment_trial","9","hotel_scheme","schematic_sequence","","","","",""
"","","","","","html-keyboard-response","182","523561","0.0-182.0","CE791658D24940268E2D468FDC7A2F88","019cf712-621d-79e2-ba1f-5afe96fd34b9","019cf6fe-235e-7d95-bb9b-b011d2fe188e","","null","
                <div class=""stimulus-container"">
                    <img src=""images/schematic_sequence/hotel_scheme/hotel_scheme_ten.png"" class=""exp-image"">
                    <div class=""question-area""></div> 
                </div>","null","","","","","","","","",""
"","","","","","html-button-response","183","524014","0.0-183.0","CE791658D24940268E2D468FDC7A2F88","019cf712-621d-79e2-ba1f-5afe96fd34b9","019cf6fe-235e-7d95-bb9b-b011d2fe188e","","452","
                <div class=""stimulus-container"">
                    <img src=""images/schematic_sequence/hotel_scheme/hotel_scheme_ten.png"" class=""exp-image"">
                    <div class=""question-area"">
                        <p style=""font-size: 20px; font-weight: bold; margin: 0;"">Is there a person in this image?</p>
                    </div>
                </div>","0","main_experiment_trial","ten","hotel_scheme","schematic_sequence","","","","",""
"","","","","","html-keyboard-response","184","525021","0.0-184.0","CE791658D24940268E2D468FDC7A2F88","019cf712-621d-79e2-ba1f-5afe96fd34b9","019cf6fe-235e-7d95-bb9b-b011d2fe188e","","null","<div style=""background-color: white; width: 100vw; height: 100vh;""></div>","null","","","","","","","","",""
