"success","timeout","failed_images","failed_audio","failed_video","trial_type","trial_index","time_elapsed","internal_node_id","subject_id","study_id","session_id","view_history","rt","stimulus","response","task","image_index","folder","sequence_type","valuable_image_index","reward_type","chosen_image_index","correct_choice"
"true","false","[]","[]","[]","preload","0","9631","0.0-0.0","930ACF58B2CF458AAE10936D5CD0AC6E","019cef8f-24a9-741f-9170-24c1e948722c","019cef87-c56d-7b55-9135-c5814367ec25","","","","","","","","","","","",""
"","","","","","instructions","1","14862","0.0-1.0","930ACF58B2CF458AAE10936D5CD0AC6E","019cef8f-24a9-741f-9170-24c1e948722c","019cef87-c56d-7b55-9135-c5814367ec25","[{""page_index"":0,""viewing_time"":5229}]","5229","","","","","","","","","",""
"","","","","","instructions","2","17595","0.0-2.0","930ACF58B2CF458AAE10936D5CD0AC6E","019cef8f-24a9-741f-9170-24c1e948722c","019cef87-c56d-7b55-9135-c5814367ec25","[{""page_index"":0,""viewing_time"":2732}]","2732","","","","","","","","","",""
"true","","","","","fullscreen","3","20240","0.0-3.0","930ACF58B2CF458AAE10936D5CD0AC6E","019cef8f-24a9-741f-9170-24c1e948722c","019cef87-c56d-7b55-9135-c5814367ec25","","1635","","","","","","","","","",""
"","","","","","instructions","4","61630","0.0-4.0","930ACF58B2CF458AAE10936D5CD0AC6E","019cef8f-24a9-741f-9170-24c1e948722c","019cef87-c56d-7b55-9135-c5814367ec25","[{""page_index"":0,""viewing_time"":41389}]","41390","","","","","","","","","",""
"","","","","","instructions","5","70556","0.0-5.0","930ACF58B2CF458AAE10936D5CD0AC6E","019cef8f-24a9-741f-9170-24c1e948722c","019cef87-c56d-7b55-9135-c5814367ec25","[{""page_index"":0,""viewing_time"":8925}]","8925","","","","","","","","","",""
"","","","","","html-keyboard-response","6","74564","0.0-6.0","930ACF58B2CF458AAE10936D5CD0AC6E","019cef8f-24a9-741f-9170-24c1e948722c","019cef87-c56d-7b55-9135-c5814367ec25","","null","
                <div class=""stimulus-container"">
                    <img src=""images/instructions/movie_1.png"" class=""exp-image"">
                    <div class=""question-area""></div> 
                </div>","null","","","","","","","",""
"","","","","","html-button-response","7","77227","0.0-7.0","930ACF58B2CF458AAE10936D5CD0AC6E","019cef8f-24a9-741f-9170-24c1e948722c","019cef87-c56d-7b55-9135-c5814367ec25","","2659","
                <div class=""stimulus-container"">
                    <img src=""images/instructions/movie_1.png"" class=""exp-image"">
                    <div class=""question-area"">
                        <p style=""font-size: 20px; font-weight: bold; margin: 0;"">Was there a person in this image?</p>
                    </div>
                </div>","0","example_question","1","","","","","",""
"","","","","","html-keyboard-response","8","81234","0.0-8.0","930ACF58B2CF458AAE10936D5CD0AC6E","019cef8f-24a9-741f-9170-24c1e948722c","019cef87-c56d-7b55-9135-c5814367ec25","","null","
                <div class=""stimulus-container"">
                    <img src=""images/instructions/movie_2.png"" class=""exp-image"">
                    <div class=""question-area""></div> 
                </div>","null","","","","","","","",""
"","","","","","html-button-response","9","82084","0.0-9.0","930ACF58B2CF458AAE10936D5CD0AC6E","019cef8f-24a9-741f-9170-24c1e948722c","019cef87-c56d-7b55-9135-c5814367ec25","","849","
                <div class=""stimulus-container"">
                    <img src=""images/instructions/movie_2.png"" class=""exp-image"">
                    <div class=""question-area"">
                        <p style=""font-size: 20px; font-weight: bold; margin: 0;"">Was there a person in this image?</p>
                    </div>
                </div>","0","example_question","2","","","","","",""
"","","","","","html-keyboard-response","10","86094","0.0-10.0","930ACF58B2CF458AAE10936D5CD0AC6E","019cef8f-24a9-741f-9170-24c1e948722c","019cef87-c56d-7b55-9135-c5814367ec25","","null","
                <div class=""stimulus-container"">
                    <img src=""images/instructions/movie_3.png"" class=""exp-image"">
                    <div class=""question-area""></div> 
                </div>","null","","","","","","","",""
"","","","","","html-button-response","11","86634","0.0-11.0","930ACF58B2CF458AAE10936D5CD0AC6E","019cef8f-24a9-741f-9170-24c1e948722c","019cef87-c56d-7b55-9135-c5814367ec25","","537","
                <div class=""stimulus-container"">
                    <img src=""images/instructions/movie_3.png"" class=""exp-image"">
                    <div class=""question-area"">
                        <p style=""font-size: 20px; font-weight: bold; margin: 0;"">Was there a person in this image?</p>
                    </div>
                </div>","0","example_question","3","","","","","",""
"","","","","","html-keyboard-response","12","90642","0.0-12.0","930ACF58B2CF458AAE10936D5CD0AC6E","019cef8f-24a9-741f-9170-24c1e948722c","019cef87-c56d-7b55-9135-c5814367ec25","","null","
                <div class=""stimulus-container"">
                    <img src=""images/instructions/movie_4.png"" class=""exp-image"">
                    <div class=""question-area""></div> 
                </div>","null","","","","","","","",""
"","","","","","html-button-response","13","92046","0.0-13.0","930ACF58B2CF458AAE10936D5CD0AC6E","019cef8f-24a9-741f-9170-24c1e948722c","019cef87-c56d-7b55-9135-c5814367ec25","","1404","
                <div class=""stimulus-container"">
                    <img src=""images/instructions/movie_4.png"" class=""exp-image"">
                    <div class=""question-area"">
                        <p style=""font-size: 20px; font-weight: bold; margin: 0;"">Was there a person in this image?</p>
                    </div>
                </div>","0","example_question","4","","","","","",""
"","","","","","instructions","14","96355","0.0-14.0","930ACF58B2CF458AAE10936D5CD0AC6E","019cef8f-24a9-741f-9170-24c1e948722c","019cef87-c56d-7b55-9135-c5814367ec25","[{""page_index"":0,""viewing_time"":4308}]","4308","","","","","","","","","",""
"","","","","","instructions","15","110994","0.0-15.0","930ACF58B2CF458AAE10936D5CD0AC6E","019cef8f-24a9-741f-9170-24c1e948722c","019cef87-c56d-7b55-9135-c5814367ec25","[{""page_index"":0,""viewing_time"":14639}]","14639","","","","","","","","","",""
"","","","","","html-keyboard-response","16","112001","0.0-16.0","930ACF58B2CF458AAE10936D5CD0AC6E","019cef8f-24a9-741f-9170-24c1e948722c","019cef87-c56d-7b55-9135-c5814367ec25","","null","<div style=""background-color: white; width: 100vw; height: 100vh;""></div>","null","","","","","","","",""
"","","","","","html-keyboard-response","17","117004","0.0-17.0","930ACF58B2CF458AAE10936D5CD0AC6E","019cef8f-24a9-741f-9170-24c1e948722c","019cef87-c56d-7b55-9135-c5814367ec25","","null","
                <div class=""stimulus-container"">
                    <img src=""images/schematic_sequence/dinner_party_scheme/dinner_party_scheme_1.png"" class=""exp-image"">
                    <div class=""question-area""></div> 
                </div>","null","","","","","","","",""
"","","","","","html-button-response","18","120710","0.0-18.0","930ACF58B2CF458AAE10936D5CD0AC6E","019cef8f-24a9-741f-9170-24c1e948722c","019cef87-c56d-7b55-9135-c5814367ec25","","null","
                <div class=""stimulus-container"">
                    <img src=""images/schematic_sequence/dinner_party_scheme/dinner_party_scheme_1.png"" class=""exp-image"">
                    <div class=""question-area"">
                        <p style=""font-size: 20px; font-weight: bold; margin: 0;"">Is there a person in this image?</p>
                    </div>
                </div>","null","main_experiment_trial","1","dinner_party_scheme","schematic_sequence","","","",""
"","","","","","html-keyboard-response","19","126696","0.0-19.0","930ACF58B2CF458AAE10936D5CD0AC6E","019cef8f-24a9-741f-9170-24c1e948722c","019cef87-c56d-7b55-9135-c5814367ec25","","null","
                <div class=""stimulus-container"">
                    <img src=""images/schematic_sequence/dinner_party_scheme/dinner_party_scheme_2.png"" class=""exp-image"">
                    <div class=""question-area""></div> 
                </div>","null","","","","","","","",""
"","","","","","html-button-response","20","129708","0.0-20.0","930ACF58B2CF458AAE10936D5CD0AC6E","019cef8f-24a9-741f-9170-24c1e948722c","019cef87-c56d-7b55-9135-c5814367ec25","","null","
                <div class=""stimulus-container"">
                    <img src=""images/schematic_sequence/dinner_party_scheme/dinner_party_scheme_2.png"" class=""exp-image"">
                    <div class=""question-area"">
                        <p style=""font-size: 20px; font-weight: bold; margin: 0;"">Is there a person in this image?</p>
                    </div>
                </div>","null","main_experiment_trial","2","dinner_party_scheme","schematic_sequence","","","",""
"","","","","","html-keyboard-response","21","134721","0.0-21.0","930ACF58B2CF458AAE10936D5CD0AC6E","019cef8f-24a9-741f-9170-24c1e948722c","019cef87-c56d-7b55-9135-c5814367ec25","","null","
                <div class=""stimulus-container"">
                    <img src=""images/schematic_sequence/dinner_party_scheme/dinner_party_scheme_3.png"" class=""exp-image"">
                    <div class=""question-area""></div> 
                </div>","null","","","","","","","",""
"","","","","","html-button-response","22","136301","0.0-22.0","930ACF58B2CF458AAE10936D5CD0AC6E","019cef8f-24a9-741f-9170-24c1e948722c","019cef87-c56d-7b55-9135-c5814367ec25","","1578","
                <div class=""stimulus-container"">
                    <img src=""images/schematic_sequence/dinner_party_scheme/dinner_party_scheme_3.png"" class=""exp-image"">
                    <div class=""question-area"">
                        <p style=""font-size: 20px; font-weight: bold; margin: 0;"">Is there a person in this image?</p>
                    </div>
                </div>","0","main_experiment_trial","3","dinner_party_scheme","schematic_sequence","","","",""
"","","","","","html-keyboard-response","23","141314","0.0-23.0","930ACF58B2CF458AAE10936D5CD0AC6E","019cef8f-24a9-741f-9170-24c1e948722c","019cef87-c56d-7b55-9135-c5814367ec25","","null","
                <div class=""stimulus-container"">
                    <img src=""images/schematic_sequence/dinner_party_scheme/dinner_party_scheme_4.png"" class=""exp-image"">
                    <div class=""question-area""></div> 
                </div>","null","","","","","","","",""
"","","","","","html-button-response","24","141956","0.0-24.0","930ACF58B2CF458AAE10936D5CD0AC6E","019cef8f-24a9-741f-9170-24c1e948722c","019cef87-c56d-7b55-9135-c5814367ec25","","641","
                <div class=""stimulus-container"">
                    <img src=""images/schematic_sequence/dinner_party_scheme/dinner_party_scheme_4.png"" class=""exp-image"">
                    <div class=""question-area"">
                        <p style=""font-size: 20px; font-weight: bold; margin: 0;"">Is there a person in this image?</p>
                    </div>
                </div>","0","main_experiment_trial","4","dinner_party_scheme","schematic_sequence","","","",""
"","","","","","html-keyboard-response","25","146962","0.0-25.0","930ACF58B2CF458AAE10936D5CD0AC6E","019cef8f-24a9-741f-9170-24c1e948722c","019cef87-c56d-7b55-9135-c5814367ec25","","null","
                <div class=""stimulus-container"">
                    <img src=""images/schematic_sequence/dinner_party_scheme/dinner_party_scheme_5.png"" class=""exp-image"">
                    <div class=""question-area""></div> 
                </div>","null","","","","","","","",""
"","","","","","html-button-response","26","147627","0.0-26.0","930ACF58B2CF458AAE10936D5CD0AC6E","019cef8f-24a9-741f-9170-24c1e948722c","019cef87-c56d-7b55-9135-c5814367ec25","","664","
                <div class=""stimulus-container"">
                    <img src=""images/schematic_sequence/dinner_party_scheme/dinner_party_scheme_5.png"" class=""exp-image"">
                    <div class=""question-area"">
                        <p style=""font-size: 20px; font-weight: bold; margin: 0;"">Is there a person in this image?</p>
                    </div>
                </div>","0","main_experiment_trial","5","dinner_party_scheme","schematic_sequence","","","",""
"","","","","","html-keyboard-response","27","152630","0.0-27.0","930ACF58B2CF458AAE10936D5CD0AC6E","019cef8f-24a9-741f-9170-24c1e948722c","019cef87-c56d-7b55-9135-c5814367ec25","","null","
                <div class=""stimulus-container"">
                    <img src=""images/schematic_sequence/dinner_party_scheme/dinner_party_scheme_6.png"" class=""exp-image"">
                    <div class=""question-area""></div> 
                </div>","null","","","","","","","",""
"","","","","","html-button-response","28","153259","0.0-28.0","930ACF58B2CF458AAE10936D5CD0AC6E","019cef8f-24a9-741f-9170-24c1e948722c","019cef87-c56d-7b55-9135-c5814367ec25","","629","
                <div class=""stimulus-container"">
                    <img src=""images/schematic_sequence/dinner_party_scheme/dinner_party_scheme_6.png"" class=""exp-image"">
                    <div class=""question-area"">
                        <p style=""font-size: 20px; font-weight: bold; margin: 0;"">Is there a person in this image?</p>
                    </div>
                </div>","0","main_experiment_trial","6","dinner_party_scheme","schematic_sequence","","","",""
"","","","","","html-keyboard-response","29","158262","0.0-29.0","930ACF58B2CF458AAE10936D5CD0AC6E","019cef8f-24a9-741f-9170-24c1e948722c","019cef87-c56d-7b55-9135-c5814367ec25","","null","
                <div class=""stimulus-container"">
                    <img src=""images/schematic_sequence/dinner_party_scheme/dinner_party_scheme_7.png"" class=""exp-image"">
                    <div class=""question-area""></div> 
                </div>","null","","","","","","","",""
"","","","","","html-button-response","30","158619","0.0-30.0","930ACF58B2CF458AAE10936D5CD0AC6E","019cef8f-24a9-741f-9170-24c1e948722c","019cef87-c56d-7b55-9135-c5814367ec25","","355","
                <div class=""stimulus-container"">
                    <img src=""images/schematic_sequence/dinner_party_scheme/dinner_party_scheme_7.png"" class=""exp-image"">
                    <div class=""question-area"">
                        <p style=""font-size: 20px; font-weight: bold; margin: 0;"">Is there a person in this image?</p>
                    </div>
                </div>","0","main_experiment_trial","7","dinner_party_scheme","schematic_sequence","","","",""
"","","","","","html-keyboard-response","31","163632","0.0-31.0","930ACF58B2CF458AAE10936D5CD0AC6E","019cef8f-24a9-741f-9170-24c1e948722c","019cef87-c56d-7b55-9135-c5814367ec25","","null","
                <div class=""stimulus-container"">
                    <img src=""images/schematic_sequence/dinner_party_scheme/dinner_party_scheme_8.png"" class=""exp-image"">
                    <div class=""question-area""></div> 
                </div>","null","","","","","","","",""
"","","","","","html-button-response","32","163965","0.0-32.0","930ACF58B2CF458AAE10936D5CD0AC6E","019cef8f-24a9-741f-9170-24c1e948722c","019cef87-c56d-7b55-9135-c5814367ec25","","331","
                <div class=""stimulus-container"">
                    <img src=""images/schematic_sequence/dinner_party_scheme/dinner_party_scheme_8.png"" class=""exp-image"">
                    <div class=""question-area"">
                        <p style=""font-size: 20px; font-weight: bold; margin: 0;"">Is there a person in this image?</p>
                    </div>
                </div>","0","main_experiment_trial","8","dinner_party_scheme","schematic_sequence","","","",""
"","","","","","html-keyboard-response","33","168971","0.0-33.0","930ACF58B2CF458AAE10936D5CD0AC6E","019cef8f-24a9-741f-9170-24c1e948722c","019cef87-c56d-7b55-9135-c5814367ec25","","null","
                <div class=""stimulus-container"">
                    <img src=""images/schematic_sequence/dinner_party_scheme/dinner_party_scheme_9.png"" class=""exp-image"">
                    <div class=""question-area""></div> 
                </div>","null","","","","","","","",""
"","","","","","html-button-response","34","169302","0.0-34.0","930ACF58B2CF458AAE10936D5CD0AC6E","019cef8f-24a9-741f-9170-24c1e948722c","019cef87-c56d-7b55-9135-c5814367ec25","","330","
                <div class=""stimulus-container"">
                    <img src=""images/schematic_sequence/dinner_party_scheme/dinner_party_scheme_9.png"" class=""exp-image"">
                    <div class=""question-area"">
                        <p style=""font-size: 20px; font-weight: bold; margin: 0;"">Is there a person in this image?</p>
                    </div>
                </div>","0","main_experiment_trial","9","dinner_party_scheme","schematic_sequence","","","",""
"","","","","","html-keyboard-response","35","174316","0.0-35.0","930ACF58B2CF458AAE10936D5CD0AC6E","019cef8f-24a9-741f-9170-24c1e948722c","019cef87-c56d-7b55-9135-c5814367ec25","","null","
                <div class=""stimulus-container"">
                    <img src=""images/schematic_sequence/dinner_party_scheme/dinner_party_scheme_ten.png"" class=""exp-image"">
                    <div class=""question-area""></div> 
                </div>","null","","","","","","","",""
"","","","","","html-button-response","36","174633","0.0-36.0","930ACF58B2CF458AAE10936D5CD0AC6E","019cef8f-24a9-741f-9170-24c1e948722c","019cef87-c56d-7b55-9135-c5814367ec25","","315","
                <div class=""stimulus-container"">
                    <img src=""images/schematic_sequence/dinner_party_scheme/dinner_party_scheme_ten.png"" class=""exp-image"">
                    <div class=""question-area"">
                        <p style=""font-size: 20px; font-weight: bold; margin: 0;"">Is there a person in this image?</p>
                    </div>
                </div>","0","main_experiment_trial","ten","dinner_party_scheme","schematic_sequence","","","",""
"","","","","","html-keyboard-response","37","175635","0.0-37.0","930ACF58B2CF458AAE10936D5CD0AC6E","019cef8f-24a9-741f-9170-24c1e948722c","019cef87-c56d-7b55-9135-c5814367ec25","","null","<div style=""background-color: white; width: 100vw; height: 100vh;""></div>","null","","","","","","","",""
"","","","","","html-keyboard-response","38","180642","0.0-38.0","930ACF58B2CF458AAE10936D5CD0AC6E","019cef8f-24a9-741f-9170-24c1e948722c","019cef87-c56d-7b55-9135-c5814367ec25","","null","
                <div class=""stimulus-container"">
                    <img src=""images/schematic_sequence/flight_scheme/flight_scheme_1.png"" class=""exp-image"">
                    <div class=""question-area""></div> 
                </div>","null","","","","","","","",""
"","","","","","html-button-response","39","181080","0.0-39.0","930ACF58B2CF458AAE10936D5CD0AC6E","019cef8f-24a9-741f-9170-24c1e948722c","019cef87-c56d-7b55-9135-c5814367ec25","","437","
                <div class=""stimulus-container"">
                    <img src=""images/schematic_sequence/flight_scheme/flight_scheme_1.png"" class=""exp-image"">
                    <div class=""question-area"">
                        <p style=""font-size: 20px; font-weight: bold; margin: 0;"">Is there a person in this image?</p>
                    </div>
                </div>","0","main_experiment_trial","1","flight_scheme","schematic_sequence","","","",""
"","","","","","html-keyboard-response","40","186094","0.0-40.0","930ACF58B2CF458AAE10936D5CD0AC6E","019cef8f-24a9-741f-9170-24c1e948722c","019cef87-c56d-7b55-9135-c5814367ec25","","null","
                <div class=""stimulus-container"">
                    <img src=""images/schematic_sequence/flight_scheme/flight_scheme_2.png"" class=""exp-image"">
                    <div class=""question-area""></div> 
                </div>","null","","","","","","","",""
"","","","","","html-button-response","41","186649","0.0-41.0","930ACF58B2CF458AAE10936D5CD0AC6E","019cef8f-24a9-741f-9170-24c1e948722c","019cef87-c56d-7b55-9135-c5814367ec25","","554","
                <div class=""stimulus-container"">
                    <img src=""images/schematic_sequence/flight_scheme/flight_scheme_2.png"" class=""exp-image"">
                    <div class=""question-area"">
                        <p style=""font-size: 20px; font-weight: bold; margin: 0;"">Is there a person in this image?</p>
                    </div>
                </div>","1","main_experiment_trial","2","flight_scheme","schematic_sequence","","","",""
"","","","","","html-keyboard-response","42","191665","0.0-42.0","930ACF58B2CF458AAE10936D5CD0AC6E","019cef8f-24a9-741f-9170-24c1e948722c","019cef87-c56d-7b55-9135-c5814367ec25","","null","
                <div class=""stimulus-container"">
                    <img src=""images/schematic_sequence/flight_scheme/flight_scheme_3.png"" class=""exp-image"">
                    <div class=""question-area""></div> 
                </div>","null","","","","","","","",""
"","","","","","html-button-response","43","192265","0.0-43.0","930ACF58B2CF458AAE10936D5CD0AC6E","019cef8f-24a9-741f-9170-24c1e948722c","019cef87-c56d-7b55-9135-c5814367ec25","","599","
                <div class=""stimulus-container"">
                    <img src=""images/schematic_sequence/flight_scheme/flight_scheme_3.png"" class=""exp-image"">
                    <div class=""question-area"">
                        <p style=""font-size: 20px; font-weight: bold; margin: 0;"">Is there a person in this image?</p>
                    </div>
                </div>","0","main_experiment_trial","3","flight_scheme","schematic_sequence","","","",""
"","","","","","html-keyboard-response","44","197273","0.0-44.0","930ACF58B2CF458AAE10936D5CD0AC6E","019cef8f-24a9-741f-9170-24c1e948722c","019cef87-c56d-7b55-9135-c5814367ec25","","null","
                <div class=""stimulus-container"">
                    <img src=""images/schematic_sequence/flight_scheme/flight_scheme_4.png"" class=""exp-image"">
                    <div class=""question-area""></div> 
                </div>","null","","","","","","","",""
"","","","","","html-button-response","45","197781","0.0-45.0","930ACF58B2CF458AAE10936D5CD0AC6E","019cef8f-24a9-741f-9170-24c1e948722c","019cef87-c56d-7b55-9135-c5814367ec25","","506","
                <div class=""stimulus-container"">
                    <img src=""images/schematic_sequence/flight_scheme/flight_scheme_4.png"" class=""exp-image"">
                    <div class=""question-area"">
                        <p style=""font-size: 20px; font-weight: bold; margin: 0;"">Is there a person in this image?</p>
                    </div>
                </div>","0","main_experiment_trial","4","flight_scheme","schematic_sequence","","","",""
"","","","","","html-keyboard-response","46","202787","0.0-46.0","930ACF58B2CF458AAE10936D5CD0AC6E","019cef8f-24a9-741f-9170-24c1e948722c","019cef87-c56d-7b55-9135-c5814367ec25","","null","
                <div class=""stimulus-container"">
                    <img src=""images/schematic_sequence/flight_scheme/flight_scheme_5.png"" class=""exp-image"">
                    <div class=""question-area""></div> 
                </div>","null","","","","","","","",""
"","","","","","html-button-response","47","203140","0.0-47.0","930ACF58B2CF458AAE10936D5CD0AC6E","019cef8f-24a9-741f-9170-24c1e948722c","019cef87-c56d-7b55-9135-c5814367ec25","","352","
                <div class=""stimulus-container"">
                    <img src=""images/schematic_sequence/flight_scheme/flight_scheme_5.png"" class=""exp-image"">
                    <div class=""question-area"">
                        <p style=""font-size: 20px; font-weight: bold; margin: 0;"">Is there a person in this image?</p>
                    </div>
                </div>","0","main_experiment_trial","5","flight_scheme","schematic_sequence","","","",""
"","","","","","html-keyboard-response","48","208145","0.0-48.0","930ACF58B2CF458AAE10936D5CD0AC6E","019cef8f-24a9-741f-9170-24c1e948722c","019cef87-c56d-7b55-9135-c5814367ec25","","null","
                <div class=""stimulus-container"">
                    <img src=""images/schematic_sequence/flight_scheme/flight_scheme_6.png"" class=""exp-image"">
                    <div class=""question-area""></div> 
                </div>","null","","","","","","","",""
"","","","","","html-button-response","49","208495","0.0-49.0","930ACF58B2CF458AAE10936D5CD0AC6E","019cef8f-24a9-741f-9170-24c1e948722c","019cef87-c56d-7b55-9135-c5814367ec25","","348","
                <div class=""stimulus-container"">
                    <img src=""images/schematic_sequence/flight_scheme/flight_scheme_6.png"" class=""exp-image"">
                    <div class=""question-area"">
                        <p style=""font-size: 20px; font-weight: bold; margin: 0;"">Is there a person in this image?</p>
                    </div>
                </div>","1","main_experiment_trial","6","flight_scheme","schematic_sequence","","","",""
"","","","","","html-keyboard-response","50","213501","0.0-50.0","930ACF58B2CF458AAE10936D5CD0AC6E","019cef8f-24a9-741f-9170-24c1e948722c","019cef87-c56d-7b55-9135-c5814367ec25","","null","
                <div class=""stimulus-container"">
                    <img src=""images/schematic_sequence/flight_scheme/flight_scheme_7.png"" class=""exp-image"">
                    <div class=""question-area""></div> 
                </div>","null","","","","","","","",""
"","","","","","html-button-response","51","214024","0.0-51.0","930ACF58B2CF458AAE10936D5CD0AC6E","019cef8f-24a9-741f-9170-24c1e948722c","019cef87-c56d-7b55-9135-c5814367ec25","","522","
                <div class=""stimulus-container"">
                    <img src=""images/schematic_sequence/flight_scheme/flight_scheme_7.png"" class=""exp-image"">
                    <div class=""question-area"">
                        <p style=""font-size: 20px; font-weight: bold; margin: 0;"">Is there a person in this image?</p>
                    </div>
                </div>","0","main_experiment_trial","7","flight_scheme","schematic_sequence","","","",""
"","","","","","html-keyboard-response","52","219031","0.0-52.0","930ACF58B2CF458AAE10936D5CD0AC6E","019cef8f-24a9-741f-9170-24c1e948722c","019cef87-c56d-7b55-9135-c5814367ec25","","null","
                <div class=""stimulus-container"">
                    <img src=""images/schematic_sequence/flight_scheme/flight_scheme_8.png"" class=""exp-image"">
                    <div class=""question-area""></div> 
                </div>","null","","","","","","","",""
"","","","","","html-button-response","53","221075","0.0-53.0","930ACF58B2CF458AAE10936D5CD0AC6E","019cef8f-24a9-741f-9170-24c1e948722c","019cef87-c56d-7b55-9135-c5814367ec25","","2042","
                <div class=""stimulus-container"">
                    <img src=""images/schematic_sequence/flight_scheme/flight_scheme_8.png"" class=""exp-image"">
                    <div class=""question-area"">
                        <p style=""font-size: 20px; font-weight: bold; margin: 0;"">Is there a person in this image?</p>
                    </div>
                </div>","0","main_experiment_trial","8","flight_scheme","schematic_sequence","","","",""
"","","","","","html-keyboard-response","54","226082","0.0-54.0","930ACF58B2CF458AAE10936D5CD0AC6E","019cef8f-24a9-741f-9170-24c1e948722c","019cef87-c56d-7b55-9135-c5814367ec25","","null","
                <div class=""stimulus-container"">
                    <img src=""images/schematic_sequence/flight_scheme/flight_scheme_9.png"" class=""exp-image"">
                    <div class=""question-area""></div> 
                </div>","null","","","","","","","",""
"","","","","","html-button-response","55","226472","0.0-55.0","930ACF58B2CF458AAE10936D5CD0AC6E","019cef8f-24a9-741f-9170-24c1e948722c","019cef87-c56d-7b55-9135-c5814367ec25","","389","
                <div class=""stimulus-container"">
                    <img src=""images/schematic_sequence/flight_scheme/flight_scheme_9.png"" class=""exp-image"">
                    <div class=""question-area"">
                        <p style=""font-size: 20px; font-weight: bold; margin: 0;"">Is there a person in this image?</p>
                    </div>
                </div>","0","main_experiment_trial","9","flight_scheme","schematic_sequence","","","",""
"","","","","","html-keyboard-response","56","231486","0.0-56.0","930ACF58B2CF458AAE10936D5CD0AC6E","019cef8f-24a9-741f-9170-24c1e948722c","019cef87-c56d-7b55-9135-c5814367ec25","","null","
                <div class=""stimulus-container"">
                    <img src=""images/schematic_sequence/flight_scheme/flight_scheme_ten.png"" class=""exp-image"">
                    <div class=""question-area""></div> 
                </div>","null","","","","","","","",""
"","","","","","html-button-response","57","232014","0.0-57.0","930ACF58B2CF458AAE10936D5CD0AC6E","019cef8f-24a9-741f-9170-24c1e948722c","019cef87-c56d-7b55-9135-c5814367ec25","","527","
                <div class=""stimulus-container"">
                    <img src=""images/schematic_sequence/flight_scheme/flight_scheme_ten.png"" class=""exp-image"">
                    <div class=""question-area"">
                        <p style=""font-size: 20px; font-weight: bold; margin: 0;"">Is there a person in this image?</p>
                    </div>
                </div>","0","main_experiment_trial","ten","flight_scheme","schematic_sequence","","","",""
"","","","","","html-keyboard-response","58","233018","0.0-58.0","930ACF58B2CF458AAE10936D5CD0AC6E","019cef8f-24a9-741f-9170-24c1e948722c","019cef87-c56d-7b55-9135-c5814367ec25","","null","<div style=""background-color: white; width: 100vw; height: 100vh;""></div>","null","","","","","","","",""
"","","","","","html-keyboard-response","59","238035","0.0-59.0","930ACF58B2CF458AAE10936D5CD0AC6E","019cef8f-24a9-741f-9170-24c1e948722c","019cef87-c56d-7b55-9135-c5814367ec25","","null","
                <div class=""stimulus-container"">
                    <img src=""images/causal_sequence/coin_causal/coin_causal_1.png"" class=""exp-image"">
                    <div class=""question-area""></div> 
                </div>","null","","","","","","","",""
"","","","","","html-button-response","60","238805","0.0-60.0","930ACF58B2CF458AAE10936D5CD0AC6E","019cef8f-24a9-741f-9170-24c1e948722c","019cef87-c56d-7b55-9135-c5814367ec25","","769","
                <div class=""stimulus-container"">
                    <img src=""images/causal_sequence/coin_causal/coin_causal_1.png"" class=""exp-image"">
                    <div class=""question-area"">
                        <p style=""font-size: 20px; font-weight: bold; margin: 0;"">Is there a person in this image?</p>
                    </div>
                </div>","0","main_experiment_trial","1","coin_causal","causal_sequence","","","",""
"","","","","","html-keyboard-response","61","243815","0.0-61.0","930ACF58B2CF458AAE10936D5CD0AC6E","019cef8f-24a9-741f-9170-24c1e948722c","019cef87-c56d-7b55-9135-c5814367ec25","","null","
                <div class=""stimulus-container"">
                    <img src=""images/causal_sequence/coin_causal/coin_causal_2.png"" class=""exp-image"">
                    <div class=""question-area""></div> 
                </div>","null","","","","","","","",""
"","","","","","html-button-response","62","244198","0.0-62.0","930ACF58B2CF458AAE10936D5CD0AC6E","019cef8f-24a9-741f-9170-24c1e948722c","019cef87-c56d-7b55-9135-c5814367ec25","","381","
                <div class=""stimulus-container"">
                    <img src=""images/causal_sequence/coin_causal/coin_causal_2.png"" class=""exp-image"">
                    <div class=""question-area"">
                        <p style=""font-size: 20px; font-weight: bold; margin: 0;"">Is there a person in this image?</p>
                    </div>
                </div>","0","main_experiment_trial","2","coin_causal","causal_sequence","","","",""
"","","","","","html-keyboard-response","63","249208","0.0-63.0","930ACF58B2CF458AAE10936D5CD0AC6E","019cef8f-24a9-741f-9170-24c1e948722c","019cef87-c56d-7b55-9135-c5814367ec25","","null","
                <div class=""stimulus-container"">
                    <img src=""images/causal_sequence/coin_causal/coin_causal_3.png"" class=""exp-image"">
                    <div class=""question-area""></div> 
                </div>","null","","","","","","","",""
"","","","","","html-button-response","64","251255","0.0-64.0","930ACF58B2CF458AAE10936D5CD0AC6E","019cef8f-24a9-741f-9170-24c1e948722c","019cef87-c56d-7b55-9135-c5814367ec25","","2046","
                <div class=""stimulus-container"">
                    <img src=""images/causal_sequence/coin_causal/coin_causal_3.png"" class=""exp-image"">
                    <div class=""question-area"">
                        <p style=""font-size: 20px; font-weight: bold; margin: 0;"">Is there a person in this image?</p>
                    </div>
                </div>","0","main_experiment_trial","3","coin_causal","causal_sequence","","","",""
"","","","","","html-keyboard-response","65","256271","0.0-65.0","930ACF58B2CF458AAE10936D5CD0AC6E","019cef8f-24a9-741f-9170-24c1e948722c","019cef87-c56d-7b55-9135-c5814367ec25","","null","
                <div class=""stimulus-container"">
                    <img src=""images/causal_sequence/coin_causal/coin_causal_4.png"" class=""exp-image"">
                    <div class=""question-area""></div> 
                </div>","null","","","","","","","",""
"","","","","","html-button-response","66","259277","0.0-66.0","930ACF58B2CF458AAE10936D5CD0AC6E","019cef8f-24a9-741f-9170-24c1e948722c","019cef87-c56d-7b55-9135-c5814367ec25","","null","
                <div class=""stimulus-container"">
                    <img src=""images/causal_sequence/coin_causal/coin_causal_4.png"" class=""exp-image"">
                    <div class=""question-area"">
                        <p style=""font-size: 20px; font-weight: bold; margin: 0;"">Is there a person in this image?</p>
                    </div>
                </div>","null","main_experiment_trial","4","coin_causal","causal_sequence","","","",""
"","","","","","html-keyboard-response","67","264285","0.0-67.0","930ACF58B2CF458AAE10936D5CD0AC6E","019cef8f-24a9-741f-9170-24c1e948722c","019cef87-c56d-7b55-9135-c5814367ec25","","null","
                <div class=""stimulus-container"">
                    <img src=""images/causal_sequence/coin_causal/coin_causal_5.png"" class=""exp-image"">
                    <div class=""question-area""></div> 
                </div>","null","","","","","","","",""
"","","","","","html-button-response","68","266524","0.0-68.0","930ACF58B2CF458AAE10936D5CD0AC6E","019cef8f-24a9-741f-9170-24c1e948722c","019cef87-c56d-7b55-9135-c5814367ec25","","2238","
                <div class=""stimulus-container"">
                    <img src=""images/causal_sequence/coin_causal/coin_causal_5.png"" class=""exp-image"">
                    <div class=""question-area"">
                        <p style=""font-size: 20px; font-weight: bold; margin: 0;"">Is there a person in this image?</p>
                    </div>
                </div>","0","main_experiment_trial","5","coin_causal","causal_sequence","","","",""
"","","","","","html-keyboard-response","69","271533","0.0-69.0","930ACF58B2CF458AAE10936D5CD0AC6E","019cef8f-24a9-741f-9170-24c1e948722c","019cef87-c56d-7b55-9135-c5814367ec25","","null","
                <div class=""stimulus-container"">
                    <img src=""images/causal_sequence/coin_causal/coin_causal_6.png"" class=""exp-image"">
                    <div class=""question-area""></div> 
                </div>","null","","","","","","","",""
"","","","","","html-button-response","70","272009","0.0-70.0","930ACF58B2CF458AAE10936D5CD0AC6E","019cef8f-24a9-741f-9170-24c1e948722c","019cef87-c56d-7b55-9135-c5814367ec25","","474","
                <div class=""stimulus-container"">
                    <img src=""images/causal_sequence/coin_causal/coin_causal_6.png"" class=""exp-image"">
                    <div class=""question-area"">
                        <p style=""font-size: 20px; font-weight: bold; margin: 0;"">Is there a person in this image?</p>
                    </div>
                </div>","0","main_experiment_trial","6","coin_causal","causal_sequence","","","",""
"","","","","","html-keyboard-response","71","277015","0.0-71.0","930ACF58B2CF458AAE10936D5CD0AC6E","019cef8f-24a9-741f-9170-24c1e948722c","019cef87-c56d-7b55-9135-c5814367ec25","","null","
                <div class=""stimulus-container"">
                    <img src=""images/causal_sequence/coin_causal/coin_causal_7.png"" class=""exp-image"">
                    <div class=""question-area""></div> 
                </div>","null","","","","","","","",""
"","","","","","html-button-response","72","278574","0.0-72.0","930ACF58B2CF458AAE10936D5CD0AC6E","019cef8f-24a9-741f-9170-24c1e948722c","019cef87-c56d-7b55-9135-c5814367ec25","","1553","
                <div class=""stimulus-container"">
                    <img src=""images/causal_sequence/coin_causal/coin_causal_7.png"" class=""exp-image"">
                    <div class=""question-area"">
                        <p style=""font-size: 20px; font-weight: bold; margin: 0;"">Is there a person in this image?</p>
                    </div>
                </div>","0","main_experiment_trial","7","coin_causal","causal_sequence","","","",""
"","","","","","html-keyboard-response","73","283590","0.0-73.0","930ACF58B2CF458AAE10936D5CD0AC6E","019cef8f-24a9-741f-9170-24c1e948722c","019cef87-c56d-7b55-9135-c5814367ec25","","null","
                <div class=""stimulus-container"">
                    <img src=""images/causal_sequence/coin_causal/coin_causal_8.png"" class=""exp-image"">
                    <div class=""question-area""></div> 
                </div>","null","","","","","","","",""
"","","","","","html-button-response","74","284022","0.0-74.0","930ACF58B2CF458AAE10936D5CD0AC6E","019cef8f-24a9-741f-9170-24c1e948722c","019cef87-c56d-7b55-9135-c5814367ec25","","431","
                <div class=""stimulus-container"">
                    <img src=""images/causal_sequence/coin_causal/coin_causal_8.png"" class=""exp-image"">
                    <div class=""question-area"">
                        <p style=""font-size: 20px; font-weight: bold; margin: 0;"">Is there a person in this image?</p>
                    </div>
                </div>","0","main_experiment_trial","8","coin_causal","causal_sequence","","","",""
"","","","","","html-keyboard-response","75","289029","0.0-75.0","930ACF58B2CF458AAE10936D5CD0AC6E","019cef8f-24a9-741f-9170-24c1e948722c","019cef87-c56d-7b55-9135-c5814367ec25","","null","
                <div class=""stimulus-container"">
                    <img src=""images/causal_sequence/coin_causal/coin_causal_9.png"" class=""exp-image"">
                    <div class=""question-area""></div> 
                </div>","null","","","","","","","",""
"","","","","","html-button-response","76","292038","0.0-76.0","930ACF58B2CF458AAE10936D5CD0AC6E","019cef8f-24a9-741f-9170-24c1e948722c","019cef87-c56d-7b55-9135-c5814367ec25","","null","
                <div class=""stimulus-container"">
                    <img src=""images/causal_sequence/coin_causal/coin_causal_9.png"" class=""exp-image"">
                    <div class=""question-area"">
                        <p style=""font-size: 20px; font-weight: bold; margin: 0;"">Is there a person in this image?</p>
                    </div>
                </div>","null","main_experiment_trial","9","coin_causal","causal_sequence","","","",""
"","","","","","html-keyboard-response","77","297044","0.0-77.0","930ACF58B2CF458AAE10936D5CD0AC6E","019cef8f-24a9-741f-9170-24c1e948722c","019cef87-c56d-7b55-9135-c5814367ec25","","null","
                <div class=""stimulus-container"">
                    <img src=""images/causal_sequence/coin_causal/coin_causal_ten.png"" class=""exp-image"">
                    <div class=""question-area""></div> 
                </div>","null","","","","","","","",""
"","","","","","html-button-response","78","298301","0.0-78.0","930ACF58B2CF458AAE10936D5CD0AC6E","019cef8f-24a9-741f-9170-24c1e948722c","019cef87-c56d-7b55-9135-c5814367ec25","","1255","
                <div class=""stimulus-container"">
                    <img src=""images/causal_sequence/coin_causal/coin_causal_ten.png"" class=""exp-image"">
                    <div class=""question-area"">
                        <p style=""font-size: 20px; font-weight: bold; margin: 0;"">Is there a person in this image?</p>
                    </div>
                </div>","0","main_experiment_trial","ten","coin_causal","causal_sequence","","","",""
"","","","","","html-keyboard-response","79","299305","0.0-79.0","930ACF58B2CF458AAE10936D5CD0AC6E","019cef8f-24a9-741f-9170-24c1e948722c","019cef87-c56d-7b55-9135-c5814367ec25","","null","<div style=""background-color: white; width: 100vw; height: 100vh;""></div>","null","","","","","","","",""
"","","","","","html-keyboard-response","80","304307","0.0-80.0","930ACF58B2CF458AAE10936D5CD0AC6E","019cef8f-24a9-741f-9170-24c1e948722c","019cef87-c56d-7b55-9135-c5814367ec25","","null","
                <div class=""stimulus-container"">
                    <img src=""images/causal_sequence/saving_a_cat_causal/saving_a_cat_causal_1.png"" class=""exp-image"">
                    <div class=""question-area""></div> 
                </div>","null","","","","","","","",""
"","","","","","html-button-response","81","305442","0.0-81.0","930ACF58B2CF458AAE10936D5CD0AC6E","019cef8f-24a9-741f-9170-24c1e948722c","019cef87-c56d-7b55-9135-c5814367ec25","","1134","
                <div class=""stimulus-container"">
                    <img src=""images/causal_sequence/saving_a_cat_causal/saving_a_cat_causal_1.png"" class=""exp-image"">
                    <div class=""question-area"">
                        <p style=""font-size: 20px; font-weight: bold; margin: 0;"">Is there a person in this image?</p>
                    </div>
                </div>","0","main_experiment_trial","1","saving_a_cat_causal","causal_sequence","","","",""
"","","","","","html-keyboard-response","82","310444","0.0-82.0","930ACF58B2CF458AAE10936D5CD0AC6E","019cef8f-24a9-741f-9170-24c1e948722c","019cef87-c56d-7b55-9135-c5814367ec25","","null","
                <div class=""stimulus-container"">
                    <img src=""images/causal_sequence/saving_a_cat_causal/saving_a_cat_causal_2.png"" class=""exp-image"">
                    <div class=""question-area""></div> 
                </div>","null","","","","","","","",""
"","","","","","html-button-response","83","311786","0.0-83.0","930ACF58B2CF458AAE10936D5CD0AC6E","019cef8f-24a9-741f-9170-24c1e948722c","019cef87-c56d-7b55-9135-c5814367ec25","","1340","
                <div class=""stimulus-container"">
                    <img src=""images/causal_sequence/saving_a_cat_causal/saving_a_cat_causal_2.png"" class=""exp-image"">
                    <div class=""question-area"">
                        <p style=""font-size: 20px; font-weight: bold; margin: 0;"">Is there a person in this image?</p>
                    </div>
                </div>","1","main_experiment_trial","2","saving_a_cat_causal","causal_sequence","","","",""
"","","","","","html-keyboard-response","84","316787","0.0-84.0","930ACF58B2CF458AAE10936D5CD0AC6E","019cef8f-24a9-741f-9170-24c1e948722c","019cef87-c56d-7b55-9135-c5814367ec25","","null","
                <div class=""stimulus-container"">
                    <img src=""images/causal_sequence/saving_a_cat_causal/saving_a_cat_causal_3.png"" class=""exp-image"">
                    <div class=""question-area""></div> 
                </div>","null","","","","","","","",""
"","","","","","html-button-response","85","317782","0.0-85.0","930ACF58B2CF458AAE10936D5CD0AC6E","019cef8f-24a9-741f-9170-24c1e948722c","019cef87-c56d-7b55-9135-c5814367ec25","","993","
                <div class=""stimulus-container"">
                    <img src=""images/causal_sequence/saving_a_cat_causal/saving_a_cat_causal_3.png"" class=""exp-image"">
                    <div class=""question-area"">
                        <p style=""font-size: 20px; font-weight: bold; margin: 0;"">Is there a person in this image?</p>
                    </div>
                </div>","1","main_experiment_trial","3","saving_a_cat_causal","causal_sequence","","","",""
"","","","","","html-keyboard-response","86","323045","0.0-86.0","930ACF58B2CF458AAE10936D5CD0AC6E","019cef8f-24a9-741f-9170-24c1e948722c","019cef87-c56d-7b55-9135-c5814367ec25","","null","
                <div class=""stimulus-container"">
                    <img src=""images/causal_sequence/saving_a_cat_causal/saving_a_cat_causal_4.png"" class=""exp-image"">
                    <div class=""question-area""></div> 
                </div>","null","","","","","","","",""
"","","","","","html-button-response","87","324142","0.0-87.0","930ACF58B2CF458AAE10936D5CD0AC6E","019cef8f-24a9-741f-9170-24c1e948722c","019cef87-c56d-7b55-9135-c5814367ec25","","1096","
                <div class=""stimulus-container"">
                    <img src=""images/causal_sequence/saving_a_cat_causal/saving_a_cat_causal_4.png"" class=""exp-image"">
                    <div class=""question-area"">
                        <p style=""font-size: 20px; font-weight: bold; margin: 0;"">Is there a person in this image?</p>
                    </div>
                </div>","0","main_experiment_trial","4","saving_a_cat_causal","causal_sequence","","","",""
"","","","","","html-keyboard-response","88","329145","0.0-88.0","930ACF58B2CF458AAE10936D5CD0AC6E","019cef8f-24a9-741f-9170-24c1e948722c","019cef87-c56d-7b55-9135-c5814367ec25","","null","
                <div class=""stimulus-container"">
                    <img src=""images/causal_sequence/saving_a_cat_causal/saving_a_cat_causal_5.png"" class=""exp-image"">
                    <div class=""question-area""></div> 
                </div>","null","","","","","","","",""
"","","","","","html-button-response","89","329663","0.0-89.0","930ACF58B2CF458AAE10936D5CD0AC6E","019cef8f-24a9-741f-9170-24c1e948722c","019cef87-c56d-7b55-9135-c5814367ec25","","516","
                <div class=""stimulus-container"">
                    <img src=""images/causal_sequence/saving_a_cat_causal/saving_a_cat_causal_5.png"" class=""exp-image"">
                    <div class=""question-area"">
                        <p style=""font-size: 20px; font-weight: bold; margin: 0;"">Is there a person in this image?</p>
                    </div>
                </div>","0","main_experiment_trial","5","saving_a_cat_causal","causal_sequence","","","",""
"","","","","","html-keyboard-response","90","334674","0.0-90.0","930ACF58B2CF458AAE10936D5CD0AC6E","019cef8f-24a9-741f-9170-24c1e948722c","019cef87-c56d-7b55-9135-c5814367ec25","","null","
                <div class=""stimulus-container"">
                    <img src=""images/causal_sequence/saving_a_cat_causal/saving_a_cat_causal_6.png"" class=""exp-image"">
                    <div class=""question-area""></div> 
                </div>","null","","","","","","","",""
"","","","","","html-button-response","91","335120","0.0-91.0","930ACF58B2CF458AAE10936D5CD0AC6E","019cef8f-24a9-741f-9170-24c1e948722c","019cef87-c56d-7b55-9135-c5814367ec25","","444","
                <div class=""stimulus-container"">
                    <img src=""images/causal_sequence/saving_a_cat_causal/saving_a_cat_causal_6.png"" class=""exp-image"">
                    <div class=""question-area"">
                        <p style=""font-size: 20px; font-weight: bold; margin: 0;"">Is there a person in this image?</p>
                    </div>
                </div>","0","main_experiment_trial","6","saving_a_cat_causal","causal_sequence","","","",""
"","","","","","html-keyboard-response","92","340129","0.0-92.0","930ACF58B2CF458AAE10936D5CD0AC6E","019cef8f-24a9-741f-9170-24c1e948722c","019cef87-c56d-7b55-9135-c5814367ec25","","null","
                <div class=""stimulus-container"">
                    <img src=""images/causal_sequence/saving_a_cat_causal/saving_a_cat_causal_7.png"" class=""exp-image"">
                    <div class=""question-area""></div> 
                </div>","null","","","","","","","",""
"","","","","","html-button-response","93","340574","0.0-93.0","930ACF58B2CF458AAE10936D5CD0AC6E","019cef8f-24a9-741f-9170-24c1e948722c","019cef87-c56d-7b55-9135-c5814367ec25","","444","
                <div class=""stimulus-container"">
                    <img src=""images/causal_sequence/saving_a_cat_causal/saving_a_cat_causal_7.png"" class=""exp-image"">
                    <div class=""question-area"">
                        <p style=""font-size: 20px; font-weight: bold; margin: 0;"">Is there a person in this image?</p>
                    </div>
                </div>","0","main_experiment_trial","7","saving_a_cat_causal","causal_sequence","","","",""
"","","","","","html-keyboard-response","94","345576","0.0-94.0","930ACF58B2CF458AAE10936D5CD0AC6E","019cef8f-24a9-741f-9170-24c1e948722c","019cef87-c56d-7b55-9135-c5814367ec25","","null","
                <div class=""stimulus-container"">
                    <img src=""images/causal_sequence/saving_a_cat_causal/saving_a_cat_causal_8.png"" class=""exp-image"">
                    <div class=""question-area""></div> 
                </div>","null","","","","","","","",""
"","","","","","html-button-response","95","345942","0.0-95.0","930ACF58B2CF458AAE10936D5CD0AC6E","019cef8f-24a9-741f-9170-24c1e948722c","019cef87-c56d-7b55-9135-c5814367ec25","","364","
                <div class=""stimulus-container"">
                    <img src=""images/causal_sequence/saving_a_cat_causal/saving_a_cat_causal_8.png"" class=""exp-image"">
                    <div class=""question-area"">
                        <p style=""font-size: 20px; font-weight: bold; margin: 0;"">Is there a person in this image?</p>
                    </div>
                </div>","0","main_experiment_trial","8","saving_a_cat_causal","causal_sequence","","","",""
"","","","","","html-keyboard-response","96","350957","0.0-96.0","930ACF58B2CF458AAE10936D5CD0AC6E","019cef8f-24a9-741f-9170-24c1e948722c","019cef87-c56d-7b55-9135-c5814367ec25","","null","
                <div class=""stimulus-container"">
                    <img src=""images/causal_sequence/saving_a_cat_causal/saving_a_cat_causal_9.png"" class=""exp-image"">
                    <div class=""question-area""></div> 
                </div>","null","","","","","","","",""
"","","","","","html-button-response","97","351342","0.0-97.0","930ACF58B2CF458AAE10936D5CD0AC6E","019cef8f-24a9-741f-9170-24c1e948722c","019cef87-c56d-7b55-9135-c5814367ec25","","383","
                <div class=""stimulus-container"">
                    <img src=""images/causal_sequence/saving_a_cat_causal/saving_a_cat_causal_9.png"" class=""exp-image"">
                    <div class=""question-area"">
                        <p style=""font-size: 20px; font-weight: bold; margin: 0;"">Is there a person in this image?</p>
                    </div>
                </div>","0","main_experiment_trial","9","saving_a_cat_causal","causal_sequence","","","",""
"","","","","","html-keyboard-response","98","356357","0.0-98.0","930ACF58B2CF458AAE10936D5CD0AC6E","019cef8f-24a9-741f-9170-24c1e948722c","019cef87-c56d-7b55-9135-c5814367ec25","","null","
                <div class=""stimulus-container"">
                    <img src=""images/causal_sequence/saving_a_cat_causal/saving_a_cat_causal_ten.png"" class=""exp-image"">
                    <div class=""question-area""></div> 
                </div>","null","","","","","","","",""
"","","","","","html-button-response","99","356686","0.0-99.0","930ACF58B2CF458AAE10936D5CD0AC6E","019cef8f-24a9-741f-9170-24c1e948722c","019cef87-c56d-7b55-9135-c5814367ec25","","327","
                <div class=""stimulus-container"">
                    <img src=""images/causal_sequence/saving_a_cat_causal/saving_a_cat_causal_ten.png"" class=""exp-image"">
                    <div class=""question-area"">
                        <p style=""font-size: 20px; font-weight: bold; margin: 0;"">Is there a person in this image?</p>
                    </div>
                </div>","0","main_experiment_trial","ten","saving_a_cat_causal","causal_sequence","","","",""
"","","","","","html-keyboard-response","100","357691","0.0-100.0","930ACF58B2CF458AAE10936D5CD0AC6E","019cef8f-24a9-741f-9170-24c1e948722c","019cef87-c56d-7b55-9135-c5814367ec25","","null","<div style=""background-color: white; width: 100vw; height: 100vh;""></div>","null","","","","","","","",""
"","","","","","html-keyboard-response","101","362700","0.0-101.0","930ACF58B2CF458AAE10936D5CD0AC6E","019cef8f-24a9-741f-9170-24c1e948722c","019cef87-c56d-7b55-9135-c5814367ec25","","null","
                <div class=""stimulus-container"">
                    <img src=""images/schematic_sequence/interview_scheme/interview_scheme_1.png"" class=""exp-image"">
                    <div class=""question-area""></div> 
                </div>","null","","","","","","","",""
"","","","","","html-button-response","102","363078","0.0-102.0","930ACF58B2CF458AAE10936D5CD0AC6E","019cef8f-24a9-741f-9170-24c1e948722c","019cef87-c56d-7b55-9135-c5814367ec25","","376","
                <div class=""stimulus-container"">
                    <img src=""images/schematic_sequence/interview_scheme/interview_scheme_1.png"" class=""exp-image"">
                    <div class=""question-area"">
                        <p style=""font-size: 20px; font-weight: bold; margin: 0;"">Is there a person in this image?</p>
                    </div>
                </div>","1","main_experiment_trial","1","interview_scheme","schematic_sequence","","","",""
"","","","","","html-keyboard-response","103","368086","0.0-103.0","930ACF58B2CF458AAE10936D5CD0AC6E","019cef8f-24a9-741f-9170-24c1e948722c","019cef87-c56d-7b55-9135-c5814367ec25","","null","
                <div class=""stimulus-container"">
                    <img src=""images/schematic_sequence/interview_scheme/interview_scheme_2.png"" class=""exp-image"">
                    <div class=""question-area""></div> 
                </div>","null","","","","","","","",""
"","","","","","html-button-response","104","368553","0.0-104.0","930ACF58B2CF458AAE10936D5CD0AC6E","019cef8f-24a9-741f-9170-24c1e948722c","019cef87-c56d-7b55-9135-c5814367ec25","","467","
                <div class=""stimulus-container"">
                    <img src=""images/schematic_sequence/interview_scheme/interview_scheme_2.png"" class=""exp-image"">
                    <div class=""question-area"">
                        <p style=""font-size: 20px; font-weight: bold; margin: 0;"">Is there a person in this image?</p>
                    </div>
                </div>","0","main_experiment_trial","2","interview_scheme","schematic_sequence","","","",""
"","","","","","html-keyboard-response","105","373555","0.0-105.0","930ACF58B2CF458AAE10936D5CD0AC6E","019cef8f-24a9-741f-9170-24c1e948722c","019cef87-c56d-7b55-9135-c5814367ec25","","null","
                <div class=""stimulus-container"">
                    <img src=""images/schematic_sequence/interview_scheme/interview_scheme_3.png"" class=""exp-image"">
                    <div class=""question-area""></div> 
                </div>","null","","","","","","","",""
"","","","","","html-button-response","106","376121","0.0-106.0","930ACF58B2CF458AAE10936D5CD0AC6E","019cef8f-24a9-741f-9170-24c1e948722c","019cef87-c56d-7b55-9135-c5814367ec25","","2564","
                <div class=""stimulus-container"">
                    <img src=""images/schematic_sequence/interview_scheme/interview_scheme_3.png"" class=""exp-image"">
                    <div class=""question-area"">
                        <p style=""font-size: 20px; font-weight: bold; margin: 0;"">Is there a person in this image?</p>
                    </div>
                </div>","1","main_experiment_trial","3","interview_scheme","schematic_sequence","","","",""
"","","","","","html-keyboard-response","107","381128","0.0-107.0","930ACF58B2CF458AAE10936D5CD0AC6E","019cef8f-24a9-741f-9170-24c1e948722c","019cef87-c56d-7b55-9135-c5814367ec25","","null","
                <div class=""stimulus-container"">
                    <img src=""images/schematic_sequence/interview_scheme/interview_scheme_4.png"" class=""exp-image"">
                    <div class=""question-area""></div> 
                </div>","null","","","","","","","",""
"","","","","","html-button-response","108","384132","0.0-108.0","930ACF58B2CF458AAE10936D5CD0AC6E","019cef8f-24a9-741f-9170-24c1e948722c","019cef87-c56d-7b55-9135-c5814367ec25","","null","
                <div class=""stimulus-container"">
                    <img src=""images/schematic_sequence/interview_scheme/interview_scheme_4.png"" class=""exp-image"">
                    <div class=""question-area"">
                        <p style=""font-size: 20px; font-weight: bold; margin: 0;"">Is there a person in this image?</p>
                    </div>
                </div>","null","main_experiment_trial","4","interview_scheme","schematic_sequence","","","",""
"","","","","","html-keyboard-response","109","389137","0.0-109.0","930ACF58B2CF458AAE10936D5CD0AC6E","019cef8f-24a9-741f-9170-24c1e948722c","019cef87-c56d-7b55-9135-c5814367ec25","","null","
                <div class=""stimulus-container"">
                    <img src=""images/schematic_sequence/interview_scheme/interview_scheme_5.png"" class=""exp-image"">
                    <div class=""question-area""></div> 
                </div>","null","","","","","","","",""
"","","","","","html-button-response","110","389801","0.0-110.0","930ACF58B2CF458AAE10936D5CD0AC6E","019cef8f-24a9-741f-9170-24c1e948722c","019cef87-c56d-7b55-9135-c5814367ec25","","663","
                <div class=""stimulus-container"">
                    <img src=""images/schematic_sequence/interview_scheme/interview_scheme_5.png"" class=""exp-image"">
                    <div class=""question-area"">
                        <p style=""font-size: 20px; font-weight: bold; margin: 0;"">Is there a person in this image?</p>
                    </div>
                </div>","0","main_experiment_trial","5","interview_scheme","schematic_sequence","","","",""
"","","","","","html-keyboard-response","111","394805","0.0-111.0","930ACF58B2CF458AAE10936D5CD0AC6E","019cef8f-24a9-741f-9170-24c1e948722c","019cef87-c56d-7b55-9135-c5814367ec25","","null","
                <div class=""stimulus-container"">
                    <img src=""images/schematic_sequence/interview_scheme/interview_scheme_6.png"" class=""exp-image"">
                    <div class=""question-area""></div> 
                </div>","null","","","","","","","",""
"","","","","","html-button-response","112","395419","0.0-112.0","930ACF58B2CF458AAE10936D5CD0AC6E","019cef8f-24a9-741f-9170-24c1e948722c","019cef87-c56d-7b55-9135-c5814367ec25","","611","
                <div class=""stimulus-container"">
                    <img src=""images/schematic_sequence/interview_scheme/interview_scheme_6.png"" class=""exp-image"">
                    <div class=""question-area"">
                        <p style=""font-size: 20px; font-weight: bold; margin: 0;"">Is there a person in this image?</p>
                    </div>
                </div>","0","main_experiment_trial","6","interview_scheme","schematic_sequence","","","",""
"","","","","","html-keyboard-response","113","400422","0.0-113.0","930ACF58B2CF458AAE10936D5CD0AC6E","019cef8f-24a9-741f-9170-24c1e948722c","019cef87-c56d-7b55-9135-c5814367ec25","","null","
                <div class=""stimulus-container"">
                    <img src=""images/schematic_sequence/interview_scheme/interview_scheme_7.png"" class=""exp-image"">
                    <div class=""question-area""></div> 
                </div>","null","","","","","","","",""
"","","","","","html-button-response","114","400816","0.0-114.0","930ACF58B2CF458AAE10936D5CD0AC6E","019cef8f-24a9-741f-9170-24c1e948722c","019cef87-c56d-7b55-9135-c5814367ec25","","393","
                <div class=""stimulus-container"">
                    <img src=""images/schematic_sequence/interview_scheme/interview_scheme_7.png"" class=""exp-image"">
                    <div class=""question-area"">
                        <p style=""font-size: 20px; font-weight: bold; margin: 0;"">Is there a person in this image?</p>
                    </div>
                </div>","0","main_experiment_trial","7","interview_scheme","schematic_sequence","","","",""
"","","","","","html-keyboard-response","115","405833","0.0-115.0","930ACF58B2CF458AAE10936D5CD0AC6E","019cef8f-24a9-741f-9170-24c1e948722c","019cef87-c56d-7b55-9135-c5814367ec25","","null","
                <div class=""stimulus-container"">
                    <img src=""images/schematic_sequence/interview_scheme/interview_scheme_8.png"" class=""exp-image"">
                    <div class=""question-area""></div> 
                </div>","null","","","","","","","",""
"","","","","","html-button-response","116","406580","0.0-116.0","930ACF58B2CF458AAE10936D5CD0AC6E","019cef8f-24a9-741f-9170-24c1e948722c","019cef87-c56d-7b55-9135-c5814367ec25","","745","
                <div class=""stimulus-container"">
                    <img src=""images/schematic_sequence/interview_scheme/interview_scheme_8.png"" class=""exp-image"">
                    <div class=""question-area"">
                        <p style=""font-size: 20px; font-weight: bold; margin: 0;"">Is there a person in this image?</p>
                    </div>
                </div>","0","main_experiment_trial","8","interview_scheme","schematic_sequence","","","",""
"","","","","","html-keyboard-response","117","411585","0.0-117.0","930ACF58B2CF458AAE10936D5CD0AC6E","019cef8f-24a9-741f-9170-24c1e948722c","019cef87-c56d-7b55-9135-c5814367ec25","","null","
                <div class=""stimulus-container"">
                    <img src=""images/schematic_sequence/interview_scheme/interview_scheme_9.png"" class=""exp-image"">
                    <div class=""question-area""></div> 
                </div>","null","","","","","","","",""
"","","","","","html-button-response","118","412017","0.0-118.0","930ACF58B2CF458AAE10936D5CD0AC6E","019cef8f-24a9-741f-9170-24c1e948722c","019cef87-c56d-7b55-9135-c5814367ec25","","430","
                <div class=""stimulus-container"">
                    <img src=""images/schematic_sequence/interview_scheme/interview_scheme_9.png"" class=""exp-image"">
                    <div class=""question-area"">
                        <p style=""font-size: 20px; font-weight: bold; margin: 0;"">Is there a person in this image?</p>
                    </div>
                </div>","0","main_experiment_trial","9","interview_scheme","schematic_sequence","","","",""
"","","","","","html-keyboard-response","119","417018","0.0-119.0","930ACF58B2CF458AAE10936D5CD0AC6E","019cef8f-24a9-741f-9170-24c1e948722c","019cef87-c56d-7b55-9135-c5814367ec25","","null","
                <div class=""stimulus-container"">
                    <img src=""images/schematic_sequence/interview_scheme/interview_scheme_ten.png"" class=""exp-image"">
                    <div class=""question-area""></div> 
                </div>","null","","","","","","","",""
"","","","","","html-button-response","120","417370","0.0-120.0","930ACF58B2CF458AAE10936D5CD0AC6E","019cef8f-24a9-741f-9170-24c1e948722c","019cef87-c56d-7b55-9135-c5814367ec25","","351","
                <div class=""stimulus-container"">
                    <img src=""images/schematic_sequence/interview_scheme/interview_scheme_ten.png"" class=""exp-image"">
                    <div class=""question-area"">
                        <p style=""font-size: 20px; font-weight: bold; margin: 0;"">Is there a person in this image?</p>
                    </div>
                </div>","0","main_experiment_trial","ten","interview_scheme","schematic_sequence","","","",""
"","","","","","html-keyboard-response","121","418377","0.0-121.0","930ACF58B2CF458AAE10936D5CD0AC6E","019cef8f-24a9-741f-9170-24c1e948722c","019cef87-c56d-7b55-9135-c5814367ec25","","null","<div style=""background-color: white; width: 100vw; height: 100vh;""></div>","null","","","","","","","",""
"","","","","","html-keyboard-response","122","423380","0.0-122.0","930ACF58B2CF458AAE10936D5CD0AC6E","019cef8f-24a9-741f-9170-24c1e948722c","019cef87-c56d-7b55-9135-c5814367ec25","","null","
                <div class=""stimulus-container"">
                    <img src=""images/causal_sequence/museum_causal/museum_causal_1.png"" class=""exp-image"">
                    <div class=""question-area""></div> 
                </div>","null","","","","","","","",""
"","","","","","html-button-response","123","424458","0.0-123.0","930ACF58B2CF458AAE10936D5CD0AC6E","019cef8f-24a9-741f-9170-24c1e948722c","019cef87-c56d-7b55-9135-c5814367ec25","","1076","
                <div class=""stimulus-container"">
                    <img src=""images/causal_sequence/museum_causal/museum_causal_1.png"" class=""exp-image"">
                    <div class=""question-area"">
                        <p style=""font-size: 20px; font-weight: bold; margin: 0;"">Is there a person in this image?</p>
                    </div>
                </div>","0","main_experiment_trial","1","museum_causal","causal_sequence","","","",""
"","","","","","html-keyboard-response","124","429468","0.0-124.0","930ACF58B2CF458AAE10936D5CD0AC6E","019cef8f-24a9-741f-9170-24c1e948722c","019cef87-c56d-7b55-9135-c5814367ec25","","null","
                <div class=""stimulus-container"">
                    <img src=""images/causal_sequence/museum_causal/museum_causal_2.png"" class=""exp-image"">
                    <div class=""question-area""></div> 
                </div>","null","","","","","","","",""
"","","","","","html-button-response","125","429950","0.0-125.0","930ACF58B2CF458AAE10936D5CD0AC6E","019cef8f-24a9-741f-9170-24c1e948722c","019cef87-c56d-7b55-9135-c5814367ec25","","479","
                <div class=""stimulus-container"">
                    <img src=""images/causal_sequence/museum_causal/museum_causal_2.png"" class=""exp-image"">
                    <div class=""question-area"">
                        <p style=""font-size: 20px; font-weight: bold; margin: 0;"">Is there a person in this image?</p>
                    </div>
                </div>","0","main_experiment_trial","2","museum_causal","causal_sequence","","","",""
"","","","","","html-keyboard-response","126","434961","0.0-126.0","930ACF58B2CF458AAE10936D5CD0AC6E","019cef8f-24a9-741f-9170-24c1e948722c","019cef87-c56d-7b55-9135-c5814367ec25","","null","
                <div class=""stimulus-container"">
                    <img src=""images/causal_sequence/museum_causal/museum_causal_3.png"" class=""exp-image"">
                    <div class=""question-area""></div> 
                </div>","null","","","","","","","",""
"","","","","","html-button-response","127","436851","0.0-127.0","930ACF58B2CF458AAE10936D5CD0AC6E","019cef8f-24a9-741f-9170-24c1e948722c","019cef87-c56d-7b55-9135-c5814367ec25","","1888","
                <div class=""stimulus-container"">
                    <img src=""images/causal_sequence/museum_causal/museum_causal_3.png"" class=""exp-image"">
                    <div class=""question-area"">
                        <p style=""font-size: 20px; font-weight: bold; margin: 0;"">Is there a person in this image?</p>
                    </div>
                </div>","0","main_experiment_trial","3","museum_causal","causal_sequence","","","",""
"","","","","","html-keyboard-response","128","441859","0.0-128.0","930ACF58B2CF458AAE10936D5CD0AC6E","019cef8f-24a9-741f-9170-24c1e948722c","019cef87-c56d-7b55-9135-c5814367ec25","","null","
                <div class=""stimulus-container"">
                    <img src=""images/causal_sequence/museum_causal/museum_causal_4.png"" class=""exp-image"">
                    <div class=""question-area""></div> 
                </div>","null","","","","","","","",""
"","","","","","html-button-response","129","444869","0.0-129.0","930ACF58B2CF458AAE10936D5CD0AC6E","019cef8f-24a9-741f-9170-24c1e948722c","019cef87-c56d-7b55-9135-c5814367ec25","","null","
                <div class=""stimulus-container"">
                    <img src=""images/causal_sequence/museum_causal/museum_causal_4.png"" class=""exp-image"">
                    <div class=""question-area"">
                        <p style=""font-size: 20px; font-weight: bold; margin: 0;"">Is there a person in this image?</p>
                    </div>
                </div>","null","main_experiment_trial","4","museum_causal","causal_sequence","","","",""
"","","","","","html-keyboard-response","130","449878","0.0-130.0","930ACF58B2CF458AAE10936D5CD0AC6E","019cef8f-24a9-741f-9170-24c1e948722c","019cef87-c56d-7b55-9135-c5814367ec25","","null","
                <div class=""stimulus-container"">
                    <img src=""images/causal_sequence/museum_causal/museum_causal_5.png"" class=""exp-image"">
                    <div class=""question-area""></div> 
                </div>","null","","","","","","","",""
"","","","","","html-button-response","131","450747","0.0-131.0","930ACF58B2CF458AAE10936D5CD0AC6E","019cef8f-24a9-741f-9170-24c1e948722c","019cef87-c56d-7b55-9135-c5814367ec25","","868","
                <div class=""stimulus-container"">
                    <img src=""images/causal_sequence/museum_causal/museum_causal_5.png"" class=""exp-image"">
                    <div class=""question-area"">
                        <p style=""font-size: 20px; font-weight: bold; margin: 0;"">Is there a person in this image?</p>
                    </div>
                </div>","0","main_experiment_trial","5","museum_causal","causal_sequence","","","",""
"","","","","","html-keyboard-response","132","455749","0.0-132.0","930ACF58B2CF458AAE10936D5CD0AC6E","019cef8f-24a9-741f-9170-24c1e948722c","019cef87-c56d-7b55-9135-c5814367ec25","","null","
                <div class=""stimulus-container"">
                    <img src=""images/causal_sequence/museum_causal/museum_causal_6.png"" class=""exp-image"">
                    <div class=""question-area""></div> 
                </div>","null","","","","","","","",""
"","","","","","html-button-response","133","456148","0.0-133.0","930ACF58B2CF458AAE10936D5CD0AC6E","019cef8f-24a9-741f-9170-24c1e948722c","019cef87-c56d-7b55-9135-c5814367ec25","","397","
                <div class=""stimulus-container"">
                    <img src=""images/causal_sequence/museum_causal/museum_causal_6.png"" class=""exp-image"">
                    <div class=""question-area"">
                        <p style=""font-size: 20px; font-weight: bold; margin: 0;"">Is there a person in this image?</p>
                    </div>
                </div>","0","main_experiment_trial","6","museum_causal","causal_sequence","","","",""
"","","","","","html-keyboard-response","134","461151","0.0-134.0","930ACF58B2CF458AAE10936D5CD0AC6E","019cef8f-24a9-741f-9170-24c1e948722c","019cef87-c56d-7b55-9135-c5814367ec25","","null","
                <div class=""stimulus-container"">
                    <img src=""images/causal_sequence/museum_causal/museum_causal_7.png"" class=""exp-image"">
                    <div class=""question-area""></div> 
                </div>","null","","","","","","","",""
"","","","","","html-button-response","135","461763","0.0-135.0","930ACF58B2CF458AAE10936D5CD0AC6E","019cef8f-24a9-741f-9170-24c1e948722c","019cef87-c56d-7b55-9135-c5814367ec25","","610","
                <div class=""stimulus-container"">
                    <img src=""images/causal_sequence/museum_causal/museum_causal_7.png"" class=""exp-image"">
                    <div class=""question-area"">
                        <p style=""font-size: 20px; font-weight: bold; margin: 0;"">Is there a person in this image?</p>
                    </div>
                </div>","1","main_experiment_trial","7","museum_causal","causal_sequence","","","",""
"","","","","","html-keyboard-response","136","466767","0.0-136.0","930ACF58B2CF458AAE10936D5CD0AC6E","019cef8f-24a9-741f-9170-24c1e948722c","019cef87-c56d-7b55-9135-c5814367ec25","","null","
                <div class=""stimulus-container"">
                    <img src=""images/causal_sequence/museum_causal/museum_causal_8.png"" class=""exp-image"">
                    <div class=""question-area""></div> 
                </div>","null","","","","","","","",""
"","","","","","html-button-response","137","467136","0.0-137.0","930ACF58B2CF458AAE10936D5CD0AC6E","019cef8f-24a9-741f-9170-24c1e948722c","019cef87-c56d-7b55-9135-c5814367ec25","","367","
                <div class=""stimulus-container"">
                    <img src=""images/causal_sequence/museum_causal/museum_causal_8.png"" class=""exp-image"">
                    <div class=""question-area"">
                        <p style=""font-size: 20px; font-weight: bold; margin: 0;"">Is there a person in this image?</p>
                    </div>
                </div>","0","main_experiment_trial","8","museum_causal","causal_sequence","","","",""
"","","","","","html-keyboard-response","138","472147","0.0-138.0","930ACF58B2CF458AAE10936D5CD0AC6E","019cef8f-24a9-741f-9170-24c1e948722c","019cef87-c56d-7b55-9135-c5814367ec25","","null","
                <div class=""stimulus-container"">
                    <img src=""images/causal_sequence/museum_causal/museum_causal_9.png"" class=""exp-image"">
                    <div class=""question-area""></div> 
                </div>","null","","","","","","","",""
"","","","","","html-button-response","139","472760","0.0-139.0","930ACF58B2CF458AAE10936D5CD0AC6E","019cef8f-24a9-741f-9170-24c1e948722c","019cef87-c56d-7b55-9135-c5814367ec25","","611","
                <div class=""stimulus-container"">
                    <img src=""images/causal_sequence/museum_causal/museum_causal_9.png"" class=""exp-image"">
                    <div class=""question-area"">
                        <p style=""font-size: 20px; font-weight: bold; margin: 0;"">Is there a person in this image?</p>
                    </div>
                </div>","1","main_experiment_trial","9","museum_causal","causal_sequence","","","",""
"","","","","","html-keyboard-response","140","477769","0.0-140.0","930ACF58B2CF458AAE10936D5CD0AC6E","019cef8f-24a9-741f-9170-24c1e948722c","019cef87-c56d-7b55-9135-c5814367ec25","","null","
                <div class=""stimulus-container"">
                    <img src=""images/causal_sequence/museum_causal/museum_causal_ten.png"" class=""exp-image"">
                    <div class=""question-area""></div> 
                </div>","null","","","","","","","",""
"","","","","","html-button-response","141","478149","0.0-141.0","930ACF58B2CF458AAE10936D5CD0AC6E","019cef8f-24a9-741f-9170-24c1e948722c","019cef87-c56d-7b55-9135-c5814367ec25","","378","
                <div class=""stimulus-container"">
                    <img src=""images/causal_sequence/museum_causal/museum_causal_ten.png"" class=""exp-image"">
                    <div class=""question-area"">
                        <p style=""font-size: 20px; font-weight: bold; margin: 0;"">Is there a person in this image?</p>
                    </div>
                </div>","0","main_experiment_trial","ten","museum_causal","causal_sequence","","","",""
"","","","","","html-keyboard-response","142","479152","0.0-142.0","930ACF58B2CF458AAE10936D5CD0AC6E","019cef8f-24a9-741f-9170-24c1e948722c","019cef87-c56d-7b55-9135-c5814367ec25","","null","<div style=""background-color: white; width: 100vw; height: 100vh;""></div>","null","","","","","","","",""
"","","","","","html-keyboard-response","143","484167","0.0-143.0","930ACF58B2CF458AAE10936D5CD0AC6E","019cef8f-24a9-741f-9170-24c1e948722c","019cef87-c56d-7b55-9135-c5814367ec25","","null","
                <div class=""stimulus-container"">
                    <img src=""images/causal_sequence/dog_causal/dog_causal_1.png"" class=""exp-image"">
                    <div class=""question-area""></div> 
                </div>","null","","","","","","","",""
"","","","","","html-button-response","144","484664","0.0-144.0","930ACF58B2CF458AAE10936D5CD0AC6E","019cef8f-24a9-741f-9170-24c1e948722c","019cef87-c56d-7b55-9135-c5814367ec25","","496","
                <div class=""stimulus-container"">
                    <img src=""images/causal_sequence/dog_causal/dog_causal_1.png"" class=""exp-image"">
                    <div class=""question-area"">
                        <p style=""font-size: 20px; font-weight: bold; margin: 0;"">Is there a person in this image?</p>
                    </div>
                </div>","0","main_experiment_trial","1","dog_causal","causal_sequence","","","",""
"","","","","","html-keyboard-response","145","489666","0.0-145.0","930ACF58B2CF458AAE10936D5CD0AC6E","019cef8f-24a9-741f-9170-24c1e948722c","019cef87-c56d-7b55-9135-c5814367ec25","","null","
                <div class=""stimulus-container"">
                    <img src=""images/causal_sequence/dog_causal/dog_causal_2.png"" class=""exp-image"">
                    <div class=""question-area""></div> 
                </div>","null","","","","","","","",""
"","","","","","html-button-response","146","490053","0.0-146.0","930ACF58B2CF458AAE10936D5CD0AC6E","019cef8f-24a9-741f-9170-24c1e948722c","019cef87-c56d-7b55-9135-c5814367ec25","","386","
                <div class=""stimulus-container"">
                    <img src=""images/causal_sequence/dog_causal/dog_causal_2.png"" class=""exp-image"">
                    <div class=""question-area"">
                        <p style=""font-size: 20px; font-weight: bold; margin: 0;"">Is there a person in this image?</p>
                    </div>
                </div>","0","main_experiment_trial","2","dog_causal","causal_sequence","","","",""
"","","","","","html-keyboard-response","147","495055","0.0-147.0","930ACF58B2CF458AAE10936D5CD0AC6E","019cef8f-24a9-741f-9170-24c1e948722c","019cef87-c56d-7b55-9135-c5814367ec25","","null","
                <div class=""stimulus-container"">
                    <img src=""images/causal_sequence/dog_causal/dog_causal_3.png"" class=""exp-image"">
                    <div class=""question-area""></div> 
                </div>","null","","","","","","","",""
"","","","","","html-button-response","148","495461","0.0-148.0","930ACF58B2CF458AAE10936D5CD0AC6E","019cef8f-24a9-741f-9170-24c1e948722c","019cef87-c56d-7b55-9135-c5814367ec25","","405","
                <div class=""stimulus-container"">
                    <img src=""images/causal_sequence/dog_causal/dog_causal_3.png"" class=""exp-image"">
                    <div class=""question-area"">
                        <p style=""font-size: 20px; font-weight: bold; margin: 0;"">Is there a person in this image?</p>
                    </div>
                </div>","0","main_experiment_trial","3","dog_causal","causal_sequence","","","",""
"","","","","","html-keyboard-response","149","500464","0.0-149.0","930ACF58B2CF458AAE10936D5CD0AC6E","019cef8f-24a9-741f-9170-24c1e948722c","019cef87-c56d-7b55-9135-c5814367ec25","","null","
                <div class=""stimulus-container"">
                    <img src=""images/causal_sequence/dog_causal/dog_causal_4.png"" class=""exp-image"">
                    <div class=""question-area""></div> 
                </div>","null","","","","","","","",""
"","","","","","html-button-response","150","500819","0.0-150.0","930ACF58B2CF458AAE10936D5CD0AC6E","019cef8f-24a9-741f-9170-24c1e948722c","019cef87-c56d-7b55-9135-c5814367ec25","","354","
                <div class=""stimulus-container"">
                    <img src=""images/causal_sequence/dog_causal/dog_causal_4.png"" class=""exp-image"">
                    <div class=""question-area"">
                        <p style=""font-size: 20px; font-weight: bold; margin: 0;"">Is there a person in this image?</p>
                    </div>
                </div>","0","main_experiment_trial","4","dog_causal","causal_sequence","","","",""
"","","","","","html-keyboard-response","151","505827","0.0-151.0","930ACF58B2CF458AAE10936D5CD0AC6E","019cef8f-24a9-741f-9170-24c1e948722c","019cef87-c56d-7b55-9135-c5814367ec25","","null","
                <div class=""stimulus-container"">
                    <img src=""images/causal_sequence/dog_causal/dog_causal_5.png"" class=""exp-image"">
                    <div class=""question-area""></div> 
                </div>","null","","","","","","","",""
"","","","","","html-button-response","152","506282","0.0-152.0","930ACF58B2CF458AAE10936D5CD0AC6E","019cef8f-24a9-741f-9170-24c1e948722c","019cef87-c56d-7b55-9135-c5814367ec25","","453","
                <div class=""stimulus-container"">
                    <img src=""images/causal_sequence/dog_causal/dog_causal_5.png"" class=""exp-image"">
                    <div class=""question-area"">
                        <p style=""font-size: 20px; font-weight: bold; margin: 0;"">Is there a person in this image?</p>
                    </div>
                </div>","0","main_experiment_trial","5","dog_causal","causal_sequence","","","",""
"","","","","","html-keyboard-response","153","511283","0.0-153.0","930ACF58B2CF458AAE10936D5CD0AC6E","019cef8f-24a9-741f-9170-24c1e948722c","019cef87-c56d-7b55-9135-c5814367ec25","","null","
                <div class=""stimulus-container"">
                    <img src=""images/causal_sequence/dog_causal/dog_causal_6.png"" class=""exp-image"">
                    <div class=""question-area""></div> 
                </div>","null","","","","","","","",""
"","","","","","html-button-response","154","511642","0.0-154.0","930ACF58B2CF458AAE10936D5CD0AC6E","019cef8f-24a9-741f-9170-24c1e948722c","019cef87-c56d-7b55-9135-c5814367ec25","","357","
                <div class=""stimulus-container"">
                    <img src=""images/causal_sequence/dog_causal/dog_causal_6.png"" class=""exp-image"">
                    <div class=""question-area"">
                        <p style=""font-size: 20px; font-weight: bold; margin: 0;"">Is there a person in this image?</p>
                    </div>
                </div>","0","main_experiment_trial","6","dog_causal","causal_sequence","","","",""
"","","","","","html-keyboard-response","155","516647","0.0-155.0","930ACF58B2CF458AAE10936D5CD0AC6E","019cef8f-24a9-741f-9170-24c1e948722c","019cef87-c56d-7b55-9135-c5814367ec25","","null","
                <div class=""stimulus-container"">
                    <img src=""images/causal_sequence/dog_causal/dog_causal_7.png"" class=""exp-image"">
                    <div class=""question-area""></div> 
                </div>","null","","","","","","","",""
"","","","","","html-button-response","156","517002","0.0-156.0","930ACF58B2CF458AAE10936D5CD0AC6E","019cef8f-24a9-741f-9170-24c1e948722c","019cef87-c56d-7b55-9135-c5814367ec25","","353","
                <div class=""stimulus-container"">
                    <img src=""images/causal_sequence/dog_causal/dog_causal_7.png"" class=""exp-image"">
                    <div class=""question-area"">
                        <p style=""font-size: 20px; font-weight: bold; margin: 0;"">Is there a person in this image?</p>
                    </div>
                </div>","0","main_experiment_trial","7","dog_causal","causal_sequence","","","",""
"","","","","","html-keyboard-response","157","522011","0.0-157.0","930ACF58B2CF458AAE10936D5CD0AC6E","019cef8f-24a9-741f-9170-24c1e948722c","019cef87-c56d-7b55-9135-c5814367ec25","","null","
                <div class=""stimulus-container"">
                    <img src=""images/causal_sequence/dog_causal/dog_causal_8.png"" class=""exp-image"">
                    <div class=""question-area""></div> 
                </div>","null","","","","","","","",""
"","","","","","html-button-response","158","522670","0.0-158.0","930ACF58B2CF458AAE10936D5CD0AC6E","019cef8f-24a9-741f-9170-24c1e948722c","019cef87-c56d-7b55-9135-c5814367ec25","","658","
                <div class=""stimulus-container"">
                    <img src=""images/causal_sequence/dog_causal/dog_causal_8.png"" class=""exp-image"">
                    <div class=""question-area"">
                        <p style=""font-size: 20px; font-weight: bold; margin: 0;"">Is there a person in this image?</p>
                    </div>
                </div>","0","main_experiment_trial","8","dog_causal","causal_sequence","","","",""
"","","","","","html-keyboard-response","159","527680","0.0-159.0","930ACF58B2CF458AAE10936D5CD0AC6E","019cef8f-24a9-741f-9170-24c1e948722c","019cef87-c56d-7b55-9135-c5814367ec25","","null","
                <div class=""stimulus-container"">
                    <img src=""images/causal_sequence/dog_causal/dog_causal_9.png"" class=""exp-image"">
                    <div class=""question-area""></div> 
                </div>","null","","","","","","","",""
"","","","","","html-button-response","160","528086","0.0-160.0","930ACF58B2CF458AAE10936D5CD0AC6E","019cef8f-24a9-741f-9170-24c1e948722c","019cef87-c56d-7b55-9135-c5814367ec25","","404","
                <div class=""stimulus-container"">
                    <img src=""images/causal_sequence/dog_causal/dog_causal_9.png"" class=""exp-image"">
                    <div class=""question-area"">
                        <p style=""font-size: 20px; font-weight: bold; margin: 0;"">Is there a person in this image?</p>
                    </div>
                </div>","0","main_experiment_trial","9","dog_causal","causal_sequence","","","",""
"","","","","","html-keyboard-response","161","533092","0.0-161.0","930ACF58B2CF458AAE10936D5CD0AC6E","019cef8f-24a9-741f-9170-24c1e948722c","019cef87-c56d-7b55-9135-c5814367ec25","","null","
                <div class=""stimulus-container"">
                    <img src=""images/causal_sequence/dog_causal/dog_causal_ten.png"" class=""exp-image"">
                    <div class=""question-area""></div> 
                </div>","null","","","","","","","",""
"","","","","","html-button-response","162","533795","0.0-162.0","930ACF58B2CF458AAE10936D5CD0AC6E","019cef8f-24a9-741f-9170-24c1e948722c","019cef87-c56d-7b55-9135-c5814367ec25","","702","
                <div class=""stimulus-container"">
                    <img src=""images/causal_sequence/dog_causal/dog_causal_ten.png"" class=""exp-image"">
                    <div class=""question-area"">
                        <p style=""font-size: 20px; font-weight: bold; margin: 0;"">Is there a person in this image?</p>
                    </div>
                </div>","0","main_experiment_trial","ten","dog_causal","causal_sequence","","","",""
"","","","","","html-keyboard-response","163","534803","0.0-163.0","930ACF58B2CF458AAE10936D5CD0AC6E","019cef8f-24a9-741f-9170-24c1e948722c","019cef87-c56d-7b55-9135-c5814367ec25","","null","<div style=""background-color: white; width: 100vw; height: 100vh;""></div>","null","","","","","","","",""
"","","","","","html-keyboard-response","164","539805","0.0-164.0","930ACF58B2CF458AAE10936D5CD0AC6E","019cef8f-24a9-741f-9170-24c1e948722c","019cef87-c56d-7b55-9135-c5814367ec25","","null","
                <div class=""stimulus-container"">
                    <img src=""images/schematic_sequence/hotel_scheme/hotel_scheme_1.png"" class=""exp-image"">
                    <div class=""question-area""></div> 
                </div>","null","","","","","","","",""
"","","","","","html-button-response","165","541254","0.0-165.0","930ACF58B2CF458AAE10936D5CD0AC6E","019cef8f-24a9-741f-9170-24c1e948722c","019cef87-c56d-7b55-9135-c5814367ec25","","1446","
                <div class=""stimulus-container"">
                    <img src=""images/schematic_sequence/hotel_scheme/hotel_scheme_1.png"" class=""exp-image"">
                    <div class=""question-area"">
                        <p style=""font-size: 20px; font-weight: bold; margin: 0;"">Is there a person in this image?</p>
                    </div>
                </div>","1","main_experiment_trial","1","hotel_scheme","schematic_sequence","","","",""
"","","","","","html-keyboard-response","166","546264","0.0-166.0","930ACF58B2CF458AAE10936D5CD0AC6E","019cef8f-24a9-741f-9170-24c1e948722c","019cef87-c56d-7b55-9135-c5814367ec25","","null","
                <div class=""stimulus-container"">
                    <img src=""images/schematic_sequence/hotel_scheme/hotel_scheme_2.png"" class=""exp-image"">
                    <div class=""question-area""></div> 
                </div>","null","","","","","","","",""
"","","","","","html-button-response","167","547032","0.0-167.0","930ACF58B2CF458AAE10936D5CD0AC6E","019cef8f-24a9-741f-9170-24c1e948722c","019cef87-c56d-7b55-9135-c5814367ec25","","766","
                <div class=""stimulus-container"">
                    <img src=""images/schematic_sequence/hotel_scheme/hotel_scheme_2.png"" class=""exp-image"">
                    <div class=""question-area"">
                        <p style=""font-size: 20px; font-weight: bold; margin: 0;"">Is there a person in this image?</p>
                    </div>
                </div>","0","main_experiment_trial","2","hotel_scheme","schematic_sequence","","","",""
"","","","","","html-keyboard-response","168","552043","0.0-168.0","930ACF58B2CF458AAE10936D5CD0AC6E","019cef8f-24a9-741f-9170-24c1e948722c","019cef87-c56d-7b55-9135-c5814367ec25","","null","
                <div class=""stimulus-container"">
                    <img src=""images/schematic_sequence/hotel_scheme/hotel_scheme_3.png"" class=""exp-image"">
                    <div class=""question-area""></div> 
                </div>","null","","","","","","","",""
"","","","","","html-button-response","169","552740","0.0-169.0","930ACF58B2CF458AAE10936D5CD0AC6E","019cef8f-24a9-741f-9170-24c1e948722c","019cef87-c56d-7b55-9135-c5814367ec25","","695","
                <div class=""stimulus-container"">
                    <img src=""images/schematic_sequence/hotel_scheme/hotel_scheme_3.png"" class=""exp-image"">
                    <div class=""question-area"">
                        <p style=""font-size: 20px; font-weight: bold; margin: 0;"">Is there a person in this image?</p>
                    </div>
                </div>","0","main_experiment_trial","3","hotel_scheme","schematic_sequence","","","",""
"","","","","","html-keyboard-response","170","557746","0.0-170.0","930ACF58B2CF458AAE10936D5CD0AC6E","019cef8f-24a9-741f-9170-24c1e948722c","019cef87-c56d-7b55-9135-c5814367ec25","","null","
                <div class=""stimulus-container"">
                    <img src=""images/schematic_sequence/hotel_scheme/hotel_scheme_4.png"" class=""exp-image"">
                    <div class=""question-area""></div> 
                </div>","null","","","","","","","",""
"","","","","","html-button-response","171","558504","0.0-171.0","930ACF58B2CF458AAE10936D5CD0AC6E","019cef8f-24a9-741f-9170-24c1e948722c","019cef87-c56d-7b55-9135-c5814367ec25","","756","
                <div class=""stimulus-container"">
                    <img src=""images/schematic_sequence/hotel_scheme/hotel_scheme_4.png"" class=""exp-image"">
                    <div class=""question-area"">
                        <p style=""font-size: 20px; font-weight: bold; margin: 0;"">Is there a person in this image?</p>
                    </div>
                </div>","1","main_experiment_trial","4","hotel_scheme","schematic_sequence","","","",""
"","","","","","html-keyboard-response","172","563510","0.0-172.0","930ACF58B2CF458AAE10936D5CD0AC6E","019cef8f-24a9-741f-9170-24c1e948722c","019cef87-c56d-7b55-9135-c5814367ec25","","null","
                <div class=""stimulus-container"">
                    <img src=""images/schematic_sequence/hotel_scheme/hotel_scheme_5.png"" class=""exp-image"">
                    <div class=""question-area""></div> 
                </div>","null","","","","","","","",""
"","","","","","html-button-response","173","564096","0.0-173.0","930ACF58B2CF458AAE10936D5CD0AC6E","019cef8f-24a9-741f-9170-24c1e948722c","019cef87-c56d-7b55-9135-c5814367ec25","","584","
                <div class=""stimulus-container"">
                    <img src=""images/schematic_sequence/hotel_scheme/hotel_scheme_5.png"" class=""exp-image"">
                    <div class=""question-area"">
                        <p style=""font-size: 20px; font-weight: bold; margin: 0;"">Is there a person in this image?</p>
                    </div>
                </div>","0","main_experiment_trial","5","hotel_scheme","schematic_sequence","","","",""
"","","","","","html-keyboard-response","174","569105","0.0-174.0","930ACF58B2CF458AAE10936D5CD0AC6E","019cef8f-24a9-741f-9170-24c1e948722c","019cef87-c56d-7b55-9135-c5814367ec25","","null","
                <div class=""stimulus-container"">
                    <img src=""images/schematic_sequence/hotel_scheme/hotel_scheme_6.png"" class=""exp-image"">
                    <div class=""question-area""></div> 
                </div>","null","","","","","","","",""
"","","","","","html-button-response","175","570097","0.0-175.0","930ACF58B2CF458AAE10936D5CD0AC6E","019cef8f-24a9-741f-9170-24c1e948722c","019cef87-c56d-7b55-9135-c5814367ec25","","990","
                <div class=""stimulus-container"">
                    <img src=""images/schematic_sequence/hotel_scheme/hotel_scheme_6.png"" class=""exp-image"">
                    <div class=""question-area"">
                        <p style=""font-size: 20px; font-weight: bold; margin: 0;"">Is there a person in this image?</p>
                    </div>
                </div>","0","main_experiment_trial","6","hotel_scheme","schematic_sequence","","","",""
"","","","","","html-keyboard-response","176","575103","0.0-176.0","930ACF58B2CF458AAE10936D5CD0AC6E","019cef8f-24a9-741f-9170-24c1e948722c","019cef87-c56d-7b55-9135-c5814367ec25","","null","
                <div class=""stimulus-container"">
                    <img src=""images/schematic_sequence/hotel_scheme/hotel_scheme_7.png"" class=""exp-image"">
                    <div class=""question-area""></div> 
                </div>","null","","","","","","","",""
"","","","","","html-button-response","177","575487","0.0-177.0","930ACF58B2CF458AAE10936D5CD0AC6E","019cef8f-24a9-741f-9170-24c1e948722c","019cef87-c56d-7b55-9135-c5814367ec25","","381","
                <div class=""stimulus-container"">
                    <img src=""images/schematic_sequence/hotel_scheme/hotel_scheme_7.png"" class=""exp-image"">
                    <div class=""question-area"">
                        <p style=""font-size: 20px; font-weight: bold; margin: 0;"">Is there a person in this image?</p>
                    </div>
                </div>","0","main_experiment_trial","7","hotel_scheme","schematic_sequence","","","",""
"","","","","","html-keyboard-response","178","580504","0.0-178.0","930ACF58B2CF458AAE10936D5CD0AC6E","019cef8f-24a9-741f-9170-24c1e948722c","019cef87-c56d-7b55-9135-c5814367ec25","","null","
                <div class=""stimulus-container"">
                    <img src=""images/schematic_sequence/hotel_scheme/hotel_scheme_8.png"" class=""exp-image"">
                    <div class=""question-area""></div> 
                </div>","null","","","","","","","",""
"","","","","","html-button-response","179","581490","0.0-179.0","930ACF58B2CF458AAE10936D5CD0AC6E","019cef8f-24a9-741f-9170-24c1e948722c","019cef87-c56d-7b55-9135-c5814367ec25","","985","
                <div class=""stimulus-container"">
                    <img src=""images/schematic_sequence/hotel_scheme/hotel_scheme_8.png"" class=""exp-image"">
                    <div class=""question-area"">
                        <p style=""font-size: 20px; font-weight: bold; margin: 0;"">Is there a person in this image?</p>
                    </div>
                </div>","0","main_experiment_trial","8","hotel_scheme","schematic_sequence","","","",""
"","","","","","html-keyboard-response","180","586502","0.0-180.0","930ACF58B2CF458AAE10936D5CD0AC6E","019cef8f-24a9-741f-9170-24c1e948722c","019cef87-c56d-7b55-9135-c5814367ec25","","null","
                <div class=""stimulus-container"">
                    <img src=""images/schematic_sequence/hotel_scheme/hotel_scheme_9.png"" class=""exp-image"">
                    <div class=""question-area""></div> 
                </div>","null","","","","","","","",""
"","","","","","html-button-response","181","587424","0.0-181.0","930ACF58B2CF458AAE10936D5CD0AC6E","019cef8f-24a9-741f-9170-24c1e948722c","019cef87-c56d-7b55-9135-c5814367ec25","","920","
                <div class=""stimulus-container"">
                    <img src=""images/schematic_sequence/hotel_scheme/hotel_scheme_9.png"" class=""exp-image"">
                    <div class=""question-area"">
                        <p style=""font-size: 20px; font-weight: bold; margin: 0;"">Is there a person in this image?</p>
                    </div>
                </div>","0","main_experiment_trial","9","hotel_scheme","schematic_sequence","","","",""
"","","","","","html-keyboard-response","182","592430","0.0-182.0","930ACF58B2CF458AAE10936D5CD0AC6E","019cef8f-24a9-741f-9170-24c1e948722c","019cef87-c56d-7b55-9135-c5814367ec25","","null","
                <div class=""stimulus-container"">
                    <img src=""images/schematic_sequence/hotel_scheme/hotel_scheme_ten.png"" class=""exp-image"">
                    <div class=""question-area""></div> 
                </div>","null","","","","","","","",""
"","","","","","html-button-response","183","593650","0.0-183.0","930ACF58B2CF458AAE10936D5CD0AC6E","019cef8f-24a9-741f-9170-24c1e948722c","019cef87-c56d-7b55-9135-c5814367ec25","","1218","
                <div class=""stimulus-container"">
                    <img src=""images/schematic_sequence/hotel_scheme/hotel_scheme_ten.png"" class=""exp-image"">
                    <div class=""question-area"">
                        <p style=""font-size: 20px; font-weight: bold; margin: 0;"">Is there a person in this image?</p>
                    </div>
                </div>","0","main_experiment_trial","ten","hotel_scheme","schematic_sequence","","","",""
"","","","","","html-keyboard-response","184","594657","0.0-184.0","930ACF58B2CF458AAE10936D5CD0AC6E","019cef8f-24a9-741f-9170-24c1e948722c","019cef87-c56d-7b55-9135-c5814367ec25","","null","<div style=""background-color: white; width: 100vw; height: 100vh;""></div>","null","","","","","","","",""
"","","","","","html-keyboard-response","185","599660","0.0-185.0","930ACF58B2CF458AAE10936D5CD0AC6E","019cef8f-24a9-741f-9170-24c1e948722c","019cef87-c56d-7b55-9135-c5814367ec25","","null","
                <div class=""stimulus-container"">
                    <img src=""images/causal_sequence/package_causal/package_causal_1.png"" class=""exp-image"">
                    <div class=""question-area""></div> 
                </div>","null","","","","","","","",""
"","","","","","html-button-response","186","600541","0.0-186.0","930ACF58B2CF458AAE10936D5CD0AC6E","019cef8f-24a9-741f-9170-24c1e948722c","019cef87-c56d-7b55-9135-c5814367ec25","","880","
