"success","timeout","failed_images","failed_audio","failed_video","trial_type","trial_index","time_elapsed","internal_node_id","subject_id","study_id","session_id","view_history","rt","stimulus","response","task","image_index","folder","sequence_type","presentation_order","valuable_image_index","reward_type","distance_from_x","target_X","chosen_image_index","is_x_plus_dist","correct_choice"
"true","false","[]","[]","[]","preload","0","1968","0.0-0.0","7020996C39314019AFDDBBC7BB73BFE2","019d6b04-9d30-7992-bf5a-8e86ab0ac606","019d6ae6-5d89-74c6-b581-3918d1816346","","","","","","","","","","","","","","","",""
"","","","","","instructions","1","9243","0.0-1.0","7020996C39314019AFDDBBC7BB73BFE2","019d6b04-9d30-7992-bf5a-8e86ab0ac606","019d6ae6-5d89-74c6-b581-3918d1816346","[{""page_index"":0,""viewing_time"":7274}]","7274","","","","","","","","","","","","","",""
"","","","","","instructions","2","16143","0.0-2.0","7020996C39314019AFDDBBC7BB73BFE2","019d6b04-9d30-7992-bf5a-8e86ab0ac606","019d6ae6-5d89-74c6-b581-3918d1816346","[{""page_index"":0,""viewing_time"":6899}]","6900","","","","","","","","","","","","","",""
"true","","","","","fullscreen","3","19023","0.0-3.0","7020996C39314019AFDDBBC7BB73BFE2","019d6b04-9d30-7992-bf5a-8e86ab0ac606","019d6ae6-5d89-74c6-b581-3918d1816346","","1864","","","","","","","","","","","","","",""
"","","","","","instructions","4","31878","0.0-4.0","7020996C39314019AFDDBBC7BB73BFE2","019d6b04-9d30-7992-bf5a-8e86ab0ac606","019d6ae6-5d89-74c6-b581-3918d1816346","[{""page_index"":0,""viewing_time"":12854}]","12855","","","","","","","","","","","","","",""
"","","","","","instructions","5","41274","0.0-5.0","7020996C39314019AFDDBBC7BB73BFE2","019d6b04-9d30-7992-bf5a-8e86ab0ac606","019d6ae6-5d89-74c6-b581-3918d1816346","[{""page_index"":0,""viewing_time"":9396}]","9396","","","","","","","","","","","","","",""
"","","","","","html-keyboard-response","6","45288","0.0-6.0","7020996C39314019AFDDBBC7BB73BFE2","019d6b04-9d30-7992-bf5a-8e86ab0ac606","019d6ae6-5d89-74c6-b581-3918d1816346","","null","
            <div class=""stimulus-container"">
                <img src=""images/instructions/movie_1.png"" class=""exp-image"">
                <div class=""question-area""></div> 
            </div>","null","","","","","","","","","","","",""
"","","","","","html-button-response","7","46707","0.0-7.0","7020996C39314019AFDDBBC7BB73BFE2","019d6b04-9d30-7992-bf5a-8e86ab0ac606","019d6ae6-5d89-74c6-b581-3918d1816346","","1418","
            <div class=""stimulus-container"">
                <img src=""images/instructions/movie_1.png"" class=""exp-image"">
                <div class=""question-area"">
                    <p style=""font-size: 20px; font-weight: bold; margin: 0;"">Was there a person in this image?</p>
                </div>
            </div>","0","example_question","1","","","","","","","","","",""
"","","","","","html-keyboard-response","8","50714","0.0-8.0","7020996C39314019AFDDBBC7BB73BFE2","019d6b04-9d30-7992-bf5a-8e86ab0ac606","019d6ae6-5d89-74c6-b581-3918d1816346","","null","
            <div class=""stimulus-container"">
                <img src=""images/instructions/movie_2.png"" class=""exp-image"">
                <div class=""question-area""></div> 
            </div>","null","","","","","","","","","","","",""
"","","","","","html-button-response","9","52009","0.0-9.0","7020996C39314019AFDDBBC7BB73BFE2","019d6b04-9d30-7992-bf5a-8e86ab0ac606","019d6ae6-5d89-74c6-b581-3918d1816346","","1293","
            <div class=""stimulus-container"">
                <img src=""images/instructions/movie_2.png"" class=""exp-image"">
                <div class=""question-area"">
                    <p style=""font-size: 20px; font-weight: bold; margin: 0;"">Was there a person in this image?</p>
                </div>
            </div>","0","example_question","2","","","","","","","","","",""
"","","","","","html-keyboard-response","10","56016","0.0-10.0","7020996C39314019AFDDBBC7BB73BFE2","019d6b04-9d30-7992-bf5a-8e86ab0ac606","019d6ae6-5d89-74c6-b581-3918d1816346","","null","
            <div class=""stimulus-container"">
                <img src=""images/instructions/movie_3.png"" class=""exp-image"">
                <div class=""question-area""></div> 
            </div>","null","","","","","","","","","","","",""
"","","","","","html-button-response","11","56774","0.0-11.0","7020996C39314019AFDDBBC7BB73BFE2","019d6b04-9d30-7992-bf5a-8e86ab0ac606","019d6ae6-5d89-74c6-b581-3918d1816346","","757","
            <div class=""stimulus-container"">
                <img src=""images/instructions/movie_3.png"" class=""exp-image"">
                <div class=""question-area"">
                    <p style=""font-size: 20px; font-weight: bold; margin: 0;"">Was there a person in this image?</p>
                </div>
            </div>","0","example_question","3","","","","","","","","","",""
"","","","","","html-keyboard-response","12","60776","0.0-12.0","7020996C39314019AFDDBBC7BB73BFE2","019d6b04-9d30-7992-bf5a-8e86ab0ac606","019d6ae6-5d89-74c6-b581-3918d1816346","","null","
            <div class=""stimulus-container"">
                <img src=""images/instructions/movie_4.png"" class=""exp-image"">
                <div class=""question-area""></div> 
            </div>","null","","","","","","","","","","","",""
"","","","","","html-button-response","13","61791","0.0-13.0","7020996C39314019AFDDBBC7BB73BFE2","019d6b04-9d30-7992-bf5a-8e86ab0ac606","019d6ae6-5d89-74c6-b581-3918d1816346","","1014","
            <div class=""stimulus-container"">
                <img src=""images/instructions/movie_4.png"" class=""exp-image"">
                <div class=""question-area"">
                    <p style=""font-size: 20px; font-weight: bold; margin: 0;"">Was there a person in this image?</p>
                </div>
            </div>","0","example_question","4","","","","","","","","","",""
"","","","","","instructions","14","63958","0.0-14.0","7020996C39314019AFDDBBC7BB73BFE2","019d6b04-9d30-7992-bf5a-8e86ab0ac606","019d6ae6-5d89-74c6-b581-3918d1816346","[{""page_index"":0,""viewing_time"":2166}]","2166","","","","","","","","","","","","","",""
"","","","","","instructions","15","70657","0.0-15.0","7020996C39314019AFDDBBC7BB73BFE2","019d6b04-9d30-7992-bf5a-8e86ab0ac606","019d6ae6-5d89-74c6-b581-3918d1816346","[{""page_index"":0,""viewing_time"":6699}]","6699","","","","","","","","","","","","","",""
"","","","","","html-keyboard-response","16","75667","0.0-16.0","7020996C39314019AFDDBBC7BB73BFE2","019d6b04-9d30-7992-bf5a-8e86ab0ac606","019d6ae6-5d89-74c6-b581-3918d1816346","","null","<div style=""background-color: white; width: 100vw; height: 100vh;""></div>","null","","","","","","","","","","","",""
"","","","","","html-keyboard-response","17","80679","0.0-17.0","7020996C39314019AFDDBBC7BB73BFE2","019d6b04-9d30-7992-bf5a-8e86ab0ac606","019d6ae6-5d89-74c6-b581-3918d1816346","","null","
                <div class=""stimulus-container"">
                    <img src=""semantic_sequence_notimeline/animals_semantic/animals_semantic_1.png"" class=""exp-image"">
                    <div class=""question-area""></div> 
                </div>","null","","","","","","","","","","","",""
"","","","","","html-button-response","18","82104","0.0-18.0","7020996C39314019AFDDBBC7BB73BFE2","019d6b04-9d30-7992-bf5a-8e86ab0ac606","019d6ae6-5d89-74c6-b581-3918d1816346","","1424","
                <div class=""stimulus-container"">
                    <img src=""semantic_sequence_notimeline/animals_semantic/animals_semantic_1.png"" class=""exp-image"">
                    <div class=""question-area"">
                        <p style=""font-size: 20px; font-weight: bold; margin: 0;"">Is there a person in this image?</p>
                    </div>
                </div>","1","main_experiment_trial","1","animals_semantic","semantic_sequence_notimeline","chronological","","","","","","",""
"","","","","","html-keyboard-response","19","87121","0.0-19.0","7020996C39314019AFDDBBC7BB73BFE2","019d6b04-9d30-7992-bf5a-8e86ab0ac606","019d6ae6-5d89-74c6-b581-3918d1816346","","null","
                <div class=""stimulus-container"">
                    <img src=""semantic_sequence_notimeline/animals_semantic/animals_semantic_2.png"" class=""exp-image"">
                    <div class=""question-area""></div> 
                </div>","null","","","","","","","","","","","",""
"","","","","","html-button-response","20","87976","0.0-20.0","7020996C39314019AFDDBBC7BB73BFE2","019d6b04-9d30-7992-bf5a-8e86ab0ac606","019d6ae6-5d89-74c6-b581-3918d1816346","","854","
                <div class=""stimulus-container"">
                    <img src=""semantic_sequence_notimeline/animals_semantic/animals_semantic_2.png"" class=""exp-image"">
                    <div class=""question-area"">
                        <p style=""font-size: 20px; font-weight: bold; margin: 0;"">Is there a person in this image?</p>
                    </div>
                </div>","1","main_experiment_trial","2","animals_semantic","semantic_sequence_notimeline","chronological","","","","","","",""
"","","","","","html-keyboard-response","21","92980","0.0-21.0","7020996C39314019AFDDBBC7BB73BFE2","019d6b04-9d30-7992-bf5a-8e86ab0ac606","019d6ae6-5d89-74c6-b581-3918d1816346","","null","
                <div class=""stimulus-container"">
                    <img src=""semantic_sequence_notimeline/animals_semantic/animals_semantic_3.png"" class=""exp-image"">
                    <div class=""question-area""></div> 
                </div>","null","","","","","","","","","","","",""
"","","","","","html-button-response","22","94223","0.0-22.0","7020996C39314019AFDDBBC7BB73BFE2","019d6b04-9d30-7992-bf5a-8e86ab0ac606","019d6ae6-5d89-74c6-b581-3918d1816346","","1241","
                <div class=""stimulus-container"">
                    <img src=""semantic_sequence_notimeline/animals_semantic/animals_semantic_3.png"" class=""exp-image"">
                    <div class=""question-area"">
                        <p style=""font-size: 20px; font-weight: bold; margin: 0;"">Is there a person in this image?</p>
                    </div>
                </div>","1","main_experiment_trial","3","animals_semantic","semantic_sequence_notimeline","chronological","","","","","","",""
"","","","","","html-keyboard-response","23","99229","0.0-23.0","7020996C39314019AFDDBBC7BB73BFE2","019d6b04-9d30-7992-bf5a-8e86ab0ac606","019d6ae6-5d89-74c6-b581-3918d1816346","","null","
                <div class=""stimulus-container"">
                    <img src=""semantic_sequence_notimeline/animals_semantic/animals_semantic_4.png"" class=""exp-image"">
                    <div class=""question-area""></div> 
                </div>","null","","","","","","","","","","","",""
"","","","","","html-button-response","24","100762","0.0-24.0","7020996C39314019AFDDBBC7BB73BFE2","019d6b04-9d30-7992-bf5a-8e86ab0ac606","019d6ae6-5d89-74c6-b581-3918d1816346","","1532","
                <div class=""stimulus-container"">
                    <img src=""semantic_sequence_notimeline/animals_semantic/animals_semantic_4.png"" class=""exp-image"">
                    <div class=""question-area"">
                        <p style=""font-size: 20px; font-weight: bold; margin: 0;"">Is there a person in this image?</p>
                    </div>
                </div>","1","main_experiment_trial","4","animals_semantic","semantic_sequence_notimeline","chronological","","","","","","",""
"","","","","","html-keyboard-response","25","105768","0.0-25.0","7020996C39314019AFDDBBC7BB73BFE2","019d6b04-9d30-7992-bf5a-8e86ab0ac606","019d6ae6-5d89-74c6-b581-3918d1816346","","null","
                <div class=""stimulus-container"">
                    <img src=""semantic_sequence_notimeline/animals_semantic/animals_semantic_5.png"" class=""exp-image"">
                    <div class=""question-area""></div> 
                </div>","null","","","","","","","","","","","",""
"","","","","","html-button-response","26","106473","0.0-26.0","7020996C39314019AFDDBBC7BB73BFE2","019d6b04-9d30-7992-bf5a-8e86ab0ac606","019d6ae6-5d89-74c6-b581-3918d1816346","","703","
                <div class=""stimulus-container"">
                    <img src=""semantic_sequence_notimeline/animals_semantic/animals_semantic_5.png"" class=""exp-image"">
                    <div class=""question-area"">
                        <p style=""font-size: 20px; font-weight: bold; margin: 0;"">Is there a person in this image?</p>
                    </div>
                </div>","1","main_experiment_trial","5","animals_semantic","semantic_sequence_notimeline","chronological","","","","","","",""
"","","","","","html-keyboard-response","27","111489","0.0-27.0","7020996C39314019AFDDBBC7BB73BFE2","019d6b04-9d30-7992-bf5a-8e86ab0ac606","019d6ae6-5d89-74c6-b581-3918d1816346","","null","
                <div class=""stimulus-container"">
                    <img src=""semantic_sequence_notimeline/animals_semantic/animals_semantic_6.png"" class=""exp-image"">
                    <div class=""question-area""></div> 
                </div>","null","","","","","","","","","","","",""
"","","","","","html-button-response","28","112224","0.0-28.0","7020996C39314019AFDDBBC7BB73BFE2","019d6b04-9d30-7992-bf5a-8e86ab0ac606","019d6ae6-5d89-74c6-b581-3918d1816346","","734","
                <div class=""stimulus-container"">
                    <img src=""semantic_sequence_notimeline/animals_semantic/animals_semantic_6.png"" class=""exp-image"">
                    <div class=""question-area"">
                        <p style=""font-size: 20px; font-weight: bold; margin: 0;"">Is there a person in this image?</p>
                    </div>
                </div>","1","main_experiment_trial","6","animals_semantic","semantic_sequence_notimeline","chronological","","","","","","",""
"","","","","","html-keyboard-response","29","117235","0.0-29.0","7020996C39314019AFDDBBC7BB73BFE2","019d6b04-9d30-7992-bf5a-8e86ab0ac606","019d6ae6-5d89-74c6-b581-3918d1816346","","null","
                <div class=""stimulus-container"">
                    <img src=""semantic_sequence_notimeline/animals_semantic/animals_semantic_7.png"" class=""exp-image"">
                    <div class=""question-area""></div> 
                </div>","null","","","","","","","","","","","",""
"","","","","","html-button-response","30","118225","0.0-30.0","7020996C39314019AFDDBBC7BB73BFE2","019d6b04-9d30-7992-bf5a-8e86ab0ac606","019d6ae6-5d89-74c6-b581-3918d1816346","","989","
                <div class=""stimulus-container"">
                    <img src=""semantic_sequence_notimeline/animals_semantic/animals_semantic_7.png"" class=""exp-image"">
                    <div class=""question-area"">
                        <p style=""font-size: 20px; font-weight: bold; margin: 0;"">Is there a person in this image?</p>
                    </div>
                </div>","1","main_experiment_trial","7","animals_semantic","semantic_sequence_notimeline","chronological","","","","","","",""
"","","","","","html-keyboard-response","31","123232","0.0-31.0","7020996C39314019AFDDBBC7BB73BFE2","019d6b04-9d30-7992-bf5a-8e86ab0ac606","019d6ae6-5d89-74c6-b581-3918d1816346","","null","
                <div class=""stimulus-container"">
                    <img src=""semantic_sequence_notimeline/animals_semantic/animals_semantic_8.png"" class=""exp-image"">
                    <div class=""question-area""></div> 
                </div>","null","","","","","","","","","","","",""
"","","","","","html-button-response","32","123940","0.0-32.0","7020996C39314019AFDDBBC7BB73BFE2","019d6b04-9d30-7992-bf5a-8e86ab0ac606","019d6ae6-5d89-74c6-b581-3918d1816346","","707","
                <div class=""stimulus-container"">
                    <img src=""semantic_sequence_notimeline/animals_semantic/animals_semantic_8.png"" class=""exp-image"">
                    <div class=""question-area"">
                        <p style=""font-size: 20px; font-weight: bold; margin: 0;"">Is there a person in this image?</p>
                    </div>
                </div>","1","main_experiment_trial","8","animals_semantic","semantic_sequence_notimeline","chronological","","","","","","",""
"","","","","","html-keyboard-response","33","128945","0.0-33.0","7020996C39314019AFDDBBC7BB73BFE2","019d6b04-9d30-7992-bf5a-8e86ab0ac606","019d6ae6-5d89-74c6-b581-3918d1816346","","null","
                <div class=""stimulus-container"">
                    <img src=""semantic_sequence_notimeline/animals_semantic/animals_semantic_9.png"" class=""exp-image"">
                    <div class=""question-area""></div> 
                </div>","null","","","","","","","","","","","",""
"","","","","","html-button-response","34","129694","0.0-34.0","7020996C39314019AFDDBBC7BB73BFE2","019d6b04-9d30-7992-bf5a-8e86ab0ac606","019d6ae6-5d89-74c6-b581-3918d1816346","","747","
                <div class=""stimulus-container"">
                    <img src=""semantic_sequence_notimeline/animals_semantic/animals_semantic_9.png"" class=""exp-image"">
                    <div class=""question-area"">
                        <p style=""font-size: 20px; font-weight: bold; margin: 0;"">Is there a person in this image?</p>
                    </div>
                </div>","1","main_experiment_trial","9","animals_semantic","semantic_sequence_notimeline","chronological","","","","","","",""
"","","","","","html-keyboard-response","35","134702","0.0-35.0","7020996C39314019AFDDBBC7BB73BFE2","019d6b04-9d30-7992-bf5a-8e86ab0ac606","019d6ae6-5d89-74c6-b581-3918d1816346","","null","
                <div class=""stimulus-container"">
                    <img src=""semantic_sequence_notimeline/animals_semantic/animals_semantic_ten.png"" class=""exp-image"">
                    <div class=""question-area""></div> 
                </div>","null","","","","","","","","","","","",""
"","","","","","html-button-response","36","135840","0.0-36.0","7020996C39314019AFDDBBC7BB73BFE2","019d6b04-9d30-7992-bf5a-8e86ab0ac606","019d6ae6-5d89-74c6-b581-3918d1816346","","1136","
                <div class=""stimulus-container"">
                    <img src=""semantic_sequence_notimeline/animals_semantic/animals_semantic_ten.png"" class=""exp-image"">
                    <div class=""question-area"">
                        <p style=""font-size: 20px; font-weight: bold; margin: 0;"">Is there a person in this image?</p>
                    </div>
                </div>","1","main_experiment_trial","ten","animals_semantic","semantic_sequence_notimeline","chronological","","","","","","",""
"","","","","","html-keyboard-response","37","140844","0.0-37.0","7020996C39314019AFDDBBC7BB73BFE2","019d6b04-9d30-7992-bf5a-8e86ab0ac606","019d6ae6-5d89-74c6-b581-3918d1816346","","null","<div style=""background-color: white; width: 100vw; height: 100vh;""></div>","null","","","","","","","","","","","",""
"","","","","","html-keyboard-response","38","145847","0.0-38.0","7020996C39314019AFDDBBC7BB73BFE2","019d6b04-9d30-7992-bf5a-8e86ab0ac606","019d6ae6-5d89-74c6-b581-3918d1816346","","null","
                <div class=""stimulus-container"">
                    <img src=""images/causal_sequence/saving_a_cat_causal/saving_a_cat_causal_1.png"" class=""exp-image"">
                    <div class=""question-area""></div> 
                </div>","null","","","","","","","","","","","",""
"","","","","","html-button-response","39","147058","0.0-39.0","7020996C39314019AFDDBBC7BB73BFE2","019d6b04-9d30-7992-bf5a-8e86ab0ac606","019d6ae6-5d89-74c6-b581-3918d1816346","","1209","
                <div class=""stimulus-container"">
                    <img src=""images/causal_sequence/saving_a_cat_causal/saving_a_cat_causal_1.png"" class=""exp-image"">
                    <div class=""question-area"">
                        <p style=""font-size: 20px; font-weight: bold; margin: 0;"">Is there a person in this image?</p>
                    </div>
                </div>","0","main_experiment_trial","1","saving_a_cat_causal","causal_sequence","chronological","","","","","","",""
"","","","","","html-keyboard-response","40","152063","0.0-40.0","7020996C39314019AFDDBBC7BB73BFE2","019d6b04-9d30-7992-bf5a-8e86ab0ac606","019d6ae6-5d89-74c6-b581-3918d1816346","","null","
                <div class=""stimulus-container"">
                    <img src=""images/causal_sequence/saving_a_cat_causal/saving_a_cat_causal_2.png"" class=""exp-image"">
                    <div class=""question-area""></div> 
                </div>","null","","","","","","","","","","","",""
"","","","","","html-button-response","41","153093","0.0-41.0","7020996C39314019AFDDBBC7BB73BFE2","019d6b04-9d30-7992-bf5a-8e86ab0ac606","019d6ae6-5d89-74c6-b581-3918d1816346","","1028","
                <div class=""stimulus-container"">
                    <img src=""images/causal_sequence/saving_a_cat_causal/saving_a_cat_causal_2.png"" class=""exp-image"">
                    <div class=""question-area"">
                        <p style=""font-size: 20px; font-weight: bold; margin: 0;"">Is there a person in this image?</p>
                    </div>
                </div>","1","main_experiment_trial","2","saving_a_cat_causal","causal_sequence","chronological","","","","","","",""
"","","","","","html-keyboard-response","42","158107","0.0-42.0","7020996C39314019AFDDBBC7BB73BFE2","019d6b04-9d30-7992-bf5a-8e86ab0ac606","019d6ae6-5d89-74c6-b581-3918d1816346","","null","
                <div class=""stimulus-container"">
                    <img src=""images/causal_sequence/saving_a_cat_causal/saving_a_cat_causal_3.png"" class=""exp-image"">
                    <div class=""question-area""></div> 
                </div>","null","","","","","","","","","","","",""
"","","","","","html-button-response","43","158890","0.0-43.0","7020996C39314019AFDDBBC7BB73BFE2","019d6b04-9d30-7992-bf5a-8e86ab0ac606","019d6ae6-5d89-74c6-b581-3918d1816346","","783","
                <div class=""stimulus-container"">
                    <img src=""images/causal_sequence/saving_a_cat_causal/saving_a_cat_causal_3.png"" class=""exp-image"">
                    <div class=""question-area"">
                        <p style=""font-size: 20px; font-weight: bold; margin: 0;"">Is there a person in this image?</p>
                    </div>
                </div>","1","main_experiment_trial","3","saving_a_cat_causal","causal_sequence","chronological","","","","","","",""
"","","","","","html-keyboard-response","44","163901","0.0-44.0","7020996C39314019AFDDBBC7BB73BFE2","019d6b04-9d30-7992-bf5a-8e86ab0ac606","019d6ae6-5d89-74c6-b581-3918d1816346","","null","
                <div class=""stimulus-container"">
                    <img src=""images/causal_sequence/saving_a_cat_causal/saving_a_cat_causal_4.png"" class=""exp-image"">
                    <div class=""question-area""></div> 
                </div>","null","","","","","","","","","","","",""
"","","","","","html-button-response","45","165423","0.0-45.0","7020996C39314019AFDDBBC7BB73BFE2","019d6b04-9d30-7992-bf5a-8e86ab0ac606","019d6ae6-5d89-74c6-b581-3918d1816346","","1520","
                <div class=""stimulus-container"">
                    <img src=""images/causal_sequence/saving_a_cat_causal/saving_a_cat_causal_4.png"" class=""exp-image"">
                    <div class=""question-area"">
                        <p style=""font-size: 20px; font-weight: bold; margin: 0;"">Is there a person in this image?</p>
                    </div>
                </div>","0","main_experiment_trial","4","saving_a_cat_causal","causal_sequence","chronological","","","","","","",""
"","","","","","html-keyboard-response","46","170429","0.0-46.0","7020996C39314019AFDDBBC7BB73BFE2","019d6b04-9d30-7992-bf5a-8e86ab0ac606","019d6ae6-5d89-74c6-b581-3918d1816346","","null","
                <div class=""stimulus-container"">
                    <img src=""images/causal_sequence/saving_a_cat_causal/saving_a_cat_causal_5.png"" class=""exp-image"">
                    <div class=""question-area""></div> 
                </div>","null","","","","","","","","","","","",""
"","","","","","html-button-response","47","171343","0.0-47.0","7020996C39314019AFDDBBC7BB73BFE2","019d6b04-9d30-7992-bf5a-8e86ab0ac606","019d6ae6-5d89-74c6-b581-3918d1816346","","912","
                <div class=""stimulus-container"">
                    <img src=""images/causal_sequence/saving_a_cat_causal/saving_a_cat_causal_5.png"" class=""exp-image"">
                    <div class=""question-area"">
                        <p style=""font-size: 20px; font-weight: bold; margin: 0;"">Is there a person in this image?</p>
                    </div>
                </div>","0","main_experiment_trial","5","saving_a_cat_causal","causal_sequence","chronological","","","","","","",""
"","","","","","html-keyboard-response","48","176351","0.0-48.0","7020996C39314019AFDDBBC7BB73BFE2","019d6b04-9d30-7992-bf5a-8e86ab0ac606","019d6ae6-5d89-74c6-b581-3918d1816346","","null","
                <div class=""stimulus-container"">
                    <img src=""images/causal_sequence/saving_a_cat_causal/saving_a_cat_causal_6.png"" class=""exp-image"">
                    <div class=""question-area""></div> 
                </div>","null","","","","","","","","","","","",""
"","","","","","html-button-response","49","177172","0.0-49.0","7020996C39314019AFDDBBC7BB73BFE2","019d6b04-9d30-7992-bf5a-8e86ab0ac606","019d6ae6-5d89-74c6-b581-3918d1816346","","819","
                <div class=""stimulus-container"">
                    <img src=""images/causal_sequence/saving_a_cat_causal/saving_a_cat_causal_6.png"" class=""exp-image"">
                    <div class=""question-area"">
                        <p style=""font-size: 20px; font-weight: bold; margin: 0;"">Is there a person in this image?</p>
                    </div>
                </div>","0","main_experiment_trial","6","saving_a_cat_causal","causal_sequence","chronological","","","","","","",""
"","","","","","html-keyboard-response","50","182186","0.0-50.0","7020996C39314019AFDDBBC7BB73BFE2","019d6b04-9d30-7992-bf5a-8e86ab0ac606","019d6ae6-5d89-74c6-b581-3918d1816346","","null","
                <div class=""stimulus-container"">
                    <img src=""images/causal_sequence/saving_a_cat_causal/saving_a_cat_causal_7.png"" class=""exp-image"">
                    <div class=""question-area""></div> 
                </div>","null","","","","","","","","","","","",""
"","","","","","html-button-response","51","183954","0.0-51.0","7020996C39314019AFDDBBC7BB73BFE2","019d6b04-9d30-7992-bf5a-8e86ab0ac606","019d6ae6-5d89-74c6-b581-3918d1816346","","1767","
                <div class=""stimulus-container"">
                    <img src=""images/causal_sequence/saving_a_cat_causal/saving_a_cat_causal_7.png"" class=""exp-image"">
                    <div class=""question-area"">
                        <p style=""font-size: 20px; font-weight: bold; margin: 0;"">Is there a person in this image?</p>
                    </div>
                </div>","0","main_experiment_trial","7","saving_a_cat_causal","causal_sequence","chronological","","","","","","",""
"","","","","","html-keyboard-response","52","188958","0.0-52.0","7020996C39314019AFDDBBC7BB73BFE2","019d6b04-9d30-7992-bf5a-8e86ab0ac606","019d6ae6-5d89-74c6-b581-3918d1816346","","null","
                <div class=""stimulus-container"">
                    <img src=""images/causal_sequence/saving_a_cat_causal/saving_a_cat_causal_8.png"" class=""exp-image"">
                    <div class=""question-area""></div> 
                </div>","null","","","","","","","","","","","",""
"","","","","","html-button-response","53","189774","0.0-53.0","7020996C39314019AFDDBBC7BB73BFE2","019d6b04-9d30-7992-bf5a-8e86ab0ac606","019d6ae6-5d89-74c6-b581-3918d1816346","","814","
                <div class=""stimulus-container"">
                    <img src=""images/causal_sequence/saving_a_cat_causal/saving_a_cat_causal_8.png"" class=""exp-image"">
                    <div class=""question-area"">
                        <p style=""font-size: 20px; font-weight: bold; margin: 0;"">Is there a person in this image?</p>
                    </div>
                </div>","0","main_experiment_trial","8","saving_a_cat_causal","causal_sequence","chronological","","","","","","",""
"","","","","","html-keyboard-response","54","194781","0.0-54.0","7020996C39314019AFDDBBC7BB73BFE2","019d6b04-9d30-7992-bf5a-8e86ab0ac606","019d6ae6-5d89-74c6-b581-3918d1816346","","null","
                <div class=""stimulus-container"">
                    <img src=""images/causal_sequence/saving_a_cat_causal/saving_a_cat_causal_9.png"" class=""exp-image"">
                    <div class=""question-area""></div> 
                </div>","null","","","","","","","","","","","",""
"","","","","","html-button-response","55","195607","0.0-55.0","7020996C39314019AFDDBBC7BB73BFE2","019d6b04-9d30-7992-bf5a-8e86ab0ac606","019d6ae6-5d89-74c6-b581-3918d1816346","","824","
                <div class=""stimulus-container"">
                    <img src=""images/causal_sequence/saving_a_cat_causal/saving_a_cat_causal_9.png"" class=""exp-image"">
                    <div class=""question-area"">
                        <p style=""font-size: 20px; font-weight: bold; margin: 0;"">Is there a person in this image?</p>
                    </div>
                </div>","0","main_experiment_trial","9","saving_a_cat_causal","causal_sequence","chronological","","","","","","",""
"","","","","","html-keyboard-response","56","200622","0.0-56.0","7020996C39314019AFDDBBC7BB73BFE2","019d6b04-9d30-7992-bf5a-8e86ab0ac606","019d6ae6-5d89-74c6-b581-3918d1816346","","null","
                <div class=""stimulus-container"">
                    <img src=""images/causal_sequence/saving_a_cat_causal/saving_a_cat_causal_ten.png"" class=""exp-image"">
                    <div class=""question-area""></div> 
                </div>","null","","","","","","","","","","","",""
"","","","","","html-button-response","57","201340","0.0-57.0","7020996C39314019AFDDBBC7BB73BFE2","019d6b04-9d30-7992-bf5a-8e86ab0ac606","019d6ae6-5d89-74c6-b581-3918d1816346","","717","
                <div class=""stimulus-container"">
                    <img src=""images/causal_sequence/saving_a_cat_causal/saving_a_cat_causal_ten.png"" class=""exp-image"">
                    <div class=""question-area"">
                        <p style=""font-size: 20px; font-weight: bold; margin: 0;"">Is there a person in this image?</p>
                    </div>
                </div>","0","main_experiment_trial","ten","saving_a_cat_causal","causal_sequence","chronological","","","","","","",""
"","","","","","html-keyboard-response","58","206349","0.0-58.0","7020996C39314019AFDDBBC7BB73BFE2","019d6b04-9d30-7992-bf5a-8e86ab0ac606","019d6ae6-5d89-74c6-b581-3918d1816346","","null","<div style=""background-color: white; width: 100vw; height: 100vh;""></div>","null","","","","","","","","","","","",""
"","","","","","html-keyboard-response","59","211354","0.0-59.0","7020996C39314019AFDDBBC7BB73BFE2","019d6b04-9d30-7992-bf5a-8e86ab0ac606","019d6ae6-5d89-74c6-b581-3918d1816346","","null","
                <div class=""stimulus-container"">
                    <img src=""images/causal_sequence/coin_causal/coin_causal_1.png"" class=""exp-image"">
                    <div class=""question-area""></div> 
                </div>","null","","","","","","","","","","","",""
"","","","","","html-button-response","60","212825","0.0-60.0","7020996C39314019AFDDBBC7BB73BFE2","019d6b04-9d30-7992-bf5a-8e86ab0ac606","019d6ae6-5d89-74c6-b581-3918d1816346","","1470","
                <div class=""stimulus-container"">
                    <img src=""images/causal_sequence/coin_causal/coin_causal_1.png"" class=""exp-image"">
                    <div class=""question-area"">
                        <p style=""font-size: 20px; font-weight: bold; margin: 0;"">Is there a person in this image?</p>
                    </div>
                </div>","0","main_experiment_trial","1","coin_causal","causal_sequence","chronological","","","","","","",""
"","","","","","html-keyboard-response","61","217831","0.0-61.0","7020996C39314019AFDDBBC7BB73BFE2","019d6b04-9d30-7992-bf5a-8e86ab0ac606","019d6ae6-5d89-74c6-b581-3918d1816346","","null","
                <div class=""stimulus-container"">
                    <img src=""images/causal_sequence/coin_causal/coin_causal_2.png"" class=""exp-image"">
                    <div class=""question-area""></div> 
                </div>","null","","","","","","","","","","","",""
"","","","","","html-button-response","62","219056","0.0-62.0","7020996C39314019AFDDBBC7BB73BFE2","019d6b04-9d30-7992-bf5a-8e86ab0ac606","019d6ae6-5d89-74c6-b581-3918d1816346","","1224","
                <div class=""stimulus-container"">
                    <img src=""images/causal_sequence/coin_causal/coin_causal_2.png"" class=""exp-image"">
                    <div class=""question-area"">
                        <p style=""font-size: 20px; font-weight: bold; margin: 0;"">Is there a person in this image?</p>
                    </div>
                </div>","0","main_experiment_trial","2","coin_causal","causal_sequence","chronological","","","","","","",""
"","","","","","html-keyboard-response","63","224067","0.0-63.0","7020996C39314019AFDDBBC7BB73BFE2","019d6b04-9d30-7992-bf5a-8e86ab0ac606","019d6ae6-5d89-74c6-b581-3918d1816346","","null","
                <div class=""stimulus-container"">
                    <img src=""images/causal_sequence/coin_causal/coin_causal_3.png"" class=""exp-image"">
                    <div class=""question-area""></div> 
                </div>","null","","","","","","","","","","","",""
"","","","","","html-button-response","64","225122","0.0-64.0","7020996C39314019AFDDBBC7BB73BFE2","019d6b04-9d30-7992-bf5a-8e86ab0ac606","019d6ae6-5d89-74c6-b581-3918d1816346","","1054","
                <div class=""stimulus-container"">
                    <img src=""images/causal_sequence/coin_causal/coin_causal_3.png"" class=""exp-image"">
                    <div class=""question-area"">
                        <p style=""font-size: 20px; font-weight: bold; margin: 0;"">Is there a person in this image?</p>
                    </div>
                </div>","0","main_experiment_trial","3","coin_causal","causal_sequence","chronological","","","","","","",""
"","","","","","html-keyboard-response","65","230132","0.0-65.0","7020996C39314019AFDDBBC7BB73BFE2","019d6b04-9d30-7992-bf5a-8e86ab0ac606","019d6ae6-5d89-74c6-b581-3918d1816346","","null","
                <div class=""stimulus-container"">
                    <img src=""images/causal_sequence/coin_causal/coin_causal_4.png"" class=""exp-image"">
                    <div class=""question-area""></div> 
                </div>","null","","","","","","","","","","","",""
"","","","","","html-button-response","66","230959","0.0-66.0","7020996C39314019AFDDBBC7BB73BFE2","019d6b04-9d30-7992-bf5a-8e86ab0ac606","019d6ae6-5d89-74c6-b581-3918d1816346","","825","
                <div class=""stimulus-container"">
                    <img src=""images/causal_sequence/coin_causal/coin_causal_4.png"" class=""exp-image"">
                    <div class=""question-area"">
                        <p style=""font-size: 20px; font-weight: bold; margin: 0;"">Is there a person in this image?</p>
                    </div>
                </div>","0","main_experiment_trial","4","coin_causal","causal_sequence","chronological","","","","","","",""
"","","","","","html-keyboard-response","67","235966","0.0-67.0","7020996C39314019AFDDBBC7BB73BFE2","019d6b04-9d30-7992-bf5a-8e86ab0ac606","019d6ae6-5d89-74c6-b581-3918d1816346","","null","
                <div class=""stimulus-container"">
                    <img src=""images/causal_sequence/coin_causal/coin_causal_5.png"" class=""exp-image"">
                    <div class=""question-area""></div> 
                </div>","null","","","","","","","","","","","",""
"","","","","","html-button-response","68","236906","0.0-68.0","7020996C39314019AFDDBBC7BB73BFE2","019d6b04-9d30-7992-bf5a-8e86ab0ac606","019d6ae6-5d89-74c6-b581-3918d1816346","","939","
                <div class=""stimulus-container"">
                    <img src=""images/causal_sequence/coin_causal/coin_causal_5.png"" class=""exp-image"">
                    <div class=""question-area"">
                        <p style=""font-size: 20px; font-weight: bold; margin: 0;"">Is there a person in this image?</p>
                    </div>
                </div>","0","main_experiment_trial","5","coin_causal","causal_sequence","chronological","","","","","","",""
"","","","","","html-keyboard-response","69","241918","0.0-69.0","7020996C39314019AFDDBBC7BB73BFE2","019d6b04-9d30-7992-bf5a-8e86ab0ac606","019d6ae6-5d89-74c6-b581-3918d1816346","","null","
                <div class=""stimulus-container"">
                    <img src=""images/causal_sequence/coin_causal/coin_causal_6.png"" class=""exp-image"">
                    <div class=""question-area""></div> 
                </div>","null","","","","","","","","","","","",""
"","","","","","html-button-response","70","242773","0.0-70.0","7020996C39314019AFDDBBC7BB73BFE2","019d6b04-9d30-7992-bf5a-8e86ab0ac606","019d6ae6-5d89-74c6-b581-3918d1816346","","853","
                <div class=""stimulus-container"">
                    <img src=""images/causal_sequence/coin_causal/coin_causal_6.png"" class=""exp-image"">
                    <div class=""question-area"">
                        <p style=""font-size: 20px; font-weight: bold; margin: 0;"">Is there a person in this image?</p>
                    </div>
                </div>","0","main_experiment_trial","6","coin_causal","causal_sequence","chronological","","","","","","",""
"","","","","","html-keyboard-response","71","247783","0.0-71.0","7020996C39314019AFDDBBC7BB73BFE2","019d6b04-9d30-7992-bf5a-8e86ab0ac606","019d6ae6-5d89-74c6-b581-3918d1816346","","null","
                <div class=""stimulus-container"">
                    <img src=""images/causal_sequence/coin_causal/coin_causal_7.png"" class=""exp-image"">
                    <div class=""question-area""></div> 
                </div>","null","","","","","","","","","","","",""
"","","","","","html-button-response","72","249225","0.0-72.0","7020996C39314019AFDDBBC7BB73BFE2","019d6b04-9d30-7992-bf5a-8e86ab0ac606","019d6ae6-5d89-74c6-b581-3918d1816346","","1440","
                <div class=""stimulus-container"">
                    <img src=""images/causal_sequence/coin_causal/coin_causal_7.png"" class=""exp-image"">
                    <div class=""question-area"">
                        <p style=""font-size: 20px; font-weight: bold; margin: 0;"">Is there a person in this image?</p>
                    </div>
                </div>","1","main_experiment_trial","7","coin_causal","causal_sequence","chronological","","","","","","",""
"","","","","","html-keyboard-response","73","254235","0.0-73.0","7020996C39314019AFDDBBC7BB73BFE2","019d6b04-9d30-7992-bf5a-8e86ab0ac606","019d6ae6-5d89-74c6-b581-3918d1816346","","null","
                <div class=""stimulus-container"">
                    <img src=""images/causal_sequence/coin_causal/coin_causal_8.png"" class=""exp-image"">
                    <div class=""question-area""></div> 
                </div>","null","","","","","","","","","","","",""
"","","","","","html-button-response","74","255705","0.0-74.0","7020996C39314019AFDDBBC7BB73BFE2","019d6b04-9d30-7992-bf5a-8e86ab0ac606","019d6ae6-5d89-74c6-b581-3918d1816346","","1469","
                <div class=""stimulus-container"">
                    <img src=""images/causal_sequence/coin_causal/coin_causal_8.png"" class=""exp-image"">
                    <div class=""question-area"">
                        <p style=""font-size: 20px; font-weight: bold; margin: 0;"">Is there a person in this image?</p>
                    </div>
                </div>","0","main_experiment_trial","8","coin_causal","causal_sequence","chronological","","","","","","",""
"","","","","","html-keyboard-response","75","260715","0.0-75.0","7020996C39314019AFDDBBC7BB73BFE2","019d6b04-9d30-7992-bf5a-8e86ab0ac606","019d6ae6-5d89-74c6-b581-3918d1816346","","null","
                <div class=""stimulus-container"">
                    <img src=""images/causal_sequence/coin_causal/coin_causal_9.png"" class=""exp-image"">
                    <div class=""question-area""></div> 
                </div>","null","","","","","","","","","","","",""
"","","","","","html-button-response","76","262358","0.0-76.0","7020996C39314019AFDDBBC7BB73BFE2","019d6b04-9d30-7992-bf5a-8e86ab0ac606","019d6ae6-5d89-74c6-b581-3918d1816346","","1641","
                <div class=""stimulus-container"">
                    <img src=""images/causal_sequence/coin_causal/coin_causal_9.png"" class=""exp-image"">
                    <div class=""question-area"">
                        <p style=""font-size: 20px; font-weight: bold; margin: 0;"">Is there a person in this image?</p>
                    </div>
                </div>","0","main_experiment_trial","9","coin_causal","causal_sequence","chronological","","","","","","",""
"","","","","","html-keyboard-response","77","267359","0.0-77.0","7020996C39314019AFDDBBC7BB73BFE2","019d6b04-9d30-7992-bf5a-8e86ab0ac606","019d6ae6-5d89-74c6-b581-3918d1816346","","null","
                <div class=""stimulus-container"">
                    <img src=""images/causal_sequence/coin_causal/coin_causal_ten.png"" class=""exp-image"">
                    <div class=""question-area""></div> 
                </div>","null","","","","","","","","","","","",""
"","","","","","html-button-response","78","269254","0.0-78.0","7020996C39314019AFDDBBC7BB73BFE2","019d6b04-9d30-7992-bf5a-8e86ab0ac606","019d6ae6-5d89-74c6-b581-3918d1816346","","1892","
                <div class=""stimulus-container"">
                    <img src=""images/causal_sequence/coin_causal/coin_causal_ten.png"" class=""exp-image"">
                    <div class=""question-area"">
                        <p style=""font-size: 20px; font-weight: bold; margin: 0;"">Is there a person in this image?</p>
                    </div>
                </div>","0","main_experiment_trial","ten","coin_causal","causal_sequence","chronological","","","","","","",""
"","","","","","html-keyboard-response","79","274257","0.0-79.0","7020996C39314019AFDDBBC7BB73BFE2","019d6b04-9d30-7992-bf5a-8e86ab0ac606","019d6ae6-5d89-74c6-b581-3918d1816346","","null","<div style=""background-color: white; width: 100vw; height: 100vh;""></div>","null","","","","","","","","","","","",""
"","","","","","html-keyboard-response","80","279259","0.0-80.0","7020996C39314019AFDDBBC7BB73BFE2","019d6b04-9d30-7992-bf5a-8e86ab0ac606","019d6ae6-5d89-74c6-b581-3918d1816346","","null","
                <div class=""stimulus-container"">
                    <img src=""semantic_sequence_notimeline/transportation_semantic/transportation_semantic_1.png"" class=""exp-image"">
                    <div class=""question-area""></div> 
                </div>","null","","","","","","","","","","","",""
"","","","","","html-button-response","81","281190","0.0-81.0","7020996C39314019AFDDBBC7BB73BFE2","019d6b04-9d30-7992-bf5a-8e86ab0ac606","019d6ae6-5d89-74c6-b581-3918d1816346","","1930","
                <div class=""stimulus-container"">
                    <img src=""semantic_sequence_notimeline/transportation_semantic/transportation_semantic_1.png"" class=""exp-image"">
                    <div class=""question-area"">
                        <p style=""font-size: 20px; font-weight: bold; margin: 0;"">Is there a person in this image?</p>
                    </div>
                </div>","1","main_experiment_trial","1","transportation_semantic","semantic_sequence_notimeline","chronological","","","","","","",""
"","","","","","html-keyboard-response","82","286207","0.0-82.0","7020996C39314019AFDDBBC7BB73BFE2","019d6b04-9d30-7992-bf5a-8e86ab0ac606","019d6ae6-5d89-74c6-b581-3918d1816346","","null","
                <div class=""stimulus-container"">
                    <img src=""semantic_sequence_notimeline/transportation_semantic/transportation_semantic_2.png"" class=""exp-image"">
                    <div class=""question-area""></div> 
                </div>","null","","","","","","","","","","","",""
"","","","","","html-button-response","83","287023","0.0-83.0","7020996C39314019AFDDBBC7BB73BFE2","019d6b04-9d30-7992-bf5a-8e86ab0ac606","019d6ae6-5d89-74c6-b581-3918d1816346","","814","
                <div class=""stimulus-container"">
                    <img src=""semantic_sequence_notimeline/transportation_semantic/transportation_semantic_2.png"" class=""exp-image"">
                    <div class=""question-area"">
                        <p style=""font-size: 20px; font-weight: bold; margin: 0;"">Is there a person in this image?</p>
                    </div>
                </div>","1","main_experiment_trial","2","transportation_semantic","semantic_sequence_notimeline","chronological","","","","","","",""
"","","","","","html-keyboard-response","84","292029","0.0-84.0","7020996C39314019AFDDBBC7BB73BFE2","019d6b04-9d30-7992-bf5a-8e86ab0ac606","019d6ae6-5d89-74c6-b581-3918d1816346","","null","
                <div class=""stimulus-container"">
                    <img src=""semantic_sequence_notimeline/transportation_semantic/transportation_semantic_3.png"" class=""exp-image"">
                    <div class=""question-area""></div> 
                </div>","null","","","","","","","","","","","",""
"","","","","","html-button-response","85","292953","0.0-85.0","7020996C39314019AFDDBBC7BB73BFE2","019d6b04-9d30-7992-bf5a-8e86ab0ac606","019d6ae6-5d89-74c6-b581-3918d1816346","","922","
                <div class=""stimulus-container"">
                    <img src=""semantic_sequence_notimeline/transportation_semantic/transportation_semantic_3.png"" class=""exp-image"">
                    <div class=""question-area"">
                        <p style=""font-size: 20px; font-weight: bold; margin: 0;"">Is there a person in this image?</p>
                    </div>
                </div>","1","main_experiment_trial","3","transportation_semantic","semantic_sequence_notimeline","chronological","","","","","","",""
"","","","","","html-keyboard-response","86","297955","0.0-86.0","7020996C39314019AFDDBBC7BB73BFE2","019d6b04-9d30-7992-bf5a-8e86ab0ac606","019d6ae6-5d89-74c6-b581-3918d1816346","","null","
                <div class=""stimulus-container"">
                    <img src=""semantic_sequence_notimeline/transportation_semantic/transportation_semantic_4.png"" class=""exp-image"">
                    <div class=""question-area""></div> 
                </div>","null","","","","","","","","","","","",""
"","","","","","html-button-response","87","299506","0.0-87.0","7020996C39314019AFDDBBC7BB73BFE2","019d6b04-9d30-7992-bf5a-8e86ab0ac606","019d6ae6-5d89-74c6-b581-3918d1816346","","1550","
                <div class=""stimulus-container"">
                    <img src=""semantic_sequence_notimeline/transportation_semantic/transportation_semantic_4.png"" class=""exp-image"">
                    <div class=""question-area"">
                        <p style=""font-size: 20px; font-weight: bold; margin: 0;"">Is there a person in this image?</p>
                    </div>
                </div>","1","main_experiment_trial","4","transportation_semantic","semantic_sequence_notimeline","chronological","","","","","","",""
"","","","","","html-keyboard-response","88","304513","0.0-88.0","7020996C39314019AFDDBBC7BB73BFE2","019d6b04-9d30-7992-bf5a-8e86ab0ac606","019d6ae6-5d89-74c6-b581-3918d1816346","","null","
                <div class=""stimulus-container"">
                    <img src=""semantic_sequence_notimeline/transportation_semantic/transportation_semantic_5.png"" class=""exp-image"">
                    <div class=""question-area""></div> 
                </div>","null","","","","","","","","","","","",""
"","","","","","html-button-response","89","306202","0.0-89.0","7020996C39314019AFDDBBC7BB73BFE2","019d6b04-9d30-7992-bf5a-8e86ab0ac606","019d6ae6-5d89-74c6-b581-3918d1816346","","1687","
                <div class=""stimulus-container"">
                    <img src=""semantic_sequence_notimeline/transportation_semantic/transportation_semantic_5.png"" class=""exp-image"">
                    <div class=""question-area"">
                        <p style=""font-size: 20px; font-weight: bold; margin: 0;"">Is there a person in this image?</p>
                    </div>
                </div>","1","main_experiment_trial","5","transportation_semantic","semantic_sequence_notimeline","chronological","","","","","","",""
"","","","","","html-keyboard-response","90","311219","0.0-90.0","7020996C39314019AFDDBBC7BB73BFE2","019d6b04-9d30-7992-bf5a-8e86ab0ac606","019d6ae6-5d89-74c6-b581-3918d1816346","","null","
                <div class=""stimulus-container"">
                    <img src=""semantic_sequence_notimeline/transportation_semantic/transportation_semantic_6.png"" class=""exp-image"">
                    <div class=""question-area""></div> 
                </div>","null","","","","","","","","","","","",""
"","","","","","html-button-response","91","313653","0.0-91.0","7020996C39314019AFDDBBC7BB73BFE2","019d6b04-9d30-7992-bf5a-8e86ab0ac606","019d6ae6-5d89-74c6-b581-3918d1816346","","2433","
                <div class=""stimulus-container"">
                    <img src=""semantic_sequence_notimeline/transportation_semantic/transportation_semantic_6.png"" class=""exp-image"">
                    <div class=""question-area"">
                        <p style=""font-size: 20px; font-weight: bold; margin: 0;"">Is there a person in this image?</p>
                    </div>
                </div>","1","main_experiment_trial","6","transportation_semantic","semantic_sequence_notimeline","chronological","","","","","","",""
"","","","","","html-keyboard-response","92","318655","0.0-92.0","7020996C39314019AFDDBBC7BB73BFE2","019d6b04-9d30-7992-bf5a-8e86ab0ac606","019d6ae6-5d89-74c6-b581-3918d1816346","","null","
                <div class=""stimulus-container"">
                    <img src=""semantic_sequence_notimeline/transportation_semantic/transportation_semantic_7.png"" class=""exp-image"">
                    <div class=""question-area""></div> 
                </div>","null","","","","","","","","","","","",""
"","","","","","html-button-response","93","321660","0.0-93.0","7020996C39314019AFDDBBC7BB73BFE2","019d6b04-9d30-7992-bf5a-8e86ab0ac606","019d6ae6-5d89-74c6-b581-3918d1816346","","null","
                <div class=""stimulus-container"">
                    <img src=""semantic_sequence_notimeline/transportation_semantic/transportation_semantic_7.png"" class=""exp-image"">
                    <div class=""question-area"">
                        <p style=""font-size: 20px; font-weight: bold; margin: 0;"">Is there a person in this image?</p>
                    </div>
                </div>","null","main_experiment_trial","7","transportation_semantic","semantic_sequence_notimeline","chronological","","","","","","",""
"","","","","","html-keyboard-response","94","326676","0.0-94.0","7020996C39314019AFDDBBC7BB73BFE2","019d6b04-9d30-7992-bf5a-8e86ab0ac606","019d6ae6-5d89-74c6-b581-3918d1816346","","null","
                <div class=""stimulus-container"">
                    <img src=""semantic_sequence_notimeline/transportation_semantic/transportation_semantic_8.png"" class=""exp-image"">
                    <div class=""question-area""></div> 
                </div>","null","","","","","","","","","","","",""
"","","","","","html-button-response","95","328037","0.0-95.0","7020996C39314019AFDDBBC7BB73BFE2","019d6b04-9d30-7992-bf5a-8e86ab0ac606","019d6ae6-5d89-74c6-b581-3918d1816346","","1359","
                <div class=""stimulus-container"">
                    <img src=""semantic_sequence_notimeline/transportation_semantic/transportation_semantic_8.png"" class=""exp-image"">
                    <div class=""question-area"">
                        <p style=""font-size: 20px; font-weight: bold; margin: 0;"">Is there a person in this image?</p>
                    </div>
                </div>","1","main_experiment_trial","8","transportation_semantic","semantic_sequence_notimeline","chronological","","","","","","",""
"","","","","","html-keyboard-response","96","333040","0.0-96.0","7020996C39314019AFDDBBC7BB73BFE2","019d6b04-9d30-7992-bf5a-8e86ab0ac606","019d6ae6-5d89-74c6-b581-3918d1816346","","null","
                <div class=""stimulus-container"">
                    <img src=""semantic_sequence_notimeline/transportation_semantic/transportation_semantic_9.png"" class=""exp-image"">
                    <div class=""question-area""></div> 
                </div>","null","","","","","","","","","","","",""
"","","","","","html-button-response","97","334570","0.0-97.0","7020996C39314019AFDDBBC7BB73BFE2","019d6b04-9d30-7992-bf5a-8e86ab0ac606","019d6ae6-5d89-74c6-b581-3918d1816346","","1529","
                <div class=""stimulus-container"">
                    <img src=""semantic_sequence_notimeline/transportation_semantic/transportation_semantic_9.png"" class=""exp-image"">
                    <div class=""question-area"">
                        <p style=""font-size: 20px; font-weight: bold; margin: 0;"">Is there a person in this image?</p>
                    </div>
                </div>","1","main_experiment_trial","9","transportation_semantic","semantic_sequence_notimeline","chronological","","","","","","",""
"","","","","","html-keyboard-response","98","339574","0.0-98.0","7020996C39314019AFDDBBC7BB73BFE2","019d6b04-9d30-7992-bf5a-8e86ab0ac606","019d6ae6-5d89-74c6-b581-3918d1816346","","null","
                <div class=""stimulus-container"">
                    <img src=""semantic_sequence_notimeline/transportation_semantic/transportation_semantic_ten.png"" class=""exp-image"">
                    <div class=""question-area""></div> 
                </div>","null","","","","","","","","","","","",""
"","","","","","html-button-response","99","340457","0.0-99.0","7020996C39314019AFDDBBC7BB73BFE2","019d6b04-9d30-7992-bf5a-8e86ab0ac606","019d6ae6-5d89-74c6-b581-3918d1816346","","881","
                <div class=""stimulus-container"">
                    <img src=""semantic_sequence_notimeline/transportation_semantic/transportation_semantic_ten.png"" class=""exp-image"">
                    <div class=""question-area"">
                        <p style=""font-size: 20px; font-weight: bold; margin: 0;"">Is there a person in this image?</p>
                    </div>
                </div>","1","main_experiment_trial","ten","transportation_semantic","semantic_sequence_notimeline","chronological","","","","","","",""
"","","","","","html-keyboard-response","100","345461","0.0-100.0","7020996C39314019AFDDBBC7BB73BFE2","019d6b04-9d30-7992-bf5a-8e86ab0ac606","019d6ae6-5d89-74c6-b581-3918d1816346","","null","<div style=""background-color: white; width: 100vw; height: 100vh;""></div>","null","","","","","","","","","","","",""
"","","","","","html-keyboard-response","101","350474","0.0-101.0","7020996C39314019AFDDBBC7BB73BFE2","019d6b04-9d30-7992-bf5a-8e86ab0ac606","019d6ae6-5d89-74c6-b581-3918d1816346","","null","
                <div class=""stimulus-container"">
                    <img src=""images/causal_sequence/dog_causal/dog_causal_1.png"" class=""exp-image"">
                    <div class=""question-area""></div> 
                </div>","null","","","","","","","","","","","",""
"","","","","","html-button-response","102","351569","0.0-102.0","7020996C39314019AFDDBBC7BB73BFE2","019d6b04-9d30-7992-bf5a-8e86ab0ac606","019d6ae6-5d89-74c6-b581-3918d1816346","","1094","
                <div class=""stimulus-container"">
                    <img src=""images/causal_sequence/dog_causal/dog_causal_1.png"" class=""exp-image"">
                    <div class=""question-area"">
                        <p style=""font-size: 20px; font-weight: bold; margin: 0;"">Is there a person in this image?</p>
                    </div>
                </div>","0","main_experiment_trial","1","dog_causal","causal_sequence","chronological","","","","","","",""
"","","","","","html-keyboard-response","103","356579","0.0-103.0","7020996C39314019AFDDBBC7BB73BFE2","019d6b04-9d30-7992-bf5a-8e86ab0ac606","019d6ae6-5d89-74c6-b581-3918d1816346","","null","
                <div class=""stimulus-container"">
                    <img src=""images/causal_sequence/dog_causal/dog_causal_2.png"" class=""exp-image"">
                    <div class=""question-area""></div> 
                </div>","null","","","","","","","","","","","",""
"","","","","","html-button-response","104","358119","0.0-104.0","7020996C39314019AFDDBBC7BB73BFE2","019d6b04-9d30-7992-bf5a-8e86ab0ac606","019d6ae6-5d89-74c6-b581-3918d1816346","","1539","
                <div class=""stimulus-container"">
                    <img src=""images/causal_sequence/dog_causal/dog_causal_2.png"" class=""exp-image"">
                    <div class=""question-area"">
                        <p style=""font-size: 20px; font-weight: bold; margin: 0;"">Is there a person in this image?</p>
                    </div>
                </div>","0","main_experiment_trial","2","dog_causal","causal_sequence","chronological","","","","","","",""
"","","","","","html-keyboard-response","105","363133","0.0-105.0","7020996C39314019AFDDBBC7BB73BFE2","019d6b04-9d30-7992-bf5a-8e86ab0ac606","019d6ae6-5d89-74c6-b581-3918d1816346","","null","
                <div class=""stimulus-container"">
                    <img src=""images/causal_sequence/dog_causal/dog_causal_3.png"" class=""exp-image"">
                    <div class=""question-area""></div> 
                </div>","null","","","","","","","","","","","",""
"","","","","","html-button-response","106","364401","0.0-106.0","7020996C39314019AFDDBBC7BB73BFE2","019d6b04-9d30-7992-bf5a-8e86ab0ac606","019d6ae6-5d89-74c6-b581-3918d1816346","","1267","
                <div class=""stimulus-container"">
                    <img src=""images/causal_sequence/dog_causal/dog_causal_3.png"" class=""exp-image"">
                    <div class=""question-area"">
                        <p style=""font-size: 20px; font-weight: bold; margin: 0;"">Is there a person in this image?</p>
                    </div>
                </div>","0","main_experiment_trial","3","dog_causal","causal_sequence","chronological","","","","","","",""
"","","","","","html-keyboard-response","107","369416","0.0-107.0","7020996C39314019AFDDBBC7BB73BFE2","019d6b04-9d30-7992-bf5a-8e86ab0ac606","019d6ae6-5d89-74c6-b581-3918d1816346","","null","
                <div class=""stimulus-container"">
                    <img src=""images/causal_sequence/dog_causal/dog_causal_4.png"" class=""exp-image"">
                    <div class=""question-area""></div> 
                </div>","null","","","","","","","","","","","",""
"","","","","","html-button-response","108","370769","0.0-108.0","7020996C39314019AFDDBBC7BB73BFE2","019d6b04-9d30-7992-bf5a-8e86ab0ac606","019d6ae6-5d89-74c6-b581-3918d1816346","","1351","
                <div class=""stimulus-container"">
                    <img src=""images/causal_sequence/dog_causal/dog_causal_4.png"" class=""exp-image"">
                    <div class=""question-area"">
                        <p style=""font-size: 20px; font-weight: bold; margin: 0;"">Is there a person in this image?</p>
                    </div>
                </div>","0","main_experiment_trial","4","dog_causal","causal_sequence","chronological","","","","","","",""
"","","","","","html-keyboard-response","109","375777","0.0-109.0","7020996C39314019AFDDBBC7BB73BFE2","019d6b04-9d30-7992-bf5a-8e86ab0ac606","019d6ae6-5d89-74c6-b581-3918d1816346","","null","
                <div class=""stimulus-container"">
                    <img src=""images/causal_sequence/dog_causal/dog_causal_5.png"" class=""exp-image"">
                    <div class=""question-area""></div> 
                </div>","null","","","","","","","","","","","",""
"","","","","","html-button-response","110","376702","0.0-110.0","7020996C39314019AFDDBBC7BB73BFE2","019d6b04-9d30-7992-bf5a-8e86ab0ac606","019d6ae6-5d89-74c6-b581-3918d1816346","","922","
                <div class=""stimulus-container"">
                    <img src=""images/causal_sequence/dog_causal/dog_causal_5.png"" class=""exp-image"">
                    <div class=""question-area"">
                        <p style=""font-size: 20px; font-weight: bold; margin: 0;"">Is there a person in this image?</p>
                    </div>
                </div>","0","main_experiment_trial","5","dog_causal","causal_sequence","chronological","","","","","","",""
"","","","","","html-keyboard-response","111","381708","0.0-111.0","7020996C39314019AFDDBBC7BB73BFE2","019d6b04-9d30-7992-bf5a-8e86ab0ac606","019d6ae6-5d89-74c6-b581-3918d1816346","","null","
                <div class=""stimulus-container"">
                    <img src=""images/causal_sequence/dog_causal/dog_causal_6.png"" class=""exp-image"">
                    <div class=""question-area""></div> 
                </div>","null","","","","","","","","","","","",""
"","","","","","html-button-response","112","382501","0.0-112.0","7020996C39314019AFDDBBC7BB73BFE2","019d6b04-9d30-7992-bf5a-8e86ab0ac606","019d6ae6-5d89-74c6-b581-3918d1816346","","792","
                <div class=""stimulus-container"">
                    <img src=""images/causal_sequence/dog_causal/dog_causal_6.png"" class=""exp-image"">
                    <div class=""question-area"">
                        <p style=""font-size: 20px; font-weight: bold; margin: 0;"">Is there a person in this image?</p>
                    </div>
                </div>","0","main_experiment_trial","6","dog_causal","causal_sequence","chronological","","","","","","",""
"","","","","","html-keyboard-response","113","387516","0.0-113.0","7020996C39314019AFDDBBC7BB73BFE2","019d6b04-9d30-7992-bf5a-8e86ab0ac606","019d6ae6-5d89-74c6-b581-3918d1816346","","null","
                <div class=""stimulus-container"">
                    <img src=""images/causal_sequence/dog_causal/dog_causal_7.png"" class=""exp-image"">
                    <div class=""question-area""></div> 
                </div>","null","","","","","","","","","","","",""
"","","","","","html-button-response","114","388451","0.0-114.0","7020996C39314019AFDDBBC7BB73BFE2","019d6b04-9d30-7992-bf5a-8e86ab0ac606","019d6ae6-5d89-74c6-b581-3918d1816346","","933","
                <div class=""stimulus-container"">
                    <img src=""images/causal_sequence/dog_causal/dog_causal_7.png"" class=""exp-image"">
                    <div class=""question-area"">
                        <p style=""font-size: 20px; font-weight: bold; margin: 0;"">Is there a person in this image?</p>
                    </div>
                </div>","0","main_experiment_trial","7","dog_causal","causal_sequence","chronological","","","","","","",""
"","","","","","html-keyboard-response","115","393459","0.0-115.0","7020996C39314019AFDDBBC7BB73BFE2","019d6b04-9d30-7992-bf5a-8e86ab0ac606","019d6ae6-5d89-74c6-b581-3918d1816346","","null","
                <div class=""stimulus-container"">
                    <img src=""images/causal_sequence/dog_causal/dog_causal_8.png"" class=""exp-image"">
                    <div class=""question-area""></div> 
                </div>","null","","","","","","","","","","","",""
"","","","","","html-button-response","116","394119","0.0-116.0","7020996C39314019AFDDBBC7BB73BFE2","019d6b04-9d30-7992-bf5a-8e86ab0ac606","019d6ae6-5d89-74c6-b581-3918d1816346","","659","
                <div class=""stimulus-container"">
                    <img src=""images/causal_sequence/dog_causal/dog_causal_8.png"" class=""exp-image"">
                    <div class=""question-area"">
                        <p style=""font-size: 20px; font-weight: bold; margin: 0;"">Is there a person in this image?</p>
                    </div>
                </div>","0","main_experiment_trial","8","dog_causal","causal_sequence","chronological","","","","","","",""
"","","","","","html-keyboard-response","117","399126","0.0-117.0","7020996C39314019AFDDBBC7BB73BFE2","019d6b04-9d30-7992-bf5a-8e86ab0ac606","019d6ae6-5d89-74c6-b581-3918d1816346","","null","
                <div class=""stimulus-container"">
                    <img src=""images/causal_sequence/dog_causal/dog_causal_9.png"" class=""exp-image"">
                    <div class=""question-area""></div> 
                </div>","null","","","","","","","","","","","",""
"","","","","","html-button-response","118","400021","0.0-118.0","7020996C39314019AFDDBBC7BB73BFE2","019d6b04-9d30-7992-bf5a-8e86ab0ac606","019d6ae6-5d89-74c6-b581-3918d1816346","","894","
                <div class=""stimulus-container"">
                    <img src=""images/causal_sequence/dog_causal/dog_causal_9.png"" class=""exp-image"">
                    <div class=""question-area"">
                        <p style=""font-size: 20px; font-weight: bold; margin: 0;"">Is there a person in this image?</p>
                    </div>
                </div>","0","main_experiment_trial","9","dog_causal","causal_sequence","chronological","","","","","","",""
"","","","","","html-keyboard-response","119","405030","0.0-119.0","7020996C39314019AFDDBBC7BB73BFE2","019d6b04-9d30-7992-bf5a-8e86ab0ac606","019d6ae6-5d89-74c6-b581-3918d1816346","","null","
                <div class=""stimulus-container"">
                    <img src=""images/causal_sequence/dog_causal/dog_causal_ten.png"" class=""exp-image"">
                    <div class=""question-area""></div> 
                </div>","null","","","","","","","","","","","",""
"","","","","","html-button-response","120","405967","0.0-120.0","7020996C39314019AFDDBBC7BB73BFE2","019d6b04-9d30-7992-bf5a-8e86ab0ac606","019d6ae6-5d89-74c6-b581-3918d1816346","","935","
                <div class=""stimulus-container"">
                    <img src=""images/causal_sequence/dog_causal/dog_causal_ten.png"" class=""exp-image"">
                    <div class=""question-area"">
                        <p style=""font-size: 20px; font-weight: bold; margin: 0;"">Is there a person in this image?</p>
                    </div>
                </div>","0","main_experiment_trial","ten","dog_causal","causal_sequence","chronological","","","","","","",""
"","","","","","html-keyboard-response","121","410976","0.0-121.0","7020996C39314019AFDDBBC7BB73BFE2","019d6b04-9d30-7992-bf5a-8e86ab0ac606","019d6ae6-5d89-74c6-b581-3918d1816346","","null","<div style=""background-color: white; width: 100vw; height: 100vh;""></div>","null","","","","","","","","","","","",""
"","","","","","html-keyboard-response","122","415993","0.0-122.0","7020996C39314019AFDDBBC7BB73BFE2","019d6b04-9d30-7992-bf5a-8e86ab0ac606","019d6ae6-5d89-74c6-b581-3918d1816346","","null","
                <div class=""stimulus-container"">
                    <img src=""semantic_sequence_notimeline/clothing_semantic/clothing_semantic_1.png"" class=""exp-image"">
                    <div class=""question-area""></div> 
                </div>","null","","","","","","","","","","","",""
"","","","","","html-button-response","123","416953","0.0-123.0","7020996C39314019AFDDBBC7BB73BFE2","019d6b04-9d30-7992-bf5a-8e86ab0ac606","019d6ae6-5d89-74c6-b581-3918d1816346","","958","
                <div class=""stimulus-container"">
                    <img src=""semantic_sequence_notimeline/clothing_semantic/clothing_semantic_1.png"" class=""exp-image"">
                    <div class=""question-area"">
                        <p style=""font-size: 20px; font-weight: bold; margin: 0;"">Is there a person in this image?</p>
                    </div>
                </div>","1","main_experiment_trial","1","clothing_semantic","semantic_sequence_notimeline","chronological","","","","","","",""
"","","","","","html-keyboard-response","124","421961","0.0-124.0","7020996C39314019AFDDBBC7BB73BFE2","019d6b04-9d30-7992-bf5a-8e86ab0ac606","019d6ae6-5d89-74c6-b581-3918d1816346","","null","
                <div class=""stimulus-container"">
                    <img src=""semantic_sequence_notimeline/clothing_semantic/clothing_semantic_2.png"" class=""exp-image"">
                    <div class=""question-area""></div> 
                </div>","null","","","","","","","","","","","",""
"","","","","","html-button-response","125","423653","0.0-125.0","7020996C39314019AFDDBBC7BB73BFE2","019d6b04-9d30-7992-bf5a-8e86ab0ac606","019d6ae6-5d89-74c6-b581-3918d1816346","","1690","
                <div class=""stimulus-container"">
                    <img src=""semantic_sequence_notimeline/clothing_semantic/clothing_semantic_2.png"" class=""exp-image"">
                    <div class=""question-area"">
                        <p style=""font-size: 20px; font-weight: bold; margin: 0;"">Is there a person in this image?</p>
                    </div>
                </div>","1","main_experiment_trial","2","clothing_semantic","semantic_sequence_notimeline","chronological","","","","","","",""
"","","","","","html-keyboard-response","126","428668","0.0-126.0","7020996C39314019AFDDBBC7BB73BFE2","019d6b04-9d30-7992-bf5a-8e86ab0ac606","019d6ae6-5d89-74c6-b581-3918d1816346","","null","
                <div class=""stimulus-container"">
                    <img src=""semantic_sequence_notimeline/clothing_semantic/clothing_semantic_3.png"" class=""exp-image"">
                    <div class=""question-area""></div> 
                </div>","null","","","","","","","","","","","",""
"","","","","","html-button-response","127","430016","0.0-127.0","7020996C39314019AFDDBBC7BB73BFE2","019d6b04-9d30-7992-bf5a-8e86ab0ac606","019d6ae6-5d89-74c6-b581-3918d1816346","","1347","
                <div class=""stimulus-container"">
                    <img src=""semantic_sequence_notimeline/clothing_semantic/clothing_semantic_3.png"" class=""exp-image"">
                    <div class=""question-area"">
                        <p style=""font-size: 20px; font-weight: bold; margin: 0;"">Is there a person in this image?</p>
                    </div>
                </div>","1","main_experiment_trial","3","clothing_semantic","semantic_sequence_notimeline","chronological","","","","","","",""
"","","","","","html-keyboard-response","128","435030","0.0-128.0","7020996C39314019AFDDBBC7BB73BFE2","019d6b04-9d30-7992-bf5a-8e86ab0ac606","019d6ae6-5d89-74c6-b581-3918d1816346","","null","
                <div class=""stimulus-container"">
                    <img src=""semantic_sequence_notimeline/clothing_semantic/clothing_semantic_4.png"" class=""exp-image"">
                    <div class=""question-area""></div> 
                </div>","null","","","","","","","","","","","",""
"","","","","","html-button-response","129","436233","0.0-129.0","7020996C39314019AFDDBBC7BB73BFE2","019d6b04-9d30-7992-bf5a-8e86ab0ac606","019d6ae6-5d89-74c6-b581-3918d1816346","","1202","
                <div class=""stimulus-container"">
                    <img src=""semantic_sequence_notimeline/clothing_semantic/clothing_semantic_4.png"" class=""exp-image"">
                    <div class=""question-area"">
                        <p style=""font-size: 20px; font-weight: bold; margin: 0;"">Is there a person in this image?</p>
                    </div>
                </div>","1","main_experiment_trial","4","clothing_semantic","semantic_sequence_notimeline","chronological","","","","","","",""
"","","","","","html-keyboard-response","130","441248","0.0-130.0","7020996C39314019AFDDBBC7BB73BFE2","019d6b04-9d30-7992-bf5a-8e86ab0ac606","019d6ae6-5d89-74c6-b581-3918d1816346","","null","
                <div class=""stimulus-container"">
                    <img src=""semantic_sequence_notimeline/clothing_semantic/clothing_semantic_5.png"" class=""exp-image"">
                    <div class=""question-area""></div> 
                </div>","null","","","","","","","","","","","",""
"","","","","","html-button-response","131","442417","0.0-131.0","7020996C39314019AFDDBBC7BB73BFE2","019d6b04-9d30-7992-bf5a-8e86ab0ac606","019d6ae6-5d89-74c6-b581-3918d1816346","","1166","
                <div class=""stimulus-container"">
                    <img src=""semantic_sequence_notimeline/clothing_semantic/clothing_semantic_5.png"" class=""exp-image"">
                    <div class=""question-area"">
                        <p style=""font-size: 20px; font-weight: bold; margin: 0;"">Is there a person in this image?</p>
                    </div>
                </div>","1","main_experiment_trial","5","clothing_semantic","semantic_sequence_notimeline","chronological","","","","","","",""
"","","","","","html-keyboard-response","132","447434","0.0-132.0","7020996C39314019AFDDBBC7BB73BFE2","019d6b04-9d30-7992-bf5a-8e86ab0ac606","019d6ae6-5d89-74c6-b581-3918d1816346","","null","
                <div class=""stimulus-container"">
                    <img src=""semantic_sequence_notimeline/clothing_semantic/clothing_semantic_6.png"" class=""exp-image"">
                    <div class=""question-area""></div> 
                </div>","null","","","","","","","","","","","",""
"","","","","","html-button-response","133","448685","0.0-133.0","7020996C39314019AFDDBBC7BB73BFE2","019d6b04-9d30-7992-bf5a-8e86ab0ac606","019d6ae6-5d89-74c6-b581-3918d1816346","","1250","
                <div class=""stimulus-container"">
                    <img src=""semantic_sequence_notimeline/clothing_semantic/clothing_semantic_6.png"" class=""exp-image"">
                    <div class=""question-area"">
                        <p style=""font-size: 20px; font-weight: bold; margin: 0;"">Is there a person in this image?</p>
                    </div>
                </div>","1","main_experiment_trial","6","clothing_semantic","semantic_sequence_notimeline","chronological","","","","","","",""
"","","","","","html-keyboard-response","134","453700","0.0-134.0","7020996C39314019AFDDBBC7BB73BFE2","019d6b04-9d30-7992-bf5a-8e86ab0ac606","019d6ae6-5d89-74c6-b581-3918d1816346","","null","
                <div class=""stimulus-container"">
                    <img src=""semantic_sequence_notimeline/clothing_semantic/clothing_semantic_7.png"" class=""exp-image"">
                    <div class=""question-area""></div> 
                </div>","null","","","","","","","","","","","",""
"","","","","","html-button-response","135","454615","0.0-135.0","7020996C39314019AFDDBBC7BB73BFE2","019d6b04-9d30-7992-bf5a-8e86ab0ac606","019d6ae6-5d89-74c6-b581-3918d1816346","","914","
                <div class=""stimulus-container"">
                    <img src=""semantic_sequence_notimeline/clothing_semantic/clothing_semantic_7.png"" class=""exp-image"">
                    <div class=""question-area"">
                        <p style=""font-size: 20px; font-weight: bold; margin: 0;"">Is there a person in this image?</p>
                    </div>
                </div>","1","main_experiment_trial","7","clothing_semantic","semantic_sequence_notimeline","chronological","","","","","","",""
"","","","","","html-keyboard-response","136","459629","0.0-136.0","7020996C39314019AFDDBBC7BB73BFE2","019d6b04-9d30-7992-bf5a-8e86ab0ac606","019d6ae6-5d89-74c6-b581-3918d1816346","","null","
                <div class=""stimulus-container"">
                    <img src=""semantic_sequence_notimeline/clothing_semantic/clothing_semantic_8.png"" class=""exp-image"">
                    <div class=""question-area""></div> 
                </div>","null","","","","","","","","","","","",""
"","","","","","html-button-response","137","462067","0.0-137.0","7020996C39314019AFDDBBC7BB73BFE2","019d6b04-9d30-7992-bf5a-8e86ab0ac606","019d6ae6-5d89-74c6-b581-3918d1816346","","2436","
                <div class=""stimulus-container"">
                    <img src=""semantic_sequence_notimeline/clothing_semantic/clothing_semantic_8.png"" class=""exp-image"">
                    <div class=""question-area"">
                        <p style=""font-size: 20px; font-weight: bold; margin: 0;"">Is there a person in this image?</p>
                    </div>
                </div>","1","main_experiment_trial","8","clothing_semantic","semantic_sequence_notimeline","chronological","","","","","","",""
"","","","","","html-keyboard-response","138","467071","0.0-138.0","7020996C39314019AFDDBBC7BB73BFE2","019d6b04-9d30-7992-bf5a-8e86ab0ac606","019d6ae6-5d89-74c6-b581-3918d1816346","","null","
                <div class=""stimulus-container"">
                    <img src=""semantic_sequence_notimeline/clothing_semantic/clothing_semantic_9.png"" class=""exp-image"">
                    <div class=""question-area""></div> 
                </div>","null","","","","","","","","","","","",""
"","","","","","html-button-response","139","468636","0.0-139.0","7020996C39314019AFDDBBC7BB73BFE2","019d6b04-9d30-7992-bf5a-8e86ab0ac606","019d6ae6-5d89-74c6-b581-3918d1816346","","1564","
                <div class=""stimulus-container"">
                    <img src=""semantic_sequence_notimeline/clothing_semantic/clothing_semantic_9.png"" class=""exp-image"">
                    <div class=""question-area"">
                        <p style=""font-size: 20px; font-weight: bold; margin: 0;"">Is there a person in this image?</p>
                    </div>
                </div>","1","main_experiment_trial","9","clothing_semantic","semantic_sequence_notimeline","chronological","","","","","","",""
"","","","","","html-keyboard-response","140","473652","0.0-140.0","7020996C39314019AFDDBBC7BB73BFE2","019d6b04-9d30-7992-bf5a-8e86ab0ac606","019d6ae6-5d89-74c6-b581-3918d1816346","","null","
                <div class=""stimulus-container"">
                    <img src=""semantic_sequence_notimeline/clothing_semantic/clothing_semantic_ten.png"" class=""exp-image"">
                    <div class=""question-area""></div> 
                </div>","null","","","","","","","","","","","",""
"","","","","","html-button-response","141","474832","0.0-141.0","7020996C39314019AFDDBBC7BB73BFE2","019d6b04-9d30-7992-bf5a-8e86ab0ac606","019d6ae6-5d89-74c6-b581-3918d1816346","","1179","
                <div class=""stimulus-container"">
                    <img src=""semantic_sequence_notimeline/clothing_semantic/clothing_semantic_ten.png"" class=""exp-image"">
                    <div class=""question-area"">
                        <p style=""font-size: 20px; font-weight: bold; margin: 0;"">Is there a person in this image?</p>
                    </div>
                </div>","1","main_experiment_trial","ten","clothing_semantic","semantic_sequence_notimeline","chronological","","","","","","",""
"","","","","","html-keyboard-response","142","479837","0.0-142.0","7020996C39314019AFDDBBC7BB73BFE2","019d6b04-9d30-7992-bf5a-8e86ab0ac606","019d6ae6-5d89-74c6-b581-3918d1816346","","null","<div style=""background-color: white; width: 100vw; height: 100vh;""></div>","null","","","","","","","","","","","",""
"","","","","","html-keyboard-response","143","484853","0.0-143.0","7020996C39314019AFDDBBC7BB73BFE2","019d6b04-9d30-7992-bf5a-8e86ab0ac606","019d6ae6-5d89-74c6-b581-3918d1816346","","null","
                <div class=""stimulus-container"">
                    <img src=""images/causal_sequence/museum_causal/museum_causal_1.png"" class=""exp-image"">
                    <div class=""question-area""></div> 
                </div>","null","","","","","","","","","","","",""
"","","","","","html-button-response","144","486382","0.0-144.0","7020996C39314019AFDDBBC7BB73BFE2","019d6b04-9d30-7992-bf5a-8e86ab0ac606","019d6ae6-5d89-74c6-b581-3918d1816346","","1528","
                <div class=""stimulus-container"">
                    <img src=""images/causal_sequence/museum_causal/museum_causal_1.png"" class=""exp-image"">
                    <div class=""question-area"">
                        <p style=""font-size: 20px; font-weight: bold; margin: 0;"">Is there a person in this image?</p>
                    </div>
                </div>","0","main_experiment_trial","1","museum_causal","causal_sequence","chronological","","","","","","",""
"","","","","","html-keyboard-response","145","491390","0.0-145.0","7020996C39314019AFDDBBC7BB73BFE2","019d6b04-9d30-7992-bf5a-8e86ab0ac606","019d6ae6-5d89-74c6-b581-3918d1816346","","null","
                <div class=""stimulus-container"">
                    <img src=""images/causal_sequence/museum_causal/museum_causal_2.png"" class=""exp-image"">
                    <div class=""question-area""></div> 
                </div>","null","","","","","","","","","","","",""
"","","","","","html-button-response","146","492948","0.0-146.0","7020996C39314019AFDDBBC7BB73BFE2","019d6b04-9d30-7992-bf5a-8e86ab0ac606","019d6ae6-5d89-74c6-b581-3918d1816346","","1557","
                <div class=""stimulus-container"">
                    <img src=""images/causal_sequence/museum_causal/museum_causal_2.png"" class=""exp-image"">
                    <div class=""question-area"">
                        <p style=""font-size: 20px; font-weight: bold; margin: 0;"">Is there a person in this image?</p>
                    </div>
                </div>","0","main_experiment_trial","2","museum_causal","causal_sequence","chronological","","","","","","",""
"","","","","","html-keyboard-response","147","497955","0.0-147.0","7020996C39314019AFDDBBC7BB73BFE2","019d6b04-9d30-7992-bf5a-8e86ab0ac606","019d6ae6-5d89-74c6-b581-3918d1816346","","null","
                <div class=""stimulus-container"">
                    <img src=""images/causal_sequence/museum_causal/museum_causal_3.png"" class=""exp-image"">
                    <div class=""question-area""></div> 
                </div>","null","","","","","","","","","","","",""
"","","","","","html-button-response","148","499595","0.0-148.0","7020996C39314019AFDDBBC7BB73BFE2","019d6b04-9d30-7992-bf5a-8e86ab0ac606","019d6ae6-5d89-74c6-b581-3918d1816346","","1639","
                <div class=""stimulus-container"">
                    <img src=""images/causal_sequence/museum_causal/museum_causal_3.png"" class=""exp-image"">
                    <div class=""question-area"">
                        <p style=""font-size: 20px; font-weight: bold; margin: 0;"">Is there a person in this image?</p>
                    </div>
                </div>","0","main_experiment_trial","3","museum_causal","causal_sequence","chronological","","","","","","",""
"","","","","","html-keyboard-response","149","504612","0.0-149.0","7020996C39314019AFDDBBC7BB73BFE2","019d6b04-9d30-7992-bf5a-8e86ab0ac606","019d6ae6-5d89-74c6-b581-3918d1816346","","null","
                <div class=""stimulus-container"">
                    <img src=""images/causal_sequence/museum_causal/museum_causal_4.png"" class=""exp-image"">
                    <div class=""question-area""></div> 
                </div>","null","","","","","","","","","","","",""
"","","","","","html-button-response","150","505366","0.0-150.0","7020996C39314019AFDDBBC7BB73BFE2","019d6b04-9d30-7992-bf5a-8e86ab0ac606","019d6ae6-5d89-74c6-b581-3918d1816346","","754","
                <div class=""stimulus-container"">
                    <img src=""images/causal_sequence/museum_causal/museum_causal_4.png"" class=""exp-image"">
                    <div class=""question-area"">
                        <p style=""font-size: 20px; font-weight: bold; margin: 0;"">Is there a person in this image?</p>
                    </div>
                </div>","1","main_experiment_trial","4","museum_causal","causal_sequence","chronological","","","","","","",""
"","","","","","html-keyboard-response","151","510374","0.0-151.0","7020996C39314019AFDDBBC7BB73BFE2","019d6b04-9d30-7992-bf5a-8e86ab0ac606","019d6ae6-5d89-74c6-b581-3918d1816346","","null","
                <div class=""stimulus-container"">
                    <img src=""images/causal_sequence/museum_causal/museum_causal_5.png"" class=""exp-image"">
                    <div class=""question-area""></div> 
                </div>","null","","","","","","","","","","","",""
"","","","","","html-button-response","152","512365","0.0-152.0","7020996C39314019AFDDBBC7BB73BFE2","019d6b04-9d30-7992-bf5a-8e86ab0ac606","019d6ae6-5d89-74c6-b581-3918d1816346","","1990","
                <div class=""stimulus-container"">
                    <img src=""images/causal_sequence/museum_causal/museum_causal_5.png"" class=""exp-image"">
                    <div class=""question-area"">
                        <p style=""font-size: 20px; font-weight: bold; margin: 0;"">Is there a person in this image?</p>
                    </div>
                </div>","0","main_experiment_trial","5","museum_causal","causal_sequence","chronological","","","","","","",""
"","","","","","html-keyboard-response","153","517368","0.0-153.0","7020996C39314019AFDDBBC7BB73BFE2","019d6b04-9d30-7992-bf5a-8e86ab0ac606","019d6ae6-5d89-74c6-b581-3918d1816346","","null","
                <div class=""stimulus-container"">
                    <img src=""images/causal_sequence/museum_causal/museum_causal_6.png"" class=""exp-image"">
                    <div class=""question-area""></div> 
                </div>","null","","","","","","","","","","","",""
"","","","","","html-button-response","154","518264","0.0-154.0","7020996C39314019AFDDBBC7BB73BFE2","019d6b04-9d30-7992-bf5a-8e86ab0ac606","019d6ae6-5d89-74c6-b581-3918d1816346","","895","
                <div class=""stimulus-container"">
                    <img src=""images/causal_sequence/museum_causal/museum_causal_6.png"" class=""exp-image"">
                    <div class=""question-area"">
                        <p style=""font-size: 20px; font-weight: bold; margin: 0;"">Is there a person in this image?</p>
                    </div>
                </div>","0","main_experiment_trial","6","museum_causal","causal_sequence","chronological","","","","","","",""
"","","","","","html-keyboard-response","155","523275","0.0-155.0","7020996C39314019AFDDBBC7BB73BFE2","019d6b04-9d30-7992-bf5a-8e86ab0ac606","019d6ae6-5d89-74c6-b581-3918d1816346","","null","
                <div class=""stimulus-container"">
                    <img src=""images/causal_sequence/museum_causal/museum_causal_7.png"" class=""exp-image"">
                    <div class=""question-area""></div> 
                </div>","null","","","","","","","","","","","",""
"","","","","","html-button-response","156","524815","0.0-156.0","7020996C39314019AFDDBBC7BB73BFE2","019d6b04-9d30-7992-bf5a-8e86ab0ac606","019d6ae6-5d89-74c6-b581-3918d1816346","","1538","
                <div class=""stimulus-container"">
                    <img src=""images/causal_sequence/museum_causal/museum_causal_7.png"" class=""exp-image"">
                    <div class=""question-area"">
                        <p style=""font-size: 20px; font-weight: bold; margin: 0;"">Is there a person in this image?</p>
                    </div>
                </div>","1","main_experiment_trial","7","museum_causal","causal_sequence","chronological","","","","","","",""
"","","","","","html-keyboard-response","157","529817","0.0-157.0","7020996C39314019AFDDBBC7BB73BFE2","019d6b04-9d30-7992-bf5a-8e86ab0ac606","019d6ae6-5d89-74c6-b581-3918d1816346","","null","
                <div class=""stimulus-container"">
                    <img src=""images/causal_sequence/museum_causal/museum_causal_8.png"" class=""exp-image"">
                    <div class=""question-area""></div> 
                </div>","null","","","","","","","","","","","",""
"","","","","","html-button-response","158","530980","0.0-158.0","7020996C39314019AFDDBBC7BB73BFE2","019d6b04-9d30-7992-bf5a-8e86ab0ac606","019d6ae6-5d89-74c6-b581-3918d1816346","","1162","
                <div class=""stimulus-container"">
                    <img src=""images/causal_sequence/museum_causal/museum_causal_8.png"" class=""exp-image"">
                    <div class=""question-area"">
                        <p style=""font-size: 20px; font-weight: bold; margin: 0;"">Is there a person in this image?</p>
                    </div>
                </div>","0","main_experiment_trial","8","museum_causal","causal_sequence","chronological","","","","","","",""
"","","","","","html-keyboard-response","159","535992","0.0-159.0","7020996C39314019AFDDBBC7BB73BFE2","019d6b04-9d30-7992-bf5a-8e86ab0ac606","019d6ae6-5d89-74c6-b581-3918d1816346","","null","
                <div class=""stimulus-container"">
                    <img src=""images/causal_sequence/museum_causal/museum_causal_9.png"" class=""exp-image"">
                    <div class=""question-area""></div> 
                </div>","null","","","","","","","","","","","",""
"","","","","","html-button-response","160","537632","0.0-160.0","7020996C39314019AFDDBBC7BB73BFE2","019d6b04-9d30-7992-bf5a-8e86ab0ac606","019d6ae6-5d89-74c6-b581-3918d1816346","","1639","
                <div class=""stimulus-container"">
                    <img src=""images/causal_sequence/museum_causal/museum_causal_9.png"" class=""exp-image"">
                    <div class=""question-area"">
                        <p style=""font-size: 20px; font-weight: bold; margin: 0;"">Is there a person in this image?</p>
                    </div>
                </div>","1","main_experiment_trial","9","museum_causal","causal_sequence","chronological","","","","","","",""
"","","","","","html-keyboard-response","161","542639","0.0-161.0","7020996C39314019AFDDBBC7BB73BFE2","019d6b04-9d30-7992-bf5a-8e86ab0ac606","019d6ae6-5d89-74c6-b581-3918d1816346","","null","
                <div class=""stimulus-container"">
                    <img src=""images/causal_sequence/museum_causal/museum_causal_ten.png"" class=""exp-image"">
                    <div class=""question-area""></div> 
                </div>","null","","","","","","","","","","","",""
"","","","","","html-button-response","162","543448","0.0-162.0","7020996C39314019AFDDBBC7BB73BFE2","019d6b04-9d30-7992-bf5a-8e86ab0ac606","019d6ae6-5d89-74c6-b581-3918d1816346","","807","
                <div class=""stimulus-container"">
                    <img src=""images/causal_sequence/museum_causal/museum_causal_ten.png"" class=""exp-image"">
                    <div class=""question-area"">
                        <p style=""font-size: 20px; font-weight: bold; margin: 0;"">Is there a person in this image?</p>
                    </div>
                </div>","0","main_experiment_trial","ten","museum_causal","causal_sequence","chronological","","","","","","",""
"","","","","","html-keyboard-response","163","548458","0.0-163.0","7020996C39314019AFDDBBC7BB73BFE2","019d6b04-9d30-7992-bf5a-8e86ab0ac606","019d6ae6-5d89-74c6-b581-3918d1816346","","null","<div style=""background-color: white; width: 100vw; height: 100vh;""></div>","null","","","","","","","","","","","",""
"","","","","","html-keyboard-response","164","553472","0.0-164.0","7020996C39314019AFDDBBC7BB73BFE2","019d6b04-9d30-7992-bf5a-8e86ab0ac606","019d6ae6-5d89-74c6-b581-3918d1816346","","null","
                <div class=""stimulus-container"">
                    <img src=""images/causal_sequence/the_performance_causal/the_performance_causal_1.png"" class=""exp-image"">
                    <div class=""question-area""></div> 
                </div>","null","","","","","","","","","","","",""
"","","","","","html-button-response","165","555781","0.0-165.0","7020996C39314019AFDDBBC7BB73BFE2","019d6b04-9d30-7992-bf5a-8e86ab0ac606","019d6ae6-5d89-74c6-b581-3918d1816346","","2307","
                <div class=""stimulus-container"">
                    <img src=""images/causal_sequence/the_performance_causal/the_performance_causal_1.png"" class=""exp-image"">
                    <div class=""question-area"">
                        <p style=""font-size: 20px; font-weight: bold; margin: 0;"">Is there a person in this image?</p>
                    </div>
                </div>","0","main_experiment_trial","1","the_performance_causal","causal_sequence","chronological","","","","","","",""
"","","","","","html-keyboard-response","166","560788","0.0-166.0","7020996C39314019AFDDBBC7BB73BFE2","019d6b04-9d30-7992-bf5a-8e86ab0ac606","019d6ae6-5d89-74c6-b581-3918d1816346","","null","
                <div class=""stimulus-container"">
                    <img src=""images/causal_sequence/the_performance_causal/the_performance_causal_2.png"" class=""exp-image"">
                    <div class=""question-area""></div> 
                </div>","null","","","","","","","","","","","",""
"","","","","","html-button-response","167","563791","0.0-167.0","7020996C39314019AFDDBBC7BB73BFE2","019d6b04-9d30-7992-bf5a-8e86ab0ac606","019d6ae6-5d89-74c6-b581-3918d1816346","","null","
                <div class=""stimulus-container"">
                    <img src=""images/causal_sequence/the_performance_causal/the_performance_causal_2.png"" class=""exp-image"">
                    <div class=""question-area"">
                        <p style=""font-size: 20px; font-weight: bold; margin: 0;"">Is there a person in this image?</p>
                    </div>
                </div>","null","main_experiment_trial","2","the_performance_causal","causal_sequence","chronological","","","","","","",""
"","","","","","html-keyboard-response","168","568795","0.0-168.0","7020996C39314019AFDDBBC7BB73BFE2","019d6b04-9d30-7992-bf5a-8e86ab0ac606","019d6ae6-5d89-74c6-b581-3918d1816346","","null","
                <div class=""stimulus-container"">
                    <img src=""images/causal_sequence/the_performance_causal/the_performance_causal_3.png"" class=""exp-image"">
                    <div class=""question-area""></div> 
                </div>","null","","","","","","","","","","","",""
"","","","","","html-button-response","169","570514","0.0-169.0","7020996C39314019AFDDBBC7BB73BFE2","019d6b04-9d30-7992-bf5a-8e86ab0ac606","019d6ae6-5d89-74c6-b581-3918d1816346","","1717","
                <div class=""stimulus-container"">
                    <img src=""images/causal_sequence/the_performance_causal/the_performance_causal_3.png"" class=""exp-image"">
                    <div class=""question-area"">
                        <p style=""font-size: 20px; font-weight: bold; margin: 0;"">Is there a person in this image?</p>
                    </div>
                </div>","0","main_experiment_trial","3","the_performance_causal","causal_sequence","chronological","","","","","","",""
"","","","","","html-keyboard-response","170","575530","0.0-170.0","7020996C39314019AFDDBBC7BB73BFE2","019d6b04-9d30-7992-bf5a-8e86ab0ac606","019d6ae6-5d89-74c6-b581-3918d1816346","","null","
                <div class=""stimulus-container"">
                    <img src=""images/causal_sequence/the_performance_causal/the_performance_causal_4.png"" class=""exp-image"">
                    <div class=""question-area""></div> 
                </div>","null","","","","","","","","","","","",""
"","","","","","html-button-response","171","576380","0.0-171.0","7020996C39314019AFDDBBC7BB73BFE2","019d6b04-9d30-7992-bf5a-8e86ab0ac606","019d6ae6-5d89-74c6-b581-3918d1816346","","847","
                <div class=""stimulus-container"">
                    <img src=""images/causal_sequence/the_performance_causal/the_performance_causal_4.png"" class=""exp-image"">
                    <div class=""question-area"">
                        <p style=""font-size: 20px; font-weight: bold; margin: 0;"">Is there a person in this image?</p>
                    </div>
                </div>","0","main_experiment_trial","4","the_performance_causal","causal_sequence","chronological","","","","","","",""
"","","","","","html-keyboard-response","172","581389","0.0-172.0","7020996C39314019AFDDBBC7BB73BFE2","019d6b04-9d30-7992-bf5a-8e86ab0ac606","019d6ae6-5d89-74c6-b581-3918d1816346","","null","
                <div class=""stimulus-container"">
                    <img src=""images/causal_sequence/the_performance_causal/the_performance_causal_5.png"" class=""exp-image"">
                    <div class=""question-area""></div> 
                </div>","null","","","","","","","","","","","",""
"","","","","","html-button-response","173","583479","0.0-173.0","7020996C39314019AFDDBBC7BB73BFE2","019d6b04-9d30-7992-bf5a-8e86ab0ac606","019d6ae6-5d89-74c6-b581-3918d1816346","","2088","
                <div class=""stimulus-container"">
                    <img src=""images/causal_sequence/the_performance_causal/the_performance_causal_5.png"" class=""exp-image"">
                    <div class=""question-area"">
                        <p style=""font-size: 20px; font-weight: bold; margin: 0;"">Is there a person in this image?</p>
                    </div>
                </div>","0","main_experiment_trial","5","the_performance_causal","causal_sequence","chronological","","","","","","",""
"","","","","","html-keyboard-response","174","588489","0.0-174.0","7020996C39314019AFDDBBC7BB73BFE2","019d6b04-9d30-7992-bf5a-8e86ab0ac606","019d6ae6-5d89-74c6-b581-3918d1816346","","null","
                <div class=""stimulus-container"">
                    <img src=""images/causal_sequence/the_performance_causal/the_performance_causal_6.png"" class=""exp-image"">
                    <div class=""question-area""></div> 
                </div>","null","","","","","","","","","","","",""
"","","","","","html-button-response","175","589633","0.0-175.0","7020996C39314019AFDDBBC7BB73BFE2","019d6b04-9d30-7992-bf5a-8e86ab0ac606","019d6ae6-5d89-74c6-b581-3918d1816346","","1143","
                <div class=""stimulus-container"">
                    <img src=""images/causal_sequence/the_performance_causal/the_performance_causal_6.png"" class=""exp-image"">
                    <div class=""question-area"">
                        <p style=""font-size: 20px; font-weight: bold; margin: 0;"">Is there a person in this image?</p>
                    </div>
                </div>","0","main_experiment_trial","6","the_performance_causal","causal_sequence","chronological","","","","","","",""
"","","","","","html-keyboard-response","176","594642","0.0-176.0","7020996C39314019AFDDBBC7BB73BFE2","019d6b04-9d30-7992-bf5a-8e86ab0ac606","019d6ae6-5d89-74c6-b581-3918d1816346","","null","
                <div class=""stimulus-container"">
                    <img src=""images/causal_sequence/the_performance_causal/the_performance_causal_7.png"" class=""exp-image"">
                    <div class=""question-area""></div> 
                </div>","null","","","","","","","","","","","",""
"","","","","","html-button-response","177","595934","0.0-177.0","7020996C39314019AFDDBBC7BB73BFE2","019d6b04-9d30-7992-bf5a-8e86ab0ac606","019d6ae6-5d89-74c6-b581-3918d1816346","","1290","
                <div class=""stimulus-container"">
                    <img src=""images/causal_sequence/the_performance_causal/the_performance_causal_7.png"" class=""exp-image"">
                    <div class=""question-area"">
                        <p style=""font-size: 20px; font-weight: bold; margin: 0;"">Is there a person in this image?</p>
                    </div>
                </div>","0","main_experiment_trial","7","the_performance_causal","causal_sequence","chronological","","","","","","",""
