"success","timeout","failed_images","failed_audio","failed_video","trial_type","trial_index","time_elapsed","internal_node_id","view_history","rt","stimulus","response","task","folder","sequence_type","img_idx","value","version","comparison_type","block_story","block_info","left_path","right_path"
"true","false","[]","[]","[]","preload","0","3544","0.0-0.0","","","","","","","","","","","","","","",""
"","","","","","instructions","1","12749","0.0-1.0","[{""page_index"":0,""viewing_time"":9204}]","9204","","","","","","","","","","","","",""
"","","","","","instructions","2","39839","0.0-2.0","[{""page_index"":0,""viewing_time"":27090}]","27090","","","","","","","","","","","","",""
"true","","","","","fullscreen","3","122804","0.0-3.0","","81963","","","","","","","","","","","","",""
"","","","","","instructions","4","129565","0.0-4.0","[{""page_index"":0,""viewing_time"":6760}]","6760","","","","","","","","","","","","",""
"","","","","","html-keyboard-response","5","131568","0.0-5.0","","null","<div class=""transition-square""></div>","null","","","","","","","","","","",""
"","","","","","html-keyboard-response","6","136570","0.0-6.0","","null","<div class=""stimulus-container""><img src=""images_story_vs_info/story_2_1.png"" class=""exp-image""><div class=""question-area""></div></div>","null","","","","","","","","","","",""
"","","","","","html-button-response","7","139574","0.0-7.0","","null","<div class=""stimulus-container""><img src=""images_story_vs_info/story_2_1.png"" class=""exp-image""><div class=""question-area""><p style=""font-size: 20px; font-weight: bold; margin: 0;"">Is there a person in the description or image?</p></div></div>","null","observation","story_2","story","1","","","","","","",""
"","","","","","html-keyboard-response","8","144575","0.0-8.0","","null","<div class=""stimulus-container""><img src=""images_story_vs_info/story_2_2.png"" class=""exp-image""><div class=""question-area""></div></div>","null","","","","","","","","","","",""
"","","","","","html-button-response","9","146765","0.0-9.0","","2189","<div class=""stimulus-container""><img src=""images_story_vs_info/story_2_2.png"" class=""exp-image""><div class=""question-area""><p style=""font-size: 20px; font-weight: bold; margin: 0;"">Is there a person in the description or image?</p></div></div>","1","observation","story_2","story","2","","","","","","",""
"","","","","","html-keyboard-response","10","151767","0.0-10.0","","null","<div class=""stimulus-container""><img src=""images_story_vs_info/story_2_3.png"" class=""exp-image""><div class=""question-area""></div></div>","null","","","","","","","","","","",""
"","","","","","html-button-response","11","153364","0.0-11.0","","1596","<div class=""stimulus-container""><img src=""images_story_vs_info/story_2_3.png"" class=""exp-image""><div class=""question-area""><p style=""font-size: 20px; font-weight: bold; margin: 0;"">Is there a person in the description or image?</p></div></div>","1","observation","story_2","story","3","","","","","","",""
"","","","","","html-keyboard-response","12","158366","0.0-12.0","","null","<div class=""stimulus-container""><img src=""images_story_vs_info/story_2_4.png"" class=""exp-image""><div class=""question-area""></div></div>","null","","","","","","","","","","",""
"","","","","","html-button-response","13","159383","0.0-13.0","","1017","<div class=""stimulus-container""><img src=""images_story_vs_info/story_2_4.png"" class=""exp-image""><div class=""question-area""><p style=""font-size: 20px; font-weight: bold; margin: 0;"">Is there a person in the description or image?</p></div></div>","1","observation","story_2","story","4","","","","","","",""
"","","","","","html-keyboard-response","14","164385","0.0-14.0","","null","<div class=""stimulus-container""><img src=""images_story_vs_info/story_2_5.png"" class=""exp-image""><div class=""question-area""></div></div>","null","","","","","","","","","","",""
"","","","","","html-button-response","15","164912","0.0-15.0","","526","<div class=""stimulus-container""><img src=""images_story_vs_info/story_2_5.png"" class=""exp-image""><div class=""question-area""><p style=""font-size: 20px; font-weight: bold; margin: 0;"">Is there a person in the description or image?</p></div></div>","1","observation","story_2","story","5","","","","","","",""
"","","","","","html-keyboard-response","16","166915","0.0-16.0","","null","<div class=""transition-square""></div>","null","","","","","","","","","","",""
"","","","","","html-keyboard-response","17","171917","0.0-17.0","","null","<div class=""stimulus-container""><img src=""images_story_vs_info/story_1_1.png"" class=""exp-image""><div class=""question-area""></div></div>","null","","","","","","","","","","",""
"","","","","","html-button-response","18","172561","0.0-18.0","","643","<div class=""stimulus-container""><img src=""images_story_vs_info/story_1_1.png"" class=""exp-image""><div class=""question-area""><p style=""font-size: 20px; font-weight: bold; margin: 0;"">Is there a person in the description or image?</p></div></div>","0","observation","story_1","story","1","","","","","","",""
"","","","","","html-keyboard-response","19","177561","0.0-19.0","","null","<div class=""stimulus-container""><img src=""images_story_vs_info/story_1_2.png"" class=""exp-image""><div class=""question-area""></div></div>","null","","","","","","","","","","",""
"","","","","","html-button-response","20","178325","0.0-20.0","","763","<div class=""stimulus-container""><img src=""images_story_vs_info/story_1_2.png"" class=""exp-image""><div class=""question-area""><p style=""font-size: 20px; font-weight: bold; margin: 0;"">Is there a person in the description or image?</p></div></div>","1","observation","story_1","story","2","","","","","","",""
"","","","","","html-keyboard-response","21","183326","0.0-21.0","","null","<div class=""stimulus-container""><img src=""images_story_vs_info/story_1_3.png"" class=""exp-image""><div class=""question-area""></div></div>","null","","","","","","","","","","",""
"","","","","","html-button-response","22","184003","0.0-22.0","","677","<div class=""stimulus-container""><img src=""images_story_vs_info/story_1_3.png"" class=""exp-image""><div class=""question-area""><p style=""font-size: 20px; font-weight: bold; margin: 0;"">Is there a person in the description or image?</p></div></div>","1","observation","story_1","story","3","","","","","","",""
"","","","","","html-keyboard-response","23","189006","0.0-23.0","","null","<div class=""stimulus-container""><img src=""images_story_vs_info/story_1_4.png"" class=""exp-image""><div class=""question-area""></div></div>","null","","","","","","","","","","",""
"","","","","","html-button-response","24","189614","0.0-24.0","","606","<div class=""stimulus-container""><img src=""images_story_vs_info/story_1_4.png"" class=""exp-image""><div class=""question-area""><p style=""font-size: 20px; font-weight: bold; margin: 0;"">Is there a person in the description or image?</p></div></div>","1","observation","story_1","story","4","","","","","","",""
"","","","","","html-keyboard-response","25","194616","0.0-25.0","","null","<div class=""stimulus-container""><img src=""images_story_vs_info/story_1_5.png"" class=""exp-image""><div class=""question-area""></div></div>","null","","","","","","","","","","",""
"","","","","","html-button-response","26","195880","0.0-26.0","","1263","<div class=""stimulus-container""><img src=""images_story_vs_info/story_1_5.png"" class=""exp-image""><div class=""question-area""><p style=""font-size: 20px; font-weight: bold; margin: 0;"">Is there a person in the description or image?</p></div></div>","1","observation","story_1","story","5","","","","","","",""
"","","","","","html-keyboard-response","27","197882","0.0-27.0","","null","<div class=""transition-square""></div>","null","","","","","","","","","","",""
"","","","","","html-keyboard-response","28","202885","0.0-28.0","","null","<div class=""stimulus-container""><img src=""images_story_vs_info/info_4_1.png"" class=""exp-image""><div class=""question-area""></div></div>","null","","","","","","","","","","",""
"","","","","","html-button-response","29","204312","0.0-29.0","","1426","<div class=""stimulus-container""><img src=""images_story_vs_info/info_4_1.png"" class=""exp-image""><div class=""question-area""><p style=""font-size: 20px; font-weight: bold; margin: 0;"">Is there a person in the description or image?</p></div></div>","1","observation","info_4","info","1","","","","","","",""
"","","","","","html-keyboard-response","30","209314","0.0-30.0","","null","<div class=""stimulus-container""><img src=""images_story_vs_info/info_4_2.png"" class=""exp-image""><div class=""question-area""></div></div>","null","","","","","","","","","","",""
"","","","","","html-button-response","31","210168","0.0-31.0","","853","<div class=""stimulus-container""><img src=""images_story_vs_info/info_4_2.png"" class=""exp-image""><div class=""question-area""><p style=""font-size: 20px; font-weight: bold; margin: 0;"">Is there a person in the description or image?</p></div></div>","1","observation","info_4","info","2","","","","","","",""
"","","","","","html-keyboard-response","32","215170","0.0-32.0","","null","<div class=""stimulus-container""><img src=""images_story_vs_info/info_4_3.png"" class=""exp-image""><div class=""question-area""></div></div>","null","","","","","","","","","","",""
"","","","","","html-button-response","33","215909","0.0-33.0","","738","<div class=""stimulus-container""><img src=""images_story_vs_info/info_4_3.png"" class=""exp-image""><div class=""question-area""><p style=""font-size: 20px; font-weight: bold; margin: 0;"">Is there a person in the description or image?</p></div></div>","1","observation","info_4","info","3","","","","","","",""
"","","","","","html-keyboard-response","34","220911","0.0-34.0","","null","<div class=""stimulus-container""><img src=""images_story_vs_info/info_4_4.png"" class=""exp-image""><div class=""question-area""></div></div>","null","","","","","","","","","","",""
"","","","","","html-button-response","35","221443","0.0-35.0","","531","<div class=""stimulus-container""><img src=""images_story_vs_info/info_4_4.png"" class=""exp-image""><div class=""question-area""><p style=""font-size: 20px; font-weight: bold; margin: 0;"">Is there a person in the description or image?</p></div></div>","1","observation","info_4","info","4","","","","","","",""
"","","","","","html-keyboard-response","36","226446","0.0-36.0","","null","<div class=""stimulus-container""><img src=""images_story_vs_info/info_4_5.png"" class=""exp-image""><div class=""question-area""></div></div>","null","","","","","","","","","","",""
"","","","","","html-button-response","37","226993","0.0-37.0","","546","<div class=""stimulus-container""><img src=""images_story_vs_info/info_4_5.png"" class=""exp-image""><div class=""question-area""><p style=""font-size: 20px; font-weight: bold; margin: 0;"">Is there a person in the description or image?</p></div></div>","1","observation","info_4","info","5","","","","","","",""
"","","","","","html-keyboard-response","38","228995","0.0-38.0","","null","<div class=""transition-square""></div>","null","","","","","","","","","","",""
"","","","","","html-keyboard-response","39","233998","0.0-39.0","","null","<div class=""stimulus-container""><img src=""images_story_vs_info/info_3_1.png"" class=""exp-image""><div class=""question-area""></div></div>","null","","","","","","","","","","",""
"","","","","","html-button-response","40","234607","0.0-40.0","","607","<div class=""stimulus-container""><img src=""images_story_vs_info/info_3_1.png"" class=""exp-image""><div class=""question-area""><p style=""font-size: 20px; font-weight: bold; margin: 0;"">Is there a person in the description or image?</p></div></div>","1","observation","info_3","info","1","","","","","","",""
"","","","","","html-keyboard-response","41","239609","0.0-41.0","","null","<div class=""stimulus-container""><img src=""images_story_vs_info/info_3_2.png"" class=""exp-image""><div class=""question-area""></div></div>","null","","","","","","","","","","",""
"","","","","","html-button-response","42","240538","0.0-42.0","","928","<div class=""stimulus-container""><img src=""images_story_vs_info/info_3_2.png"" class=""exp-image""><div class=""question-area""><p style=""font-size: 20px; font-weight: bold; margin: 0;"">Is there a person in the description or image?</p></div></div>","1","observation","info_3","info","2","","","","","","",""
"","","","","","html-keyboard-response","43","245540","0.0-43.0","","null","<div class=""stimulus-container""><img src=""images_story_vs_info/info_3_3.png"" class=""exp-image""><div class=""question-area""></div></div>","null","","","","","","","","","","",""
"","","","","","html-button-response","44","246520","0.0-44.0","","979","<div class=""stimulus-container""><img src=""images_story_vs_info/info_3_3.png"" class=""exp-image""><div class=""question-area""><p style=""font-size: 20px; font-weight: bold; margin: 0;"">Is there a person in the description or image?</p></div></div>","1","observation","info_3","info","3","","","","","","",""
"","","","","","html-keyboard-response","45","251521","0.0-45.0","","null","<div class=""stimulus-container""><img src=""images_story_vs_info/info_3_4.png"" class=""exp-image""><div class=""question-area""></div></div>","null","","","","","","","","","","",""
"","","","","","html-button-response","46","252963","0.0-46.0","","1441","<div class=""stimulus-container""><img src=""images_story_vs_info/info_3_4.png"" class=""exp-image""><div class=""question-area""><p style=""font-size: 20px; font-weight: bold; margin: 0;"">Is there a person in the description or image?</p></div></div>","1","observation","info_3","info","4","","","","","","",""
"","","","","","html-keyboard-response","47","257965","0.0-47.0","","null","<div class=""stimulus-container""><img src=""images_story_vs_info/info_3_5.png"" class=""exp-image""><div class=""question-area""></div></div>","null","","","","","","","","","","",""
"","","","","","html-button-response","48","258974","0.0-48.0","","1008","<div class=""stimulus-container""><img src=""images_story_vs_info/info_3_5.png"" class=""exp-image""><div class=""question-area""><p style=""font-size: 20px; font-weight: bold; margin: 0;"">Is there a person in the description or image?</p></div></div>","1","observation","info_3","info","5","","","","","","",""
"","","","","","instructions","49","262574","0.0-49.0","[{""page_index"":0,""viewing_time"":3599}]","3599","","","","","","","","","","","","",""
"","","","","","html-button-response","50","267911","0.0-50.0","","5336","<div class=""stimulus-container""><p style=""font-family:Arial; font-size:20px;"">The event is reaching its end...</p><img src=""images_story_vs_info/info_3_5.png"" class=""exp-image""></div>","0","","","","","","","","","","",""
"","","","","","html-button-response","51","277455","0.0-51.0","","9543","<div class=""stimulus-container""><p style=""font-family:Arial; font-size:20px;"">The outcome:</p><img src=""images_story_vs_info/info_3_6_b.png"" class=""exp-image""><div class=""value-tag val-low"">This outcome is worth: $0</div></div>","0","learning","info_3","","","$0","b","","","","",""
"","","","","","html-button-response","52","281850","0.0-52.0","","4395","<div class=""stimulus-container""><p style=""font-family:Arial; font-size:20px;"">The event is reaching its end...</p><img src=""images_story_vs_info/info_4_5.png"" class=""exp-image""></div>","0","","","","","","","","","","",""
"","","","","","html-button-response","53","288431","0.0-53.0","","6581","<div class=""stimulus-container""><p style=""font-family:Arial; font-size:20px;"">The outcome:</p><img src=""images_story_vs_info/info_4_6_a.png"" class=""exp-image""><div class=""value-tag val-high"">This outcome is worth: $100</div></div>","0","learning","info_4","","","$100","a","","","","",""
"","","","","","html-button-response","54","291556","0.0-54.0","","3124","<div class=""stimulus-container""><p style=""font-family:Arial; font-size:20px;"">The event is reaching its end...</p><img src=""images_story_vs_info/story_1_5.png"" class=""exp-image""></div>","0","","","","","","","","","","",""
"","","","","","html-button-response","55","298074","0.0-55.0","","6517","<div class=""stimulus-container""><p style=""font-family:Arial; font-size:20px;"">The outcome:</p><img src=""images_story_vs_info/story_1_6_a.png"" class=""exp-image""><div class=""value-tag val-high"">This outcome is worth: $100</div></div>","0","learning","story_1","","","$100","a","","","","",""
"","","","","","html-button-response","56","299497","0.0-56.0","","1422","<div class=""stimulus-container""><p style=""font-family:Arial; font-size:20px;"">The event is reaching its end...</p><img src=""images_story_vs_info/story_2_5.png"" class=""exp-image""></div>","0","","","","","","","","","","",""
"","","","","","html-button-response","57","308730","0.0-57.0","","9233","<div class=""stimulus-container""><p style=""font-family:Arial; font-size:20px;"">The outcome:</p><img src=""images_story_vs_info/story_2_6_b.png"" class=""exp-image""><div class=""value-tag val-low"">This outcome is worth: $0</div></div>","0","learning","story_2","","","$0","b","","","","",""
"","","","","","instructions","58","310531","0.0-58.0","[{""page_index"":0,""viewing_time"":1801}]","1801","","","","","","","","","","","","",""
"","","","","","html-button-response","59","316291","0.0-59.0","","5759","
                <div style=""font-family: Arial; margin-bottom: 20px;""><h3>Which image is worth <b>more money</b>?</h3></div>
                <div class=""stimulus-container"" style=""display: flex; flex-direction: row; width: 800px; justify-content: center; gap: 30px;"">
                    <img src=""images_story_vs_info/story_1_3.png"" class=""small-image"">
                    <img src=""images_story_vs_info/info_4_3.png"" class=""small-image"">
                </div>","0","choice_comparison","","","3","","","Valuable_Story_vs_Info","story_1","info_4","images_story_vs_info/story_1_3.png","images_story_vs_info/info_4_3.png"
"","","","","","html-button-response","60","317680","0.0-60.0","","1388","
                <div style=""font-family: Arial; margin-bottom: 20px;""><h3>Which image is worth <b>more money</b>?</h3></div>
                <div class=""stimulus-container"" style=""display: flex; flex-direction: row; width: 800px; justify-content: center; gap: 30px;"">
                    <img src=""images_story_vs_info/info_4_5.png"" class=""small-image"">
                    <img src=""images_story_vs_info/story_1_5.png"" class=""small-image"">
                </div>","1","choice_comparison","","","5","","","Valuable_Story_vs_Info","story_1","info_4","images_story_vs_info/info_4_5.png","images_story_vs_info/story_1_5.png"
"","","","","","html-button-response","61","319975","0.0-61.0","","2294","
                <div style=""font-family: Arial; margin-bottom: 20px;""><h3>Which image is worth <b>more money</b>?</h3></div>
                <div class=""stimulus-container"" style=""display: flex; flex-direction: row; width: 800px; justify-content: center; gap: 30px;"">
                    <img src=""images_story_vs_info/info_4_6_b.png"" class=""small-image"">
                    <img src=""images_story_vs_info/story_1_6_b.png"" class=""small-image"">
                </div>","1","choice_comparison","","","6","","","Valuable_Story_vs_Info","story_1","info_4","images_story_vs_info/info_4_6_b.png","images_story_vs_info/story_1_6_b.png"
"","","","","","html-button-response","62","322796","0.0-62.0","","2820","
                <div style=""font-family: Arial; margin-bottom: 20px;""><h3>Which image is worth <b>more money</b>?</h3></div>
                <div class=""stimulus-container"" style=""display: flex; flex-direction: row; width: 800px; justify-content: center; gap: 30px;"">
                    <img src=""images_story_vs_info/info_3_4.png"" class=""small-image"">
                    <img src=""images_story_vs_info/story_2_4.png"" class=""small-image"">
                </div>","1","choice_comparison","","","4","","","Neutral_Story_vs_Info","story_2","info_3","images_story_vs_info/info_3_4.png","images_story_vs_info/story_2_4.png"
"","","","","","html-button-response","63","325334","0.0-63.0","","2537","
                <div style=""font-family: Arial; margin-bottom: 20px;""><h3>Which image is worth <b>more money</b>?</h3></div>
                <div class=""stimulus-container"" style=""display: flex; flex-direction: row; width: 800px; justify-content: center; gap: 30px;"">
                    <img src=""images_story_vs_info/story_1_1.png"" class=""small-image"">
                    <img src=""images_story_vs_info/info_4_1.png"" class=""small-image"">
                </div>","1","choice_comparison","","","1","","","Valuable_Story_vs_Info","story_1","info_4","images_story_vs_info/story_1_1.png","images_story_vs_info/info_4_1.png"
"","","","","","html-button-response","64","327336","0.0-64.0","","2002","
                <div style=""font-family: Arial; margin-bottom: 20px;""><h3>Which image is worth <b>more money</b>?</h3></div>
                <div class=""stimulus-container"" style=""display: flex; flex-direction: row; width: 800px; justify-content: center; gap: 30px;"">
                    <img src=""images_story_vs_info/info_4_4.png"" class=""small-image"">
                    <img src=""images_story_vs_info/story_1_4.png"" class=""small-image"">
                </div>","1","choice_comparison","","","4","","","Valuable_Story_vs_Info","story_1","info_4","images_story_vs_info/info_4_4.png","images_story_vs_info/story_1_4.png"
"","","","","","html-button-response","65","330721","0.0-65.0","","3384","
                <div style=""font-family: Arial; margin-bottom: 20px;""><h3>Which image is worth <b>more money</b>?</h3></div>
                <div class=""stimulus-container"" style=""display: flex; flex-direction: row; width: 800px; justify-content: center; gap: 30px;"">
                    <img src=""images_story_vs_info/story_2_3.png"" class=""small-image"">
                    <img src=""images_story_vs_info/info_3_3.png"" class=""small-image"">
                </div>","0","choice_comparison","","","3","","","Neutral_Story_vs_Info","story_2","info_3","images_story_vs_info/story_2_3.png","images_story_vs_info/info_3_3.png"
"","","","","","html-button-response","66","332914","0.0-66.0","","2192","
                <div style=""font-family: Arial; margin-bottom: 20px;""><h3>Which image is worth <b>more money</b>?</h3></div>
                <div class=""stimulus-container"" style=""display: flex; flex-direction: row; width: 800px; justify-content: center; gap: 30px;"">
                    <img src=""images_story_vs_info/story_1_2.png"" class=""small-image"">
                    <img src=""images_story_vs_info/info_4_2.png"" class=""small-image"">
                </div>","0","choice_comparison","","","2","","","Valuable_Story_vs_Info","story_1","info_4","images_story_vs_info/story_1_2.png","images_story_vs_info/info_4_2.png"
"","","","","","html-button-response","67","335091","0.0-67.0","","2176","
                <div style=""font-family: Arial; margin-bottom: 20px;""><h3>Which image is worth <b>more money</b>?</h3></div>
                <div class=""stimulus-container"" style=""display: flex; flex-direction: row; width: 800px; justify-content: center; gap: 30px;"">
                    <img src=""images_story_vs_info/story_2_2.png"" class=""small-image"">
                    <img src=""images_story_vs_info/info_3_2.png"" class=""small-image"">
                </div>","0","choice_comparison","","","2","","","Neutral_Story_vs_Info","story_2","info_3","images_story_vs_info/story_2_2.png","images_story_vs_info/info_3_2.png"
"","","","","","html-button-response","68","339350","0.0-68.0","","4258","
                <div style=""font-family: Arial; margin-bottom: 20px;""><h3>Which image is worth <b>more money</b>?</h3></div>
                <div class=""stimulus-container"" style=""display: flex; flex-direction: row; width: 800px; justify-content: center; gap: 30px;"">
                    <img src=""images_story_vs_info/story_2_6_b.png"" class=""small-image"">
                    <img src=""images_story_vs_info/info_3_6_b.png"" class=""small-image"">
                </div>","1","choice_comparison","","","6","","","Neutral_Story_vs_Info","story_2","info_3","images_story_vs_info/story_2_6_b.png","images_story_vs_info/info_3_6_b.png"
"","","","","","html-button-response","69","341887","0.0-69.0","","2537","
                <div style=""font-family: Arial; margin-bottom: 20px;""><h3>Which image is worth <b>more money</b>?</h3></div>
                <div class=""stimulus-container"" style=""display: flex; flex-direction: row; width: 800px; justify-content: center; gap: 30px;"">
                    <img src=""images_story_vs_info/info_3_1.png"" class=""small-image"">
                    <img src=""images_story_vs_info/story_2_1.png"" class=""small-image"">
                </div>","1","choice_comparison","","","1","","","Neutral_Story_vs_Info","story_2","info_3","images_story_vs_info/info_3_1.png","images_story_vs_info/story_2_1.png"
"","","","","","html-button-response","70","344693","0.0-70.0","","2805","
                <div style=""font-family: Arial; margin-bottom: 20px;""><h3>Which image is worth <b>more money</b>?</h3></div>
                <div class=""stimulus-container"" style=""display: flex; flex-direction: row; width: 800px; justify-content: center; gap: 30px;"">
                    <img src=""images_story_vs_info/info_3_5.png"" class=""small-image"">
                    <img src=""images_story_vs_info/story_2_5.png"" class=""small-image"">
                </div>","0","choice_comparison","","","5","","","Neutral_Story_vs_Info","story_2","info_3","images_story_vs_info/info_3_5.png","images_story_vs_info/story_2_5.png"
"","","","","","survey-text","71","406917","0.0-71.0","","62217","","{""choice_strategy"":""I based it on how similar they were to the examples given earlier. \n\nFor the first part, for the images where it was asking if the description included a person, I didn't click in time for the first image. I meant to click \""yes.\"""",""gender"":""female"",""age"":""35""}","","","","","","","","","","",""
"","","","","","instructions","72","409685","0.0-72.0","[{""page_index"":0,""viewing_time"":2768}]","2768","","","","","","","","","","","","",""
