"success","timeout","failed_images","failed_audio","failed_video","trial_type","trial_index","time_elapsed","internal_node_id","subject_id","study_id","session_id","view_history","rt","stimulus","response","task","folder","sequence_type","valuable_image_index","reward_type","distance_from_x","target_X","chosen_image_index","is_x_plus_dist","correct_choice"
"true","false","[]","[]","[]","preload","0","59131","0.0-0.0","F275751D6E3646F7BAD36D7BE6A2216C","019db61b-b165-7b6f-83eb-d0c7968c326d","019db609-2a35-76b9-807a-e0c4c153f4bb","","","","","","","","","","","","","",""
"","","","","","instructions","1","72510","0.0-1.0","F275751D6E3646F7BAD36D7BE6A2216C","019db61b-b165-7b6f-83eb-d0c7968c326d","019db609-2a35-76b9-807a-e0c4c153f4bb","[{""page_index"":0,""viewing_time"":13378}]","13378","","","","","","","","","","","",""
"","","","","","instructions","2","75106","0.0-2.0","F275751D6E3646F7BAD36D7BE6A2216C","019db61b-b165-7b6f-83eb-d0c7968c326d","019db609-2a35-76b9-807a-e0c4c153f4bb","[{""page_index"":0,""viewing_time"":2595}]","2595","","","","","","","","","","","",""
"true","","","","","fullscreen","3","77052","0.0-3.0","F275751D6E3646F7BAD36D7BE6A2216C","019db61b-b165-7b6f-83eb-d0c7968c326d","019db609-2a35-76b9-807a-e0c4c153f4bb","","919","","","","","","","","","","","",""
"","","","","","instructions","4","78005","0.0-4.0","F275751D6E3646F7BAD36D7BE6A2216C","019db61b-b165-7b6f-83eb-d0c7968c326d","019db609-2a35-76b9-807a-e0c4c153f4bb","[{""page_index"":0,""viewing_time"":951}]","952","","","","","","","","","","","",""
"","","","","","instructions","5","81554","0.0-5.0","F275751D6E3646F7BAD36D7BE6A2216C","019db61b-b165-7b6f-83eb-d0c7968c326d","019db609-2a35-76b9-807a-e0c4c153f4bb","[{""page_index"":0,""viewing_time"":3548}]","3549","","","","","","","","","","","",""
"","","","","","html-button-response","6","83860","0.0-6.0","F275751D6E3646F7BAD36D7BE6A2216C","019db61b-b165-7b6f-83eb-d0c7968c326d","019db609-2a35-76b9-807a-e0c4c153f4bb","","2302","
            <div class=""stimulus-container"">
                <img src=""images/semantic_sequence/visiting_cities_semantic/visiting_cities_semantic_4.png"" class=""exp-image"">
                <div class=""question-area"">
                    <p style=""font-size: 20px; font-weight: bold;"">Click the button to reveal the image value</p>
                </div>
            </div>","0","part2_active_reveal_click","visiting_cities_semantic","","","","","","","",""
"","","","","","html-keyboard-response","7","91869","0.0-7.0","F275751D6E3646F7BAD36D7BE6A2216C","019db61b-b165-7b6f-83eb-d0c7968c326d","019db609-2a35-76b9-807a-e0c4c153f4bb","","null","
            <div class=""stimulus-container"" style=""display: flex; align-items: center; justify-content: center; gap: 40px;"">
                <img src=""images/semantic_sequence/visiting_cities_semantic/visiting_cities_semantic_4.png"" class=""exp-image"">
                <div style=""text-align: center;"">
                    <img src=""images/dollar.png"" style=""width: 150px; height: 150px; border: 5px solid green; border-radius: 15px;"">
                    <p style=""color: green; font-weight: bold; font-size: 28px; margin-top: 15px;"">WORTH MONEY</p>
                </div>
            </div>","null","part2_value_learning","visiting_cities_semantic","semantic_sequence","4","valuable","","","","",""
"","","","","","html-keyboard-response","8","96876","0.0-8.0","F275751D6E3646F7BAD36D7BE6A2216C","019db61b-b165-7b6f-83eb-d0c7968c326d","019db609-2a35-76b9-807a-e0c4c153f4bb","","null","<div style=""background-color: white; width: 100vw; height: 100vh;""></div>","null","","","","","","","","","",""
"","","","","","html-button-response","9","98241","0.0-9.0","F275751D6E3646F7BAD36D7BE6A2216C","019db61b-b165-7b6f-83eb-d0c7968c326d","019db609-2a35-76b9-807a-e0c4c153f4bb","","1360","
            <div class=""stimulus-container"">
                <img src=""images/semantic_sequence/physical_activity_semantic/physical_activity_semantic_5.png"" class=""exp-image"">
                <div class=""question-area"">
                    <p style=""font-size: 20px; font-weight: bold;"">Click the button to reveal the image value</p>
                </div>
            </div>","0","part2_active_reveal_click","physical_activity_semantic","","","","","","","",""
"","","","","","html-keyboard-response","10","106253","0.0-10.0","F275751D6E3646F7BAD36D7BE6A2216C","019db61b-b165-7b6f-83eb-d0c7968c326d","019db609-2a35-76b9-807a-e0c4c153f4bb","","null","
            <div class=""stimulus-container"" style=""display: flex; align-items: center; justify-content: center; gap: 40px;"">
                <img src=""images/semantic_sequence/physical_activity_semantic/physical_activity_semantic_5.png"" class=""exp-image"">
                <div style=""text-align: center;"">
                    <img src=""images/gray.png"" style=""width: 150px; height: 150px; border: 5px solid grey; border-radius: 15px;"">
                    <p style=""color: grey; font-weight: bold; font-size: 28px; margin-top: 15px;"">NEUTRAL VALUE</p>
                </div>
            </div>","null","part2_value_learning","physical_activity_semantic","semantic_sequence","5","neutral","","","","",""
"","","","","","html-keyboard-response","11","111259","0.0-11.0","F275751D6E3646F7BAD36D7BE6A2216C","019db61b-b165-7b6f-83eb-d0c7968c326d","019db609-2a35-76b9-807a-e0c4c153f4bb","","null","<div style=""background-color: white; width: 100vw; height: 100vh;""></div>","null","","","","","","","","","",""
"","","","","","html-button-response","12","126415","0.0-12.0","F275751D6E3646F7BAD36D7BE6A2216C","019db61b-b165-7b6f-83eb-d0c7968c326d","019db609-2a35-76b9-807a-e0c4c153f4bb","","15155","
            <div class=""stimulus-container"">
                <img src=""images/schematic_sequence/hotel_scheme/hotel_scheme_7.png"" class=""exp-image"">
                <div class=""question-area"">
                    <p style=""font-size: 20px; font-weight: bold;"">Click the button to reveal the image value</p>
                </div>
            </div>","0","part2_active_reveal_click","hotel_scheme","","","","","","","",""
"","","","","","html-keyboard-response","13","134418","0.0-13.0","F275751D6E3646F7BAD36D7BE6A2216C","019db61b-b165-7b6f-83eb-d0c7968c326d","019db609-2a35-76b9-807a-e0c4c153f4bb","","null","
            <div class=""stimulus-container"" style=""display: flex; align-items: center; justify-content: center; gap: 40px;"">
                <img src=""images/schematic_sequence/hotel_scheme/hotel_scheme_7.png"" class=""exp-image"">
                <div style=""text-align: center;"">
                    <img src=""images/gray.png"" style=""width: 150px; height: 150px; border: 5px solid grey; border-radius: 15px;"">
                    <p style=""color: grey; font-weight: bold; font-size: 28px; margin-top: 15px;"">NEUTRAL VALUE</p>
                </div>
            </div>","null","part2_value_learning","hotel_scheme","schematic_sequence","7","neutral","","","","",""
"","","","","","html-keyboard-response","14","139428","0.0-14.0","F275751D6E3646F7BAD36D7BE6A2216C","019db61b-b165-7b6f-83eb-d0c7968c326d","019db609-2a35-76b9-807a-e0c4c153f4bb","","null","<div style=""background-color: white; width: 100vw; height: 100vh;""></div>","null","","","","","","","","","",""
"","","","","","html-button-response","15","145383","0.0-15.0","F275751D6E3646F7BAD36D7BE6A2216C","019db61b-b165-7b6f-83eb-d0c7968c326d","019db609-2a35-76b9-807a-e0c4c153f4bb","","5954","
            <div class=""stimulus-container"">
                <img src=""images/schematic_sequence/restaurant_scheme/restaurant_scheme_4.png"" class=""exp-image"">
                <div class=""question-area"">
                    <p style=""font-size: 20px; font-weight: bold;"">Click the button to reveal the image value</p>
                </div>
            </div>","0","part2_active_reveal_click","restaurant_scheme","","","","","","","",""
"","","","","","html-keyboard-response","16","153393","0.0-16.0","F275751D6E3646F7BAD36D7BE6A2216C","019db61b-b165-7b6f-83eb-d0c7968c326d","019db609-2a35-76b9-807a-e0c4c153f4bb","","null","
            <div class=""stimulus-container"" style=""display: flex; align-items: center; justify-content: center; gap: 40px;"">
                <img src=""images/schematic_sequence/restaurant_scheme/restaurant_scheme_4.png"" class=""exp-image"">
                <div style=""text-align: center;"">
                    <img src=""images/dollar.png"" style=""width: 150px; height: 150px; border: 5px solid green; border-radius: 15px;"">
                    <p style=""color: green; font-weight: bold; font-size: 28px; margin-top: 15px;"">WORTH MONEY</p>
                </div>
            </div>","null","part2_value_learning","restaurant_scheme","schematic_sequence","4","valuable","","","","",""
"","","","","","html-keyboard-response","17","158406","0.0-17.0","F275751D6E3646F7BAD36D7BE6A2216C","019db61b-b165-7b6f-83eb-d0c7968c326d","019db609-2a35-76b9-807a-e0c4c153f4bb","","null","<div style=""background-color: white; width: 100vw; height: 100vh;""></div>","null","","","","","","","","","",""
"","","","","","html-button-response","18","173727","0.0-18.0","F275751D6E3646F7BAD36D7BE6A2216C","019db61b-b165-7b6f-83eb-d0c7968c326d","019db609-2a35-76b9-807a-e0c4c153f4bb","","15320","
            <div class=""stimulus-container"">
                <img src=""images/semantic_sequence/self_care_activities_semantic/self_care_activities_semantic_7.png"" class=""exp-image"">
                <div class=""question-area"">
                    <p style=""font-size: 20px; font-weight: bold;"">Click the button to reveal the image value</p>
                </div>
            </div>","0","part2_active_reveal_click","self_care_activities_semantic","","","","","","","",""
"","","","","","html-keyboard-response","19","181732","0.0-19.0","F275751D6E3646F7BAD36D7BE6A2216C","019db61b-b165-7b6f-83eb-d0c7968c326d","019db609-2a35-76b9-807a-e0c4c153f4bb","","null","
            <div class=""stimulus-container"" style=""display: flex; align-items: center; justify-content: center; gap: 40px;"">
                <img src=""images/semantic_sequence/self_care_activities_semantic/self_care_activities_semantic_7.png"" class=""exp-image"">
                <div style=""text-align: center;"">
                    <img src=""images/dollar.png"" style=""width: 150px; height: 150px; border: 5px solid green; border-radius: 15px;"">
                    <p style=""color: green; font-weight: bold; font-size: 28px; margin-top: 15px;"">WORTH MONEY</p>
                </div>
            </div>","null","part2_value_learning","self_care_activities_semantic","semantic_sequence","7","valuable","","","","",""
"","","","","","html-keyboard-response","20","186744","0.0-20.0","F275751D6E3646F7BAD36D7BE6A2216C","019db61b-b165-7b6f-83eb-d0c7968c326d","019db609-2a35-76b9-807a-e0c4c153f4bb","","null","<div style=""background-color: white; width: 100vw; height: 100vh;""></div>","null","","","","","","","","","",""
"","","","","","html-button-response","21","195379","0.0-21.0","F275751D6E3646F7BAD36D7BE6A2216C","019db61b-b165-7b6f-83eb-d0c7968c326d","019db609-2a35-76b9-807a-e0c4c153f4bb","","8634","
            <div class=""stimulus-container"">
                <img src=""images/semantic_sequence/maintaining_a_car_semantic/maintaining_a_car_semantic_5.png"" class=""exp-image"">
                <div class=""question-area"">
                    <p style=""font-size: 20px; font-weight: bold;"">Click the button to reveal the image value</p>
                </div>
            </div>","0","part2_active_reveal_click","maintaining_a_car_semantic","","","","","","","",""
"","","","","","html-keyboard-response","22","203383","0.0-22.0","F275751D6E3646F7BAD36D7BE6A2216C","019db61b-b165-7b6f-83eb-d0c7968c326d","019db609-2a35-76b9-807a-e0c4c153f4bb","","null","
            <div class=""stimulus-container"" style=""display: flex; align-items: center; justify-content: center; gap: 40px;"">
                <img src=""images/semantic_sequence/maintaining_a_car_semantic/maintaining_a_car_semantic_5.png"" class=""exp-image"">
                <div style=""text-align: center;"">
                    <img src=""images/gray.png"" style=""width: 150px; height: 150px; border: 5px solid grey; border-radius: 15px;"">
                    <p style=""color: grey; font-weight: bold; font-size: 28px; margin-top: 15px;"">NEUTRAL VALUE</p>
                </div>
            </div>","null","part2_value_learning","maintaining_a_car_semantic","semantic_sequence","5","neutral","","","","",""
"","","","","","html-keyboard-response","23","208389","0.0-23.0","F275751D6E3646F7BAD36D7BE6A2216C","019db61b-b165-7b6f-83eb-d0c7968c326d","019db609-2a35-76b9-807a-e0c4c153f4bb","","null","<div style=""background-color: white; width: 100vw; height: 100vh;""></div>","null","","","","","","","","","",""
"","","","","","html-button-response","24","225636","0.0-24.0","F275751D6E3646F7BAD36D7BE6A2216C","019db61b-b165-7b6f-83eb-d0c7968c326d","019db609-2a35-76b9-807a-e0c4c153f4bb","","17246","
            <div class=""stimulus-container"">
                <img src=""images/schematic_sequence/dinner_party_scheme/dinner_party_scheme_6.png"" class=""exp-image"">
                <div class=""question-area"">
                    <p style=""font-size: 20px; font-weight: bold;"">Click the button to reveal the image value</p>
                </div>
            </div>","0","part2_active_reveal_click","dinner_party_scheme","","","","","","","",""
"","","","","","html-keyboard-response","25","233650","0.0-25.0","F275751D6E3646F7BAD36D7BE6A2216C","019db61b-b165-7b6f-83eb-d0c7968c326d","019db609-2a35-76b9-807a-e0c4c153f4bb","","null","
            <div class=""stimulus-container"" style=""display: flex; align-items: center; justify-content: center; gap: 40px;"">
                <img src=""images/schematic_sequence/dinner_party_scheme/dinner_party_scheme_6.png"" class=""exp-image"">
                <div style=""text-align: center;"">
                    <img src=""images/gray.png"" style=""width: 150px; height: 150px; border: 5px solid grey; border-radius: 15px;"">
                    <p style=""color: grey; font-weight: bold; font-size: 28px; margin-top: 15px;"">NEUTRAL VALUE</p>
                </div>
            </div>","null","part2_value_learning","dinner_party_scheme","schematic_sequence","6","neutral","","","","",""
"","","","","","html-keyboard-response","26","238653","0.0-26.0","F275751D6E3646F7BAD36D7BE6A2216C","019db61b-b165-7b6f-83eb-d0c7968c326d","019db609-2a35-76b9-807a-e0c4c153f4bb","","null","<div style=""background-color: white; width: 100vw; height: 100vh;""></div>","null","","","","","","","","","",""
"","","","","","html-button-response","27","258617","0.0-27.0","F275751D6E3646F7BAD36D7BE6A2216C","019db61b-b165-7b6f-83eb-d0c7968c326d","019db609-2a35-76b9-807a-e0c4c153f4bb","","19964","
            <div class=""stimulus-container"">
                <img src=""images/semantic_sequence/housework_semantic/housework_semantic_4.png"" class=""exp-image"">
                <div class=""question-area"">
                    <p style=""font-size: 20px; font-weight: bold;"">Click the button to reveal the image value</p>
                </div>
            </div>","0","part2_active_reveal_click","housework_semantic","","","","","","","",""
"","","","","","html-keyboard-response","28","266627","0.0-28.0","F275751D6E3646F7BAD36D7BE6A2216C","019db61b-b165-7b6f-83eb-d0c7968c326d","019db609-2a35-76b9-807a-e0c4c153f4bb","","null","
            <div class=""stimulus-container"" style=""display: flex; align-items: center; justify-content: center; gap: 40px;"">
                <img src=""images/semantic_sequence/housework_semantic/housework_semantic_4.png"" class=""exp-image"">
                <div style=""text-align: center;"">
                    <img src=""images/dollar.png"" style=""width: 150px; height: 150px; border: 5px solid green; border-radius: 15px;"">
                    <p style=""color: green; font-weight: bold; font-size: 28px; margin-top: 15px;"">WORTH MONEY</p>
                </div>
            </div>","null","part2_value_learning","housework_semantic","semantic_sequence","4","valuable","","","","",""
"","","","","","html-keyboard-response","29","271634","0.0-29.0","F275751D6E3646F7BAD36D7BE6A2216C","019db61b-b165-7b6f-83eb-d0c7968c326d","019db609-2a35-76b9-807a-e0c4c153f4bb","","null","<div style=""background-color: white; width: 100vw; height: 100vh;""></div>","null","","","","","","","","","",""
"","","","","","html-button-response","30","398961","0.0-30.0","F275751D6E3646F7BAD36D7BE6A2216C","019db61b-b165-7b6f-83eb-d0c7968c326d","019db609-2a35-76b9-807a-e0c4c153f4bb","","127315","
            <div class=""stimulus-container"">
                <img src=""images/semantic_sequence/kitchen_operations_semantic/kitchen_operations_semantic_6.png"" class=""exp-image"">
                <div class=""question-area"">
                    <p style=""font-size: 20px; font-weight: bold;"">Click the button to reveal the image value</p>
                </div>
            </div>","0","part2_active_reveal_click","kitchen_operations_semantic","","","","","","","",""
"","","","","","html-keyboard-response","31","406965","0.0-31.0","F275751D6E3646F7BAD36D7BE6A2216C","019db61b-b165-7b6f-83eb-d0c7968c326d","019db609-2a35-76b9-807a-e0c4c153f4bb","","null","
            <div class=""stimulus-container"" style=""display: flex; align-items: center; justify-content: center; gap: 40px;"">
                <img src=""images/semantic_sequence/kitchen_operations_semantic/kitchen_operations_semantic_6.png"" class=""exp-image"">
                <div style=""text-align: center;"">
                    <img src=""images/gray.png"" style=""width: 150px; height: 150px; border: 5px solid grey; border-radius: 15px;"">
                    <p style=""color: grey; font-weight: bold; font-size: 28px; margin-top: 15px;"">NEUTRAL VALUE</p>
                </div>
            </div>","null","part2_value_learning","kitchen_operations_semantic","semantic_sequence","6","neutral","","","","",""
"","","","","","html-keyboard-response","32","411970","0.0-32.0","F275751D6E3646F7BAD36D7BE6A2216C","019db61b-b165-7b6f-83eb-d0c7968c326d","019db609-2a35-76b9-807a-e0c4c153f4bb","","null","<div style=""background-color: white; width: 100vw; height: 100vh;""></div>","null","","","","","","","","","",""
"","","","","","html-button-response","33","413062","0.0-33.0","F275751D6E3646F7BAD36D7BE6A2216C","019db61b-b165-7b6f-83eb-d0c7968c326d","019db609-2a35-76b9-807a-e0c4c153f4bb","","1091","
            <div class=""stimulus-container"">
                <img src=""images/schematic_sequence/flight_scheme/flight_scheme_7.png"" class=""exp-image"">
                <div class=""question-area"">
                    <p style=""font-size: 20px; font-weight: bold;"">Click the button to reveal the image value</p>
                </div>
            </div>","0","part2_active_reveal_click","flight_scheme","","","","","","","",""
"","","","","","html-keyboard-response","34","421065","0.0-34.0","F275751D6E3646F7BAD36D7BE6A2216C","019db61b-b165-7b6f-83eb-d0c7968c326d","019db609-2a35-76b9-807a-e0c4c153f4bb","","null","
            <div class=""stimulus-container"" style=""display: flex; align-items: center; justify-content: center; gap: 40px;"">
                <img src=""images/schematic_sequence/flight_scheme/flight_scheme_7.png"" class=""exp-image"">
                <div style=""text-align: center;"">
                    <img src=""images/dollar.png"" style=""width: 150px; height: 150px; border: 5px solid green; border-radius: 15px;"">
                    <p style=""color: green; font-weight: bold; font-size: 28px; margin-top: 15px;"">WORTH MONEY</p>
                </div>
            </div>","null","part2_value_learning","flight_scheme","schematic_sequence","7","valuable","","","","",""
"","","","","","html-keyboard-response","35","426081","0.0-35.0","F275751D6E3646F7BAD36D7BE6A2216C","019db61b-b165-7b6f-83eb-d0c7968c326d","019db609-2a35-76b9-807a-e0c4c153f4bb","","null","<div style=""background-color: white; width: 100vw; height: 100vh;""></div>","null","","","","","","","","","",""
"","","","","","html-button-response","36","429058","0.0-36.0","F275751D6E3646F7BAD36D7BE6A2216C","019db61b-b165-7b6f-83eb-d0c7968c326d","019db609-2a35-76b9-807a-e0c4c153f4bb","","2976","
            <div class=""stimulus-container"">
                <img src=""images/schematic_sequence/interview_scheme/interview_scheme_6.png"" class=""exp-image"">
                <div class=""question-area"">
                    <p style=""font-size: 20px; font-weight: bold;"">Click the button to reveal the image value</p>
                </div>
            </div>","0","part2_active_reveal_click","interview_scheme","","","","","","","",""
"","","","","","html-keyboard-response","37","437064","0.0-37.0","F275751D6E3646F7BAD36D7BE6A2216C","019db61b-b165-7b6f-83eb-d0c7968c326d","019db609-2a35-76b9-807a-e0c4c153f4bb","","null","
            <div class=""stimulus-container"" style=""display: flex; align-items: center; justify-content: center; gap: 40px;"">
                <img src=""images/schematic_sequence/interview_scheme/interview_scheme_6.png"" class=""exp-image"">
                <div style=""text-align: center;"">
                    <img src=""images/dollar.png"" style=""width: 150px; height: 150px; border: 5px solid green; border-radius: 15px;"">
                    <p style=""color: green; font-weight: bold; font-size: 28px; margin-top: 15px;"">WORTH MONEY</p>
                </div>
            </div>","null","part2_value_learning","interview_scheme","schematic_sequence","6","valuable","","","","",""
"","","","","","html-keyboard-response","38","442069","0.0-38.0","F275751D6E3646F7BAD36D7BE6A2216C","019db61b-b165-7b6f-83eb-d0c7968c326d","019db609-2a35-76b9-807a-e0c4c153f4bb","","null","<div style=""background-color: white; width: 100vw; height: 100vh;""></div>","null","","","","","","","","","",""
"","","","","","html-button-response","39","448070","0.0-39.0","F275751D6E3646F7BAD36D7BE6A2216C","019db61b-b165-7b6f-83eb-d0c7968c326d","019db609-2a35-76b9-807a-e0c4c153f4bb","","6000","
            <div class=""stimulus-container"">
                <img src=""images/schematic_sequence/supermarket_scheme/supermarket_scheme_6.png"" class=""exp-image"">
                <div class=""question-area"">
                    <p style=""font-size: 20px; font-weight: bold;"">Click the button to reveal the image value</p>
                </div>
            </div>","0","part2_active_reveal_click","supermarket_scheme","","","","","","","",""
"","","","","","html-keyboard-response","40","456081","0.0-40.0","F275751D6E3646F7BAD36D7BE6A2216C","019db61b-b165-7b6f-83eb-d0c7968c326d","019db609-2a35-76b9-807a-e0c4c153f4bb","","null","
            <div class=""stimulus-container"" style=""display: flex; align-items: center; justify-content: center; gap: 40px;"">
                <img src=""images/schematic_sequence/supermarket_scheme/supermarket_scheme_6.png"" class=""exp-image"">
                <div style=""text-align: center;"">
                    <img src=""images/gray.png"" style=""width: 150px; height: 150px; border: 5px solid grey; border-radius: 15px;"">
                    <p style=""color: grey; font-weight: bold; font-size: 28px; margin-top: 15px;"">NEUTRAL VALUE</p>
                </div>
            </div>","null","part2_value_learning","supermarket_scheme","schematic_sequence","6","neutral","","","","",""
"","","","","","html-keyboard-response","41","461089","0.0-41.0","F275751D6E3646F7BAD36D7BE6A2216C","019db61b-b165-7b6f-83eb-d0c7968c326d","019db609-2a35-76b9-807a-e0c4c153f4bb","","null","<div style=""background-color: white; width: 100vw; height: 100vh;""></div>","null","","","","","","","","","",""
"","","","","","instructions","42","462373","0.0-42.0","F275751D6E3646F7BAD36D7BE6A2216C","019db61b-b165-7b6f-83eb-d0c7968c326d","019db609-2a35-76b9-807a-e0c4c153f4bb","[{""page_index"":0,""viewing_time"":1283}]","1284","","","","","","","","","","","",""
"","","","","","html-keyboard-response","43","465376","0.0-43.0-0.0","F275751D6E3646F7BAD36D7BE6A2216C","019db61b-b165-7b6f-83eb-d0c7968c326d","019db609-2a35-76b9-807a-e0c4c153f4bb","","null","
                            <div style=""font-family: Arial; margin-bottom: 20px;""><h3>Which image is worth <b>more money</b>?</h3></div>
                            <div class=""stimulus-container"" style=""display: flex; width: 800px; justify-content: center; gap: 30px;"">
                                <img src=""images/schematic_sequence/supermarket_scheme/supermarket_scheme_4.png"" class=""small-image"">
                                <img src=""images/schematic_sequence/supermarket_scheme/supermarket_scheme_8.png"" class=""small-image"">
                            </div>","null","","","","","","","","","",""
"","","","","","html-button-response","44","470136","0.0-43.0-1.0","F275751D6E3646F7BAD36D7BE6A2216C","019db61b-b165-7b6f-83eb-d0c7968c326d","019db609-2a35-76b9-807a-e0c4c153f4bb","","4759","
                            <div style=""font-family: Arial; margin-bottom: 20px;""><h3>Which image is worth <b>more money</b>?</h3></div>
                            <div class=""stimulus-container"" style=""display: flex; width: 800px; justify-content: center; gap: 30px;"">
                                <img src=""images/schematic_sequence/supermarket_scheme/supermarket_scheme_4.png"" class=""small-image"">
                                <img src=""images/schematic_sequence/supermarket_scheme/supermarket_scheme_8.png"" class=""small-image"">
                            </div>","1","part3_choice_neighbors","supermarket_scheme","schematic_sequence","","","2","6","8","1",""
"","","","","","html-keyboard-response","45","473140","0.0-44.0-0.0","F275751D6E3646F7BAD36D7BE6A2216C","019db61b-b165-7b6f-83eb-d0c7968c326d","019db609-2a35-76b9-807a-e0c4c153f4bb","","null","
                            <div style=""font-family: Arial; margin-bottom: 20px;""><h3>Which image is worth <b>more money</b>?</h3></div>
                            <div class=""stimulus-container"" style=""display: flex; width: 800px; justify-content: center; gap: 30px;"">
                                <img src=""images/semantic_sequence/maintaining_a_car_semantic/maintaining_a_car_semantic_3.png"" class=""small-image"">
                                <img src=""images/semantic_sequence/maintaining_a_car_semantic/maintaining_a_car_semantic_7.png"" class=""small-image"">
                            </div>","null","","","","","","","","","",""
"","","","","","html-button-response","46","475081","0.0-44.0-1.0","F275751D6E3646F7BAD36D7BE6A2216C","019db61b-b165-7b6f-83eb-d0c7968c326d","019db609-2a35-76b9-807a-e0c4c153f4bb","","1940","
                            <div style=""font-family: Arial; margin-bottom: 20px;""><h3>Which image is worth <b>more money</b>?</h3></div>
                            <div class=""stimulus-container"" style=""display: flex; width: 800px; justify-content: center; gap: 30px;"">
                                <img src=""images/semantic_sequence/maintaining_a_car_semantic/maintaining_a_car_semantic_3.png"" class=""small-image"">
                                <img src=""images/semantic_sequence/maintaining_a_car_semantic/maintaining_a_car_semantic_7.png"" class=""small-image"">
                            </div>","0","part3_choice_neighbors","maintaining_a_car_semantic","semantic_sequence","","","2","5","3","0",""
"","","","","","html-keyboard-response","47","478084","0.0-45.0-0.0","F275751D6E3646F7BAD36D7BE6A2216C","019db61b-b165-7b6f-83eb-d0c7968c326d","019db609-2a35-76b9-807a-e0c4c153f4bb","","null","
                            <div style=""font-family: Arial; margin-bottom: 20px;""><h3>Which image is worth <b>more money</b>?</h3></div>
                            <div class=""stimulus-container"" style=""display: flex; width: 800px; justify-content: center; gap: 30px;"">
                                <img src=""images/schematic_sequence/supermarket_scheme/supermarket_scheme_5.png"" class=""small-image"">
                                <img src=""images/schematic_sequence/supermarket_scheme/supermarket_scheme_7.png"" class=""small-image"">
                            </div>","null","","","","","","","","","",""
"","","","","","html-button-response","48","478981","0.0-45.0-1.0","F275751D6E3646F7BAD36D7BE6A2216C","019db61b-b165-7b6f-83eb-d0c7968c326d","019db609-2a35-76b9-807a-e0c4c153f4bb","","896","
                            <div style=""font-family: Arial; margin-bottom: 20px;""><h3>Which image is worth <b>more money</b>?</h3></div>
                            <div class=""stimulus-container"" style=""display: flex; width: 800px; justify-content: center; gap: 30px;"">
                                <img src=""images/schematic_sequence/supermarket_scheme/supermarket_scheme_5.png"" class=""small-image"">
                                <img src=""images/schematic_sequence/supermarket_scheme/supermarket_scheme_7.png"" class=""small-image"">
                            </div>","0","part3_choice_neighbors","supermarket_scheme","schematic_sequence","","","1","6","5","0",""
"","","","","","html-keyboard-response","49","482001","0.0-46.0-0.0","F275751D6E3646F7BAD36D7BE6A2216C","019db61b-b165-7b6f-83eb-d0c7968c326d","019db609-2a35-76b9-807a-e0c4c153f4bb","","null","
                            <div style=""font-family: Arial; margin-bottom: 20px;""><h3>Which image is worth <b>more money</b>?</h3></div>
                            <div class=""stimulus-container"" style=""display: flex; width: 800px; justify-content: center; gap: 30px;"">
                                <img src=""images/schematic_sequence/hotel_scheme/hotel_scheme_9.png"" class=""small-image"">
                                <img src=""images/schematic_sequence/hotel_scheme/hotel_scheme_5.png"" class=""small-image"">
                            </div>","null","","","","","","","","","",""
"","","","","","html-button-response","50","483377","0.0-46.0-1.0","F275751D6E3646F7BAD36D7BE6A2216C","019db61b-b165-7b6f-83eb-d0c7968c326d","019db609-2a35-76b9-807a-e0c4c153f4bb","","1374","
                            <div style=""font-family: Arial; margin-bottom: 20px;""><h3>Which image is worth <b>more money</b>?</h3></div>
                            <div class=""stimulus-container"" style=""display: flex; width: 800px; justify-content: center; gap: 30px;"">
                                <img src=""images/schematic_sequence/hotel_scheme/hotel_scheme_9.png"" class=""small-image"">
                                <img src=""images/schematic_sequence/hotel_scheme/hotel_scheme_5.png"" class=""small-image"">
                            </div>","0","part3_choice_neighbors","hotel_scheme","schematic_sequence","","","2","7","9","1",""
"","","","","","html-keyboard-response","51","486387","0.0-47.0-0.0","F275751D6E3646F7BAD36D7BE6A2216C","019db61b-b165-7b6f-83eb-d0c7968c326d","019db609-2a35-76b9-807a-e0c4c153f4bb","","null","<div style=""font-family: Arial; margin-bottom: 20px;""><h3>Which image is worth <b>more money?</h3></div>
                            <div class=""stimulus-container"" style=""display: flex; width: 800px; justify-content: center; gap: 30px;"">
                                <img src=""images/schematic_sequence/supermarket_scheme/supermarket_scheme_6.png"" class=""small-image"">
                                <img src=""images/semantic_sequence/housework_semantic/housework_semantic_4.png"" class=""small-image"">
                            </div>","null","","","","","","","","","",""
"","","","","","html-button-response","52","487019","0.0-47.0-1.0","F275751D6E3646F7BAD36D7BE6A2216C","019db61b-b165-7b6f-83eb-d0c7968c326d","019db609-2a35-76b9-807a-e0c4c153f4bb","","630","<div style=""font-family: Arial; margin-bottom: 20px;""><h3>Which image is worth <b>more money</b>?</h3></div>
                            <div class=""stimulus-container"" style=""display: flex; width: 800px; justify-content: center; gap: 30px;"">
                                <img src=""images/schematic_sequence/supermarket_scheme/supermarket_scheme_6.png"" class=""small-image"">
                                <img src=""images/semantic_sequence/housework_semantic/housework_semantic_4.png"" class=""small-image"">
                            </div>","1","part3_valuable_vs_neutral_direct","","","","","","","","","true"
"","","","","","html-keyboard-response","53","490031","0.0-48.0-0.0","F275751D6E3646F7BAD36D7BE6A2216C","019db61b-b165-7b6f-83eb-d0c7968c326d","019db609-2a35-76b9-807a-e0c4c153f4bb","","null","
                            <div style=""font-family: Arial; margin-bottom: 20px;""><h3>Which image is worth <b>more money</b>?</h3></div>
                            <div class=""stimulus-container"" style=""display: flex; width: 800px; justify-content: center; gap: 30px;"">
                                <img src=""images/semantic_sequence/kitchen_operations_semantic/kitchen_operations_semantic_7.png"" class=""small-image"">
                                <img src=""images/semantic_sequence/kitchen_operations_semantic/kitchen_operations_semantic_5.png"" class=""small-image"">
                            </div>","null","","","","","","","","","",""
"","","","","","html-button-response","54","490647","0.0-48.0-1.0","F275751D6E3646F7BAD36D7BE6A2216C","019db61b-b165-7b6f-83eb-d0c7968c326d","019db609-2a35-76b9-807a-e0c4c153f4bb","","615","
                            <div style=""font-family: Arial; margin-bottom: 20px;""><h3>Which image is worth <b>more money</b>?</h3></div>
                            <div class=""stimulus-container"" style=""display: flex; width: 800px; justify-content: center; gap: 30px;"">
                                <img src=""images/semantic_sequence/kitchen_operations_semantic/kitchen_operations_semantic_7.png"" class=""small-image"">
                                <img src=""images/semantic_sequence/kitchen_operations_semantic/kitchen_operations_semantic_5.png"" class=""small-image"">
                            </div>","0","part3_choice_neighbors","kitchen_operations_semantic","semantic_sequence","","","1","6","7","1",""
"","","","","","html-keyboard-response","55","493664","0.0-49.0-0.0","F275751D6E3646F7BAD36D7BE6A2216C","019db61b-b165-7b6f-83eb-d0c7968c326d","019db609-2a35-76b9-807a-e0c4c153f4bb","","null","
                            <div style=""font-family: Arial; margin-bottom: 20px;""><h3>Which image is worth <b>more money</b>?</h3></div>
                            <div class=""stimulus-container"" style=""display: flex; width: 800px; justify-content: center; gap: 30px;"">
                                <img src=""images/schematic_sequence/dinner_party_scheme/dinner_party_scheme_3.png"" class=""small-image"">
                                <img src=""images/schematic_sequence/dinner_party_scheme/dinner_party_scheme_9.png"" class=""small-image"">
                            </div>","null","","","","","","","","","",""
"","","","","","html-button-response","56","494151","0.0-49.0-1.0","F275751D6E3646F7BAD36D7BE6A2216C","019db61b-b165-7b6f-83eb-d0c7968c326d","019db609-2a35-76b9-807a-e0c4c153f4bb","","485","
                            <div style=""font-family: Arial; margin-bottom: 20px;""><h3>Which image is worth <b>more money</b>?</h3></div>
                            <div class=""stimulus-container"" style=""display: flex; width: 800px; justify-content: center; gap: 30px;"">
                                <img src=""images/schematic_sequence/dinner_party_scheme/dinner_party_scheme_3.png"" class=""small-image"">
                                <img src=""images/schematic_sequence/dinner_party_scheme/dinner_party_scheme_9.png"" class=""small-image"">
                            </div>","0","part3_choice_neighbors","dinner_party_scheme","schematic_sequence","","","3","6","3","0",""
"","","","","","html-keyboard-response","57","497157","0.0-50.0-0.0","F275751D6E3646F7BAD36D7BE6A2216C","019db61b-b165-7b6f-83eb-d0c7968c326d","019db609-2a35-76b9-807a-e0c4c153f4bb","","null","
                            <div style=""font-family: Arial; margin-bottom: 20px;""><h3>Which image is worth <b>more money</b>?</h3></div>
                            <div class=""stimulus-container"" style=""display: flex; width: 800px; justify-content: center; gap: 30px;"">
                                <img src=""images/semantic_sequence/self_care_activities_semantic/self_care_activities_semantic_8.png"" class=""small-image"">
                                <img src=""images/semantic_sequence/self_care_activities_semantic/self_care_activities_semantic_6.png"" class=""small-image"">
                            </div>","null","","","","","","","","","",""
"","","","","","html-button-response","58","497566","0.0-50.0-1.0","F275751D6E3646F7BAD36D7BE6A2216C","019db61b-b165-7b6f-83eb-d0c7968c326d","019db609-2a35-76b9-807a-e0c4c153f4bb","","407","
                            <div style=""font-family: Arial; margin-bottom: 20px;""><h3>Which image is worth <b>more money</b>?</h3></div>
                            <div class=""stimulus-container"" style=""display: flex; width: 800px; justify-content: center; gap: 30px;"">
                                <img src=""images/semantic_sequence/self_care_activities_semantic/self_care_activities_semantic_8.png"" class=""small-image"">
                                <img src=""images/semantic_sequence/self_care_activities_semantic/self_care_activities_semantic_6.png"" class=""small-image"">
                            </div>","0","part3_choice_neighbors","self_care_activities_semantic","semantic_sequence","","","1","7","8","1",""
"","","","","","html-keyboard-response","59","500574","0.0-51.0-0.0","F275751D6E3646F7BAD36D7BE6A2216C","019db61b-b165-7b6f-83eb-d0c7968c326d","019db609-2a35-76b9-807a-e0c4c153f4bb","","null","
                            <div style=""font-family: Arial; margin-bottom: 20px;""><h3>Which image is worth <b>more money</b>?</h3></div>
                            <div class=""stimulus-container"" style=""display: flex; width: 800px; justify-content: center; gap: 30px;"">
                                <img src=""images/semantic_sequence/maintaining_a_car_semantic/maintaining_a_car_semantic_8.png"" class=""small-image"">
                                <img src=""images/semantic_sequence/maintaining_a_car_semantic/maintaining_a_car_semantic_2.png"" class=""small-image"">
                            </div>","null","","","","","","","","","",""
"","","","","","html-button-response","60","501077","0.0-51.0-1.0","F275751D6E3646F7BAD36D7BE6A2216C","019db61b-b165-7b6f-83eb-d0c7968c326d","019db609-2a35-76b9-807a-e0c4c153f4bb","","502","
                            <div style=""font-family: Arial; margin-bottom: 20px;""><h3>Which image is worth <b>more money</b>?</h3></div>
                            <div class=""stimulus-container"" style=""display: flex; width: 800px; justify-content: center; gap: 30px;"">
                                <img src=""images/semantic_sequence/maintaining_a_car_semantic/maintaining_a_car_semantic_8.png"" class=""small-image"">
                                <img src=""images/semantic_sequence/maintaining_a_car_semantic/maintaining_a_car_semantic_2.png"" class=""small-image"">
                            </div>","1","part3_choice_neighbors","maintaining_a_car_semantic","semantic_sequence","","","3","5","2","0",""
"","","","","","html-keyboard-response","61","504083","0.0-52.0-0.0","F275751D6E3646F7BAD36D7BE6A2216C","019db61b-b165-7b6f-83eb-d0c7968c326d","019db609-2a35-76b9-807a-e0c4c153f4bb","","null","
                            <div style=""font-family: Arial; margin-bottom: 20px;""><h3>Which image is worth <b>more money</b>?</h3></div>
                            <div class=""stimulus-container"" style=""display: flex; width: 800px; justify-content: center; gap: 30px;"">
                                <img src=""images/schematic_sequence/flight_scheme/flight_scheme_5.png"" class=""small-image"">
                                <img src=""images/schematic_sequence/flight_scheme/flight_scheme_9.png"" class=""small-image"">
                            </div>","null","","","","","","","","","",""
"","","","","","html-button-response","62","504499","0.0-52.0-1.0","F275751D6E3646F7BAD36D7BE6A2216C","019db61b-b165-7b6f-83eb-d0c7968c326d","019db609-2a35-76b9-807a-e0c4c153f4bb","","415","
                            <div style=""font-family: Arial; margin-bottom: 20px;""><h3>Which image is worth <b>more money</b>?</h3></div>
                            <div class=""stimulus-container"" style=""display: flex; width: 800px; justify-content: center; gap: 30px;"">
                                <img src=""images/schematic_sequence/flight_scheme/flight_scheme_5.png"" class=""small-image"">
                                <img src=""images/schematic_sequence/flight_scheme/flight_scheme_9.png"" class=""small-image"">
                            </div>","1","part3_choice_neighbors","flight_scheme","schematic_sequence","","","2","7","9","1",""
"","","","","","html-keyboard-response","63","507509","0.0-53.0-0.0","F275751D6E3646F7BAD36D7BE6A2216C","019db61b-b165-7b6f-83eb-d0c7968c326d","019db609-2a35-76b9-807a-e0c4c153f4bb","","null","
                            <div style=""font-family: Arial; margin-bottom: 20px;""><h3>Which image is worth <b>more money</b>?</h3></div>
                            <div class=""stimulus-container"" style=""display: flex; width: 800px; justify-content: center; gap: 30px;"">
                                <img src=""images/semantic_sequence/self_care_activities_semantic/self_care_activities_semantic_9.png"" class=""small-image"">
                                <img src=""images/semantic_sequence/self_care_activities_semantic/self_care_activities_semantic_5.png"" class=""small-image"">
                            </div>","null","","","","","","","","","",""
"","","","","","html-button-response","64","507856","0.0-53.0-1.0","F275751D6E3646F7BAD36D7BE6A2216C","019db61b-b165-7b6f-83eb-d0c7968c326d","019db609-2a35-76b9-807a-e0c4c153f4bb","","346","
                            <div style=""font-family: Arial; margin-bottom: 20px;""><h3>Which image is worth <b>more money</b>?</h3></div>
                            <div class=""stimulus-container"" style=""display: flex; width: 800px; justify-content: center; gap: 30px;"">
                                <img src=""images/semantic_sequence/self_care_activities_semantic/self_care_activities_semantic_9.png"" class=""small-image"">
                                <img src=""images/semantic_sequence/self_care_activities_semantic/self_care_activities_semantic_5.png"" class=""small-image"">
                            </div>","1","part3_choice_neighbors","self_care_activities_semantic","semantic_sequence","","","2","7","5","0",""
"","","","","","html-keyboard-response","65","510858","0.0-54.0-0.0","F275751D6E3646F7BAD36D7BE6A2216C","019db61b-b165-7b6f-83eb-d0c7968c326d","019db609-2a35-76b9-807a-e0c4c153f4bb","","null","
                            <div style=""font-family: Arial; margin-bottom: 20px;""><h3>Which image is worth <b>more money</b>?</h3></div>
                            <div class=""stimulus-container"" style=""display: flex; width: 800px; justify-content: center; gap: 30px;"">
                                <img src=""images/schematic_sequence/interview_scheme/interview_scheme_8.png"" class=""small-image"">
                                <img src=""images/schematic_sequence/interview_scheme/interview_scheme_4.png"" class=""small-image"">
                            </div>","null","","","","","","","","","",""
"","","","","","html-button-response","66","511069","0.0-54.0-1.0","F275751D6E3646F7BAD36D7BE6A2216C","019db61b-b165-7b6f-83eb-d0c7968c326d","019db609-2a35-76b9-807a-e0c4c153f4bb","","210","
                            <div style=""font-family: Arial; margin-bottom: 20px;""><h3>Which image is worth <b>more money</b>?</h3></div>
                            <div class=""stimulus-container"" style=""display: flex; width: 800px; justify-content: center; gap: 30px;"">
                                <img src=""images/schematic_sequence/interview_scheme/interview_scheme_8.png"" class=""small-image"">
                                <img src=""images/schematic_sequence/interview_scheme/interview_scheme_4.png"" class=""small-image"">
                            </div>","1","part3_choice_neighbors","interview_scheme","schematic_sequence","","","2","6","4","0",""
"","","","","","html-keyboard-response","67","514083","0.0-55.0-0.0","F275751D6E3646F7BAD36D7BE6A2216C","019db61b-b165-7b6f-83eb-d0c7968c326d","019db609-2a35-76b9-807a-e0c4c153f4bb","","null","
                            <div style=""font-family: Arial; margin-bottom: 20px;""><h3>Which image is worth <b>more money</b>?</h3></div>
                            <div class=""stimulus-container"" style=""display: flex; width: 800px; justify-content: center; gap: 30px;"">
                                <img src=""images/semantic_sequence/housework_semantic/housework_semantic_7.png"" class=""small-image"">
                                <img src=""images/semantic_sequence/housework_semantic/housework_semantic_1.png"" class=""small-image"">
                            </div>","null","","","","","","","","","",""
"","","","","","html-button-response","68","514754","0.0-55.0-1.0","F275751D6E3646F7BAD36D7BE6A2216C","019db61b-b165-7b6f-83eb-d0c7968c326d","019db609-2a35-76b9-807a-e0c4c153f4bb","","670","
                            <div style=""font-family: Arial; margin-bottom: 20px;""><h3>Which image is worth <b>more money</b>?</h3></div>
                            <div class=""stimulus-container"" style=""display: flex; width: 800px; justify-content: center; gap: 30px;"">
                                <img src=""images/semantic_sequence/housework_semantic/housework_semantic_7.png"" class=""small-image"">
                                <img src=""images/semantic_sequence/housework_semantic/housework_semantic_1.png"" class=""small-image"">
                            </div>","0","part3_choice_neighbors","housework_semantic","semantic_sequence","","","3","4","7","1",""
"","","","","","html-keyboard-response","69","517756","0.0-56.0-0.0","F275751D6E3646F7BAD36D7BE6A2216C","019db61b-b165-7b6f-83eb-d0c7968c326d","019db609-2a35-76b9-807a-e0c4c153f4bb","","null","
                            <div style=""font-family: Arial; margin-bottom: 20px;""><h3>Which image is worth <b>more money</b>?</h3></div>
                            <div class=""stimulus-container"" style=""display: flex; width: 800px; justify-content: center; gap: 30px;"">
                                <img src=""images/schematic_sequence/hotel_scheme/hotel_scheme_8.png"" class=""small-image"">
                                <img src=""images/schematic_sequence/hotel_scheme/hotel_scheme_6.png"" class=""small-image"">
                            </div>","null","","","","","","","","","",""
"","","","","","html-button-response","70","518209","0.0-56.0-1.0","F275751D6E3646F7BAD36D7BE6A2216C","019db61b-b165-7b6f-83eb-d0c7968c326d","019db609-2a35-76b9-807a-e0c4c153f4bb","","452","
                            <div style=""font-family: Arial; margin-bottom: 20px;""><h3>Which image is worth <b>more money</b>?</h3></div>
                            <div class=""stimulus-container"" style=""display: flex; width: 800px; justify-content: center; gap: 30px;"">
                                <img src=""images/schematic_sequence/hotel_scheme/hotel_scheme_8.png"" class=""small-image"">
                                <img src=""images/schematic_sequence/hotel_scheme/hotel_scheme_6.png"" class=""small-image"">
                            </div>","1","part3_choice_neighbors","hotel_scheme","schematic_sequence","","","1","7","6","0",""
"","","","","","html-keyboard-response","71","521217","0.0-57.0-0.0","F275751D6E3646F7BAD36D7BE6A2216C","019db61b-b165-7b6f-83eb-d0c7968c326d","019db609-2a35-76b9-807a-e0c4c153f4bb","","null","<div style=""font-family: Arial; margin-bottom: 20px;""><h3>Which image is worth <b>more money?</h3></div>
                            <div class=""stimulus-container"" style=""display: flex; width: 800px; justify-content: center; gap: 30px;"">
                                <img src=""images/semantic_sequence/physical_activity_semantic/physical_activity_semantic_5.png"" class=""small-image"">
                                <img src=""images/semantic_sequence/self_care_activities_semantic/self_care_activities_semantic_7.png"" class=""small-image"">
                            </div>","null","","","","","","","","","",""
"","","","","","html-button-response","72","521534","0.0-57.0-1.0","F275751D6E3646F7BAD36D7BE6A2216C","019db61b-b165-7b6f-83eb-d0c7968c326d","019db609-2a35-76b9-807a-e0c4c153f4bb","","315","<div style=""font-family: Arial; margin-bottom: 20px;""><h3>Which image is worth <b>more money</b>?</h3></div>
                            <div class=""stimulus-container"" style=""display: flex; width: 800px; justify-content: center; gap: 30px;"">
                                <img src=""images/semantic_sequence/physical_activity_semantic/physical_activity_semantic_5.png"" class=""small-image"">
                                <img src=""images/semantic_sequence/self_care_activities_semantic/self_care_activities_semantic_7.png"" class=""small-image"">
                            </div>","1","part3_valuable_vs_neutral_direct","","","","","","","","","true"
"","","","","","html-keyboard-response","73","524542","0.0-58.0-0.0","F275751D6E3646F7BAD36D7BE6A2216C","019db61b-b165-7b6f-83eb-d0c7968c326d","019db609-2a35-76b9-807a-e0c4c153f4bb","","null","
                            <div style=""font-family: Arial; margin-bottom: 20px;""><h3>Which image is worth <b>more money</b>?</h3></div>
                            <div class=""stimulus-container"" style=""display: flex; width: 800px; justify-content: center; gap: 30px;"">
                                <img src=""images/semantic_sequence/physical_activity_semantic/physical_activity_semantic_2.png"" class=""small-image"">
                                <img src=""images/semantic_sequence/physical_activity_semantic/physical_activity_semantic_8.png"" class=""small-image"">
                            </div>","null","","","","","","","","","",""
"","","","","","html-button-response","74","525155","0.0-58.0-1.0","F275751D6E3646F7BAD36D7BE6A2216C","019db61b-b165-7b6f-83eb-d0c7968c326d","019db609-2a35-76b9-807a-e0c4c153f4bb","","612","
                            <div style=""font-family: Arial; margin-bottom: 20px;""><h3>Which image is worth <b>more money</b>?</h3></div>
                            <div class=""stimulus-container"" style=""display: flex; width: 800px; justify-content: center; gap: 30px;"">
                                <img src=""images/semantic_sequence/physical_activity_semantic/physical_activity_semantic_2.png"" class=""small-image"">
                                <img src=""images/semantic_sequence/physical_activity_semantic/physical_activity_semantic_8.png"" class=""small-image"">
                            </div>","0","part3_choice_neighbors","physical_activity_semantic","semantic_sequence","","","3","5","2","0",""
"","","","","","html-keyboard-response","75","528170","0.0-59.0-0.0","F275751D6E3646F7BAD36D7BE6A2216C","019db61b-b165-7b6f-83eb-d0c7968c326d","019db609-2a35-76b9-807a-e0c4c153f4bb","","null","
                            <div style=""font-family: Arial; margin-bottom: 20px;""><h3>Which image is worth <b>more money</b>?</h3></div>
                            <div class=""stimulus-container"" style=""display: flex; width: 800px; justify-content: center; gap: 30px;"">
                                <img src=""images/schematic_sequence/dinner_party_scheme/dinner_party_scheme_4.png"" class=""small-image"">
                                <img src=""images/schematic_sequence/dinner_party_scheme/dinner_party_scheme_8.png"" class=""small-image"">
                            </div>","null","","","","","","","","","",""
"","","","","","html-button-response","76","528432","0.0-59.0-1.0","F275751D6E3646F7BAD36D7BE6A2216C","019db61b-b165-7b6f-83eb-d0c7968c326d","019db609-2a35-76b9-807a-e0c4c153f4bb","","260","
                            <div style=""font-family: Arial; margin-bottom: 20px;""><h3>Which image is worth <b>more money</b>?</h3></div>
                            <div class=""stimulus-container"" style=""display: flex; width: 800px; justify-content: center; gap: 30px;"">
                                <img src=""images/schematic_sequence/dinner_party_scheme/dinner_party_scheme_4.png"" class=""small-image"">
                                <img src=""images/schematic_sequence/dinner_party_scheme/dinner_party_scheme_8.png"" class=""small-image"">
                            </div>","0","part3_choice_neighbors","dinner_party_scheme","schematic_sequence","","","2","6","4","0",""
"","","","","","html-keyboard-response","77","531443","0.0-60.0-0.0","F275751D6E3646F7BAD36D7BE6A2216C","019db61b-b165-7b6f-83eb-d0c7968c326d","019db609-2a35-76b9-807a-e0c4c153f4bb","","null","
                            <div style=""font-family: Arial; margin-bottom: 20px;""><h3>Which image is worth <b>more money</b>?</h3></div>
                            <div class=""stimulus-container"" style=""display: flex; width: 800px; justify-content: center; gap: 30px;"">
                                <img src=""images/schematic_sequence/restaurant_scheme/restaurant_scheme_3.png"" class=""small-image"">
                                <img src=""images/schematic_sequence/restaurant_scheme/restaurant_scheme_5.png"" class=""small-image"">
                            </div>","null","","","","","","","","","",""
"","","","","","html-button-response","78","532086","0.0-60.0-1.0","F275751D6E3646F7BAD36D7BE6A2216C","019db61b-b165-7b6f-83eb-d0c7968c326d","019db609-2a35-76b9-807a-e0c4c153f4bb","","641","
                            <div style=""font-family: Arial; margin-bottom: 20px;""><h3>Which image is worth <b>more money</b>?</h3></div>
                            <div class=""stimulus-container"" style=""display: flex; width: 800px; justify-content: center; gap: 30px;"">
                                <img src=""images/schematic_sequence/restaurant_scheme/restaurant_scheme_3.png"" class=""small-image"">
                                <img src=""images/schematic_sequence/restaurant_scheme/restaurant_scheme_5.png"" class=""small-image"">
                            </div>","1","part3_choice_neighbors","restaurant_scheme","schematic_sequence","","","1","4","5","1",""
"","","","","","html-keyboard-response","79","535096","0.0-61.0-0.0","F275751D6E3646F7BAD36D7BE6A2216C","019db61b-b165-7b6f-83eb-d0c7968c326d","019db609-2a35-76b9-807a-e0c4c153f4bb","","null","
                            <div style=""font-family: Arial; margin-bottom: 20px;""><h3>Which image is worth <b>more money</b>?</h3></div>
                            <div class=""stimulus-container"" style=""display: flex; width: 800px; justify-content: center; gap: 30px;"">
                                <img src=""images/semantic_sequence/physical_activity_semantic/physical_activity_semantic_6.png"" class=""small-image"">
                                <img src=""images/semantic_sequence/physical_activity_semantic/physical_activity_semantic_4.png"" class=""small-image"">
                            </div>","null","","","","","","","","","",""
"","","","","","html-button-response","80","535641","0.0-61.0-1.0","F275751D6E3646F7BAD36D7BE6A2216C","019db61b-b165-7b6f-83eb-d0c7968c326d","019db609-2a35-76b9-807a-e0c4c153f4bb","","544","
                            <div style=""font-family: Arial; margin-bottom: 20px;""><h3>Which image is worth <b>more money</b>?</h3></div>
                            <div class=""stimulus-container"" style=""display: flex; width: 800px; justify-content: center; gap: 30px;"">
                                <img src=""images/semantic_sequence/physical_activity_semantic/physical_activity_semantic_6.png"" class=""small-image"">
                                <img src=""images/semantic_sequence/physical_activity_semantic/physical_activity_semantic_4.png"" class=""small-image"">
                            </div>","0","part3_choice_neighbors","physical_activity_semantic","semantic_sequence","","","1","5","6","1",""
"","","","","","html-keyboard-response","81","538653","0.0-62.0-0.0","F275751D6E3646F7BAD36D7BE6A2216C","019db61b-b165-7b6f-83eb-d0c7968c326d","019db609-2a35-76b9-807a-e0c4c153f4bb","","null","
                            <div style=""font-family: Arial; margin-bottom: 20px;""><h3>Which image is worth <b>more money</b>?</h3></div>
                            <div class=""stimulus-container"" style=""display: flex; width: 800px; justify-content: center; gap: 30px;"">
                                <img src=""images/schematic_sequence/supermarket_scheme/supermarket_scheme_3.png"" class=""small-image"">
                                <img src=""images/schematic_sequence/supermarket_scheme/supermarket_scheme_9.png"" class=""small-image"">
                            </div>","null","","","","","","","","","",""
"","","","","","html-button-response","82","538968","0.0-62.0-1.0","F275751D6E3646F7BAD36D7BE6A2216C","019db61b-b165-7b6f-83eb-d0c7968c326d","019db609-2a35-76b9-807a-e0c4c153f4bb","","314","
                            <div style=""font-family: Arial; margin-bottom: 20px;""><h3>Which image is worth <b>more money</b>?</h3></div>
                            <div class=""stimulus-container"" style=""display: flex; width: 800px; justify-content: center; gap: 30px;"">
                                <img src=""images/schematic_sequence/supermarket_scheme/supermarket_scheme_3.png"" class=""small-image"">
                                <img src=""images/schematic_sequence/supermarket_scheme/supermarket_scheme_9.png"" class=""small-image"">
                            </div>","1","part3_choice_neighbors","supermarket_scheme","schematic_sequence","","","3","6","9","1",""
"","","","","","html-keyboard-response","83","541979","0.0-63.0-0.0","F275751D6E3646F7BAD36D7BE6A2216C","019db61b-b165-7b6f-83eb-d0c7968c326d","019db609-2a35-76b9-807a-e0c4c153f4bb","","null","
                            <div style=""font-family: Arial; margin-bottom: 20px;""><h3>Which image is worth <b>more money</b>?</h3></div>
                            <div class=""stimulus-container"" style=""display: flex; width: 800px; justify-content: center; gap: 30px;"">
                                <img src=""images/semantic_sequence/maintaining_a_car_semantic/maintaining_a_car_semantic_6.png"" class=""small-image"">
                                <img src=""images/semantic_sequence/maintaining_a_car_semantic/maintaining_a_car_semantic_4.png"" class=""small-image"">
                            </div>","null","","","","","","","","","",""
"","","","","","html-button-response","84","542292","0.0-63.0-1.0","F275751D6E3646F7BAD36D7BE6A2216C","019db61b-b165-7b6f-83eb-d0c7968c326d","019db609-2a35-76b9-807a-e0c4c153f4bb","","312","
                            <div style=""font-family: Arial; margin-bottom: 20px;""><h3>Which image is worth <b>more money</b>?</h3></div>
                            <div class=""stimulus-container"" style=""display: flex; width: 800px; justify-content: center; gap: 30px;"">
                                <img src=""images/semantic_sequence/maintaining_a_car_semantic/maintaining_a_car_semantic_6.png"" class=""small-image"">
                                <img src=""images/semantic_sequence/maintaining_a_car_semantic/maintaining_a_car_semantic_4.png"" class=""small-image"">
                            </div>","1","part3_choice_neighbors","maintaining_a_car_semantic","semantic_sequence","","","1","5","4","0",""
"","","","","","html-keyboard-response","85","545295","0.0-64.0-0.0","F275751D6E3646F7BAD36D7BE6A2216C","019db61b-b165-7b6f-83eb-d0c7968c326d","019db609-2a35-76b9-807a-e0c4c153f4bb","","null","
                            <div style=""font-family: Arial; margin-bottom: 20px;""><h3>Which image is worth <b>more money</b>?</h3></div>
                            <div class=""stimulus-container"" style=""display: flex; width: 800px; justify-content: center; gap: 30px;"">
                                <img src=""images/semantic_sequence/kitchen_operations_semantic/kitchen_operations_semantic_3.png"" class=""small-image"">
                                <img src=""images/semantic_sequence/kitchen_operations_semantic/kitchen_operations_semantic_9.png"" class=""small-image"">
                            </div>","null","","","","","","","","","",""
"","","","","","html-button-response","86","545650","0.0-64.0-1.0","F275751D6E3646F7BAD36D7BE6A2216C","019db61b-b165-7b6f-83eb-d0c7968c326d","019db609-2a35-76b9-807a-e0c4c153f4bb","","354","
                            <div style=""font-family: Arial; margin-bottom: 20px;""><h3>Which image is worth <b>more money</b>?</h3></div>
                            <div class=""stimulus-container"" style=""display: flex; width: 800px; justify-content: center; gap: 30px;"">
                                <img src=""images/semantic_sequence/kitchen_operations_semantic/kitchen_operations_semantic_3.png"" class=""small-image"">
                                <img src=""images/semantic_sequence/kitchen_operations_semantic/kitchen_operations_semantic_9.png"" class=""small-image"">
                            </div>","1","part3_choice_neighbors","kitchen_operations_semantic","semantic_sequence","","","3","6","9","1",""
"","","","","","html-keyboard-response","87","548664","0.0-65.0-0.0","F275751D6E3646F7BAD36D7BE6A2216C","019db61b-b165-7b6f-83eb-d0c7968c326d","019db609-2a35-76b9-807a-e0c4c153f4bb","","null","
                            <div style=""font-family: Arial; margin-bottom: 20px;""><h3>Which image is worth <b>more money</b>?</h3></div>
                            <div class=""stimulus-container"" style=""display: flex; width: 800px; justify-content: center; gap: 30px;"">
                                <img src=""images/semantic_sequence/physical_activity_semantic/physical_activity_semantic_3.png"" class=""small-image"">
                                <img src=""images/semantic_sequence/physical_activity_semantic/physical_activity_semantic_7.png"" class=""small-image"">
                            </div>","null","","","","","","","","","",""
"","","","","","html-button-response","88","549248","0.0-65.0-1.0","F275751D6E3646F7BAD36D7BE6A2216C","019db61b-b165-7b6f-83eb-d0c7968c326d","019db609-2a35-76b9-807a-e0c4c153f4bb","","583","
                            <div style=""font-family: Arial; margin-bottom: 20px;""><h3>Which image is worth <b>more money</b>?</h3></div>
                            <div class=""stimulus-container"" style=""display: flex; width: 800px; justify-content: center; gap: 30px;"">
                                <img src=""images/semantic_sequence/physical_activity_semantic/physical_activity_semantic_3.png"" class=""small-image"">
                                <img src=""images/semantic_sequence/physical_activity_semantic/physical_activity_semantic_7.png"" class=""small-image"">
                            </div>","0","part3_choice_neighbors","physical_activity_semantic","semantic_sequence","","","2","5","3","0",""
"","","","","","html-keyboard-response","89","552250","0.0-66.0-0.0","F275751D6E3646F7BAD36D7BE6A2216C","019db61b-b165-7b6f-83eb-d0c7968c326d","019db609-2a35-76b9-807a-e0c4c153f4bb","","null","
                            <div style=""font-family: Arial; margin-bottom: 20px;""><h3>Which image is worth <b>more money</b>?</h3></div>
                            <div class=""stimulus-container"" style=""display: flex; width: 800px; justify-content: center; gap: 30px;"">
                                <img src=""images/schematic_sequence/dinner_party_scheme/dinner_party_scheme_7.png"" class=""small-image"">
                                <img src=""images/schematic_sequence/dinner_party_scheme/dinner_party_scheme_5.png"" class=""small-image"">
                            </div>","null","","","","","","","","","",""
"","","","","","html-button-response","90","552542","0.0-66.0-1.0","F275751D6E3646F7BAD36D7BE6A2216C","019db61b-b165-7b6f-83eb-d0c7968c326d","019db609-2a35-76b9-807a-e0c4c153f4bb","","290","
                            <div style=""font-family: Arial; margin-bottom: 20px;""><h3>Which image is worth <b>more money</b>?</h3></div>
                            <div class=""stimulus-container"" style=""display: flex; width: 800px; justify-content: center; gap: 30px;"">
                                <img src=""images/schematic_sequence/dinner_party_scheme/dinner_party_scheme_7.png"" class=""small-image"">
                                <img src=""images/schematic_sequence/dinner_party_scheme/dinner_party_scheme_5.png"" class=""small-image"">
                            </div>","1","part3_choice_neighbors","dinner_party_scheme","schematic_sequence","","","1","6","5","0",""
"","","","","","html-keyboard-response","91","555551","0.0-67.0-0.0","F275751D6E3646F7BAD36D7BE6A2216C","019db61b-b165-7b6f-83eb-d0c7968c326d","019db609-2a35-76b9-807a-e0c4c153f4bb","","null","
                            <div style=""font-family: Arial; margin-bottom: 20px;""><h3>Which image is worth <b>more money</b>?</h3></div>
                            <div class=""stimulus-container"" style=""display: flex; width: 800px; justify-content: center; gap: 30px;"">
                                <img src=""images/schematic_sequence/interview_scheme/interview_scheme_9.png"" class=""small-image"">
                                <img src=""images/schematic_sequence/interview_scheme/interview_scheme_3.png"" class=""small-image"">
                            </div>","null","","","","","","","","","",""
"","","","","","html-button-response","92","557934","0.0-67.0-1.0","F275751D6E3646F7BAD36D7BE6A2216C","019db61b-b165-7b6f-83eb-d0c7968c326d","019db609-2a35-76b9-807a-e0c4c153f4bb","","2382","
                            <div style=""font-family: Arial; margin-bottom: 20px;""><h3>Which image is worth <b>more money</b>?</h3></div>
                            <div class=""stimulus-container"" style=""display: flex; width: 800px; justify-content: center; gap: 30px;"">
                                <img src=""images/schematic_sequence/interview_scheme/interview_scheme_9.png"" class=""small-image"">
                                <img src=""images/schematic_sequence/interview_scheme/interview_scheme_3.png"" class=""small-image"">
                            </div>","1","part3_choice_neighbors","interview_scheme","schematic_sequence","","","3","6","3","0",""
"","","","","","html-keyboard-response","93","560941","0.0-68.0-0.0","F275751D6E3646F7BAD36D7BE6A2216C","019db61b-b165-7b6f-83eb-d0c7968c326d","019db609-2a35-76b9-807a-e0c4c153f4bb","","null","
                            <div style=""font-family: Arial; margin-bottom: 20px;""><h3>Which image is worth <b>more money</b>?</h3></div>
                            <div class=""stimulus-container"" style=""display: flex; width: 800px; justify-content: center; gap: 30px;"">
                                <img src=""images/schematic_sequence/restaurant_scheme/restaurant_scheme_6.png"" class=""small-image"">
                                <img src=""images/schematic_sequence/restaurant_scheme/restaurant_scheme_2.png"" class=""small-image"">
                            </div>","null","","","","","","","","","",""
"","","","","","html-button-response","94","561460","0.0-68.0-1.0","F275751D6E3646F7BAD36D7BE6A2216C","019db61b-b165-7b6f-83eb-d0c7968c326d","019db609-2a35-76b9-807a-e0c4c153f4bb","","518","
                            <div style=""font-family: Arial; margin-bottom: 20px;""><h3>Which image is worth <b>more money</b>?</h3></div>
                            <div class=""stimulus-container"" style=""display: flex; width: 800px; justify-content: center; gap: 30px;"">
                                <img src=""images/schematic_sequence/restaurant_scheme/restaurant_scheme_6.png"" class=""small-image"">
                                <img src=""images/schematic_sequence/restaurant_scheme/restaurant_scheme_2.png"" class=""small-image"">
                            </div>","1","part3_choice_neighbors","restaurant_scheme","schematic_sequence","","","2","4","2","0",""
"","","","","","html-keyboard-response","95","564465","0.0-69.0-0.0","F275751D6E3646F7BAD36D7BE6A2216C","019db61b-b165-7b6f-83eb-d0c7968c326d","019db609-2a35-76b9-807a-e0c4c153f4bb","","null","
                            <div style=""font-family: Arial; margin-bottom: 20px;""><h3>Which image is worth <b>more money</b>?</h3></div>
                            <div class=""stimulus-container"" style=""display: flex; width: 800px; justify-content: center; gap: 30px;"">
                                <img src=""images/semantic_sequence/self_care_activities_semantic/self_care_activities_semantic_ten.png"" class=""small-image"">
                                <img src=""images/semantic_sequence/self_care_activities_semantic/self_care_activities_semantic_4.png"" class=""small-image"">
                            </div>","null","","","","","","","","","",""
"","","","","","html-button-response","96","564777","0.0-69.0-1.0","F275751D6E3646F7BAD36D7BE6A2216C","019db61b-b165-7b6f-83eb-d0c7968c326d","019db609-2a35-76b9-807a-e0c4c153f4bb","","311","
                            <div style=""font-family: Arial; margin-bottom: 20px;""><h3>Which image is worth <b>more money</b>?</h3></div>
                            <div class=""stimulus-container"" style=""display: flex; width: 800px; justify-content: center; gap: 30px;"">
                                <img src=""images/semantic_sequence/self_care_activities_semantic/self_care_activities_semantic_ten.png"" class=""small-image"">
                                <img src=""images/semantic_sequence/self_care_activities_semantic/self_care_activities_semantic_4.png"" class=""small-image"">
                            </div>","0","part3_choice_neighbors","self_care_activities_semantic","semantic_sequence","","","3","7","10","1",""
"","","","","","html-keyboard-response","97","567793","0.0-70.0-0.0","F275751D6E3646F7BAD36D7BE6A2216C","019db61b-b165-7b6f-83eb-d0c7968c326d","019db609-2a35-76b9-807a-e0c4c153f4bb","","null","
                            <div style=""font-family: Arial; margin-bottom: 20px;""><h3>Which image is worth <b>more money</b>?</h3></div>
                            <div class=""stimulus-container"" style=""display: flex; width: 800px; justify-content: center; gap: 30px;"">
                                <img src=""images/semantic_sequence/visiting_cities_semantic/visiting_cities_semantic_5.png"" class=""small-image"">
                                <img src=""images/semantic_sequence/visiting_cities_semantic/visiting_cities_semantic_3.png"" class=""small-image"">
                            </div>","null","","","","","","","","","",""
"","","","","","html-button-response","98","568478","0.0-70.0-1.0","F275751D6E3646F7BAD36D7BE6A2216C","019db61b-b165-7b6f-83eb-d0c7968c326d","019db609-2a35-76b9-807a-e0c4c153f4bb","","684","
                            <div style=""font-family: Arial; margin-bottom: 20px;""><h3>Which image is worth <b>more money</b>?</h3></div>
                            <div class=""stimulus-container"" style=""display: flex; width: 800px; justify-content: center; gap: 30px;"">
                                <img src=""images/semantic_sequence/visiting_cities_semantic/visiting_cities_semantic_5.png"" class=""small-image"">
                                <img src=""images/semantic_sequence/visiting_cities_semantic/visiting_cities_semantic_3.png"" class=""small-image"">
                            </div>","1","part3_choice_neighbors","visiting_cities_semantic","semantic_sequence","","","1","4","3","0",""
"","","","","","html-keyboard-response","99","571496","0.0-71.0-0.0","F275751D6E3646F7BAD36D7BE6A2216C","019db61b-b165-7b6f-83eb-d0c7968c326d","019db609-2a35-76b9-807a-e0c4c153f4bb","","null","
                            <div style=""font-family: Arial; margin-bottom: 20px;""><h3>Which image is worth <b>more money</b>?</h3></div>
                            <div class=""stimulus-container"" style=""display: flex; width: 800px; justify-content: center; gap: 30px;"">
                                <img src=""images/schematic_sequence/interview_scheme/interview_scheme_5.png"" class=""small-image"">
                                <img src=""images/schematic_sequence/interview_scheme/interview_scheme_7.png"" class=""small-image"">
                            </div>","null","","","","","","","","","",""
"","","","","","html-button-response","100","571855","0.0-71.0-1.0","F275751D6E3646F7BAD36D7BE6A2216C","019db61b-b165-7b6f-83eb-d0c7968c326d","019db609-2a35-76b9-807a-e0c4c153f4bb","","358","
                            <div style=""font-family: Arial; margin-bottom: 20px;""><h3>Which image is worth <b>more money</b>?</h3></div>
                            <div class=""stimulus-container"" style=""display: flex; width: 800px; justify-content: center; gap: 30px;"">
                                <img src=""images/schematic_sequence/interview_scheme/interview_scheme_5.png"" class=""small-image"">
                                <img src=""images/schematic_sequence/interview_scheme/interview_scheme_7.png"" class=""small-image"">
                            </div>","1","part3_choice_neighbors","interview_scheme","schematic_sequence","","","1","6","7","1",""
"","","","","","html-keyboard-response","101","574859","0.0-72.0-0.0","F275751D6E3646F7BAD36D7BE6A2216C","019db61b-b165-7b6f-83eb-d0c7968c326d","019db609-2a35-76b9-807a-e0c4c153f4bb","","null","
                            <div style=""font-family: Arial; margin-bottom: 20px;""><h3>Which image is worth <b>more money</b>?</h3></div>
                            <div class=""stimulus-container"" style=""display: flex; width: 800px; justify-content: center; gap: 30px;"">
                                <img src=""images/schematic_sequence/flight_scheme/flight_scheme_ten.png"" class=""small-image"">
                                <img src=""images/schematic_sequence/flight_scheme/flight_scheme_4.png"" class=""small-image"">
                            </div>","null","","","","","","","","","",""
"","","","","","html-button-response","102","575417","0.0-72.0-1.0","F275751D6E3646F7BAD36D7BE6A2216C","019db61b-b165-7b6f-83eb-d0c7968c326d","019db609-2a35-76b9-807a-e0c4c153f4bb","","557","
                            <div style=""font-family: Arial; margin-bottom: 20px;""><h3>Which image is worth <b>more money</b>?</h3></div>
                            <div class=""stimulus-container"" style=""display: flex; width: 800px; justify-content: center; gap: 30px;"">
                                <img src=""images/schematic_sequence/flight_scheme/flight_scheme_ten.png"" class=""small-image"">
                                <img src=""images/schematic_sequence/flight_scheme/flight_scheme_4.png"" class=""small-image"">
                            </div>","0","part3_choice_neighbors","flight_scheme","schematic_sequence","","","3","7","10","1",""
"","","","","","html-keyboard-response","103","578419","0.0-73.0-0.0","F275751D6E3646F7BAD36D7BE6A2216C","019db61b-b165-7b6f-83eb-d0c7968c326d","019db609-2a35-76b9-807a-e0c4c153f4bb","","null","
                            <div style=""font-family: Arial; margin-bottom: 20px;""><h3>Which image is worth <b>more money</b>?</h3></div>
                            <div class=""stimulus-container"" style=""display: flex; width: 800px; justify-content: center; gap: 30px;"">
                                <img src=""images/semantic_sequence/housework_semantic/housework_semantic_2.png"" class=""small-image"">
                                <img src=""images/semantic_sequence/housework_semantic/housework_semantic_6.png"" class=""small-image"">
                            </div>","null","","","","","","","","","",""
"","","","","","html-button-response","104","578764","0.0-73.0-1.0","F275751D6E3646F7BAD36D7BE6A2216C","019db61b-b165-7b6f-83eb-d0c7968c326d","019db609-2a35-76b9-807a-e0c4c153f4bb","","343","
                            <div style=""font-family: Arial; margin-bottom: 20px;""><h3>Which image is worth <b>more money</b>?</h3></div>
                            <div class=""stimulus-container"" style=""display: flex; width: 800px; justify-content: center; gap: 30px;"">
                                <img src=""images/semantic_sequence/housework_semantic/housework_semantic_2.png"" class=""small-image"">
                                <img src=""images/semantic_sequence/housework_semantic/housework_semantic_6.png"" class=""small-image"">
                            </div>","1","part3_choice_neighbors","housework_semantic","semantic_sequence","","","2","4","6","1",""
"","","","","","html-keyboard-response","105","581771","0.0-74.0-0.0","F275751D6E3646F7BAD36D7BE6A2216C","019db61b-b165-7b6f-83eb-d0c7968c326d","019db609-2a35-76b9-807a-e0c4c153f4bb","","null","<div style=""font-family: Arial; margin-bottom: 20px;""><h3>Which image is worth <b>more money?</h3></div>
                            <div class=""stimulus-container"" style=""display: flex; width: 800px; justify-content: center; gap: 30px;"">
                                <img src=""images/schematic_sequence/restaurant_scheme/restaurant_scheme_4.png"" class=""small-image"">
                                <img src=""images/semantic_sequence/maintaining_a_car_semantic/maintaining_a_car_semantic_5.png"" class=""small-image"">
                            </div>","null","","","","","","","","","",""
"","","","","","html-button-response","106","582129","0.0-74.0-1.0","F275751D6E3646F7BAD36D7BE6A2216C","019db61b-b165-7b6f-83eb-d0c7968c326d","019db609-2a35-76b9-807a-e0c4c153f4bb","","357","<div style=""font-family: Arial; margin-bottom: 20px;""><h3>Which image is worth <b>more money</b>?</h3></div>
                            <div class=""stimulus-container"" style=""display: flex; width: 800px; justify-content: center; gap: 30px;"">
                                <img src=""images/schematic_sequence/restaurant_scheme/restaurant_scheme_4.png"" class=""small-image"">
                                <img src=""images/semantic_sequence/maintaining_a_car_semantic/maintaining_a_car_semantic_5.png"" class=""small-image"">
                            </div>","1","part3_valuable_vs_neutral_direct","","","","","","","","","false"
"","","","","","html-keyboard-response","107","585133","0.0-75.0-0.0","F275751D6E3646F7BAD36D7BE6A2216C","019db61b-b165-7b6f-83eb-d0c7968c326d","019db609-2a35-76b9-807a-e0c4c153f4bb","","null","
                            <div style=""font-family: Arial; margin-bottom: 20px;""><h3>Which image is worth <b>more money</b>?</h3></div>
                            <div class=""stimulus-container"" style=""display: flex; width: 800px; justify-content: center; gap: 30px;"">
                                <img src=""images/semantic_sequence/kitchen_operations_semantic/kitchen_operations_semantic_4.png"" class=""small-image"">
                                <img src=""images/semantic_sequence/kitchen_operations_semantic/kitchen_operations_semantic_8.png"" class=""small-image"">
                            </div>","null","","","","","","","","","",""
"","","","","","html-button-response","108","585726","0.0-75.0-1.0","F275751D6E3646F7BAD36D7BE6A2216C","019db61b-b165-7b6f-83eb-d0c7968c326d","019db609-2a35-76b9-807a-e0c4c153f4bb","","592","
                            <div style=""font-family: Arial; margin-bottom: 20px;""><h3>Which image is worth <b>more money</b>?</h3></div>
                            <div class=""stimulus-container"" style=""display: flex; width: 800px; justify-content: center; gap: 30px;"">
                                <img src=""images/semantic_sequence/kitchen_operations_semantic/kitchen_operations_semantic_4.png"" class=""small-image"">
                                <img src=""images/semantic_sequence/kitchen_operations_semantic/kitchen_operations_semantic_8.png"" class=""small-image"">
                            </div>","1","part3_choice_neighbors","kitchen_operations_semantic","semantic_sequence","","","2","6","8","1",""
"","","","","","html-keyboard-response","109","588734","0.0-76.0-0.0","F275751D6E3646F7BAD36D7BE6A2216C","019db61b-b165-7b6f-83eb-d0c7968c326d","019db609-2a35-76b9-807a-e0c4c153f4bb","","null","<div style=""font-family: Arial; margin-bottom: 20px;""><h3>Which image is worth <b>more money?</h3></div>
                            <div class=""stimulus-container"" style=""display: flex; width: 800px; justify-content: center; gap: 30px;"">
                                <img src=""images/semantic_sequence/visiting_cities_semantic/visiting_cities_semantic_4.png"" class=""small-image"">
                                <img src=""images/schematic_sequence/dinner_party_scheme/dinner_party_scheme_6.png"" class=""small-image"">
                            </div>","null","","","","","","","","","",""
"","","","","","html-button-response","110","589028","0.0-76.0-1.0","F275751D6E3646F7BAD36D7BE6A2216C","019db61b-b165-7b6f-83eb-d0c7968c326d","019db609-2a35-76b9-807a-e0c4c153f4bb","","292","<div style=""font-family: Arial; margin-bottom: 20px;""><h3>Which image is worth <b>more money</b>?</h3></div>
                            <div class=""stimulus-container"" style=""display: flex; width: 800px; justify-content: center; gap: 30px;"">
                                <img src=""images/semantic_sequence/visiting_cities_semantic/visiting_cities_semantic_4.png"" class=""small-image"">
                                <img src=""images/schematic_sequence/dinner_party_scheme/dinner_party_scheme_6.png"" class=""small-image"">
                            </div>","0","part3_valuable_vs_neutral_direct","","","","","","","","","true"
"","","","","","html-keyboard-response","111","592032","0.0-77.0-0.0","F275751D6E3646F7BAD36D7BE6A2216C","019db61b-b165-7b6f-83eb-d0c7968c326d","019db609-2a35-76b9-807a-e0c4c153f4bb","","null","
                            <div style=""font-family: Arial; margin-bottom: 20px;""><h3>Which image is worth <b>more money</b>?</h3></div>
                            <div class=""stimulus-container"" style=""display: flex; width: 800px; justify-content: center; gap: 30px;"">
                                <img src=""images/semantic_sequence/housework_semantic/housework_semantic_5.png"" class=""small-image"">
                                <img src=""images/semantic_sequence/housework_semantic/housework_semantic_3.png"" class=""small-image"">
                            </div>","null","","","","","","","","","",""
"","","","","","html-button-response","112","592504","0.0-77.0-1.0","F275751D6E3646F7BAD36D7BE6A2216C","019db61b-b165-7b6f-83eb-d0c7968c326d","019db609-2a35-76b9-807a-e0c4c153f4bb","","471","
                            <div style=""font-family: Arial; margin-bottom: 20px;""><h3>Which image is worth <b>more money</b>?</h3></div>
                            <div class=""stimulus-container"" style=""display: flex; width: 800px; justify-content: center; gap: 30px;"">
                                <img src=""images/semantic_sequence/housework_semantic/housework_semantic_5.png"" class=""small-image"">
                                <img src=""images/semantic_sequence/housework_semantic/housework_semantic_3.png"" class=""small-image"">
                            </div>","0","part3_choice_neighbors","housework_semantic","semantic_sequence","","","1","4","5","1",""
"","","","","","html-keyboard-response","113","595512","0.0-78.0-0.0","F275751D6E3646F7BAD36D7BE6A2216C","019db61b-b165-7b6f-83eb-d0c7968c326d","019db609-2a35-76b9-807a-e0c4c153f4bb","","null","
                            <div style=""font-family: Arial; margin-bottom: 20px;""><h3>Which image is worth <b>more money</b>?</h3></div>
                            <div class=""stimulus-container"" style=""display: flex; width: 800px; justify-content: center; gap: 30px;"">
                                <img src=""images/schematic_sequence/hotel_scheme/hotel_scheme_4.png"" class=""small-image"">
                                <img src=""images/schematic_sequence/hotel_scheme/hotel_scheme_ten.png"" class=""small-image"">
                            </div>","null","","","","","","","","","",""
"","","","","","html-button-response","114","596566","0.0-78.0-1.0","F275751D6E3646F7BAD36D7BE6A2216C","019db61b-b165-7b6f-83eb-d0c7968c326d","019db609-2a35-76b9-807a-e0c4c153f4bb","","1053","
                            <div style=""font-family: Arial; margin-bottom: 20px;""><h3>Which image is worth <b>more money</b>?</h3></div>
                            <div class=""stimulus-container"" style=""display: flex; width: 800px; justify-content: center; gap: 30px;"">
                                <img src=""images/schematic_sequence/hotel_scheme/hotel_scheme_4.png"" class=""small-image"">
                                <img src=""images/schematic_sequence/hotel_scheme/hotel_scheme_ten.png"" class=""small-image"">
                            </div>","0","part3_choice_neighbors","hotel_scheme","schematic_sequence","","","3","7","4","0",""
"","","","","","html-keyboard-response","115","599592","0.0-79.0-0.0","F275751D6E3646F7BAD36D7BE6A2216C","019db61b-b165-7b6f-83eb-d0c7968c326d","019db609-2a35-76b9-807a-e0c4c153f4bb","","null","
                            <div style=""font-family: Arial; margin-bottom: 20px;""><h3>Which image is worth <b>more money</b>?</h3></div>
                            <div class=""stimulus-container"" style=""display: flex; width: 800px; justify-content: center; gap: 30px;"">
                                <img src=""images/schematic_sequence/restaurant_scheme/restaurant_scheme_1.png"" class=""small-image"">
                                <img src=""images/schematic_sequence/restaurant_scheme/restaurant_scheme_7.png"" class=""small-image"">
                            </div>","null","","","","","","","","","",""
"","","","","","html-button-response","116","599728","0.0-79.0-1.0","F275751D6E3646F7BAD36D7BE6A2216C","019db61b-b165-7b6f-83eb-d0c7968c326d","019db609-2a35-76b9-807a-e0c4c153f4bb","","134","
                            <div style=""font-family: Arial; margin-bottom: 20px;""><h3>Which image is worth <b>more money</b>?</h3></div>
                            <div class=""stimulus-container"" style=""display: flex; width: 800px; justify-content: center; gap: 30px;"">
                                <img src=""images/schematic_sequence/restaurant_scheme/restaurant_scheme_1.png"" class=""small-image"">
                                <img src=""images/schematic_sequence/restaurant_scheme/restaurant_scheme_7.png"" class=""small-image"">
                            </div>","0","part3_choice_neighbors","restaurant_scheme","schematic_sequence","","","3","4","1","0",""
"","","","","","html-keyboard-response","117","602739","0.0-80.0-0.0","F275751D6E3646F7BAD36D7BE6A2216C","019db61b-b165-7b6f-83eb-d0c7968c326d","019db609-2a35-76b9-807a-e0c4c153f4bb","","null","
                            <div style=""font-family: Arial; margin-bottom: 20px;""><h3>Which image is worth <b>more money</b>?</h3></div>
                            <div class=""stimulus-container"" style=""display: flex; width: 800px; justify-content: center; gap: 30px;"">
                                <img src=""images/schematic_sequence/flight_scheme/flight_scheme_6.png"" class=""small-image"">
                                <img src=""images/schematic_sequence/flight_scheme/flight_scheme_8.png"" class=""small-image"">
                            </div>","null","","","","","","","","","",""
"","","","","","html-button-response","118","603058","0.0-80.0-1.0","F275751D6E3646F7BAD36D7BE6A2216C","019db61b-b165-7b6f-83eb-d0c7968c326d","019db609-2a35-76b9-807a-e0c4c153f4bb","","318","
                            <div style=""font-family: Arial; margin-bottom: 20px;""><h3>Which image is worth <b>more money</b>?</h3></div>
                            <div class=""stimulus-container"" style=""display: flex; width: 800px; justify-content: center; gap: 30px;"">
                                <img src=""images/schematic_sequence/flight_scheme/flight_scheme_6.png"" class=""small-image"">
                                <img src=""images/schematic_sequence/flight_scheme/flight_scheme_8.png"" class=""small-image"">
                            </div>","0","part3_choice_neighbors","flight_scheme","schematic_sequence","","","1","7","6","0",""
"","","","","","html-keyboard-response","119","606066","0.0-81.0-0.0","F275751D6E3646F7BAD36D7BE6A2216C","019db61b-b165-7b6f-83eb-d0c7968c326d","019db609-2a35-76b9-807a-e0c4c153f4bb","","null","
                            <div style=""font-family: Arial; margin-bottom: 20px;""><h3>Which image is worth <b>more money</b>?</h3></div>
                            <div class=""stimulus-container"" style=""display: flex; width: 800px; justify-content: center; gap: 30px;"">
                                <img src=""images/semantic_sequence/visiting_cities_semantic/visiting_cities_semantic_6.png"" class=""small-image"">
                                <img src=""images/semantic_sequence/visiting_cities_semantic/visiting_cities_semantic_2.png"" class=""small-image"">
                            </div>","null","","","","","","","","","",""
"","","","","","html-button-response","120","606345","0.0-81.0-1.0","F275751D6E3646F7BAD36D7BE6A2216C","019db61b-b165-7b6f-83eb-d0c7968c326d","019db609-2a35-76b9-807a-e0c4c153f4bb","","279","
                            <div style=""font-family: Arial; margin-bottom: 20px;""><h3>Which image is worth <b>more money</b>?</h3></div>
                            <div class=""stimulus-container"" style=""display: flex; width: 800px; justify-content: center; gap: 30px;"">
                                <img src=""images/semantic_sequence/visiting_cities_semantic/visiting_cities_semantic_6.png"" class=""small-image"">
                                <img src=""images/semantic_sequence/visiting_cities_semantic/visiting_cities_semantic_2.png"" class=""small-image"">
                            </div>","0","part3_choice_neighbors","visiting_cities_semantic","semantic_sequence","","","2","4","6","1",""
"","","","","","html-keyboard-response","121","609348","0.0-82.0-0.0","F275751D6E3646F7BAD36D7BE6A2216C","019db61b-b165-7b6f-83eb-d0c7968c326d","019db609-2a35-76b9-807a-e0c4c153f4bb","","null","<div style=""font-family: Arial; margin-bottom: 20px;""><h3>Which image is worth <b>more money?</h3></div>
                            <div class=""stimulus-container"" style=""display: flex; width: 800px; justify-content: center; gap: 30px;"">
                                <img src=""images/semantic_sequence/kitchen_operations_semantic/kitchen_operations_semantic_6.png"" class=""small-image"">
                                <img src=""images/schematic_sequence/flight_scheme/flight_scheme_7.png"" class=""small-image"">
                            </div>","null","","","","","","","","","",""
"","","","","","html-button-response","122","609614","0.0-82.0-1.0","F275751D6E3646F7BAD36D7BE6A2216C","019db61b-b165-7b6f-83eb-d0c7968c326d","019db609-2a35-76b9-807a-e0c4c153f4bb","","265","<div style=""font-family: Arial; margin-bottom: 20px;""><h3>Which image is worth <b>more money</b>?</h3></div>
                            <div class=""stimulus-container"" style=""display: flex; width: 800px; justify-content: center; gap: 30px;"">
                                <img src=""images/semantic_sequence/kitchen_operations_semantic/kitchen_operations_semantic_6.png"" class=""small-image"">
                                <img src=""images/schematic_sequence/flight_scheme/flight_scheme_7.png"" class=""small-image"">
                            </div>","1","part3_valuable_vs_neutral_direct","","","","","","","","","true"
"","","","","","html-keyboard-response","123","612617","0.0-83.0-0.0","F275751D6E3646F7BAD36D7BE6A2216C","019db61b-b165-7b6f-83eb-d0c7968c326d","019db609-2a35-76b9-807a-e0c4c153f4bb","","null","<div style=""font-family: Arial; margin-bottom: 20px;""><h3>Which image is worth <b>more money?</h3></div>
                            <div class=""stimulus-container"" style=""display: flex; width: 800px; justify-content: center; gap: 30px;"">
                                <img src=""images/schematic_sequence/interview_scheme/interview_scheme_6.png"" class=""small-image"">
                                <img src=""images/schematic_sequence/hotel_scheme/hotel_scheme_7.png"" class=""small-image"">
                            </div>","null","","","","","","","","","",""
"","","","","","html-button-response","124","612917","0.0-83.0-1.0","F275751D6E3646F7BAD36D7BE6A2216C","019db61b-b165-7b6f-83eb-d0c7968c326d","019db609-2a35-76b9-807a-e0c4c153f4bb","","299","<div style=""font-family: Arial; margin-bottom: 20px;""><h3>Which image is worth <b>more money</b>?</h3></div>
                            <div class=""stimulus-container"" style=""display: flex; width: 800px; justify-content: center; gap: 30px;"">
                                <img src=""images/schematic_sequence/interview_scheme/interview_scheme_6.png"" class=""small-image"">
                                <img src=""images/schematic_sequence/hotel_scheme/hotel_scheme_7.png"" class=""small-image"">
                            </div>","1","part3_valuable_vs_neutral_direct","","","","","","","","","false"
"","","","","","html-keyboard-response","125","615925","0.0-84.0-0.0","F275751D6E3646F7BAD36D7BE6A2216C","019db61b-b165-7b6f-83eb-d0c7968c326d","019db609-2a35-76b9-807a-e0c4c153f4bb","","null","
                            <div style=""font-family: Arial; margin-bottom: 20px;""><h3>Which image is worth <b>more money</b>?</h3></div>
                            <div class=""stimulus-container"" style=""display: flex; width: 800px; justify-content: center; gap: 30px;"">
                                <img src=""images/semantic_sequence/visiting_cities_semantic/visiting_cities_semantic_7.png"" class=""small-image"">
                                <img src=""images/semantic_sequence/visiting_cities_semantic/visiting_cities_semantic_1.png"" class=""small-image"">
                            </div>","null","","","","","","","","","",""
"","","","","","html-button-response","126","616216","0.0-84.0-1.0","F275751D6E3646F7BAD36D7BE6A2216C","019db61b-b165-7b6f-83eb-d0c7968c326d","019db609-2a35-76b9-807a-e0c4c153f4bb","","290","
                            <div style=""font-family: Arial; margin-bottom: 20px;""><h3>Which image is worth <b>more money</b>?</h3></div>
                            <div class=""stimulus-container"" style=""display: flex; width: 800px; justify-content: center; gap: 30px;"">
                                <img src=""images/semantic_sequence/visiting_cities_semantic/visiting_cities_semantic_7.png"" class=""small-image"">
                                <img src=""images/semantic_sequence/visiting_cities_semantic/visiting_cities_semantic_1.png"" class=""small-image"">
                            </div>","1","part3_choice_neighbors","visiting_cities_semantic","semantic_sequence","","","3","4","1","0",""
"","","","","","survey-text","127","644853","0.0-85.0","F275751D6E3646F7BAD36D7BE6A2216C","019db61b-b165-7b6f-83eb-d0c7968c326d","019db609-2a35-76b9-807a-e0c4c153f4bb","","28597","","{""gender"":""male"",""age"":""29"",""decision_strategy"":""based on the action "",""consistency_check"":""Based on what i saw on the previous slides shown, I tried to remember which actions were worth money""}","demographics_and_strategy","","","","","","","","",""
"","","","","","instructions","128","649503","0.0-86.0","F275751D6E3646F7BAD36D7BE6A2216C","019db61b-b165-7b6f-83eb-d0c7968c326d","019db609-2a35-76b9-807a-e0c4c153f4bb","[{""page_index"":0,""viewing_time"":4648}]","4648","","","","","","","","","","","",""
