"success","timeout","failed_images","failed_audio","failed_video","trial_type","trial_index","time_elapsed","internal_node_id","subject_id","study_id","session_id","view_history","rt","stimulus","response","task","image_index","folder","sequence_type","valuable_image_index","reward_type","correct_choice","chosen_image_index","target_X"
"true","false","[]","[]","[]","preload","0","10996","0.0-0.0","63EF96B778AB46489357808A6C21C688","019cf794-eba6-7def-ad5c-9663ed09887d","019cf78c-cfcf-769c-9016-9b96552b5e33","","","","","","","","","","","","",""
"","","","","","instructions","1","13749","0.0-1.0","63EF96B778AB46489357808A6C21C688","019cf794-eba6-7def-ad5c-9663ed09887d","019cf78c-cfcf-769c-9016-9b96552b5e33","[{""page_index"":0,""viewing_time"":2753}]","2753","","","","","","","","","","",""
"","","","","","instructions","2","17502","0.0-2.0","63EF96B778AB46489357808A6C21C688","019cf794-eba6-7def-ad5c-9663ed09887d","019cf78c-cfcf-769c-9016-9b96552b5e33","[{""page_index"":0,""viewing_time"":3752}]","3752","","","","","","","","","","",""
"true","","","","","fullscreen","3","19803","0.0-3.0","63EF96B778AB46489357808A6C21C688","019cf794-eba6-7def-ad5c-9663ed09887d","019cf78c-cfcf-769c-9016-9b96552b5e33","","1285","","","","","","","","","","",""
"","","","","","instructions","4","27317","0.0-4.0","63EF96B778AB46489357808A6C21C688","019cf794-eba6-7def-ad5c-9663ed09887d","019cf78c-cfcf-769c-9016-9b96552b5e33","[{""page_index"":0,""viewing_time"":7514}]","7514","","","","","","","","","","",""
"","","","","","instructions","5","36933","0.0-5.0","63EF96B778AB46489357808A6C21C688","019cf794-eba6-7def-ad5c-9663ed09887d","019cf78c-cfcf-769c-9016-9b96552b5e33","[{""page_index"":0,""viewing_time"":9616}]","9616","","","","","","","","","","",""
"","","","","","html-keyboard-response","6","40946","0.0-6.0","63EF96B778AB46489357808A6C21C688","019cf794-eba6-7def-ad5c-9663ed09887d","019cf78c-cfcf-769c-9016-9b96552b5e33","","null","
                <div class=""stimulus-container"">
                    <img src=""images/instructions/movie_1.png"" class=""exp-image"">
                    <div class=""question-area""></div> 
                </div>","null","","","","","","","","",""
"","","","","","html-button-response","7","43445","0.0-7.0","63EF96B778AB46489357808A6C21C688","019cf794-eba6-7def-ad5c-9663ed09887d","019cf78c-cfcf-769c-9016-9b96552b5e33","","2497","
                <div class=""stimulus-container"">
                    <img src=""images/instructions/movie_1.png"" class=""exp-image"">
                    <div class=""question-area"">
                        <p style=""font-size: 20px; font-weight: bold; margin: 0;"">Was there a person in this image?</p>
                    </div>
                </div>","0","example_question","1","","","","","","",""
"","","","","","html-keyboard-response","8","47455","0.0-8.0","63EF96B778AB46489357808A6C21C688","019cf794-eba6-7def-ad5c-9663ed09887d","019cf78c-cfcf-769c-9016-9b96552b5e33","","null","
                <div class=""stimulus-container"">
                    <img src=""images/instructions/movie_2.png"" class=""exp-image"">
                    <div class=""question-area""></div> 
                </div>","null","","","","","","","","",""
"","","","","","html-button-response","9","48421","0.0-9.0","63EF96B778AB46489357808A6C21C688","019cf794-eba6-7def-ad5c-9663ed09887d","019cf78c-cfcf-769c-9016-9b96552b5e33","","965","
                <div class=""stimulus-container"">
                    <img src=""images/instructions/movie_2.png"" class=""exp-image"">
                    <div class=""question-area"">
                        <p style=""font-size: 20px; font-weight: bold; margin: 0;"">Was there a person in this image?</p>
                    </div>
                </div>","1","example_question","2","","","","","","",""
"","","","","","html-keyboard-response","10","52424","0.0-10.0","63EF96B778AB46489357808A6C21C688","019cf794-eba6-7def-ad5c-9663ed09887d","019cf78c-cfcf-769c-9016-9b96552b5e33","","null","
                <div class=""stimulus-container"">
                    <img src=""images/instructions/movie_3.png"" class=""exp-image"">
                    <div class=""question-area""></div> 
                </div>","null","","","","","","","","",""
"","","","","","html-button-response","11","55429","0.0-11.0","63EF96B778AB46489357808A6C21C688","019cf794-eba6-7def-ad5c-9663ed09887d","019cf78c-cfcf-769c-9016-9b96552b5e33","","null","
                <div class=""stimulus-container"">
                    <img src=""images/instructions/movie_3.png"" class=""exp-image"">
                    <div class=""question-area"">
                        <p style=""font-size: 20px; font-weight: bold; margin: 0;"">Was there a person in this image?</p>
                    </div>
                </div>","null","example_question","3","","","","","","",""
"","","","","","html-keyboard-response","12","59432","0.0-12.0","63EF96B778AB46489357808A6C21C688","019cf794-eba6-7def-ad5c-9663ed09887d","019cf78c-cfcf-769c-9016-9b96552b5e33","","null","
                <div class=""stimulus-container"">
                    <img src=""images/instructions/movie_4.png"" class=""exp-image"">
                    <div class=""question-area""></div> 
                </div>","null","","","","","","","","",""
"","","","","","html-button-response","13","61517","0.0-13.0","63EF96B778AB46489357808A6C21C688","019cf794-eba6-7def-ad5c-9663ed09887d","019cf78c-cfcf-769c-9016-9b96552b5e33","","2085","
                <div class=""stimulus-container"">
                    <img src=""images/instructions/movie_4.png"" class=""exp-image"">
                    <div class=""question-area"">
                        <p style=""font-size: 20px; font-weight: bold; margin: 0;"">Was there a person in this image?</p>
                    </div>
                </div>","0","example_question","4","","","","","","",""
"","","","","","instructions","14","63877","0.0-14.0","63EF96B778AB46489357808A6C21C688","019cf794-eba6-7def-ad5c-9663ed09887d","019cf78c-cfcf-769c-9016-9b96552b5e33","[{""page_index"":0,""viewing_time"":2359}]","2359","","","","","","","","","","",""
"","","","","","instructions","15","66445","0.0-15.0","63EF96B778AB46489357808A6C21C688","019cf794-eba6-7def-ad5c-9663ed09887d","019cf78c-cfcf-769c-9016-9b96552b5e33","[{""page_index"":0,""viewing_time"":2568}]","2568","","","","","","","","","","",""
"","","","","","html-keyboard-response","16","67457","0.0-16.0","63EF96B778AB46489357808A6C21C688","019cf794-eba6-7def-ad5c-9663ed09887d","019cf78c-cfcf-769c-9016-9b96552b5e33","","null","<div style=""background-color: white; width: 100vw; height: 100vh;""></div>","null","","","","","","","","",""
"","","","","","html-keyboard-response","17","72470","0.0-17.0","63EF96B778AB46489357808A6C21C688","019cf794-eba6-7def-ad5c-9663ed09887d","019cf78c-cfcf-769c-9016-9b96552b5e33","","null","
                <div class=""stimulus-container"">
                    <img src=""images/schematic_sequence/dinner_party_scheme/dinner_party_scheme_1.png"" class=""exp-image"">
                    <div class=""question-area""></div> 
                </div>","null","","","","","","","","",""
"","","","","","html-button-response","18","73613","0.0-18.0","63EF96B778AB46489357808A6C21C688","019cf794-eba6-7def-ad5c-9663ed09887d","019cf78c-cfcf-769c-9016-9b96552b5e33","","1141","
                <div class=""stimulus-container"">
                    <img src=""images/schematic_sequence/dinner_party_scheme/dinner_party_scheme_1.png"" class=""exp-image"">
                    <div class=""question-area"">
                        <p style=""font-size: 20px; font-weight: bold; margin: 0;"">Is there a person in this image?</p>
                    </div>
                </div>","0","main_experiment_trial","1","dinner_party_scheme","schematic_sequence","","","","",""
"","","","","","html-keyboard-response","19","78621","0.0-19.0","63EF96B778AB46489357808A6C21C688","019cf794-eba6-7def-ad5c-9663ed09887d","019cf78c-cfcf-769c-9016-9b96552b5e33","","null","
                <div class=""stimulus-container"">
                    <img src=""images/schematic_sequence/dinner_party_scheme/dinner_party_scheme_2.png"" class=""exp-image"">
                    <div class=""question-area""></div> 
                </div>","null","","","","","","","","",""
"","","","","","html-button-response","20","79253","0.0-20.0","63EF96B778AB46489357808A6C21C688","019cf794-eba6-7def-ad5c-9663ed09887d","019cf78c-cfcf-769c-9016-9b96552b5e33","","631","
                <div class=""stimulus-container"">
                    <img src=""images/schematic_sequence/dinner_party_scheme/dinner_party_scheme_2.png"" class=""exp-image"">
                    <div class=""question-area"">
                        <p style=""font-size: 20px; font-weight: bold; margin: 0;"">Is there a person in this image?</p>
                    </div>
                </div>","0","main_experiment_trial","2","dinner_party_scheme","schematic_sequence","","","","",""
"","","","","","html-keyboard-response","21","84254","0.0-21.0","63EF96B778AB46489357808A6C21C688","019cf794-eba6-7def-ad5c-9663ed09887d","019cf78c-cfcf-769c-9016-9b96552b5e33","","null","
                <div class=""stimulus-container"">
                    <img src=""images/schematic_sequence/dinner_party_scheme/dinner_party_scheme_3.png"" class=""exp-image"">
                    <div class=""question-area""></div> 
                </div>","null","","","","","","","","",""
"","","","","","html-button-response","22","84981","0.0-22.0","63EF96B778AB46489357808A6C21C688","019cf794-eba6-7def-ad5c-9663ed09887d","019cf78c-cfcf-769c-9016-9b96552b5e33","","726","
                <div class=""stimulus-container"">
                    <img src=""images/schematic_sequence/dinner_party_scheme/dinner_party_scheme_3.png"" class=""exp-image"">
                    <div class=""question-area"">
                        <p style=""font-size: 20px; font-weight: bold; margin: 0;"">Is there a person in this image?</p>
                    </div>
                </div>","0","main_experiment_trial","3","dinner_party_scheme","schematic_sequence","","","","",""
"","","","","","html-keyboard-response","23","89985","0.0-23.0","63EF96B778AB46489357808A6C21C688","019cf794-eba6-7def-ad5c-9663ed09887d","019cf78c-cfcf-769c-9016-9b96552b5e33","","null","
                <div class=""stimulus-container"">
                    <img src=""images/schematic_sequence/dinner_party_scheme/dinner_party_scheme_4.png"" class=""exp-image"">
                    <div class=""question-area""></div> 
                </div>","null","","","","","","","","",""
"","","","","","html-button-response","24","90941","0.0-24.0","63EF96B778AB46489357808A6C21C688","019cf794-eba6-7def-ad5c-9663ed09887d","019cf78c-cfcf-769c-9016-9b96552b5e33","","955","
                <div class=""stimulus-container"">
                    <img src=""images/schematic_sequence/dinner_party_scheme/dinner_party_scheme_4.png"" class=""exp-image"">
                    <div class=""question-area"">
                        <p style=""font-size: 20px; font-weight: bold; margin: 0;"">Is there a person in this image?</p>
                    </div>
                </div>","0","main_experiment_trial","4","dinner_party_scheme","schematic_sequence","","","","",""
"","","","","","html-keyboard-response","25","95954","0.0-25.0","63EF96B778AB46489357808A6C21C688","019cf794-eba6-7def-ad5c-9663ed09887d","019cf78c-cfcf-769c-9016-9b96552b5e33","","null","
                <div class=""stimulus-container"">
                    <img src=""images/schematic_sequence/dinner_party_scheme/dinner_party_scheme_5.png"" class=""exp-image"">
                    <div class=""question-area""></div> 
                </div>","null","","","","","","","","",""
"","","","","","html-button-response","26","98053","0.0-26.0","63EF96B778AB46489357808A6C21C688","019cf794-eba6-7def-ad5c-9663ed09887d","019cf78c-cfcf-769c-9016-9b96552b5e33","","2098","
                <div class=""stimulus-container"">
                    <img src=""images/schematic_sequence/dinner_party_scheme/dinner_party_scheme_5.png"" class=""exp-image"">
                    <div class=""question-area"">
                        <p style=""font-size: 20px; font-weight: bold; margin: 0;"">Is there a person in this image?</p>
                    </div>
                </div>","0","main_experiment_trial","5","dinner_party_scheme","schematic_sequence","","","","",""
"","","","","","html-keyboard-response","27","103057","0.0-27.0","63EF96B778AB46489357808A6C21C688","019cf794-eba6-7def-ad5c-9663ed09887d","019cf78c-cfcf-769c-9016-9b96552b5e33","","null","
                <div class=""stimulus-container"">
                    <img src=""images/schematic_sequence/dinner_party_scheme/dinner_party_scheme_6.png"" class=""exp-image"">
                    <div class=""question-area""></div> 
                </div>","null","","","","","","","","",""
"","","","","","html-button-response","28","103957","0.0-28.0","63EF96B778AB46489357808A6C21C688","019cf794-eba6-7def-ad5c-9663ed09887d","019cf78c-cfcf-769c-9016-9b96552b5e33","","900","
                <div class=""stimulus-container"">
                    <img src=""images/schematic_sequence/dinner_party_scheme/dinner_party_scheme_6.png"" class=""exp-image"">
                    <div class=""question-area"">
                        <p style=""font-size: 20px; font-weight: bold; margin: 0;"">Is there a person in this image?</p>
                    </div>
                </div>","0","main_experiment_trial","6","dinner_party_scheme","schematic_sequence","","","","",""
"","","","","","html-keyboard-response","29","108969","0.0-29.0","63EF96B778AB46489357808A6C21C688","019cf794-eba6-7def-ad5c-9663ed09887d","019cf78c-cfcf-769c-9016-9b96552b5e33","","null","
                <div class=""stimulus-container"">
                    <img src=""images/schematic_sequence/dinner_party_scheme/dinner_party_scheme_7.png"" class=""exp-image"">
                    <div class=""question-area""></div> 
                </div>","null","","","","","","","","",""
"","","","","","html-button-response","30","109990","0.0-30.0","63EF96B778AB46489357808A6C21C688","019cf794-eba6-7def-ad5c-9663ed09887d","019cf78c-cfcf-769c-9016-9b96552b5e33","","1020","
                <div class=""stimulus-container"">
                    <img src=""images/schematic_sequence/dinner_party_scheme/dinner_party_scheme_7.png"" class=""exp-image"">
                    <div class=""question-area"">
                        <p style=""font-size: 20px; font-weight: bold; margin: 0;"">Is there a person in this image?</p>
                    </div>
                </div>","0","main_experiment_trial","7","dinner_party_scheme","schematic_sequence","","","","",""
"","","","","","html-keyboard-response","31","115006","0.0-31.0","63EF96B778AB46489357808A6C21C688","019cf794-eba6-7def-ad5c-9663ed09887d","019cf78c-cfcf-769c-9016-9b96552b5e33","","null","
                <div class=""stimulus-container"">
                    <img src=""images/schematic_sequence/dinner_party_scheme/dinner_party_scheme_8.png"" class=""exp-image"">
                    <div class=""question-area""></div> 
                </div>","null","","","","","","","","",""
"","","","","","html-button-response","32","116277","0.0-32.0","63EF96B778AB46489357808A6C21C688","019cf794-eba6-7def-ad5c-9663ed09887d","019cf78c-cfcf-769c-9016-9b96552b5e33","","1269","
                <div class=""stimulus-container"">
                    <img src=""images/schematic_sequence/dinner_party_scheme/dinner_party_scheme_8.png"" class=""exp-image"">
                    <div class=""question-area"">
                        <p style=""font-size: 20px; font-weight: bold; margin: 0;"">Is there a person in this image?</p>
                    </div>
                </div>","0","main_experiment_trial","8","dinner_party_scheme","schematic_sequence","","","","",""
"","","","","","html-keyboard-response","33","121289","0.0-33.0","63EF96B778AB46489357808A6C21C688","019cf794-eba6-7def-ad5c-9663ed09887d","019cf78c-cfcf-769c-9016-9b96552b5e33","","null","
                <div class=""stimulus-container"">
                    <img src=""images/schematic_sequence/dinner_party_scheme/dinner_party_scheme_9.png"" class=""exp-image"">
                    <div class=""question-area""></div> 
                </div>","null","","","","","","","","",""
"","","","","","html-button-response","34","122461","0.0-34.0","63EF96B778AB46489357808A6C21C688","019cf794-eba6-7def-ad5c-9663ed09887d","019cf78c-cfcf-769c-9016-9b96552b5e33","","1171","
                <div class=""stimulus-container"">
                    <img src=""images/schematic_sequence/dinner_party_scheme/dinner_party_scheme_9.png"" class=""exp-image"">
                    <div class=""question-area"">
                        <p style=""font-size: 20px; font-weight: bold; margin: 0;"">Is there a person in this image?</p>
                    </div>
                </div>","0","main_experiment_trial","9","dinner_party_scheme","schematic_sequence","","","","",""
"","","","","","html-keyboard-response","35","127471","0.0-35.0","63EF96B778AB46489357808A6C21C688","019cf794-eba6-7def-ad5c-9663ed09887d","019cf78c-cfcf-769c-9016-9b96552b5e33","","null","
                <div class=""stimulus-container"">
                    <img src=""images/schematic_sequence/dinner_party_scheme/dinner_party_scheme_ten.png"" class=""exp-image"">
                    <div class=""question-area""></div> 
                </div>","null","","","","","","","","",""
"","","","","","html-button-response","36","128670","0.0-36.0","63EF96B778AB46489357808A6C21C688","019cf794-eba6-7def-ad5c-9663ed09887d","019cf78c-cfcf-769c-9016-9b96552b5e33","","1197","
                <div class=""stimulus-container"">
                    <img src=""images/schematic_sequence/dinner_party_scheme/dinner_party_scheme_ten.png"" class=""exp-image"">
                    <div class=""question-area"">
                        <p style=""font-size: 20px; font-weight: bold; margin: 0;"">Is there a person in this image?</p>
                    </div>
                </div>","0","main_experiment_trial","ten","dinner_party_scheme","schematic_sequence","","","","",""
"","","","","","html-keyboard-response","37","129681","0.0-37.0","63EF96B778AB46489357808A6C21C688","019cf794-eba6-7def-ad5c-9663ed09887d","019cf78c-cfcf-769c-9016-9b96552b5e33","","null","<div style=""background-color: white; width: 100vw; height: 100vh;""></div>","null","","","","","","","","",""
"","","","","","html-keyboard-response","38","134683","0.0-38.0","63EF96B778AB46489357808A6C21C688","019cf794-eba6-7def-ad5c-9663ed09887d","019cf78c-cfcf-769c-9016-9b96552b5e33","","null","
                <div class=""stimulus-container"">
                    <img src=""images/semantic_sequence/redecorating_a_house_semantic/redecorating_a_house_semantic_1.png"" class=""exp-image"">
                    <div class=""question-area""></div> 
                </div>","null","","","","","","","","",""
"","","","","","html-button-response","39","135670","0.0-39.0","63EF96B778AB46489357808A6C21C688","019cf794-eba6-7def-ad5c-9663ed09887d","019cf78c-cfcf-769c-9016-9b96552b5e33","","986","
                <div class=""stimulus-container"">
                    <img src=""images/semantic_sequence/redecorating_a_house_semantic/redecorating_a_house_semantic_1.png"" class=""exp-image"">
                    <div class=""question-area"">
                        <p style=""font-size: 20px; font-weight: bold; margin: 0;"">Is there a person in this image?</p>
                    </div>
                </div>","0","main_experiment_trial","1","redecorating_a_house_semantic","semantic_sequence","","","","",""
"","","","","","html-keyboard-response","40","140672","0.0-40.0","63EF96B778AB46489357808A6C21C688","019cf794-eba6-7def-ad5c-9663ed09887d","019cf78c-cfcf-769c-9016-9b96552b5e33","","null","
                <div class=""stimulus-container"">
                    <img src=""images/semantic_sequence/redecorating_a_house_semantic/redecorating_a_house_semantic_2.png"" class=""exp-image"">
                    <div class=""question-area""></div> 
                </div>","null","","","","","","","","",""
"","","","","","html-button-response","41","141556","0.0-41.0","63EF96B778AB46489357808A6C21C688","019cf794-eba6-7def-ad5c-9663ed09887d","019cf78c-cfcf-769c-9016-9b96552b5e33","","884","
                <div class=""stimulus-container"">
                    <img src=""images/semantic_sequence/redecorating_a_house_semantic/redecorating_a_house_semantic_2.png"" class=""exp-image"">
                    <div class=""question-area"">
                        <p style=""font-size: 20px; font-weight: bold; margin: 0;"">Is there a person in this image?</p>
                    </div>
                </div>","0","main_experiment_trial","2","redecorating_a_house_semantic","semantic_sequence","","","","",""
"","","","","","html-keyboard-response","42","146558","0.0-42.0","63EF96B778AB46489357808A6C21C688","019cf794-eba6-7def-ad5c-9663ed09887d","019cf78c-cfcf-769c-9016-9b96552b5e33","","null","
                <div class=""stimulus-container"">
                    <img src=""images/semantic_sequence/redecorating_a_house_semantic/redecorating_a_house_semantic_3.png"" class=""exp-image"">
                    <div class=""question-area""></div> 
                </div>","null","","","","","","","","",""
"","","","","","html-button-response","43","147806","0.0-43.0","63EF96B778AB46489357808A6C21C688","019cf794-eba6-7def-ad5c-9663ed09887d","019cf78c-cfcf-769c-9016-9b96552b5e33","","1247","
                <div class=""stimulus-container"">
                    <img src=""images/semantic_sequence/redecorating_a_house_semantic/redecorating_a_house_semantic_3.png"" class=""exp-image"">
                    <div class=""question-area"">
                        <p style=""font-size: 20px; font-weight: bold; margin: 0;"">Is there a person in this image?</p>
                    </div>
                </div>","0","main_experiment_trial","3","redecorating_a_house_semantic","semantic_sequence","","","","",""
"","","","","","html-keyboard-response","44","152822","0.0-44.0","63EF96B778AB46489357808A6C21C688","019cf794-eba6-7def-ad5c-9663ed09887d","019cf78c-cfcf-769c-9016-9b96552b5e33","","null","
                <div class=""stimulus-container"">
                    <img src=""images/semantic_sequence/redecorating_a_house_semantic/redecorating_a_house_semantic_4.png"" class=""exp-image"">
                    <div class=""question-area""></div> 
                </div>","null","","","","","","","","",""
"","","","","","html-button-response","45","153636","0.0-45.0","63EF96B778AB46489357808A6C21C688","019cf794-eba6-7def-ad5c-9663ed09887d","019cf78c-cfcf-769c-9016-9b96552b5e33","","814","
                <div class=""stimulus-container"">
                    <img src=""images/semantic_sequence/redecorating_a_house_semantic/redecorating_a_house_semantic_4.png"" class=""exp-image"">
                    <div class=""question-area"">
                        <p style=""font-size: 20px; font-weight: bold; margin: 0;"">Is there a person in this image?</p>
                    </div>
                </div>","0","main_experiment_trial","4","redecorating_a_house_semantic","semantic_sequence","","","","",""
"","","","","","html-keyboard-response","46","158647","0.0-46.0","63EF96B778AB46489357808A6C21C688","019cf794-eba6-7def-ad5c-9663ed09887d","019cf78c-cfcf-769c-9016-9b96552b5e33","","null","
                <div class=""stimulus-container"">
                    <img src=""images/semantic_sequence/redecorating_a_house_semantic/redecorating_a_house_semantic_5.png"" class=""exp-image"">
                    <div class=""question-area""></div> 
                </div>","null","","","","","","","","",""
"","","","","","html-button-response","47","160030","0.0-47.0","63EF96B778AB46489357808A6C21C688","019cf794-eba6-7def-ad5c-9663ed09887d","019cf78c-cfcf-769c-9016-9b96552b5e33","","1381","
                <div class=""stimulus-container"">
                    <img src=""images/semantic_sequence/redecorating_a_house_semantic/redecorating_a_house_semantic_5.png"" class=""exp-image"">
                    <div class=""question-area"">
                        <p style=""font-size: 20px; font-weight: bold; margin: 0;"">Is there a person in this image?</p>
                    </div>
                </div>","0","main_experiment_trial","5","redecorating_a_house_semantic","semantic_sequence","","","","",""
"","","","","","html-keyboard-response","48","165046","0.0-48.0","63EF96B778AB46489357808A6C21C688","019cf794-eba6-7def-ad5c-9663ed09887d","019cf78c-cfcf-769c-9016-9b96552b5e33","","null","
                <div class=""stimulus-container"">
                    <img src=""images/semantic_sequence/redecorating_a_house_semantic/redecorating_a_house_semantic_6.png"" class=""exp-image"">
                    <div class=""question-area""></div> 
                </div>","null","","","","","","","","",""
"","","","","","html-button-response","49","166109","0.0-49.0","63EF96B778AB46489357808A6C21C688","019cf794-eba6-7def-ad5c-9663ed09887d","019cf78c-cfcf-769c-9016-9b96552b5e33","","1062","
                <div class=""stimulus-container"">
                    <img src=""images/semantic_sequence/redecorating_a_house_semantic/redecorating_a_house_semantic_6.png"" class=""exp-image"">
                    <div class=""question-area"">
                        <p style=""font-size: 20px; font-weight: bold; margin: 0;"">Is there a person in this image?</p>
                    </div>
                </div>","0","main_experiment_trial","6","redecorating_a_house_semantic","semantic_sequence","","","","",""
"","","","","","html-keyboard-response","50","171116","0.0-50.0","63EF96B778AB46489357808A6C21C688","019cf794-eba6-7def-ad5c-9663ed09887d","019cf78c-cfcf-769c-9016-9b96552b5e33","","null","
                <div class=""stimulus-container"">
                    <img src=""images/semantic_sequence/redecorating_a_house_semantic/redecorating_a_house_semantic_7.png"" class=""exp-image"">
                    <div class=""question-area""></div> 
                </div>","null","","","","","","","","",""
"","","","","","html-button-response","51","172332","0.0-51.0","63EF96B778AB46489357808A6C21C688","019cf794-eba6-7def-ad5c-9663ed09887d","019cf78c-cfcf-769c-9016-9b96552b5e33","","1215","
                <div class=""stimulus-container"">
                    <img src=""images/semantic_sequence/redecorating_a_house_semantic/redecorating_a_house_semantic_7.png"" class=""exp-image"">
                    <div class=""question-area"">
                        <p style=""font-size: 20px; font-weight: bold; margin: 0;"">Is there a person in this image?</p>
                    </div>
                </div>","0","main_experiment_trial","7","redecorating_a_house_semantic","semantic_sequence","","","","",""
"","","","","","html-keyboard-response","52","177341","0.0-52.0","63EF96B778AB46489357808A6C21C688","019cf794-eba6-7def-ad5c-9663ed09887d","019cf78c-cfcf-769c-9016-9b96552b5e33","","null","
                <div class=""stimulus-container"">
                    <img src=""images/semantic_sequence/redecorating_a_house_semantic/redecorating_a_house_semantic_8.png"" class=""exp-image"">
                    <div class=""question-area""></div> 
                </div>","null","","","","","","","","",""
"","","","","","html-button-response","53","178005","0.0-53.0","63EF96B778AB46489357808A6C21C688","019cf794-eba6-7def-ad5c-9663ed09887d","019cf78c-cfcf-769c-9016-9b96552b5e33","","663","
                <div class=""stimulus-container"">
                    <img src=""images/semantic_sequence/redecorating_a_house_semantic/redecorating_a_house_semantic_8.png"" class=""exp-image"">
                    <div class=""question-area"">
                        <p style=""font-size: 20px; font-weight: bold; margin: 0;"">Is there a person in this image?</p>
                    </div>
                </div>","0","main_experiment_trial","8","redecorating_a_house_semantic","semantic_sequence","","","","",""
"","","","","","html-keyboard-response","54","183013","0.0-54.0","63EF96B778AB46489357808A6C21C688","019cf794-eba6-7def-ad5c-9663ed09887d","019cf78c-cfcf-769c-9016-9b96552b5e33","","null","
                <div class=""stimulus-container"">
                    <img src=""images/semantic_sequence/redecorating_a_house_semantic/redecorating_a_house_semantic_9.png"" class=""exp-image"">
                    <div class=""question-area""></div> 
                </div>","null","","","","","","","","",""
"","","","","","html-button-response","55","186028","0.0-55.0","63EF96B778AB46489357808A6C21C688","019cf794-eba6-7def-ad5c-9663ed09887d","019cf78c-cfcf-769c-9016-9b96552b5e33","","null","
                <div class=""stimulus-container"">
                    <img src=""images/semantic_sequence/redecorating_a_house_semantic/redecorating_a_house_semantic_9.png"" class=""exp-image"">
                    <div class=""question-area"">
                        <p style=""font-size: 20px; font-weight: bold; margin: 0;"">Is there a person in this image?</p>
                    </div>
                </div>","null","main_experiment_trial","9","redecorating_a_house_semantic","semantic_sequence","","","","",""
"","","","","","html-keyboard-response","56","191047","0.0-56.0","63EF96B778AB46489357808A6C21C688","019cf794-eba6-7def-ad5c-9663ed09887d","019cf78c-cfcf-769c-9016-9b96552b5e33","","null","
                <div class=""stimulus-container"">
                    <img src=""images/semantic_sequence/redecorating_a_house_semantic/redecorating_a_house_semantic_ten.png"" class=""exp-image"">
                    <div class=""question-area""></div> 
                </div>","null","","","","","","","","",""
"","","","","","html-button-response","57","192005","0.0-57.0","63EF96B778AB46489357808A6C21C688","019cf794-eba6-7def-ad5c-9663ed09887d","019cf78c-cfcf-769c-9016-9b96552b5e33","","956","
                <div class=""stimulus-container"">
                    <img src=""images/semantic_sequence/redecorating_a_house_semantic/redecorating_a_house_semantic_ten.png"" class=""exp-image"">
                    <div class=""question-area"">
                        <p style=""font-size: 20px; font-weight: bold; margin: 0;"">Is there a person in this image?</p>
                    </div>
                </div>","0","main_experiment_trial","ten","redecorating_a_house_semantic","semantic_sequence","","","","",""
"","","","","","html-keyboard-response","58","193010","0.0-58.0","63EF96B778AB46489357808A6C21C688","019cf794-eba6-7def-ad5c-9663ed09887d","019cf78c-cfcf-769c-9016-9b96552b5e33","","null","<div style=""background-color: white; width: 100vw; height: 100vh;""></div>","null","","","","","","","","",""
"","","","","","html-keyboard-response","59","198022","0.0-59.0","63EF96B778AB46489357808A6C21C688","019cf794-eba6-7def-ad5c-9663ed09887d","019cf78c-cfcf-769c-9016-9b96552b5e33","","null","
                <div class=""stimulus-container"">
                    <img src=""images/semantic_sequence/maintaining_a_car_semantic/maintaining_a_car_semantic_1.png"" class=""exp-image"">
                    <div class=""question-area""></div> 
                </div>","null","","","","","","","","",""
"","","","","","html-button-response","60","199182","0.0-60.0","63EF96B778AB46489357808A6C21C688","019cf794-eba6-7def-ad5c-9663ed09887d","019cf78c-cfcf-769c-9016-9b96552b5e33","","1159","
                <div class=""stimulus-container"">
                    <img src=""images/semantic_sequence/maintaining_a_car_semantic/maintaining_a_car_semantic_1.png"" class=""exp-image"">
                    <div class=""question-area"">
                        <p style=""font-size: 20px; font-weight: bold; margin: 0;"">Is there a person in this image?</p>
                    </div>
                </div>","0","main_experiment_trial","1","maintaining_a_car_semantic","semantic_sequence","","","","",""
"","","","","","html-keyboard-response","61","204187","0.0-61.0","63EF96B778AB46489357808A6C21C688","019cf794-eba6-7def-ad5c-9663ed09887d","019cf78c-cfcf-769c-9016-9b96552b5e33","","null","
                <div class=""stimulus-container"">
                    <img src=""images/semantic_sequence/maintaining_a_car_semantic/maintaining_a_car_semantic_2.png"" class=""exp-image"">
                    <div class=""question-area""></div> 
                </div>","null","","","","","","","","",""
"","","","","","html-button-response","62","205181","0.0-62.0","63EF96B778AB46489357808A6C21C688","019cf794-eba6-7def-ad5c-9663ed09887d","019cf78c-cfcf-769c-9016-9b96552b5e33","","993","
                <div class=""stimulus-container"">
                    <img src=""images/semantic_sequence/maintaining_a_car_semantic/maintaining_a_car_semantic_2.png"" class=""exp-image"">
                    <div class=""question-area"">
                        <p style=""font-size: 20px; font-weight: bold; margin: 0;"">Is there a person in this image?</p>
                    </div>
                </div>","0","main_experiment_trial","2","maintaining_a_car_semantic","semantic_sequence","","","","",""
"","","","","","html-keyboard-response","63","210191","0.0-63.0","63EF96B778AB46489357808A6C21C688","019cf794-eba6-7def-ad5c-9663ed09887d","019cf78c-cfcf-769c-9016-9b96552b5e33","","null","
                <div class=""stimulus-container"">
                    <img src=""images/semantic_sequence/maintaining_a_car_semantic/maintaining_a_car_semantic_3.png"" class=""exp-image"">
                    <div class=""question-area""></div> 
                </div>","null","","","","","","","","",""
"","","","","","html-button-response","64","211173","0.0-64.0","63EF96B778AB46489357808A6C21C688","019cf794-eba6-7def-ad5c-9663ed09887d","019cf78c-cfcf-769c-9016-9b96552b5e33","","981","
                <div class=""stimulus-container"">
                    <img src=""images/semantic_sequence/maintaining_a_car_semantic/maintaining_a_car_semantic_3.png"" class=""exp-image"">
                    <div class=""question-area"">
                        <p style=""font-size: 20px; font-weight: bold; margin: 0;"">Is there a person in this image?</p>
                    </div>
                </div>","0","main_experiment_trial","3","maintaining_a_car_semantic","semantic_sequence","","","","",""
"","","","","","html-keyboard-response","65","216185","0.0-65.0","63EF96B778AB46489357808A6C21C688","019cf794-eba6-7def-ad5c-9663ed09887d","019cf78c-cfcf-769c-9016-9b96552b5e33","","null","
                <div class=""stimulus-container"">
                    <img src=""images/semantic_sequence/maintaining_a_car_semantic/maintaining_a_car_semantic_4.png"" class=""exp-image"">
                    <div class=""question-area""></div> 
                </div>","null","","","","","","","","",""
"","","","","","html-button-response","66","217326","0.0-66.0","63EF96B778AB46489357808A6C21C688","019cf794-eba6-7def-ad5c-9663ed09887d","019cf78c-cfcf-769c-9016-9b96552b5e33","","1140","
                <div class=""stimulus-container"">
                    <img src=""images/semantic_sequence/maintaining_a_car_semantic/maintaining_a_car_semantic_4.png"" class=""exp-image"">
                    <div class=""question-area"">
                        <p style=""font-size: 20px; font-weight: bold; margin: 0;"">Is there a person in this image?</p>
                    </div>
                </div>","0","main_experiment_trial","4","maintaining_a_car_semantic","semantic_sequence","","","","",""
"","","","","","html-keyboard-response","67","222338","0.0-67.0","63EF96B778AB46489357808A6C21C688","019cf794-eba6-7def-ad5c-9663ed09887d","019cf78c-cfcf-769c-9016-9b96552b5e33","","null","
                <div class=""stimulus-container"">
                    <img src=""images/semantic_sequence/maintaining_a_car_semantic/maintaining_a_car_semantic_5.png"" class=""exp-image"">
                    <div class=""question-area""></div> 
                </div>","null","","","","","","","","",""
"","","","","","html-button-response","68","223526","0.0-68.0","63EF96B778AB46489357808A6C21C688","019cf794-eba6-7def-ad5c-9663ed09887d","019cf78c-cfcf-769c-9016-9b96552b5e33","","1186","
                <div class=""stimulus-container"">
                    <img src=""images/semantic_sequence/maintaining_a_car_semantic/maintaining_a_car_semantic_5.png"" class=""exp-image"">
                    <div class=""question-area"">
                        <p style=""font-size: 20px; font-weight: bold; margin: 0;"">Is there a person in this image?</p>
                    </div>
                </div>","0","main_experiment_trial","5","maintaining_a_car_semantic","semantic_sequence","","","","",""
"","","","","","html-keyboard-response","69","228527","0.0-69.0","63EF96B778AB46489357808A6C21C688","019cf794-eba6-7def-ad5c-9663ed09887d","019cf78c-cfcf-769c-9016-9b96552b5e33","","null","
                <div class=""stimulus-container"">
                    <img src=""images/semantic_sequence/maintaining_a_car_semantic/maintaining_a_car_semantic_6.png"" class=""exp-image"">
                    <div class=""question-area""></div> 
                </div>","null","","","","","","","","",""
"","","","","","html-button-response","70","229957","0.0-70.0","63EF96B778AB46489357808A6C21C688","019cf794-eba6-7def-ad5c-9663ed09887d","019cf78c-cfcf-769c-9016-9b96552b5e33","","1429","
                <div class=""stimulus-container"">
                    <img src=""images/semantic_sequence/maintaining_a_car_semantic/maintaining_a_car_semantic_6.png"" class=""exp-image"">
                    <div class=""question-area"">
                        <p style=""font-size: 20px; font-weight: bold; margin: 0;"">Is there a person in this image?</p>
                    </div>
                </div>","0","main_experiment_trial","6","maintaining_a_car_semantic","semantic_sequence","","","","",""
"","","","","","html-keyboard-response","71","234973","0.0-71.0","63EF96B778AB46489357808A6C21C688","019cf794-eba6-7def-ad5c-9663ed09887d","019cf78c-cfcf-769c-9016-9b96552b5e33","","null","
                <div class=""stimulus-container"">
                    <img src=""images/semantic_sequence/maintaining_a_car_semantic/maintaining_a_car_semantic_7.png"" class=""exp-image"">
                    <div class=""question-area""></div> 
                </div>","null","","","","","","","","",""
"","","","","","html-button-response","72","236174","0.0-72.0","63EF96B778AB46489357808A6C21C688","019cf794-eba6-7def-ad5c-9663ed09887d","019cf78c-cfcf-769c-9016-9b96552b5e33","","1199","
                <div class=""stimulus-container"">
                    <img src=""images/semantic_sequence/maintaining_a_car_semantic/maintaining_a_car_semantic_7.png"" class=""exp-image"">
                    <div class=""question-area"">
                        <p style=""font-size: 20px; font-weight: bold; margin: 0;"">Is there a person in this image?</p>
                    </div>
                </div>","0","main_experiment_trial","7","maintaining_a_car_semantic","semantic_sequence","","","","",""
"","","","","","html-keyboard-response","73","241185","0.0-73.0","63EF96B778AB46489357808A6C21C688","019cf794-eba6-7def-ad5c-9663ed09887d","019cf78c-cfcf-769c-9016-9b96552b5e33","","null","
                <div class=""stimulus-container"">
                    <img src=""images/semantic_sequence/maintaining_a_car_semantic/maintaining_a_car_semantic_8.png"" class=""exp-image"">
                    <div class=""question-area""></div> 
                </div>","null","","","","","","","","",""
"","","","","","html-button-response","74","241702","0.0-74.0","63EF96B778AB46489357808A6C21C688","019cf794-eba6-7def-ad5c-9663ed09887d","019cf78c-cfcf-769c-9016-9b96552b5e33","","516","
                <div class=""stimulus-container"">
                    <img src=""images/semantic_sequence/maintaining_a_car_semantic/maintaining_a_car_semantic_8.png"" class=""exp-image"">
                    <div class=""question-area"">
                        <p style=""font-size: 20px; font-weight: bold; margin: 0;"">Is there a person in this image?</p>
                    </div>
                </div>","0","main_experiment_trial","8","maintaining_a_car_semantic","semantic_sequence","","","","",""
"","","","","","html-keyboard-response","75","246719","0.0-75.0","63EF96B778AB46489357808A6C21C688","019cf794-eba6-7def-ad5c-9663ed09887d","019cf78c-cfcf-769c-9016-9b96552b5e33","","null","
                <div class=""stimulus-container"">
                    <img src=""images/semantic_sequence/maintaining_a_car_semantic/maintaining_a_car_semantic_9.png"" class=""exp-image"">
                    <div class=""question-area""></div> 
                </div>","null","","","","","","","","",""
"","","","","","html-button-response","76","247269","0.0-76.0","63EF96B778AB46489357808A6C21C688","019cf794-eba6-7def-ad5c-9663ed09887d","019cf78c-cfcf-769c-9016-9b96552b5e33","","549","
                <div class=""stimulus-container"">
                    <img src=""images/semantic_sequence/maintaining_a_car_semantic/maintaining_a_car_semantic_9.png"" class=""exp-image"">
                    <div class=""question-area"">
                        <p style=""font-size: 20px; font-weight: bold; margin: 0;"">Is there a person in this image?</p>
                    </div>
                </div>","0","main_experiment_trial","9","maintaining_a_car_semantic","semantic_sequence","","","","",""
"","","","","","html-keyboard-response","77","252275","0.0-77.0","63EF96B778AB46489357808A6C21C688","019cf794-eba6-7def-ad5c-9663ed09887d","019cf78c-cfcf-769c-9016-9b96552b5e33","","null","
                <div class=""stimulus-container"">
                    <img src=""images/semantic_sequence/maintaining_a_car_semantic/maintaining_a_car_semantic_ten.png"" class=""exp-image"">
                    <div class=""question-area""></div> 
                </div>","null","","","","","","","","",""
"","","","","","html-button-response","78","252821","0.0-78.0","63EF96B778AB46489357808A6C21C688","019cf794-eba6-7def-ad5c-9663ed09887d","019cf78c-cfcf-769c-9016-9b96552b5e33","","544","
                <div class=""stimulus-container"">
                    <img src=""images/semantic_sequence/maintaining_a_car_semantic/maintaining_a_car_semantic_ten.png"" class=""exp-image"">
                    <div class=""question-area"">
                        <p style=""font-size: 20px; font-weight: bold; margin: 0;"">Is there a person in this image?</p>
                    </div>
                </div>","0","main_experiment_trial","ten","maintaining_a_car_semantic","semantic_sequence","","","","",""
"","","","","","html-keyboard-response","79","253825","0.0-79.0","63EF96B778AB46489357808A6C21C688","019cf794-eba6-7def-ad5c-9663ed09887d","019cf78c-cfcf-769c-9016-9b96552b5e33","","null","<div style=""background-color: white; width: 100vw; height: 100vh;""></div>","null","","","","","","","","",""
"","","","","","html-keyboard-response","80","258838","0.0-80.0","63EF96B778AB46489357808A6C21C688","019cf794-eba6-7def-ad5c-9663ed09887d","019cf78c-cfcf-769c-9016-9b96552b5e33","","null","
                <div class=""stimulus-container"">
                    <img src=""images/semantic_sequence/using_technology_semantic/using_technology_semantic_1.png"" class=""exp-image"">
                    <div class=""question-area""></div> 
                </div>","null","","","","","","","","",""
"","","","","","html-button-response","81","259773","0.0-81.0","63EF96B778AB46489357808A6C21C688","019cf794-eba6-7def-ad5c-9663ed09887d","019cf78c-cfcf-769c-9016-9b96552b5e33","","934","
                <div class=""stimulus-container"">
                    <img src=""images/semantic_sequence/using_technology_semantic/using_technology_semantic_1.png"" class=""exp-image"">
                    <div class=""question-area"">
                        <p style=""font-size: 20px; font-weight: bold; margin: 0;"">Is there a person in this image?</p>
                    </div>
                </div>","0","main_experiment_trial","1","using_technology_semantic","semantic_sequence","","","","",""
"","","","","","html-keyboard-response","82","264786","0.0-82.0","63EF96B778AB46489357808A6C21C688","019cf794-eba6-7def-ad5c-9663ed09887d","019cf78c-cfcf-769c-9016-9b96552b5e33","","null","
                <div class=""stimulus-container"">
                    <img src=""images/semantic_sequence/using_technology_semantic/using_technology_semantic_2.png"" class=""exp-image"">
                    <div class=""question-area""></div> 
                </div>","null","","","","","","","","",""
"","","","","","html-button-response","83","265589","0.0-83.0","63EF96B778AB46489357808A6C21C688","019cf794-eba6-7def-ad5c-9663ed09887d","019cf78c-cfcf-769c-9016-9b96552b5e33","","801","
                <div class=""stimulus-container"">
                    <img src=""images/semantic_sequence/using_technology_semantic/using_technology_semantic_2.png"" class=""exp-image"">
                    <div class=""question-area"">
                        <p style=""font-size: 20px; font-weight: bold; margin: 0;"">Is there a person in this image?</p>
                    </div>
                </div>","0","main_experiment_trial","2","using_technology_semantic","semantic_sequence","","","","",""
"","","","","","html-keyboard-response","84","270599","0.0-84.0","63EF96B778AB46489357808A6C21C688","019cf794-eba6-7def-ad5c-9663ed09887d","019cf78c-cfcf-769c-9016-9b96552b5e33","","null","
                <div class=""stimulus-container"">
                    <img src=""images/semantic_sequence/using_technology_semantic/using_technology_semantic_3.png"" class=""exp-image"">
                    <div class=""question-area""></div> 
                </div>","null","","","","","","","","",""
"","","","","","html-button-response","85","271462","0.0-85.0","63EF96B778AB46489357808A6C21C688","019cf794-eba6-7def-ad5c-9663ed09887d","019cf78c-cfcf-769c-9016-9b96552b5e33","","862","
                <div class=""stimulus-container"">
                    <img src=""images/semantic_sequence/using_technology_semantic/using_technology_semantic_3.png"" class=""exp-image"">
                    <div class=""question-area"">
                        <p style=""font-size: 20px; font-weight: bold; margin: 0;"">Is there a person in this image?</p>
                    </div>
                </div>","0","main_experiment_trial","3","using_technology_semantic","semantic_sequence","","","","",""
"","","","","","html-keyboard-response","86","276474","0.0-86.0","63EF96B778AB46489357808A6C21C688","019cf794-eba6-7def-ad5c-9663ed09887d","019cf78c-cfcf-769c-9016-9b96552b5e33","","null","
                <div class=""stimulus-container"">
                    <img src=""images/semantic_sequence/using_technology_semantic/using_technology_semantic_4.png"" class=""exp-image"">
                    <div class=""question-area""></div> 
                </div>","null","","","","","","","","",""
"","","","","","html-button-response","87","277125","0.0-87.0","63EF96B778AB46489357808A6C21C688","019cf794-eba6-7def-ad5c-9663ed09887d","019cf78c-cfcf-769c-9016-9b96552b5e33","","649","
                <div class=""stimulus-container"">
                    <img src=""images/semantic_sequence/using_technology_semantic/using_technology_semantic_4.png"" class=""exp-image"">
                    <div class=""question-area"">
                        <p style=""font-size: 20px; font-weight: bold; margin: 0;"">Is there a person in this image?</p>
                    </div>
                </div>","0","main_experiment_trial","4","using_technology_semantic","semantic_sequence","","","","",""
"","","","","","html-keyboard-response","88","282131","0.0-88.0","63EF96B778AB46489357808A6C21C688","019cf794-eba6-7def-ad5c-9663ed09887d","019cf78c-cfcf-769c-9016-9b96552b5e33","","null","
                <div class=""stimulus-container"">
                    <img src=""images/semantic_sequence/using_technology_semantic/using_technology_semantic_5.png"" class=""exp-image"">
                    <div class=""question-area""></div> 
                </div>","null","","","","","","","","",""
"","","","","","html-button-response","89","283581","0.0-89.0","63EF96B778AB46489357808A6C21C688","019cf794-eba6-7def-ad5c-9663ed09887d","019cf78c-cfcf-769c-9016-9b96552b5e33","","1448","
                <div class=""stimulus-container"">
                    <img src=""images/semantic_sequence/using_technology_semantic/using_technology_semantic_5.png"" class=""exp-image"">
                    <div class=""question-area"">
                        <p style=""font-size: 20px; font-weight: bold; margin: 0;"">Is there a person in this image?</p>
                    </div>
                </div>","0","main_experiment_trial","5","using_technology_semantic","semantic_sequence","","","","",""
"","","","","","html-keyboard-response","90","288588","0.0-90.0","63EF96B778AB46489357808A6C21C688","019cf794-eba6-7def-ad5c-9663ed09887d","019cf78c-cfcf-769c-9016-9b96552b5e33","","null","
                <div class=""stimulus-container"">
                    <img src=""images/semantic_sequence/using_technology_semantic/using_technology_semantic_6.png"" class=""exp-image"">
                    <div class=""question-area""></div> 
                </div>","null","","","","","","","","",""
"","","","","","html-button-response","91","289518","0.0-91.0","63EF96B778AB46489357808A6C21C688","019cf794-eba6-7def-ad5c-9663ed09887d","019cf78c-cfcf-769c-9016-9b96552b5e33","","929","
                <div class=""stimulus-container"">
                    <img src=""images/semantic_sequence/using_technology_semantic/using_technology_semantic_6.png"" class=""exp-image"">
                    <div class=""question-area"">
                        <p style=""font-size: 20px; font-weight: bold; margin: 0;"">Is there a person in this image?</p>
                    </div>
                </div>","0","main_experiment_trial","6","using_technology_semantic","semantic_sequence","","","","",""
"","","","","","html-keyboard-response","92","294534","0.0-92.0","63EF96B778AB46489357808A6C21C688","019cf794-eba6-7def-ad5c-9663ed09887d","019cf78c-cfcf-769c-9016-9b96552b5e33","","null","
                <div class=""stimulus-container"">
                    <img src=""images/semantic_sequence/using_technology_semantic/using_technology_semantic_7.png"" class=""exp-image"">
                    <div class=""question-area""></div> 
                </div>","null","","","","","","","","",""
"","","","","","html-button-response","93","295197","0.0-93.0","63EF96B778AB46489357808A6C21C688","019cf794-eba6-7def-ad5c-9663ed09887d","019cf78c-cfcf-769c-9016-9b96552b5e33","","661","
                <div class=""stimulus-container"">
                    <img src=""images/semantic_sequence/using_technology_semantic/using_technology_semantic_7.png"" class=""exp-image"">
                    <div class=""question-area"">
                        <p style=""font-size: 20px; font-weight: bold; margin: 0;"">Is there a person in this image?</p>
                    </div>
                </div>","0","main_experiment_trial","7","using_technology_semantic","semantic_sequence","","","","",""
"","","","","","html-keyboard-response","94","300199","0.0-94.0","63EF96B778AB46489357808A6C21C688","019cf794-eba6-7def-ad5c-9663ed09887d","019cf78c-cfcf-769c-9016-9b96552b5e33","","null","
                <div class=""stimulus-container"">
                    <img src=""images/semantic_sequence/using_technology_semantic/using_technology_semantic_8.png"" class=""exp-image"">
                    <div class=""question-area""></div> 
                </div>","null","","","","","","","","",""
"","","","","","html-button-response","95","300678","0.0-95.0","63EF96B778AB46489357808A6C21C688","019cf794-eba6-7def-ad5c-9663ed09887d","019cf78c-cfcf-769c-9016-9b96552b5e33","","478","
                <div class=""stimulus-container"">
                    <img src=""images/semantic_sequence/using_technology_semantic/using_technology_semantic_8.png"" class=""exp-image"">
                    <div class=""question-area"">
                        <p style=""font-size: 20px; font-weight: bold; margin: 0;"">Is there a person in this image?</p>
                    </div>
                </div>","0","main_experiment_trial","8","using_technology_semantic","semantic_sequence","","","","",""
"","","","","","html-keyboard-response","96","305692","0.0-96.0","63EF96B778AB46489357808A6C21C688","019cf794-eba6-7def-ad5c-9663ed09887d","019cf78c-cfcf-769c-9016-9b96552b5e33","","null","
                <div class=""stimulus-container"">
                    <img src=""images/semantic_sequence/using_technology_semantic/using_technology_semantic_9.png"" class=""exp-image"">
                    <div class=""question-area""></div> 
                </div>","null","","","","","","","","",""
"","","","","","html-button-response","97","307246","0.0-97.0","63EF96B778AB46489357808A6C21C688","019cf794-eba6-7def-ad5c-9663ed09887d","019cf78c-cfcf-769c-9016-9b96552b5e33","","1552","
                <div class=""stimulus-container"">
                    <img src=""images/semantic_sequence/using_technology_semantic/using_technology_semantic_9.png"" class=""exp-image"">
                    <div class=""question-area"">
                        <p style=""font-size: 20px; font-weight: bold; margin: 0;"">Is there a person in this image?</p>
                    </div>
                </div>","0","main_experiment_trial","9","using_technology_semantic","semantic_sequence","","","","",""
"","","","","","html-keyboard-response","98","312261","0.0-98.0","63EF96B778AB46489357808A6C21C688","019cf794-eba6-7def-ad5c-9663ed09887d","019cf78c-cfcf-769c-9016-9b96552b5e33","","null","
                <div class=""stimulus-container"">
                    <img src=""images/semantic_sequence/using_technology_semantic/using_technology_semantic_ten.png"" class=""exp-image"">
                    <div class=""question-area""></div> 
                </div>","null","","","","","","","","",""
"","","","","","html-button-response","99","312885","0.0-99.0","63EF96B778AB46489357808A6C21C688","019cf794-eba6-7def-ad5c-9663ed09887d","019cf78c-cfcf-769c-9016-9b96552b5e33","","622","
                <div class=""stimulus-container"">
                    <img src=""images/semantic_sequence/using_technology_semantic/using_technology_semantic_ten.png"" class=""exp-image"">
                    <div class=""question-area"">
                        <p style=""font-size: 20px; font-weight: bold; margin: 0;"">Is there a person in this image?</p>
                    </div>
                </div>","0","main_experiment_trial","ten","using_technology_semantic","semantic_sequence","","","","",""
"","","","","","html-keyboard-response","100","313900","0.0-100.0","63EF96B778AB46489357808A6C21C688","019cf794-eba6-7def-ad5c-9663ed09887d","019cf78c-cfcf-769c-9016-9b96552b5e33","","null","<div style=""background-color: white; width: 100vw; height: 100vh;""></div>","null","","","","","","","","",""
"","","","","","html-keyboard-response","101","318906","0.0-101.0","63EF96B778AB46489357808A6C21C688","019cf794-eba6-7def-ad5c-9663ed09887d","019cf78c-cfcf-769c-9016-9b96552b5e33","","null","
                <div class=""stimulus-container"">
                    <img src=""images/semantic_sequence/exploring_nature_semantic/exploring_nature_semantic_1.png"" class=""exp-image"">
                    <div class=""question-area""></div> 
                </div>","null","","","","","","","","",""
"","","","","","html-button-response","102","319629","0.0-102.0","63EF96B778AB46489357808A6C21C688","019cf794-eba6-7def-ad5c-9663ed09887d","019cf78c-cfcf-769c-9016-9b96552b5e33","","723","
                <div class=""stimulus-container"">
                    <img src=""images/semantic_sequence/exploring_nature_semantic/exploring_nature_semantic_1.png"" class=""exp-image"">
                    <div class=""question-area"">
                        <p style=""font-size: 20px; font-weight: bold; margin: 0;"">Is there a person in this image?</p>
                    </div>
                </div>","0","main_experiment_trial","1","exploring_nature_semantic","semantic_sequence","","","","",""
"","","","","","html-keyboard-response","103","324632","0.0-103.0","63EF96B778AB46489357808A6C21C688","019cf794-eba6-7def-ad5c-9663ed09887d","019cf78c-cfcf-769c-9016-9b96552b5e33","","null","
                <div class=""stimulus-container"">
                    <img src=""images/semantic_sequence/exploring_nature_semantic/exploring_nature_semantic_2.png"" class=""exp-image"">
                    <div class=""question-area""></div> 
                </div>","null","","","","","","","","",""
"","","","","","html-button-response","104","325518","0.0-104.0","63EF96B778AB46489357808A6C21C688","019cf794-eba6-7def-ad5c-9663ed09887d","019cf78c-cfcf-769c-9016-9b96552b5e33","","884","
                <div class=""stimulus-container"">
                    <img src=""images/semantic_sequence/exploring_nature_semantic/exploring_nature_semantic_2.png"" class=""exp-image"">
                    <div class=""question-area"">
                        <p style=""font-size: 20px; font-weight: bold; margin: 0;"">Is there a person in this image?</p>
                    </div>
                </div>","0","main_experiment_trial","2","exploring_nature_semantic","semantic_sequence","","","","",""
"","","","","","html-keyboard-response","105","330523","0.0-105.0","63EF96B778AB46489357808A6C21C688","019cf794-eba6-7def-ad5c-9663ed09887d","019cf78c-cfcf-769c-9016-9b96552b5e33","","null","
                <div class=""stimulus-container"">
                    <img src=""images/semantic_sequence/exploring_nature_semantic/exploring_nature_semantic_3.png"" class=""exp-image"">
                    <div class=""question-area""></div> 
                </div>","null","","","","","","","","",""
"","","","","","html-button-response","106","331533","0.0-106.0","63EF96B778AB46489357808A6C21C688","019cf794-eba6-7def-ad5c-9663ed09887d","019cf78c-cfcf-769c-9016-9b96552b5e33","","1009","
                <div class=""stimulus-container"">
                    <img src=""images/semantic_sequence/exploring_nature_semantic/exploring_nature_semantic_3.png"" class=""exp-image"">
                    <div class=""question-area"">
                        <p style=""font-size: 20px; font-weight: bold; margin: 0;"">Is there a person in this image?</p>
                    </div>
                </div>","0","main_experiment_trial","3","exploring_nature_semantic","semantic_sequence","","","","",""
"","","","","","html-keyboard-response","107","336546","0.0-107.0","63EF96B778AB46489357808A6C21C688","019cf794-eba6-7def-ad5c-9663ed09887d","019cf78c-cfcf-769c-9016-9b96552b5e33","","null","
                <div class=""stimulus-container"">
                    <img src=""images/semantic_sequence/exploring_nature_semantic/exploring_nature_semantic_4.png"" class=""exp-image"">
                    <div class=""question-area""></div> 
                </div>","null","","","","","","","","",""
"","","","","","html-button-response","108","337350","0.0-108.0","63EF96B778AB46489357808A6C21C688","019cf794-eba6-7def-ad5c-9663ed09887d","019cf78c-cfcf-769c-9016-9b96552b5e33","","803","
                <div class=""stimulus-container"">
                    <img src=""images/semantic_sequence/exploring_nature_semantic/exploring_nature_semantic_4.png"" class=""exp-image"">
                    <div class=""question-area"">
                        <p style=""font-size: 20px; font-weight: bold; margin: 0;"">Is there a person in this image?</p>
                    </div>
                </div>","0","main_experiment_trial","4","exploring_nature_semantic","semantic_sequence","","","","",""
"","","","","","html-keyboard-response","109","342363","0.0-109.0","63EF96B778AB46489357808A6C21C688","019cf794-eba6-7def-ad5c-9663ed09887d","019cf78c-cfcf-769c-9016-9b96552b5e33","","null","
                <div class=""stimulus-container"">
                    <img src=""images/semantic_sequence/exploring_nature_semantic/exploring_nature_semantic_5.png"" class=""exp-image"">
                    <div class=""question-area""></div> 
                </div>","null","","","","","","","","",""
"","","","","","html-button-response","110","345369","0.0-110.0","63EF96B778AB46489357808A6C21C688","019cf794-eba6-7def-ad5c-9663ed09887d","019cf78c-cfcf-769c-9016-9b96552b5e33","","null","
                <div class=""stimulus-container"">
                    <img src=""images/semantic_sequence/exploring_nature_semantic/exploring_nature_semantic_5.png"" class=""exp-image"">
                    <div class=""question-area"">
                        <p style=""font-size: 20px; font-weight: bold; margin: 0;"">Is there a person in this image?</p>
                    </div>
                </div>","null","main_experiment_trial","5","exploring_nature_semantic","semantic_sequence","","","","",""
"","","","","","html-keyboard-response","111","350374","0.0-111.0","63EF96B778AB46489357808A6C21C688","019cf794-eba6-7def-ad5c-9663ed09887d","019cf78c-cfcf-769c-9016-9b96552b5e33","","null","
                <div class=""stimulus-container"">
                    <img src=""images/semantic_sequence/exploring_nature_semantic/exploring_nature_semantic_6.png"" class=""exp-image"">
                    <div class=""question-area""></div> 
                </div>","null","","","","","","","","",""
"","","","","","html-button-response","112","351293","0.0-112.0","63EF96B778AB46489357808A6C21C688","019cf794-eba6-7def-ad5c-9663ed09887d","019cf78c-cfcf-769c-9016-9b96552b5e33","","919","
                <div class=""stimulus-container"">
                    <img src=""images/semantic_sequence/exploring_nature_semantic/exploring_nature_semantic_6.png"" class=""exp-image"">
                    <div class=""question-area"">
                        <p style=""font-size: 20px; font-weight: bold; margin: 0;"">Is there a person in this image?</p>
                    </div>
                </div>","0","main_experiment_trial","6","exploring_nature_semantic","semantic_sequence","","","","",""
"","","","","","html-keyboard-response","113","356298","0.0-113.0","63EF96B778AB46489357808A6C21C688","019cf794-eba6-7def-ad5c-9663ed09887d","019cf78c-cfcf-769c-9016-9b96552b5e33","","null","
                <div class=""stimulus-container"">
                    <img src=""images/semantic_sequence/exploring_nature_semantic/exploring_nature_semantic_7.png"" class=""exp-image"">
                    <div class=""question-area""></div> 
                </div>","null","","","","","","","","",""
"","","","","","html-button-response","114","357485","0.0-114.0","63EF96B778AB46489357808A6C21C688","019cf794-eba6-7def-ad5c-9663ed09887d","019cf78c-cfcf-769c-9016-9b96552b5e33","","1186","
                <div class=""stimulus-container"">
                    <img src=""images/semantic_sequence/exploring_nature_semantic/exploring_nature_semantic_7.png"" class=""exp-image"">
                    <div class=""question-area"">
                        <p style=""font-size: 20px; font-weight: bold; margin: 0;"">Is there a person in this image?</p>
                    </div>
                </div>","0","main_experiment_trial","7","exploring_nature_semantic","semantic_sequence","","","","",""
"","","","","","html-keyboard-response","115","362487","0.0-115.0","63EF96B778AB46489357808A6C21C688","019cf794-eba6-7def-ad5c-9663ed09887d","019cf78c-cfcf-769c-9016-9b96552b5e33","","null","
                <div class=""stimulus-container"">
                    <img src=""images/semantic_sequence/exploring_nature_semantic/exploring_nature_semantic_8.png"" class=""exp-image"">
                    <div class=""question-area""></div> 
                </div>","null","","","","","","","","",""
"","","","","","html-button-response","116","363597","0.0-116.0","63EF96B778AB46489357808A6C21C688","019cf794-eba6-7def-ad5c-9663ed09887d","019cf78c-cfcf-769c-9016-9b96552b5e33","","1109","
                <div class=""stimulus-container"">
                    <img src=""images/semantic_sequence/exploring_nature_semantic/exploring_nature_semantic_8.png"" class=""exp-image"">
                    <div class=""question-area"">
                        <p style=""font-size: 20px; font-weight: bold; margin: 0;"">Is there a person in this image?</p>
                    </div>
                </div>","0","main_experiment_trial","8","exploring_nature_semantic","semantic_sequence","","","","",""
"","","","","","html-keyboard-response","117","368599","0.0-117.0","63EF96B778AB46489357808A6C21C688","019cf794-eba6-7def-ad5c-9663ed09887d","019cf78c-cfcf-769c-9016-9b96552b5e33","","null","
                <div class=""stimulus-container"">
                    <img src=""images/semantic_sequence/exploring_nature_semantic/exploring_nature_semantic_9.png"" class=""exp-image"">
                    <div class=""question-area""></div> 
                </div>","null","","","","","","","","",""
"","","","","","html-button-response","118","369622","0.0-118.0","63EF96B778AB46489357808A6C21C688","019cf794-eba6-7def-ad5c-9663ed09887d","019cf78c-cfcf-769c-9016-9b96552b5e33","","1021","
                <div class=""stimulus-container"">
                    <img src=""images/semantic_sequence/exploring_nature_semantic/exploring_nature_semantic_9.png"" class=""exp-image"">
                    <div class=""question-area"">
                        <p style=""font-size: 20px; font-weight: bold; margin: 0;"">Is there a person in this image?</p>
                    </div>
                </div>","0","main_experiment_trial","9","exploring_nature_semantic","semantic_sequence","","","","",""
"","","","","","html-keyboard-response","119","374631","0.0-119.0","63EF96B778AB46489357808A6C21C688","019cf794-eba6-7def-ad5c-9663ed09887d","019cf78c-cfcf-769c-9016-9b96552b5e33","","null","
                <div class=""stimulus-container"">
                    <img src=""images/semantic_sequence/exploring_nature_semantic/exploring_nature_semantic_ten.png"" class=""exp-image"">
                    <div class=""question-area""></div> 
                </div>","null","","","","","","","","",""
"","","","","","html-button-response","120","375230","0.0-120.0","63EF96B778AB46489357808A6C21C688","019cf794-eba6-7def-ad5c-9663ed09887d","019cf78c-cfcf-769c-9016-9b96552b5e33","","598","
                <div class=""stimulus-container"">
                    <img src=""images/semantic_sequence/exploring_nature_semantic/exploring_nature_semantic_ten.png"" class=""exp-image"">
                    <div class=""question-area"">
                        <p style=""font-size: 20px; font-weight: bold; margin: 0;"">Is there a person in this image?</p>
                    </div>
                </div>","0","main_experiment_trial","ten","exploring_nature_semantic","semantic_sequence","","","","",""
"","","","","","html-keyboard-response","121","376241","0.0-121.0","63EF96B778AB46489357808A6C21C688","019cf794-eba6-7def-ad5c-9663ed09887d","019cf78c-cfcf-769c-9016-9b96552b5e33","","null","<div style=""background-color: white; width: 100vw; height: 100vh;""></div>","null","","","","","","","","",""
"","","","","","html-keyboard-response","122","381248","0.0-122.0","63EF96B778AB46489357808A6C21C688","019cf794-eba6-7def-ad5c-9663ed09887d","019cf78c-cfcf-769c-9016-9b96552b5e33","","null","
                <div class=""stimulus-container"">
                    <img src=""images/semantic_sequence/cat_care_semantic/cat_care_semantic_1.png"" class=""exp-image"">
                    <div class=""question-area""></div> 
                </div>","null","","","","","","","","",""
"","","","","","html-button-response","123","382021","0.0-123.0","63EF96B778AB46489357808A6C21C688","019cf794-eba6-7def-ad5c-9663ed09887d","019cf78c-cfcf-769c-9016-9b96552b5e33","","773","
                <div class=""stimulus-container"">
                    <img src=""images/semantic_sequence/cat_care_semantic/cat_care_semantic_1.png"" class=""exp-image"">
                    <div class=""question-area"">
                        <p style=""font-size: 20px; font-weight: bold; margin: 0;"">Is there a person in this image?</p>
                    </div>
                </div>","0","main_experiment_trial","1","cat_care_semantic","semantic_sequence","","","","",""
"","","","","","html-keyboard-response","124","387035","0.0-124.0","63EF96B778AB46489357808A6C21C688","019cf794-eba6-7def-ad5c-9663ed09887d","019cf78c-cfcf-769c-9016-9b96552b5e33","","null","
                <div class=""stimulus-container"">
                    <img src=""images/semantic_sequence/cat_care_semantic/cat_care_semantic_2.png"" class=""exp-image"">
                    <div class=""question-area""></div> 
                </div>","null","","","","","","","","",""
"","","","","","html-button-response","125","387582","0.0-125.0","63EF96B778AB46489357808A6C21C688","019cf794-eba6-7def-ad5c-9663ed09887d","019cf78c-cfcf-769c-9016-9b96552b5e33","","546","
                <div class=""stimulus-container"">
                    <img src=""images/semantic_sequence/cat_care_semantic/cat_care_semantic_2.png"" class=""exp-image"">
                    <div class=""question-area"">
                        <p style=""font-size: 20px; font-weight: bold; margin: 0;"">Is there a person in this image?</p>
                    </div>
                </div>","0","main_experiment_trial","2","cat_care_semantic","semantic_sequence","","","","",""
"","","","","","html-keyboard-response","126","392588","0.0-126.0","63EF96B778AB46489357808A6C21C688","019cf794-eba6-7def-ad5c-9663ed09887d","019cf78c-cfcf-769c-9016-9b96552b5e33","","null","
                <div class=""stimulus-container"">
                    <img src=""images/semantic_sequence/cat_care_semantic/cat_care_semantic_3.png"" class=""exp-image"">
                    <div class=""question-area""></div> 
                </div>","null","","","","","","","","",""
"","","","","","html-button-response","127","393414","0.0-127.0","63EF96B778AB46489357808A6C21C688","019cf794-eba6-7def-ad5c-9663ed09887d","019cf78c-cfcf-769c-9016-9b96552b5e33","","824","
                <div class=""stimulus-container"">
                    <img src=""images/semantic_sequence/cat_care_semantic/cat_care_semantic_3.png"" class=""exp-image"">
                    <div class=""question-area"">
                        <p style=""font-size: 20px; font-weight: bold; margin: 0;"">Is there a person in this image?</p>
                    </div>
                </div>","0","main_experiment_trial","3","cat_care_semantic","semantic_sequence","","","","",""
"","","","","","html-keyboard-response","128","398430","0.0-128.0","63EF96B778AB46489357808A6C21C688","019cf794-eba6-7def-ad5c-9663ed09887d","019cf78c-cfcf-769c-9016-9b96552b5e33","","null","
                <div class=""stimulus-container"">
                    <img src=""images/semantic_sequence/cat_care_semantic/cat_care_semantic_4.png"" class=""exp-image"">
                    <div class=""question-area""></div> 
                </div>","null","","","","","","","","",""
"","","","","","html-button-response","129","399174","0.0-129.0","63EF96B778AB46489357808A6C21C688","019cf794-eba6-7def-ad5c-9663ed09887d","019cf78c-cfcf-769c-9016-9b96552b5e33","","743","
                <div class=""stimulus-container"">
                    <img src=""images/semantic_sequence/cat_care_semantic/cat_care_semantic_4.png"" class=""exp-image"">
                    <div class=""question-area"">
                        <p style=""font-size: 20px; font-weight: bold; margin: 0;"">Is there a person in this image?</p>
                    </div>
                </div>","0","main_experiment_trial","4","cat_care_semantic","semantic_sequence","","","","",""
"","","","","","html-keyboard-response","130","404188","0.0-130.0","63EF96B778AB46489357808A6C21C688","019cf794-eba6-7def-ad5c-9663ed09887d","019cf78c-cfcf-769c-9016-9b96552b5e33","","null","
                <div class=""stimulus-container"">
                    <img src=""images/semantic_sequence/cat_care_semantic/cat_care_semantic_5.png"" class=""exp-image"">
                    <div class=""question-area""></div> 
                </div>","null","","","","","","","","",""
"","","","","","html-button-response","131","406982","0.0-131.0","63EF96B778AB46489357808A6C21C688","019cf794-eba6-7def-ad5c-9663ed09887d","019cf78c-cfcf-769c-9016-9b96552b5e33","","2793","
                <div class=""stimulus-container"">
                    <img src=""images/semantic_sequence/cat_care_semantic/cat_care_semantic_5.png"" class=""exp-image"">
                    <div class=""question-area"">
                        <p style=""font-size: 20px; font-weight: bold; margin: 0;"">Is there a person in this image?</p>
                    </div>
                </div>","0","main_experiment_trial","5","cat_care_semantic","semantic_sequence","","","","",""
"","","","","","html-keyboard-response","132","411998","0.0-132.0","63EF96B778AB46489357808A6C21C688","019cf794-eba6-7def-ad5c-9663ed09887d","019cf78c-cfcf-769c-9016-9b96552b5e33","","null","
                <div class=""stimulus-container"">
                    <img src=""images/semantic_sequence/cat_care_semantic/cat_care_semantic_6.png"" class=""exp-image"">
                    <div class=""question-area""></div> 
                </div>","null","","","","","","","","",""
"","","","","","html-button-response","133","415005","0.0-133.0","63EF96B778AB46489357808A6C21C688","019cf794-eba6-7def-ad5c-9663ed09887d","019cf78c-cfcf-769c-9016-9b96552b5e33","","null","
                <div class=""stimulus-container"">
                    <img src=""images/semantic_sequence/cat_care_semantic/cat_care_semantic_6.png"" class=""exp-image"">
                    <div class=""question-area"">
                        <p style=""font-size: 20px; font-weight: bold; margin: 0;"">Is there a person in this image?</p>
                    </div>
                </div>","null","main_experiment_trial","6","cat_care_semantic","semantic_sequence","","","","",""
"","","","","","html-keyboard-response","134","420012","0.0-134.0","63EF96B778AB46489357808A6C21C688","019cf794-eba6-7def-ad5c-9663ed09887d","019cf78c-cfcf-769c-9016-9b96552b5e33","","null","
                <div class=""stimulus-container"">
                    <img src=""images/semantic_sequence/cat_care_semantic/cat_care_semantic_7.png"" class=""exp-image"">
                    <div class=""question-area""></div> 
                </div>","null","","","","","","","","",""
"","","","","","html-button-response","135","420526","0.0-135.0","63EF96B778AB46489357808A6C21C688","019cf794-eba6-7def-ad5c-9663ed09887d","019cf78c-cfcf-769c-9016-9b96552b5e33","","512","
                <div class=""stimulus-container"">
                    <img src=""images/semantic_sequence/cat_care_semantic/cat_care_semantic_7.png"" class=""exp-image"">
                    <div class=""question-area"">
                        <p style=""font-size: 20px; font-weight: bold; margin: 0;"">Is there a person in this image?</p>
                    </div>
                </div>","0","main_experiment_trial","7","cat_care_semantic","semantic_sequence","","","","",""
"","","","","","html-keyboard-response","136","425539","0.0-136.0","63EF96B778AB46489357808A6C21C688","019cf794-eba6-7def-ad5c-9663ed09887d","019cf78c-cfcf-769c-9016-9b96552b5e33","","null","
                <div class=""stimulus-container"">
                    <img src=""images/semantic_sequence/cat_care_semantic/cat_care_semantic_8.png"" class=""exp-image"">
                    <div class=""question-area""></div> 
                </div>","null","","","","","","","","",""
"","","","","","html-button-response","137","426846","0.0-137.0","63EF96B778AB46489357808A6C21C688","019cf794-eba6-7def-ad5c-9663ed09887d","019cf78c-cfcf-769c-9016-9b96552b5e33","","1306","
                <div class=""stimulus-container"">
                    <img src=""images/semantic_sequence/cat_care_semantic/cat_care_semantic_8.png"" class=""exp-image"">
                    <div class=""question-area"">
                        <p style=""font-size: 20px; font-weight: bold; margin: 0;"">Is there a person in this image?</p>
                    </div>
                </div>","0","main_experiment_trial","8","cat_care_semantic","semantic_sequence","","","","",""
"","","","","","html-keyboard-response","138","431847","0.0-138.0","63EF96B778AB46489357808A6C21C688","019cf794-eba6-7def-ad5c-9663ed09887d","019cf78c-cfcf-769c-9016-9b96552b5e33","","null","
                <div class=""stimulus-container"">
                    <img src=""images/semantic_sequence/cat_care_semantic/cat_care_semantic_9.png"" class=""exp-image"">
                    <div class=""question-area""></div> 
                </div>","null","","","","","","","","",""
"","","","","","html-button-response","139","434861","0.0-139.0","63EF96B778AB46489357808A6C21C688","019cf794-eba6-7def-ad5c-9663ed09887d","019cf78c-cfcf-769c-9016-9b96552b5e33","","null","
                <div class=""stimulus-container"">
                    <img src=""images/semantic_sequence/cat_care_semantic/cat_care_semantic_9.png"" class=""exp-image"">
                    <div class=""question-area"">
                        <p style=""font-size: 20px; font-weight: bold; margin: 0;"">Is there a person in this image?</p>
                    </div>
                </div>","null","main_experiment_trial","9","cat_care_semantic","semantic_sequence","","","","",""
"","","","","","html-keyboard-response","140","439864","0.0-140.0","63EF96B778AB46489357808A6C21C688","019cf794-eba6-7def-ad5c-9663ed09887d","019cf78c-cfcf-769c-9016-9b96552b5e33","","null","
                <div class=""stimulus-container"">
                    <img src=""images/semantic_sequence/cat_care_semantic/cat_care_semantic_ten.png"" class=""exp-image"">
                    <div class=""question-area""></div> 
                </div>","null","","","","","","","","",""
"","","","","","html-button-response","141","441070","0.0-141.0","63EF96B778AB46489357808A6C21C688","019cf794-eba6-7def-ad5c-9663ed09887d","019cf78c-cfcf-769c-9016-9b96552b5e33","","1206","
                <div class=""stimulus-container"">
                    <img src=""images/semantic_sequence/cat_care_semantic/cat_care_semantic_ten.png"" class=""exp-image"">
                    <div class=""question-area"">
                        <p style=""font-size: 20px; font-weight: bold; margin: 0;"">Is there a person in this image?</p>
                    </div>
                </div>","1","main_experiment_trial","ten","cat_care_semantic","semantic_sequence","","","","",""
"","","","","","html-keyboard-response","142","442078","0.0-142.0","63EF96B778AB46489357808A6C21C688","019cf794-eba6-7def-ad5c-9663ed09887d","019cf78c-cfcf-769c-9016-9b96552b5e33","","null","<div style=""background-color: white; width: 100vw; height: 100vh;""></div>","null","","","","","","","","",""
"","","","","","html-keyboard-response","143","447093","0.0-143.0","63EF96B778AB46489357808A6C21C688","019cf794-eba6-7def-ad5c-9663ed09887d","019cf78c-cfcf-769c-9016-9b96552b5e33","","null","
                <div class=""stimulus-container"">
                    <img src=""images/schematic_sequence/flight_scheme/flight_scheme_1.png"" class=""exp-image"">
                    <div class=""question-area""></div> 
                </div>","null","","","","","","","","",""
"","","","","","html-button-response","144","448006","0.0-144.0","63EF96B778AB46489357808A6C21C688","019cf794-eba6-7def-ad5c-9663ed09887d","019cf78c-cfcf-769c-9016-9b96552b5e33","","911","
                <div class=""stimulus-container"">
                    <img src=""images/schematic_sequence/flight_scheme/flight_scheme_1.png"" class=""exp-image"">
                    <div class=""question-area"">
                        <p style=""font-size: 20px; font-weight: bold; margin: 0;"">Is there a person in this image?</p>
                    </div>
                </div>","0","main_experiment_trial","1","flight_scheme","schematic_sequence","","","","",""
"","","","","","html-keyboard-response","145","453021","0.0-145.0","63EF96B778AB46489357808A6C21C688","019cf794-eba6-7def-ad5c-9663ed09887d","019cf78c-cfcf-769c-9016-9b96552b5e33","","null","
                <div class=""stimulus-container"">
                    <img src=""images/schematic_sequence/flight_scheme/flight_scheme_2.png"" class=""exp-image"">
                    <div class=""question-area""></div> 
                </div>","null","","","","","","","","",""
"","","","","","html-button-response","146","454006","0.0-146.0","63EF96B778AB46489357808A6C21C688","019cf794-eba6-7def-ad5c-9663ed09887d","019cf78c-cfcf-769c-9016-9b96552b5e33","","984","
                <div class=""stimulus-container"">
                    <img src=""images/schematic_sequence/flight_scheme/flight_scheme_2.png"" class=""exp-image"">
                    <div class=""question-area"">
                        <p style=""font-size: 20px; font-weight: bold; margin: 0;"">Is there a person in this image?</p>
                    </div>
                </div>","1","main_experiment_trial","2","flight_scheme","schematic_sequence","","","","",""
"","","","","","html-keyboard-response","147","459009","0.0-147.0","63EF96B778AB46489357808A6C21C688","019cf794-eba6-7def-ad5c-9663ed09887d","019cf78c-cfcf-769c-9016-9b96552b5e33","","null","
                <div class=""stimulus-container"">
                    <img src=""images/schematic_sequence/flight_scheme/flight_scheme_3.png"" class=""exp-image"">
                    <div class=""question-area""></div> 
                </div>","null","","","","","","","","",""
"","","","","","html-button-response","148","460246","0.0-148.0","63EF96B778AB46489357808A6C21C688","019cf794-eba6-7def-ad5c-9663ed09887d","019cf78c-cfcf-769c-9016-9b96552b5e33","","1236","
                <div class=""stimulus-container"">
                    <img src=""images/schematic_sequence/flight_scheme/flight_scheme_3.png"" class=""exp-image"">
                    <div class=""question-area"">
                        <p style=""font-size: 20px; font-weight: bold; margin: 0;"">Is there a person in this image?</p>
                    </div>
                </div>","0","main_experiment_trial","3","flight_scheme","schematic_sequence","","","","",""
"","","","","","html-keyboard-response","149","465253","0.0-149.0","63EF96B778AB46489357808A6C21C688","019cf794-eba6-7def-ad5c-9663ed09887d","019cf78c-cfcf-769c-9016-9b96552b5e33","","null","
                <div class=""stimulus-container"">
                    <img src=""images/schematic_sequence/flight_scheme/flight_scheme_4.png"" class=""exp-image"">
                    <div class=""question-area""></div> 
                </div>","null","","","","","","","","",""
"","","","","","html-button-response","150","465878","0.0-150.0","63EF96B778AB46489357808A6C21C688","019cf794-eba6-7def-ad5c-9663ed09887d","019cf78c-cfcf-769c-9016-9b96552b5e33","","623","
                <div class=""stimulus-container"">
                    <img src=""images/schematic_sequence/flight_scheme/flight_scheme_4.png"" class=""exp-image"">
                    <div class=""question-area"">
                        <p style=""font-size: 20px; font-weight: bold; margin: 0;"">Is there a person in this image?</p>
                    </div>
                </div>","0","main_experiment_trial","4","flight_scheme","schematic_sequence","","","","",""
"","","","","","html-keyboard-response","151","470882","0.0-151.0","63EF96B778AB46489357808A6C21C688","019cf794-eba6-7def-ad5c-9663ed09887d","019cf78c-cfcf-769c-9016-9b96552b5e33","","null","
                <div class=""stimulus-container"">
                    <img src=""images/schematic_sequence/flight_scheme/flight_scheme_5.png"" class=""exp-image"">
                    <div class=""question-area""></div> 
                </div>","null","","","","","","","","",""
"","","","","","html-button-response","152","472846","0.0-152.0","63EF96B778AB46489357808A6C21C688","019cf794-eba6-7def-ad5c-9663ed09887d","019cf78c-cfcf-769c-9016-9b96552b5e33","","1964","
                <div class=""stimulus-container"">
                    <img src=""images/schematic_sequence/flight_scheme/flight_scheme_5.png"" class=""exp-image"">
                    <div class=""question-area"">
                        <p style=""font-size: 20px; font-weight: bold; margin: 0;"">Is there a person in this image?</p>
                    </div>
                </div>","0","main_experiment_trial","5","flight_scheme","schematic_sequence","","","","",""
"","","","","","html-keyboard-response","153","477852","0.0-153.0","63EF96B778AB46489357808A6C21C688","019cf794-eba6-7def-ad5c-9663ed09887d","019cf78c-cfcf-769c-9016-9b96552b5e33","","null","
                <div class=""stimulus-container"">
                    <img src=""images/schematic_sequence/flight_scheme/flight_scheme_6.png"" class=""exp-image"">
                    <div class=""question-area""></div> 
                </div>","null","","","","","","","","",""
"","","","","","html-button-response","154","480022","0.0-154.0","63EF96B778AB46489357808A6C21C688","019cf794-eba6-7def-ad5c-9663ed09887d","019cf78c-cfcf-769c-9016-9b96552b5e33","","2168","
                <div class=""stimulus-container"">
                    <img src=""images/schematic_sequence/flight_scheme/flight_scheme_6.png"" class=""exp-image"">
                    <div class=""question-area"">
                        <p style=""font-size: 20px; font-weight: bold; margin: 0;"">Is there a person in this image?</p>
                    </div>
                </div>","1","main_experiment_trial","6","flight_scheme","schematic_sequence","","","","",""
"","","","","","html-keyboard-response","155","485031","0.0-155.0","63EF96B778AB46489357808A6C21C688","019cf794-eba6-7def-ad5c-9663ed09887d","019cf78c-cfcf-769c-9016-9b96552b5e33","","null","
                <div class=""stimulus-container"">
                    <img src=""images/schematic_sequence/flight_scheme/flight_scheme_7.png"" class=""exp-image"">
                    <div class=""question-area""></div> 
                </div>","null","","","","","","","","",""
"","","","","","html-button-response","156","488038","0.0-156.0","63EF96B778AB46489357808A6C21C688","019cf794-eba6-7def-ad5c-9663ed09887d","019cf78c-cfcf-769c-9016-9b96552b5e33","","null","
                <div class=""stimulus-container"">
                    <img src=""images/schematic_sequence/flight_scheme/flight_scheme_7.png"" class=""exp-image"">
                    <div class=""question-area"">
                        <p style=""font-size: 20px; font-weight: bold; margin: 0;"">Is there a person in this image?</p>
                    </div>
                </div>","null","main_experiment_trial","7","flight_scheme","schematic_sequence","","","","",""
"","","","","","html-keyboard-response","157","493047","0.0-157.0","63EF96B778AB46489357808A6C21C688","019cf794-eba6-7def-ad5c-9663ed09887d","019cf78c-cfcf-769c-9016-9b96552b5e33","","null","
                <div class=""stimulus-container"">
                    <img src=""images/schematic_sequence/flight_scheme/flight_scheme_8.png"" class=""exp-image"">
                    <div class=""question-area""></div> 
                </div>","null","","","","","","","","",""
"","","","","","html-button-response","158","493542","0.0-158.0","63EF96B778AB46489357808A6C21C688","019cf794-eba6-7def-ad5c-9663ed09887d","019cf78c-cfcf-769c-9016-9b96552b5e33","","494","
                <div class=""stimulus-container"">
                    <img src=""images/schematic_sequence/flight_scheme/flight_scheme_8.png"" class=""exp-image"">
                    <div class=""question-area"">
                        <p style=""font-size: 20px; font-weight: bold; margin: 0;"">Is there a person in this image?</p>
                    </div>
                </div>","1","main_experiment_trial","8","flight_scheme","schematic_sequence","","","","",""
"","","","","","html-keyboard-response","159","498546","0.0-159.0","63EF96B778AB46489357808A6C21C688","019cf794-eba6-7def-ad5c-9663ed09887d","019cf78c-cfcf-769c-9016-9b96552b5e33","","null","
                <div class=""stimulus-container"">
                    <img src=""images/schematic_sequence/flight_scheme/flight_scheme_9.png"" class=""exp-image"">
                    <div class=""question-area""></div> 
                </div>","null","","","","","","","","",""
"","","","","","html-button-response","160","499334","0.0-160.0","63EF96B778AB46489357808A6C21C688","019cf794-eba6-7def-ad5c-9663ed09887d","019cf78c-cfcf-769c-9016-9b96552b5e33","","788","
                <div class=""stimulus-container"">
                    <img src=""images/schematic_sequence/flight_scheme/flight_scheme_9.png"" class=""exp-image"">
                    <div class=""question-area"">
                        <p style=""font-size: 20px; font-weight: bold; margin: 0;"">Is there a person in this image?</p>
                    </div>
                </div>","0","main_experiment_trial","9","flight_scheme","schematic_sequence","","","","",""
"","","","","","html-keyboard-response","161","504341","0.0-161.0","63EF96B778AB46489357808A6C21C688","019cf794-eba6-7def-ad5c-9663ed09887d","019cf78c-cfcf-769c-9016-9b96552b5e33","","null","
                <div class=""stimulus-container"">
                    <img src=""images/schematic_sequence/flight_scheme/flight_scheme_ten.png"" class=""exp-image"">
                    <div class=""question-area""></div> 
                </div>","null","","","","","","","","",""
"","","","","","html-button-response","162","505182","0.0-162.0","63EF96B778AB46489357808A6C21C688","019cf794-eba6-7def-ad5c-9663ed09887d","019cf78c-cfcf-769c-9016-9b96552b5e33","","840","
                <div class=""stimulus-container"">
                    <img src=""images/schematic_sequence/flight_scheme/flight_scheme_ten.png"" class=""exp-image"">
                    <div class=""question-area"">
                        <p style=""font-size: 20px; font-weight: bold; margin: 0;"">Is there a person in this image?</p>
                    </div>
                </div>","0","main_experiment_trial","ten","flight_scheme","schematic_sequence","","","","",""
"","","","","","html-keyboard-response","163","506191","0.0-163.0","63EF96B778AB46489357808A6C21C688","019cf794-eba6-7def-ad5c-9663ed09887d","019cf78c-cfcf-769c-9016-9b96552b5e33","","null","<div style=""background-color: white; width: 100vw; height: 100vh;""></div>","null","","","","","","","","",""
"","","","","","html-keyboard-response","164","511208","0.0-164.0","63EF96B778AB46489357808A6C21C688","019cf794-eba6-7def-ad5c-9663ed09887d","019cf78c-cfcf-769c-9016-9b96552b5e33","","null","
                <div class=""stimulus-container"">
                    <img src=""images/semantic_sequence/physical_activity_semantic/physical_activity_semantic_1.png"" class=""exp-image"">
                    <div class=""question-area""></div> 
                </div>","null","","","","","","","","",""
"","","","","","html-button-response","165","511806","0.0-165.0","63EF96B778AB46489357808A6C21C688","019cf794-eba6-7def-ad5c-9663ed09887d","019cf78c-cfcf-769c-9016-9b96552b5e33","","597","
                <div class=""stimulus-container"">
                    <img src=""images/semantic_sequence/physical_activity_semantic/physical_activity_semantic_1.png"" class=""exp-image"">
                    <div class=""question-area"">
                        <p style=""font-size: 20px; font-weight: bold; margin: 0;"">Is there a person in this image?</p>
                    </div>
                </div>","0","main_experiment_trial","1","physical_activity_semantic","semantic_sequence","","","","",""
"","","","","","html-keyboard-response","166","516821","0.0-166.0","63EF96B778AB46489357808A6C21C688","019cf794-eba6-7def-ad5c-9663ed09887d","019cf78c-cfcf-769c-9016-9b96552b5e33","","null","
                <div class=""stimulus-container"">
                    <img src=""images/semantic_sequence/physical_activity_semantic/physical_activity_semantic_2.png"" class=""exp-image"">
                    <div class=""question-area""></div> 
                </div>","null","","","","","","","","",""
"","","","","","html-button-response","167","517269","0.0-167.0","63EF96B778AB46489357808A6C21C688","019cf794-eba6-7def-ad5c-9663ed09887d","019cf78c-cfcf-769c-9016-9b96552b5e33","","447","
                <div class=""stimulus-container"">
                    <img src=""images/semantic_sequence/physical_activity_semantic/physical_activity_semantic_2.png"" class=""exp-image"">
                    <div class=""question-area"">
                        <p style=""font-size: 20px; font-weight: bold; margin: 0;"">Is there a person in this image?</p>
                    </div>
                </div>","0","main_experiment_trial","2","physical_activity_semantic","semantic_sequence","","","","",""
"","","","","","html-keyboard-response","168","522285","0.0-168.0","63EF96B778AB46489357808A6C21C688","019cf794-eba6-7def-ad5c-9663ed09887d","019cf78c-cfcf-769c-9016-9b96552b5e33","","null","
                <div class=""stimulus-container"">
                    <img src=""images/semantic_sequence/physical_activity_semantic/physical_activity_semantic_3.png"" class=""exp-image"">
                    <div class=""question-area""></div> 
                </div>","null","","","","","","","","",""
"","","","","","html-button-response","169","522727","0.0-169.0","63EF96B778AB46489357808A6C21C688","019cf794-eba6-7def-ad5c-9663ed09887d","019cf78c-cfcf-769c-9016-9b96552b5e33","","441","
                <div class=""stimulus-container"">
                    <img src=""images/semantic_sequence/physical_activity_semantic/physical_activity_semantic_3.png"" class=""exp-image"">
                    <div class=""question-area"">
                        <p style=""font-size: 20px; font-weight: bold; margin: 0;"">Is there a person in this image?</p>
                    </div>
                </div>","0","main_experiment_trial","3","physical_activity_semantic","semantic_sequence","","","","",""
"","","","","","html-keyboard-response","170","527730","0.0-170.0","63EF96B778AB46489357808A6C21C688","019cf794-eba6-7def-ad5c-9663ed09887d","019cf78c-cfcf-769c-9016-9b96552b5e33","","null","
                <div class=""stimulus-container"">
                    <img src=""images/semantic_sequence/physical_activity_semantic/physical_activity_semantic_4.png"" class=""exp-image"">
                    <div class=""question-area""></div> 
                </div>","null","","","","","","","","",""
"","","","","","html-button-response","171","528285","0.0-171.0","63EF96B778AB46489357808A6C21C688","019cf794-eba6-7def-ad5c-9663ed09887d","019cf78c-cfcf-769c-9016-9b96552b5e33","","553","
                <div class=""stimulus-container"">
                    <img src=""images/semantic_sequence/physical_activity_semantic/physical_activity_semantic_4.png"" class=""exp-image"">
                    <div class=""question-area"">
                        <p style=""font-size: 20px; font-weight: bold; margin: 0;"">Is there a person in this image?</p>
                    </div>
                </div>","0","main_experiment_trial","4","physical_activity_semantic","semantic_sequence","","","","",""
"","","","","","html-keyboard-response","172","533299","0.0-172.0","63EF96B778AB46489357808A6C21C688","019cf794-eba6-7def-ad5c-9663ed09887d","019cf78c-cfcf-769c-9016-9b96552b5e33","","null","
                <div class=""stimulus-container"">
                    <img src=""images/semantic_sequence/physical_activity_semantic/physical_activity_semantic_5.png"" class=""exp-image"">
                    <div class=""question-area""></div> 
                </div>","null","","","","","","","","",""
"","","","","","html-button-response","173","534006","0.0-173.0","63EF96B778AB46489357808A6C21C688","019cf794-eba6-7def-ad5c-9663ed09887d","019cf78c-cfcf-769c-9016-9b96552b5e33","","706","
                <div class=""stimulus-container"">
                    <img src=""images/semantic_sequence/physical_activity_semantic/physical_activity_semantic_5.png"" class=""exp-image"">
                    <div class=""question-area"">
                        <p style=""font-size: 20px; font-weight: bold; margin: 0;"">Is there a person in this image?</p>
                    </div>
                </div>","0","main_experiment_trial","5","physical_activity_semantic","semantic_sequence","","","","",""
"","","","","","html-keyboard-response","174","539022","0.0-174.0","63EF96B778AB46489357808A6C21C688","019cf794-eba6-7def-ad5c-9663ed09887d","019cf78c-cfcf-769c-9016-9b96552b5e33","","null","
                <div class=""stimulus-container"">
                    <img src=""images/semantic_sequence/physical_activity_semantic/physical_activity_semantic_6.png"" class=""exp-image"">
                    <div class=""question-area""></div> 
                </div>","null","","","","","","","","",""
"","","","","","html-button-response","175","539590","0.0-175.0","63EF96B778AB46489357808A6C21C688","019cf794-eba6-7def-ad5c-9663ed09887d","019cf78c-cfcf-769c-9016-9b96552b5e33","","567","
                <div class=""stimulus-container"">
                    <img src=""images/semantic_sequence/physical_activity_semantic/physical_activity_semantic_6.png"" class=""exp-image"">
                    <div class=""question-area"">
                        <p style=""font-size: 20px; font-weight: bold; margin: 0;"">Is there a person in this image?</p>
                    </div>
                </div>","0","main_experiment_trial","6","physical_activity_semantic","semantic_sequence","","","","",""
"","","","","","html-keyboard-response","176","544604","0.0-176.0","63EF96B778AB46489357808A6C21C688","019cf794-eba6-7def-ad5c-9663ed09887d","019cf78c-cfcf-769c-9016-9b96552b5e33","","null","
                <div class=""stimulus-container"">
                    <img src=""images/semantic_sequence/physical_activity_semantic/physical_activity_semantic_7.png"" class=""exp-image"">
                    <div class=""question-area""></div> 
                </div>","null","","","","","","","","",""
"","","","","","html-button-response","177","545503","0.0-177.0","63EF96B778AB46489357808A6C21C688","019cf794-eba6-7def-ad5c-9663ed09887d","019cf78c-cfcf-769c-9016-9b96552b5e33","","898","
                <div class=""stimulus-container"">
                    <img src=""images/semantic_sequence/physical_activity_semantic/physical_activity_semantic_7.png"" class=""exp-image"">
                    <div class=""question-area"">
                        <p style=""font-size: 20px; font-weight: bold; margin: 0;"">Is there a person in this image?</p>
                    </div>
                </div>","0","main_experiment_trial","7","physical_activity_semantic","semantic_sequence","","","","",""
"","","","","","html-keyboard-response","178","550519","0.0-178.0","63EF96B778AB46489357808A6C21C688","019cf794-eba6-7def-ad5c-9663ed09887d","019cf78c-cfcf-769c-9016-9b96552b5e33","","null","
                <div class=""stimulus-container"">
                    <img src=""images/semantic_sequence/physical_activity_semantic/physical_activity_semantic_8.png"" class=""exp-image"">
                    <div class=""question-area""></div> 
