"success","timeout","failed_images","failed_audio","failed_video","trial_type","trial_index","time_elapsed","internal_node_id","subject_id","study_id","session_id","view_history","rt","stimulus","response","task","image_index","folder","sequence_type","valuable_image_index","reward_type","chosen_image_index","correct_choice"
"true","false","[]","[]","[]","preload","0","4516","0.0-0.0","C81A573CDE2949E39FE921AC0A0401B4","019cee5a-8467-7519-9ec0-364a42ad1a78","019cee47-f225-7d34-90ea-6a2b73898f7d","","","","","","","","","","","",""
"","","","","","instructions","1","6291","0.0-1.0","C81A573CDE2949E39FE921AC0A0401B4","019cee5a-8467-7519-9ec0-364a42ad1a78","019cee47-f225-7d34-90ea-6a2b73898f7d","[{""page_index"":0,""viewing_time"":1774}]","1774","","","","","","","","","",""
"","","","","","instructions","2","10640","0.0-2.0","C81A573CDE2949E39FE921AC0A0401B4","019cee5a-8467-7519-9ec0-364a42ad1a78","019cee47-f225-7d34-90ea-6a2b73898f7d","[{""page_index"":0,""viewing_time"":4348}]","4348","","","","","","","","","",""
"true","","","","","fullscreen","3","13935","0.0-3.0","C81A573CDE2949E39FE921AC0A0401B4","019cee5a-8467-7519-9ec0-364a42ad1a78","019cee47-f225-7d34-90ea-6a2b73898f7d","","2291","","","","","","","","","",""
"","","","","","instructions","4","74712","0.0-4.0","C81A573CDE2949E39FE921AC0A0401B4","019cee5a-8467-7519-9ec0-364a42ad1a78","019cee47-f225-7d34-90ea-6a2b73898f7d","[{""page_index"":0,""viewing_time"":60776}]","60777","","","","","","","","","",""
"","","","","","instructions","5","76839","0.0-5.0","C81A573CDE2949E39FE921AC0A0401B4","019cee5a-8467-7519-9ec0-364a42ad1a78","019cee47-f225-7d34-90ea-6a2b73898f7d","[{""page_index"":0,""viewing_time"":2126}]","2126","","","","","","","","","",""
"","","","","","html-keyboard-response","6","80842","0.0-6.0","C81A573CDE2949E39FE921AC0A0401B4","019cee5a-8467-7519-9ec0-364a42ad1a78","019cee47-f225-7d34-90ea-6a2b73898f7d","","null","
                <div class=""stimulus-container"">
                    <img src=""images/instructions/movie_1.png"" class=""exp-image"">
                    <div class=""question-area""></div> 
                </div>","null","","","","","","","",""
"","","","","","html-button-response","7","82902","0.0-7.0","C81A573CDE2949E39FE921AC0A0401B4","019cee5a-8467-7519-9ec0-364a42ad1a78","019cee47-f225-7d34-90ea-6a2b73898f7d","","2057","
                <div class=""stimulus-container"">
                    <img src=""images/instructions/movie_1.png"" class=""exp-image"">
                    <div class=""question-area"">
                        <p style=""font-size: 20px; font-weight: bold; margin: 0;"">Was there a person in this image?</p>
                    </div>
                </div>","0","example_question","1","","","","","",""
"","","","","","html-keyboard-response","8","86905","0.0-8.0","C81A573CDE2949E39FE921AC0A0401B4","019cee5a-8467-7519-9ec0-364a42ad1a78","019cee47-f225-7d34-90ea-6a2b73898f7d","","null","
                <div class=""stimulus-container"">
                    <img src=""images/instructions/movie_2.png"" class=""exp-image"">
                    <div class=""question-area""></div> 
                </div>","null","","","","","","","",""
"","","","","","html-button-response","9","88668","0.0-9.0","C81A573CDE2949E39FE921AC0A0401B4","019cee5a-8467-7519-9ec0-364a42ad1a78","019cee47-f225-7d34-90ea-6a2b73898f7d","","1761","
                <div class=""stimulus-container"">
                    <img src=""images/instructions/movie_2.png"" class=""exp-image"">
                    <div class=""question-area"">
                        <p style=""font-size: 20px; font-weight: bold; margin: 0;"">Was there a person in this image?</p>
                    </div>
                </div>","0","example_question","2","","","","","",""
"","","","","","html-keyboard-response","10","92670","0.0-10.0","C81A573CDE2949E39FE921AC0A0401B4","019cee5a-8467-7519-9ec0-364a42ad1a78","019cee47-f225-7d34-90ea-6a2b73898f7d","","null","
                <div class=""stimulus-container"">
                    <img src=""images/instructions/movie_3.png"" class=""exp-image"">
                    <div class=""question-area""></div> 
                </div>","null","","","","","","","",""
"","","","","","html-button-response","11","93167","0.0-11.0","C81A573CDE2949E39FE921AC0A0401B4","019cee5a-8467-7519-9ec0-364a42ad1a78","019cee47-f225-7d34-90ea-6a2b73898f7d","","497","
                <div class=""stimulus-container"">
                    <img src=""images/instructions/movie_3.png"" class=""exp-image"">
                    <div class=""question-area"">
                        <p style=""font-size: 20px; font-weight: bold; margin: 0;"">Was there a person in this image?</p>
                    </div>
                </div>","0","example_question","3","","","","","",""
"","","","","","html-keyboard-response","12","97170","0.0-12.0","C81A573CDE2949E39FE921AC0A0401B4","019cee5a-8467-7519-9ec0-364a42ad1a78","019cee47-f225-7d34-90ea-6a2b73898f7d","","null","
                <div class=""stimulus-container"">
                    <img src=""images/instructions/movie_4.png"" class=""exp-image"">
                    <div class=""question-area""></div> 
                </div>","null","","","","","","","",""
"","","","","","html-button-response","13","97998","0.0-13.0","C81A573CDE2949E39FE921AC0A0401B4","019cee5a-8467-7519-9ec0-364a42ad1a78","019cee47-f225-7d34-90ea-6a2b73898f7d","","826","
                <div class=""stimulus-container"">
                    <img src=""images/instructions/movie_4.png"" class=""exp-image"">
                    <div class=""question-area"">
                        <p style=""font-size: 20px; font-weight: bold; margin: 0;"">Was there a person in this image?</p>
                    </div>
                </div>","0","example_question","4","","","","","",""
"","","","","","instructions","14","101006","0.0-14.0","C81A573CDE2949E39FE921AC0A0401B4","019cee5a-8467-7519-9ec0-364a42ad1a78","019cee47-f225-7d34-90ea-6a2b73898f7d","[{""page_index"":0,""viewing_time"":3007}]","3008","","","","","","","","","",""
"","","","","","instructions","15","113731","0.0-15.0","C81A573CDE2949E39FE921AC0A0401B4","019cee5a-8467-7519-9ec0-364a42ad1a78","019cee47-f225-7d34-90ea-6a2b73898f7d","[{""page_index"":0,""viewing_time"":12723}]","12724","","","","","","","","","",""
"","","","","","html-keyboard-response","16","114732","0.0-16.0","C81A573CDE2949E39FE921AC0A0401B4","019cee5a-8467-7519-9ec0-364a42ad1a78","019cee47-f225-7d34-90ea-6a2b73898f7d","","null","<div style=""background-color: white; width: 100vw; height: 100vh;""></div>","null","","","","","","","",""
"","","","","","html-keyboard-response","17","119734","0.0-17.0","C81A573CDE2949E39FE921AC0A0401B4","019cee5a-8467-7519-9ec0-364a42ad1a78","019cee47-f225-7d34-90ea-6a2b73898f7d","","null","
                <div class=""stimulus-container"">
                    <img src=""images/causal_sequence/package_causal/package_causal_1.png"" class=""exp-image"">
                    <div class=""question-area""></div> 
                </div>","null","","","","","","","",""
"","","","","","html-button-response","18","120951","0.0-18.0","C81A573CDE2949E39FE921AC0A0401B4","019cee5a-8467-7519-9ec0-364a42ad1a78","019cee47-f225-7d34-90ea-6a2b73898f7d","","1216","
                <div class=""stimulus-container"">
                    <img src=""images/causal_sequence/package_causal/package_causal_1.png"" class=""exp-image"">
                    <div class=""question-area"">
                        <p style=""font-size: 20px; font-weight: bold; margin: 0;"">Is there a person in this image?</p>
                    </div>
                </div>","0","main_experiment_trial","1","package_causal","causal_sequence","","","",""
"","","","","","html-keyboard-response","19","125954","0.0-19.0","C81A573CDE2949E39FE921AC0A0401B4","019cee5a-8467-7519-9ec0-364a42ad1a78","019cee47-f225-7d34-90ea-6a2b73898f7d","","null","
                <div class=""stimulus-container"">
                    <img src=""images/causal_sequence/package_causal/package_causal_2.png"" class=""exp-image"">
                    <div class=""question-area""></div> 
                </div>","null","","","","","","","",""
"","","","","","html-button-response","20","126867","0.0-20.0","C81A573CDE2949E39FE921AC0A0401B4","019cee5a-8467-7519-9ec0-364a42ad1a78","019cee47-f225-7d34-90ea-6a2b73898f7d","","912","
                <div class=""stimulus-container"">
                    <img src=""images/causal_sequence/package_causal/package_causal_2.png"" class=""exp-image"">
                    <div class=""question-area"">
                        <p style=""font-size: 20px; font-weight: bold; margin: 0;"">Is there a person in this image?</p>
                    </div>
                </div>","0","main_experiment_trial","2","package_causal","causal_sequence","","","",""
"","","","","","html-keyboard-response","21","131869","0.0-21.0","C81A573CDE2949E39FE921AC0A0401B4","019cee5a-8467-7519-9ec0-364a42ad1a78","019cee47-f225-7d34-90ea-6a2b73898f7d","","null","
                <div class=""stimulus-container"">
                    <img src=""images/causal_sequence/package_causal/package_causal_3.png"" class=""exp-image"">
                    <div class=""question-area""></div> 
                </div>","null","","","","","","","",""
"","","","","","html-button-response","22","133531","0.0-22.0","C81A573CDE2949E39FE921AC0A0401B4","019cee5a-8467-7519-9ec0-364a42ad1a78","019cee47-f225-7d34-90ea-6a2b73898f7d","","1660","
                <div class=""stimulus-container"">
                    <img src=""images/causal_sequence/package_causal/package_causal_3.png"" class=""exp-image"">
                    <div class=""question-area"">
                        <p style=""font-size: 20px; font-weight: bold; margin: 0;"">Is there a person in this image?</p>
                    </div>
                </div>","0","main_experiment_trial","3","package_causal","causal_sequence","","","",""
"","","","","","html-keyboard-response","23","138535","0.0-23.0","C81A573CDE2949E39FE921AC0A0401B4","019cee5a-8467-7519-9ec0-364a42ad1a78","019cee47-f225-7d34-90ea-6a2b73898f7d","","null","
                <div class=""stimulus-container"">
                    <img src=""images/causal_sequence/package_causal/package_causal_4.png"" class=""exp-image"">
                    <div class=""question-area""></div> 
                </div>","null","","","","","","","",""
"","","","","","html-button-response","24","139774","0.0-24.0","C81A573CDE2949E39FE921AC0A0401B4","019cee5a-8467-7519-9ec0-364a42ad1a78","019cee47-f225-7d34-90ea-6a2b73898f7d","","1233","
                <div class=""stimulus-container"">
                    <img src=""images/causal_sequence/package_causal/package_causal_4.png"" class=""exp-image"">
                    <div class=""question-area"">
                        <p style=""font-size: 20px; font-weight: bold; margin: 0;"">Is there a person in this image?</p>
                    </div>
                </div>","1","main_experiment_trial","4","package_causal","causal_sequence","","","",""
"","","","","","html-keyboard-response","25","144776","0.0-25.0","C81A573CDE2949E39FE921AC0A0401B4","019cee5a-8467-7519-9ec0-364a42ad1a78","019cee47-f225-7d34-90ea-6a2b73898f7d","","null","
                <div class=""stimulus-container"">
                    <img src=""images/causal_sequence/package_causal/package_causal_5.png"" class=""exp-image"">
                    <div class=""question-area""></div> 
                </div>","null","","","","","","","",""
"","","","","","html-button-response","26","145744","0.0-26.0","C81A573CDE2949E39FE921AC0A0401B4","019cee5a-8467-7519-9ec0-364a42ad1a78","019cee47-f225-7d34-90ea-6a2b73898f7d","","967","
                <div class=""stimulus-container"">
                    <img src=""images/causal_sequence/package_causal/package_causal_5.png"" class=""exp-image"">
                    <div class=""question-area"">
                        <p style=""font-size: 20px; font-weight: bold; margin: 0;"">Is there a person in this image?</p>
                    </div>
                </div>","0","main_experiment_trial","5","package_causal","causal_sequence","","","",""
"","","","","","html-keyboard-response","27","150745","0.0-27.0","C81A573CDE2949E39FE921AC0A0401B4","019cee5a-8467-7519-9ec0-364a42ad1a78","019cee47-f225-7d34-90ea-6a2b73898f7d","","null","
                <div class=""stimulus-container"">
                    <img src=""images/causal_sequence/package_causal/package_causal_6.png"" class=""exp-image"">
                    <div class=""question-area""></div> 
                </div>","null","","","","","","","",""
"","","","","","html-button-response","28","151727","0.0-28.0","C81A573CDE2949E39FE921AC0A0401B4","019cee5a-8467-7519-9ec0-364a42ad1a78","019cee47-f225-7d34-90ea-6a2b73898f7d","","981","
                <div class=""stimulus-container"">
                    <img src=""images/causal_sequence/package_causal/package_causal_6.png"" class=""exp-image"">
                    <div class=""question-area"">
                        <p style=""font-size: 20px; font-weight: bold; margin: 0;"">Is there a person in this image?</p>
                    </div>
                </div>","0","main_experiment_trial","6","package_causal","causal_sequence","","","",""
"","","","","","html-keyboard-response","29","156729","0.0-29.0","C81A573CDE2949E39FE921AC0A0401B4","019cee5a-8467-7519-9ec0-364a42ad1a78","019cee47-f225-7d34-90ea-6a2b73898f7d","","null","
                <div class=""stimulus-container"">
                    <img src=""images/causal_sequence/package_causal/package_causal_7.png"" class=""exp-image"">
                    <div class=""question-area""></div> 
                </div>","null","","","","","","","",""
"","","","","","html-button-response","30","157676","0.0-30.0","C81A573CDE2949E39FE921AC0A0401B4","019cee5a-8467-7519-9ec0-364a42ad1a78","019cee47-f225-7d34-90ea-6a2b73898f7d","","946","
                <div class=""stimulus-container"">
                    <img src=""images/causal_sequence/package_causal/package_causal_7.png"" class=""exp-image"">
                    <div class=""question-area"">
                        <p style=""font-size: 20px; font-weight: bold; margin: 0;"">Is there a person in this image?</p>
                    </div>
                </div>","0","main_experiment_trial","7","package_causal","causal_sequence","","","",""
"","","","","","html-keyboard-response","31","162678","0.0-31.0","C81A573CDE2949E39FE921AC0A0401B4","019cee5a-8467-7519-9ec0-364a42ad1a78","019cee47-f225-7d34-90ea-6a2b73898f7d","","null","
                <div class=""stimulus-container"">
                    <img src=""images/causal_sequence/package_causal/package_causal_8.png"" class=""exp-image"">
                    <div class=""question-area""></div> 
                </div>","null","","","","","","","",""
"","","","","","html-button-response","32","164056","0.0-32.0","C81A573CDE2949E39FE921AC0A0401B4","019cee5a-8467-7519-9ec0-364a42ad1a78","019cee47-f225-7d34-90ea-6a2b73898f7d","","1377","
                <div class=""stimulus-container"">
                    <img src=""images/causal_sequence/package_causal/package_causal_8.png"" class=""exp-image"">
                    <div class=""question-area"">
                        <p style=""font-size: 20px; font-weight: bold; margin: 0;"">Is there a person in this image?</p>
                    </div>
                </div>","0","main_experiment_trial","8","package_causal","causal_sequence","","","",""
"","","","","","html-keyboard-response","33","169058","0.0-33.0","C81A573CDE2949E39FE921AC0A0401B4","019cee5a-8467-7519-9ec0-364a42ad1a78","019cee47-f225-7d34-90ea-6a2b73898f7d","","null","
                <div class=""stimulus-container"">
                    <img src=""images/causal_sequence/package_causal/package_causal_9.png"" class=""exp-image"">
                    <div class=""question-area""></div> 
                </div>","null","","","","","","","",""
"","","","","","html-button-response","34","170055","0.0-34.0","C81A573CDE2949E39FE921AC0A0401B4","019cee5a-8467-7519-9ec0-364a42ad1a78","019cee47-f225-7d34-90ea-6a2b73898f7d","","996","
                <div class=""stimulus-container"">
                    <img src=""images/causal_sequence/package_causal/package_causal_9.png"" class=""exp-image"">
                    <div class=""question-area"">
                        <p style=""font-size: 20px; font-weight: bold; margin: 0;"">Is there a person in this image?</p>
                    </div>
                </div>","0","main_experiment_trial","9","package_causal","causal_sequence","","","",""
"","","","","","html-keyboard-response","35","175056","0.0-35.0","C81A573CDE2949E39FE921AC0A0401B4","019cee5a-8467-7519-9ec0-364a42ad1a78","019cee47-f225-7d34-90ea-6a2b73898f7d","","null","
                <div class=""stimulus-container"">
                    <img src=""images/causal_sequence/package_causal/package_causal_ten.png"" class=""exp-image"">
                    <div class=""question-area""></div> 
                </div>","null","","","","","","","",""
"","","","","","html-button-response","36","176285","0.0-36.0","C81A573CDE2949E39FE921AC0A0401B4","019cee5a-8467-7519-9ec0-364a42ad1a78","019cee47-f225-7d34-90ea-6a2b73898f7d","","1228","
                <div class=""stimulus-container"">
                    <img src=""images/causal_sequence/package_causal/package_causal_ten.png"" class=""exp-image"">
                    <div class=""question-area"">
                        <p style=""font-size: 20px; font-weight: bold; margin: 0;"">Is there a person in this image?</p>
                    </div>
                </div>","0","main_experiment_trial","ten","package_causal","causal_sequence","","","",""
"","","","","","html-keyboard-response","37","177287","0.0-37.0","C81A573CDE2949E39FE921AC0A0401B4","019cee5a-8467-7519-9ec0-364a42ad1a78","019cee47-f225-7d34-90ea-6a2b73898f7d","","null","<div style=""background-color: white; width: 100vw; height: 100vh;""></div>","null","","","","","","","",""
"","","","","","html-keyboard-response","38","182289","0.0-38.0","C81A573CDE2949E39FE921AC0A0401B4","019cee5a-8467-7519-9ec0-364a42ad1a78","019cee47-f225-7d34-90ea-6a2b73898f7d","","null","
                <div class=""stimulus-container"">
                    <img src=""images/causal_sequence/the_performance_causal/the_performance_causal_1.png"" class=""exp-image"">
                    <div class=""question-area""></div> 
                </div>","null","","","","","","","",""
"","","","","","html-button-response","39","183756","0.0-39.0","C81A573CDE2949E39FE921AC0A0401B4","019cee5a-8467-7519-9ec0-364a42ad1a78","019cee47-f225-7d34-90ea-6a2b73898f7d","","1466","
                <div class=""stimulus-container"">
                    <img src=""images/causal_sequence/the_performance_causal/the_performance_causal_1.png"" class=""exp-image"">
                    <div class=""question-area"">
                        <p style=""font-size: 20px; font-weight: bold; margin: 0;"">Is there a person in this image?</p>
                    </div>
                </div>","0","main_experiment_trial","1","the_performance_causal","causal_sequence","","","",""
"","","","","","html-keyboard-response","40","188757","0.0-40.0","C81A573CDE2949E39FE921AC0A0401B4","019cee5a-8467-7519-9ec0-364a42ad1a78","019cee47-f225-7d34-90ea-6a2b73898f7d","","null","
                <div class=""stimulus-container"">
                    <img src=""images/causal_sequence/the_performance_causal/the_performance_causal_2.png"" class=""exp-image"">
                    <div class=""question-area""></div> 
                </div>","null","","","","","","","",""
"","","","","","html-button-response","41","191759","0.0-41.0","C81A573CDE2949E39FE921AC0A0401B4","019cee5a-8467-7519-9ec0-364a42ad1a78","019cee47-f225-7d34-90ea-6a2b73898f7d","","null","
                <div class=""stimulus-container"">
                    <img src=""images/causal_sequence/the_performance_causal/the_performance_causal_2.png"" class=""exp-image"">
                    <div class=""question-area"">
                        <p style=""font-size: 20px; font-weight: bold; margin: 0;"">Is there a person in this image?</p>
                    </div>
                </div>","null","main_experiment_trial","2","the_performance_causal","causal_sequence","","","",""
"","","","","","html-keyboard-response","42","196762","0.0-42.0","C81A573CDE2949E39FE921AC0A0401B4","019cee5a-8467-7519-9ec0-364a42ad1a78","019cee47-f225-7d34-90ea-6a2b73898f7d","","null","
                <div class=""stimulus-container"">
                    <img src=""images/causal_sequence/the_performance_causal/the_performance_causal_3.png"" class=""exp-image"">
                    <div class=""question-area""></div> 
                </div>","null","","","","","","","",""
"","","","","","html-button-response","43","198444","0.0-43.0","C81A573CDE2949E39FE921AC0A0401B4","019cee5a-8467-7519-9ec0-364a42ad1a78","019cee47-f225-7d34-90ea-6a2b73898f7d","","1680","
                <div class=""stimulus-container"">
                    <img src=""images/causal_sequence/the_performance_causal/the_performance_causal_3.png"" class=""exp-image"">
                    <div class=""question-area"">
                        <p style=""font-size: 20px; font-weight: bold; margin: 0;"">Is there a person in this image?</p>
                    </div>
                </div>","0","main_experiment_trial","3","the_performance_causal","causal_sequence","","","",""
"","","","","","html-keyboard-response","44","203446","0.0-44.0","C81A573CDE2949E39FE921AC0A0401B4","019cee5a-8467-7519-9ec0-364a42ad1a78","019cee47-f225-7d34-90ea-6a2b73898f7d","","null","
                <div class=""stimulus-container"">
                    <img src=""images/causal_sequence/the_performance_causal/the_performance_causal_4.png"" class=""exp-image"">
                    <div class=""question-area""></div> 
                </div>","null","","","","","","","",""
"","","","","","html-button-response","45","204527","0.0-45.0","C81A573CDE2949E39FE921AC0A0401B4","019cee5a-8467-7519-9ec0-364a42ad1a78","019cee47-f225-7d34-90ea-6a2b73898f7d","","1080","
                <div class=""stimulus-container"">
                    <img src=""images/causal_sequence/the_performance_causal/the_performance_causal_4.png"" class=""exp-image"">
                    <div class=""question-area"">
                        <p style=""font-size: 20px; font-weight: bold; margin: 0;"">Is there a person in this image?</p>
                    </div>
                </div>","0","main_experiment_trial","4","the_performance_causal","causal_sequence","","","",""
"","","","","","html-keyboard-response","46","209528","0.0-46.0","C81A573CDE2949E39FE921AC0A0401B4","019cee5a-8467-7519-9ec0-364a42ad1a78","019cee47-f225-7d34-90ea-6a2b73898f7d","","null","
                <div class=""stimulus-container"">
                    <img src=""images/causal_sequence/the_performance_causal/the_performance_causal_5.png"" class=""exp-image"">
                    <div class=""question-area""></div> 
                </div>","null","","","","","","","",""
"","","","","","html-button-response","47","210798","0.0-47.0","C81A573CDE2949E39FE921AC0A0401B4","019cee5a-8467-7519-9ec0-364a42ad1a78","019cee47-f225-7d34-90ea-6a2b73898f7d","","1268","
                <div class=""stimulus-container"">
                    <img src=""images/causal_sequence/the_performance_causal/the_performance_causal_5.png"" class=""exp-image"">
                    <div class=""question-area"">
                        <p style=""font-size: 20px; font-weight: bold; margin: 0;"">Is there a person in this image?</p>
                    </div>
                </div>","0","main_experiment_trial","5","the_performance_causal","causal_sequence","","","",""
"","","","","","html-keyboard-response","48","215800","0.0-48.0","C81A573CDE2949E39FE921AC0A0401B4","019cee5a-8467-7519-9ec0-364a42ad1a78","019cee47-f225-7d34-90ea-6a2b73898f7d","","null","
                <div class=""stimulus-container"">
                    <img src=""images/causal_sequence/the_performance_causal/the_performance_causal_6.png"" class=""exp-image"">
                    <div class=""question-area""></div> 
                </div>","null","","","","","","","",""
"","","","","","html-button-response","49","216464","0.0-49.0","C81A573CDE2949E39FE921AC0A0401B4","019cee5a-8467-7519-9ec0-364a42ad1a78","019cee47-f225-7d34-90ea-6a2b73898f7d","","662","
                <div class=""stimulus-container"">
                    <img src=""images/causal_sequence/the_performance_causal/the_performance_causal_6.png"" class=""exp-image"">
                    <div class=""question-area"">
                        <p style=""font-size: 20px; font-weight: bold; margin: 0;"">Is there a person in this image?</p>
                    </div>
                </div>","0","main_experiment_trial","6","the_performance_causal","causal_sequence","","","",""
"","","","","","html-keyboard-response","50","221466","0.0-50.0","C81A573CDE2949E39FE921AC0A0401B4","019cee5a-8467-7519-9ec0-364a42ad1a78","019cee47-f225-7d34-90ea-6a2b73898f7d","","null","
                <div class=""stimulus-container"">
                    <img src=""images/causal_sequence/the_performance_causal/the_performance_causal_7.png"" class=""exp-image"">
                    <div class=""question-area""></div> 
                </div>","null","","","","","","","",""
"","","","","","html-button-response","51","222414","0.0-51.0","C81A573CDE2949E39FE921AC0A0401B4","019cee5a-8467-7519-9ec0-364a42ad1a78","019cee47-f225-7d34-90ea-6a2b73898f7d","","947","
                <div class=""stimulus-container"">
                    <img src=""images/causal_sequence/the_performance_causal/the_performance_causal_7.png"" class=""exp-image"">
                    <div class=""question-area"">
                        <p style=""font-size: 20px; font-weight: bold; margin: 0;"">Is there a person in this image?</p>
                    </div>
                </div>","0","main_experiment_trial","7","the_performance_causal","causal_sequence","","","",""
"","","","","","html-keyboard-response","52","227416","0.0-52.0","C81A573CDE2949E39FE921AC0A0401B4","019cee5a-8467-7519-9ec0-364a42ad1a78","019cee47-f225-7d34-90ea-6a2b73898f7d","","null","
                <div class=""stimulus-container"">
                    <img src=""images/causal_sequence/the_performance_causal/the_performance_causal_8.png"" class=""exp-image"">
                    <div class=""question-area""></div> 
                </div>","null","","","","","","","",""
"","","","","","html-button-response","53","228356","0.0-53.0","C81A573CDE2949E39FE921AC0A0401B4","019cee5a-8467-7519-9ec0-364a42ad1a78","019cee47-f225-7d34-90ea-6a2b73898f7d","","939","
                <div class=""stimulus-container"">
                    <img src=""images/causal_sequence/the_performance_causal/the_performance_causal_8.png"" class=""exp-image"">
                    <div class=""question-area"">
                        <p style=""font-size: 20px; font-weight: bold; margin: 0;"">Is there a person in this image?</p>
                    </div>
                </div>","0","main_experiment_trial","8","the_performance_causal","causal_sequence","","","",""
"","","","","","html-keyboard-response","54","233358","0.0-54.0","C81A573CDE2949E39FE921AC0A0401B4","019cee5a-8467-7519-9ec0-364a42ad1a78","019cee47-f225-7d34-90ea-6a2b73898f7d","","null","
                <div class=""stimulus-container"">
                    <img src=""images/causal_sequence/the_performance_causal/the_performance_causal_9.png"" class=""exp-image"">
                    <div class=""question-area""></div> 
                </div>","null","","","","","","","",""
"","","","","","html-button-response","55","234297","0.0-55.0","C81A573CDE2949E39FE921AC0A0401B4","019cee5a-8467-7519-9ec0-364a42ad1a78","019cee47-f225-7d34-90ea-6a2b73898f7d","","937","
                <div class=""stimulus-container"">
                    <img src=""images/causal_sequence/the_performance_causal/the_performance_causal_9.png"" class=""exp-image"">
                    <div class=""question-area"">
                        <p style=""font-size: 20px; font-weight: bold; margin: 0;"">Is there a person in this image?</p>
                    </div>
                </div>","0","main_experiment_trial","9","the_performance_causal","causal_sequence","","","",""
"","","","","","html-keyboard-response","56","239299","0.0-56.0","C81A573CDE2949E39FE921AC0A0401B4","019cee5a-8467-7519-9ec0-364a42ad1a78","019cee47-f225-7d34-90ea-6a2b73898f7d","","null","
                <div class=""stimulus-container"">
                    <img src=""images/causal_sequence/the_performance_causal/the_performance_causal_ten.png"" class=""exp-image"">
                    <div class=""question-area""></div> 
                </div>","null","","","","","","","",""
"","","","","","html-button-response","57","240714","0.0-57.0","C81A573CDE2949E39FE921AC0A0401B4","019cee5a-8467-7519-9ec0-364a42ad1a78","019cee47-f225-7d34-90ea-6a2b73898f7d","","1413","
                <div class=""stimulus-container"">
                    <img src=""images/causal_sequence/the_performance_causal/the_performance_causal_ten.png"" class=""exp-image"">
                    <div class=""question-area"">
                        <p style=""font-size: 20px; font-weight: bold; margin: 0;"">Is there a person in this image?</p>
                    </div>
                </div>","0","main_experiment_trial","ten","the_performance_causal","causal_sequence","","","",""
"","","","","","html-keyboard-response","58","241716","0.0-58.0","C81A573CDE2949E39FE921AC0A0401B4","019cee5a-8467-7519-9ec0-364a42ad1a78","019cee47-f225-7d34-90ea-6a2b73898f7d","","null","<div style=""background-color: white; width: 100vw; height: 100vh;""></div>","null","","","","","","","",""
"","","","","","html-keyboard-response","59","246718","0.0-59.0","C81A573CDE2949E39FE921AC0A0401B4","019cee5a-8467-7519-9ec0-364a42ad1a78","019cee47-f225-7d34-90ea-6a2b73898f7d","","null","
                <div class=""stimulus-container"">
                    <img src=""images/schematic_sequence/flight_scheme/flight_scheme_1.png"" class=""exp-image"">
                    <div class=""question-area""></div> 
                </div>","null","","","","","","","",""
"","","","","","html-button-response","60","248231","0.0-60.0","C81A573CDE2949E39FE921AC0A0401B4","019cee5a-8467-7519-9ec0-364a42ad1a78","019cee47-f225-7d34-90ea-6a2b73898f7d","","1511","
                <div class=""stimulus-container"">
                    <img src=""images/schematic_sequence/flight_scheme/flight_scheme_1.png"" class=""exp-image"">
                    <div class=""question-area"">
                        <p style=""font-size: 20px; font-weight: bold; margin: 0;"">Is there a person in this image?</p>
                    </div>
                </div>","0","main_experiment_trial","1","flight_scheme","schematic_sequence","","","",""
"","","","","","html-keyboard-response","61","253233","0.0-61.0","C81A573CDE2949E39FE921AC0A0401B4","019cee5a-8467-7519-9ec0-364a42ad1a78","019cee47-f225-7d34-90ea-6a2b73898f7d","","null","
                <div class=""stimulus-container"">
                    <img src=""images/schematic_sequence/flight_scheme/flight_scheme_2.png"" class=""exp-image"">
                    <div class=""question-area""></div> 
                </div>","null","","","","","","","",""
"","","","","","html-button-response","62","253889","0.0-62.0","C81A573CDE2949E39FE921AC0A0401B4","019cee5a-8467-7519-9ec0-364a42ad1a78","019cee47-f225-7d34-90ea-6a2b73898f7d","","655","
                <div class=""stimulus-container"">
                    <img src=""images/schematic_sequence/flight_scheme/flight_scheme_2.png"" class=""exp-image"">
                    <div class=""question-area"">
                        <p style=""font-size: 20px; font-weight: bold; margin: 0;"">Is there a person in this image?</p>
                    </div>
                </div>","1","main_experiment_trial","2","flight_scheme","schematic_sequence","","","",""
"","","","","","html-keyboard-response","63","258892","0.0-63.0","C81A573CDE2949E39FE921AC0A0401B4","019cee5a-8467-7519-9ec0-364a42ad1a78","019cee47-f225-7d34-90ea-6a2b73898f7d","","null","
                <div class=""stimulus-container"">
                    <img src=""images/schematic_sequence/flight_scheme/flight_scheme_3.png"" class=""exp-image"">
                    <div class=""question-area""></div> 
                </div>","null","","","","","","","",""
"","","","","","html-button-response","64","259598","0.0-64.0","C81A573CDE2949E39FE921AC0A0401B4","019cee5a-8467-7519-9ec0-364a42ad1a78","019cee47-f225-7d34-90ea-6a2b73898f7d","","704","
                <div class=""stimulus-container"">
                    <img src=""images/schematic_sequence/flight_scheme/flight_scheme_3.png"" class=""exp-image"">
                    <div class=""question-area"">
                        <p style=""font-size: 20px; font-weight: bold; margin: 0;"">Is there a person in this image?</p>
                    </div>
                </div>","0","main_experiment_trial","3","flight_scheme","schematic_sequence","","","",""
"","","","","","html-keyboard-response","65","264600","0.0-65.0","C81A573CDE2949E39FE921AC0A0401B4","019cee5a-8467-7519-9ec0-364a42ad1a78","019cee47-f225-7d34-90ea-6a2b73898f7d","","null","
                <div class=""stimulus-container"">
                    <img src=""images/schematic_sequence/flight_scheme/flight_scheme_4.png"" class=""exp-image"">
                    <div class=""question-area""></div> 
                </div>","null","","","","","","","",""
"","","","","","html-button-response","66","265438","0.0-66.0","C81A573CDE2949E39FE921AC0A0401B4","019cee5a-8467-7519-9ec0-364a42ad1a78","019cee47-f225-7d34-90ea-6a2b73898f7d","","837","
                <div class=""stimulus-container"">
                    <img src=""images/schematic_sequence/flight_scheme/flight_scheme_4.png"" class=""exp-image"">
                    <div class=""question-area"">
                        <p style=""font-size: 20px; font-weight: bold; margin: 0;"">Is there a person in this image?</p>
                    </div>
                </div>","0","main_experiment_trial","4","flight_scheme","schematic_sequence","","","",""
"","","","","","html-keyboard-response","67","270440","0.0-67.0","C81A573CDE2949E39FE921AC0A0401B4","019cee5a-8467-7519-9ec0-364a42ad1a78","019cee47-f225-7d34-90ea-6a2b73898f7d","","null","
                <div class=""stimulus-container"">
                    <img src=""images/schematic_sequence/flight_scheme/flight_scheme_5.png"" class=""exp-image"">
                    <div class=""question-area""></div> 
                </div>","null","","","","","","","",""
"","","","","","html-button-response","68","271356","0.0-68.0","C81A573CDE2949E39FE921AC0A0401B4","019cee5a-8467-7519-9ec0-364a42ad1a78","019cee47-f225-7d34-90ea-6a2b73898f7d","","915","
                <div class=""stimulus-container"">
                    <img src=""images/schematic_sequence/flight_scheme/flight_scheme_5.png"" class=""exp-image"">
                    <div class=""question-area"">
                        <p style=""font-size: 20px; font-weight: bold; margin: 0;"">Is there a person in this image?</p>
                    </div>
                </div>","0","main_experiment_trial","5","flight_scheme","schematic_sequence","","","",""
"","","","","","html-keyboard-response","69","276358","0.0-69.0","C81A573CDE2949E39FE921AC0A0401B4","019cee5a-8467-7519-9ec0-364a42ad1a78","019cee47-f225-7d34-90ea-6a2b73898f7d","","null","
                <div class=""stimulus-container"">
                    <img src=""images/schematic_sequence/flight_scheme/flight_scheme_6.png"" class=""exp-image"">
                    <div class=""question-area""></div> 
                </div>","null","","","","","","","",""
"","","","","","html-button-response","70","277843","0.0-70.0","C81A573CDE2949E39FE921AC0A0401B4","019cee5a-8467-7519-9ec0-364a42ad1a78","019cee47-f225-7d34-90ea-6a2b73898f7d","","1484","
                <div class=""stimulus-container"">
                    <img src=""images/schematic_sequence/flight_scheme/flight_scheme_6.png"" class=""exp-image"">
                    <div class=""question-area"">
                        <p style=""font-size: 20px; font-weight: bold; margin: 0;"">Is there a person in this image?</p>
                    </div>
                </div>","1","main_experiment_trial","6","flight_scheme","schematic_sequence","","","",""
"","","","","","html-keyboard-response","71","282846","0.0-71.0","C81A573CDE2949E39FE921AC0A0401B4","019cee5a-8467-7519-9ec0-364a42ad1a78","019cee47-f225-7d34-90ea-6a2b73898f7d","","null","
                <div class=""stimulus-container"">
                    <img src=""images/schematic_sequence/flight_scheme/flight_scheme_7.png"" class=""exp-image"">
                    <div class=""question-area""></div> 
                </div>","null","","","","","","","",""
"","","","","","html-button-response","72","284317","0.0-72.0","C81A573CDE2949E39FE921AC0A0401B4","019cee5a-8467-7519-9ec0-364a42ad1a78","019cee47-f225-7d34-90ea-6a2b73898f7d","","1470","
                <div class=""stimulus-container"">
                    <img src=""images/schematic_sequence/flight_scheme/flight_scheme_7.png"" class=""exp-image"">
                    <div class=""question-area"">
                        <p style=""font-size: 20px; font-weight: bold; margin: 0;"">Is there a person in this image?</p>
                    </div>
                </div>","1","main_experiment_trial","7","flight_scheme","schematic_sequence","","","",""
"","","","","","html-keyboard-response","73","289319","0.0-73.0","C81A573CDE2949E39FE921AC0A0401B4","019cee5a-8467-7519-9ec0-364a42ad1a78","019cee47-f225-7d34-90ea-6a2b73898f7d","","null","
                <div class=""stimulus-container"">
                    <img src=""images/schematic_sequence/flight_scheme/flight_scheme_8.png"" class=""exp-image"">
                    <div class=""question-area""></div> 
                </div>","null","","","","","","","",""
"","","","","","html-button-response","74","290359","0.0-74.0","C81A573CDE2949E39FE921AC0A0401B4","019cee5a-8467-7519-9ec0-364a42ad1a78","019cee47-f225-7d34-90ea-6a2b73898f7d","","1040","
                <div class=""stimulus-container"">
                    <img src=""images/schematic_sequence/flight_scheme/flight_scheme_8.png"" class=""exp-image"">
                    <div class=""question-area"">
                        <p style=""font-size: 20px; font-weight: bold; margin: 0;"">Is there a person in this image?</p>
                    </div>
                </div>","1","main_experiment_trial","8","flight_scheme","schematic_sequence","","","",""
"","","","","","html-keyboard-response","75","295362","0.0-75.0","C81A573CDE2949E39FE921AC0A0401B4","019cee5a-8467-7519-9ec0-364a42ad1a78","019cee47-f225-7d34-90ea-6a2b73898f7d","","null","
                <div class=""stimulus-container"">
                    <img src=""images/schematic_sequence/flight_scheme/flight_scheme_9.png"" class=""exp-image"">
                    <div class=""question-area""></div> 
                </div>","null","","","","","","","",""
"","","","","","html-button-response","76","296338","0.0-76.0","C81A573CDE2949E39FE921AC0A0401B4","019cee5a-8467-7519-9ec0-364a42ad1a78","019cee47-f225-7d34-90ea-6a2b73898f7d","","974","
                <div class=""stimulus-container"">
                    <img src=""images/schematic_sequence/flight_scheme/flight_scheme_9.png"" class=""exp-image"">
                    <div class=""question-area"">
                        <p style=""font-size: 20px; font-weight: bold; margin: 0;"">Is there a person in this image?</p>
                    </div>
                </div>","0","main_experiment_trial","9","flight_scheme","schematic_sequence","","","",""
"","","","","","html-keyboard-response","77","301340","0.0-77.0","C81A573CDE2949E39FE921AC0A0401B4","019cee5a-8467-7519-9ec0-364a42ad1a78","019cee47-f225-7d34-90ea-6a2b73898f7d","","null","
                <div class=""stimulus-container"">
                    <img src=""images/schematic_sequence/flight_scheme/flight_scheme_ten.png"" class=""exp-image"">
                    <div class=""question-area""></div> 
                </div>","null","","","","","","","",""
"","","","","","html-button-response","78","302422","0.0-78.0","C81A573CDE2949E39FE921AC0A0401B4","019cee5a-8467-7519-9ec0-364a42ad1a78","019cee47-f225-7d34-90ea-6a2b73898f7d","","1080","
                <div class=""stimulus-container"">
                    <img src=""images/schematic_sequence/flight_scheme/flight_scheme_ten.png"" class=""exp-image"">
                    <div class=""question-area"">
                        <p style=""font-size: 20px; font-weight: bold; margin: 0;"">Is there a person in this image?</p>
                    </div>
                </div>","0","main_experiment_trial","ten","flight_scheme","schematic_sequence","","","",""
"","","","","","html-keyboard-response","79","303424","0.0-79.0","C81A573CDE2949E39FE921AC0A0401B4","019cee5a-8467-7519-9ec0-364a42ad1a78","019cee47-f225-7d34-90ea-6a2b73898f7d","","null","<div style=""background-color: white; width: 100vw; height: 100vh;""></div>","null","","","","","","","",""
"","","","","","html-keyboard-response","80","308426","0.0-80.0","C81A573CDE2949E39FE921AC0A0401B4","019cee5a-8467-7519-9ec0-364a42ad1a78","019cee47-f225-7d34-90ea-6a2b73898f7d","","null","
                <div class=""stimulus-container"">
                    <img src=""images/schematic_sequence/hotel_scheme/hotel_scheme_1.png"" class=""exp-image"">
                    <div class=""question-area""></div> 
                </div>","null","","","","","","","",""
"","","","","","html-button-response","81","309358","0.0-81.0","C81A573CDE2949E39FE921AC0A0401B4","019cee5a-8467-7519-9ec0-364a42ad1a78","019cee47-f225-7d34-90ea-6a2b73898f7d","","931","
                <div class=""stimulus-container"">
                    <img src=""images/schematic_sequence/hotel_scheme/hotel_scheme_1.png"" class=""exp-image"">
                    <div class=""question-area"">
                        <p style=""font-size: 20px; font-weight: bold; margin: 0;"">Is there a person in this image?</p>
                    </div>
                </div>","1","main_experiment_trial","1","hotel_scheme","schematic_sequence","","","",""
"","","","","","html-keyboard-response","82","314361","0.0-82.0","C81A573CDE2949E39FE921AC0A0401B4","019cee5a-8467-7519-9ec0-364a42ad1a78","019cee47-f225-7d34-90ea-6a2b73898f7d","","null","
                <div class=""stimulus-container"">
                    <img src=""images/schematic_sequence/hotel_scheme/hotel_scheme_2.png"" class=""exp-image"">
                    <div class=""question-area""></div> 
                </div>","null","","","","","","","",""
"","","","","","html-button-response","83","314843","0.0-83.0","C81A573CDE2949E39FE921AC0A0401B4","019cee5a-8467-7519-9ec0-364a42ad1a78","019cee47-f225-7d34-90ea-6a2b73898f7d","","481","
                <div class=""stimulus-container"">
                    <img src=""images/schematic_sequence/hotel_scheme/hotel_scheme_2.png"" class=""exp-image"">
                    <div class=""question-area"">
                        <p style=""font-size: 20px; font-weight: bold; margin: 0;"">Is there a person in this image?</p>
                    </div>
                </div>","0","main_experiment_trial","2","hotel_scheme","schematic_sequence","","","",""
"","","","","","html-keyboard-response","84","319845","0.0-84.0","C81A573CDE2949E39FE921AC0A0401B4","019cee5a-8467-7519-9ec0-364a42ad1a78","019cee47-f225-7d34-90ea-6a2b73898f7d","","null","
                <div class=""stimulus-container"">
                    <img src=""images/schematic_sequence/hotel_scheme/hotel_scheme_3.png"" class=""exp-image"">
                    <div class=""question-area""></div> 
                </div>","null","","","","","","","",""
"","","","","","html-button-response","85","320968","0.0-85.0","C81A573CDE2949E39FE921AC0A0401B4","019cee5a-8467-7519-9ec0-364a42ad1a78","019cee47-f225-7d34-90ea-6a2b73898f7d","","1121","
                <div class=""stimulus-container"">
                    <img src=""images/schematic_sequence/hotel_scheme/hotel_scheme_3.png"" class=""exp-image"">
                    <div class=""question-area"">
                        <p style=""font-size: 20px; font-weight: bold; margin: 0;"">Is there a person in this image?</p>
                    </div>
                </div>","0","main_experiment_trial","3","hotel_scheme","schematic_sequence","","","",""
"","","","","","html-keyboard-response","86","325971","0.0-86.0","C81A573CDE2949E39FE921AC0A0401B4","019cee5a-8467-7519-9ec0-364a42ad1a78","019cee47-f225-7d34-90ea-6a2b73898f7d","","null","
                <div class=""stimulus-container"">
                    <img src=""images/schematic_sequence/hotel_scheme/hotel_scheme_4.png"" class=""exp-image"">
                    <div class=""question-area""></div> 
                </div>","null","","","","","","","",""
"","","","","","html-button-response","87","326743","0.0-87.0","C81A573CDE2949E39FE921AC0A0401B4","019cee5a-8467-7519-9ec0-364a42ad1a78","019cee47-f225-7d34-90ea-6a2b73898f7d","","771","
                <div class=""stimulus-container"">
                    <img src=""images/schematic_sequence/hotel_scheme/hotel_scheme_4.png"" class=""exp-image"">
                    <div class=""question-area"">
                        <p style=""font-size: 20px; font-weight: bold; margin: 0;"">Is there a person in this image?</p>
                    </div>
                </div>","1","main_experiment_trial","4","hotel_scheme","schematic_sequence","","","",""
"","","","","","html-keyboard-response","88","331746","0.0-88.0","C81A573CDE2949E39FE921AC0A0401B4","019cee5a-8467-7519-9ec0-364a42ad1a78","019cee47-f225-7d34-90ea-6a2b73898f7d","","null","
                <div class=""stimulus-container"">
                    <img src=""images/schematic_sequence/hotel_scheme/hotel_scheme_5.png"" class=""exp-image"">
                    <div class=""question-area""></div> 
                </div>","null","","","","","","","",""
"","","","","","html-button-response","89","333918","0.0-89.0","C81A573CDE2949E39FE921AC0A0401B4","019cee5a-8467-7519-9ec0-364a42ad1a78","019cee47-f225-7d34-90ea-6a2b73898f7d","","2171","
                <div class=""stimulus-container"">
                    <img src=""images/schematic_sequence/hotel_scheme/hotel_scheme_5.png"" class=""exp-image"">
                    <div class=""question-area"">
                        <p style=""font-size: 20px; font-weight: bold; margin: 0;"">Is there a person in this image?</p>
                    </div>
                </div>","0","main_experiment_trial","5","hotel_scheme","schematic_sequence","","","",""
"","","","","","html-keyboard-response","90","338920","0.0-90.0","C81A573CDE2949E39FE921AC0A0401B4","019cee5a-8467-7519-9ec0-364a42ad1a78","019cee47-f225-7d34-90ea-6a2b73898f7d","","null","
                <div class=""stimulus-container"">
                    <img src=""images/schematic_sequence/hotel_scheme/hotel_scheme_6.png"" class=""exp-image"">
                    <div class=""question-area""></div> 
                </div>","null","","","","","","","",""
"","","","","","html-button-response","91","339594","0.0-91.0","C81A573CDE2949E39FE921AC0A0401B4","019cee5a-8467-7519-9ec0-364a42ad1a78","019cee47-f225-7d34-90ea-6a2b73898f7d","","672","
                <div class=""stimulus-container"">
                    <img src=""images/schematic_sequence/hotel_scheme/hotel_scheme_6.png"" class=""exp-image"">
                    <div class=""question-area"">
                        <p style=""font-size: 20px; font-weight: bold; margin: 0;"">Is there a person in this image?</p>
                    </div>
                </div>","0","main_experiment_trial","6","hotel_scheme","schematic_sequence","","","",""
"","","","","","html-keyboard-response","92","344596","0.0-92.0","C81A573CDE2949E39FE921AC0A0401B4","019cee5a-8467-7519-9ec0-364a42ad1a78","019cee47-f225-7d34-90ea-6a2b73898f7d","","null","
                <div class=""stimulus-container"">
                    <img src=""images/schematic_sequence/hotel_scheme/hotel_scheme_7.png"" class=""exp-image"">
                    <div class=""question-area""></div> 
                </div>","null","","","","","","","",""
"","","","","","html-button-response","93","345675","0.0-93.0","C81A573CDE2949E39FE921AC0A0401B4","019cee5a-8467-7519-9ec0-364a42ad1a78","019cee47-f225-7d34-90ea-6a2b73898f7d","","1077","
                <div class=""stimulus-container"">
                    <img src=""images/schematic_sequence/hotel_scheme/hotel_scheme_7.png"" class=""exp-image"">
                    <div class=""question-area"">
                        <p style=""font-size: 20px; font-weight: bold; margin: 0;"">Is there a person in this image?</p>
                    </div>
                </div>","0","main_experiment_trial","7","hotel_scheme","schematic_sequence","","","",""
"","","","","","html-keyboard-response","94","350677","0.0-94.0","C81A573CDE2949E39FE921AC0A0401B4","019cee5a-8467-7519-9ec0-364a42ad1a78","019cee47-f225-7d34-90ea-6a2b73898f7d","","null","
                <div class=""stimulus-container"">
                    <img src=""images/schematic_sequence/hotel_scheme/hotel_scheme_8.png"" class=""exp-image"">
                    <div class=""question-area""></div> 
                </div>","null","","","","","","","",""
"","","","","","html-button-response","95","352138","0.0-95.0","C81A573CDE2949E39FE921AC0A0401B4","019cee5a-8467-7519-9ec0-364a42ad1a78","019cee47-f225-7d34-90ea-6a2b73898f7d","","1460","
                <div class=""stimulus-container"">
                    <img src=""images/schematic_sequence/hotel_scheme/hotel_scheme_8.png"" class=""exp-image"">
                    <div class=""question-area"">
                        <p style=""font-size: 20px; font-weight: bold; margin: 0;"">Is there a person in this image?</p>
                    </div>
                </div>","0","main_experiment_trial","8","hotel_scheme","schematic_sequence","","","",""
"","","","","","html-keyboard-response","96","357140","0.0-96.0","C81A573CDE2949E39FE921AC0A0401B4","019cee5a-8467-7519-9ec0-364a42ad1a78","019cee47-f225-7d34-90ea-6a2b73898f7d","","null","
                <div class=""stimulus-container"">
                    <img src=""images/schematic_sequence/hotel_scheme/hotel_scheme_9.png"" class=""exp-image"">
                    <div class=""question-area""></div> 
                </div>","null","","","","","","","",""
"","","","","","html-button-response","97","358647","0.0-97.0","C81A573CDE2949E39FE921AC0A0401B4","019cee5a-8467-7519-9ec0-364a42ad1a78","019cee47-f225-7d34-90ea-6a2b73898f7d","","1506","
                <div class=""stimulus-container"">
                    <img src=""images/schematic_sequence/hotel_scheme/hotel_scheme_9.png"" class=""exp-image"">
                    <div class=""question-area"">
                        <p style=""font-size: 20px; font-weight: bold; margin: 0;"">Is there a person in this image?</p>
                    </div>
                </div>","0","main_experiment_trial","9","hotel_scheme","schematic_sequence","","","",""
"","","","","","html-keyboard-response","98","363650","0.0-98.0","C81A573CDE2949E39FE921AC0A0401B4","019cee5a-8467-7519-9ec0-364a42ad1a78","019cee47-f225-7d34-90ea-6a2b73898f7d","","null","
                <div class=""stimulus-container"">
                    <img src=""images/schematic_sequence/hotel_scheme/hotel_scheme_ten.png"" class=""exp-image"">
                    <div class=""question-area""></div> 
                </div>","null","","","","","","","",""
"","","","","","html-button-response","99","365301","0.0-99.0","C81A573CDE2949E39FE921AC0A0401B4","019cee5a-8467-7519-9ec0-364a42ad1a78","019cee47-f225-7d34-90ea-6a2b73898f7d","","1650","
                <div class=""stimulus-container"">
                    <img src=""images/schematic_sequence/hotel_scheme/hotel_scheme_ten.png"" class=""exp-image"">
                    <div class=""question-area"">
                        <p style=""font-size: 20px; font-weight: bold; margin: 0;"">Is there a person in this image?</p>
                    </div>
                </div>","0","main_experiment_trial","ten","hotel_scheme","schematic_sequence","","","",""
"","","","","","instructions","100","367575","0.0-100.0","C81A573CDE2949E39FE921AC0A0401B4","019cee5a-8467-7519-9ec0-364a42ad1a78","019cee47-f225-7d34-90ea-6a2b73898f7d","[{""page_index"":0,""viewing_time"":2274}]","2274","","","","","","","","","",""
"","","","","","instructions","101","374451","0.0-101.0","C81A573CDE2949E39FE921AC0A0401B4","019cee5a-8467-7519-9ec0-364a42ad1a78","019cee47-f225-7d34-90ea-6a2b73898f7d","[{""page_index"":0,""viewing_time"":6875}]","6875","","","","","","","","","",""
"","","","","","html-keyboard-response","102","380453","0.0-102.0","C81A573CDE2949E39FE921AC0A0401B4","019cee5a-8467-7519-9ec0-364a42ad1a78","019cee47-f225-7d34-90ea-6a2b73898f7d","","null","
            <div class=""stimulus-container"" style=""display: flex; align-items: center; justify-content: center; gap: 40px;"">
                <img src=""images/schematic_sequence/hotel_scheme/hotel_scheme_3.png"" class=""exp-image"">
                <div style=""text-align: center;"">
                    <img src=""images/gray.png"" style=""width: 150px; height: 150px; border: 5px solid grey; border-radius: 15px;"">
                    <p style=""color: grey; font-weight: bold; font-size: 28px; margin-top: 15px;"">NEUTRAL VALUE</p>
                </div>
            </div>
            <div class=""question-area""></div>","null","","","","","","","",""
"","","","","","html-button-response","103","381775","0.0-103.0","C81A573CDE2949E39FE921AC0A0401B4","019cee5a-8467-7519-9ec0-364a42ad1a78","019cee47-f225-7d34-90ea-6a2b73898f7d","","1320","
            <div class=""stimulus-container"" style=""display: flex; align-items: center; justify-content: center; gap: 40px;"">
                <img src=""images/schematic_sequence/hotel_scheme/hotel_scheme_3.png"" class=""exp-image"">
                <div style=""text-align: center;"">
                    <img src=""images/gray.png"" style=""width: 150px; height: 150px; border: 5px solid grey; border-radius: 15px;"">
                    <p style=""color: grey; font-weight: bold; font-size: 28px; margin-top: 15px;"">NEUTRAL VALUE</p>
                </div>
            </div>
            <div class=""question-area"">
                <p style=""font-size: 20px; font-weight: bold; margin: 0;"">Was there a person in this image?</p>
            </div>","0","part2_value_learning","","hotel_scheme","schematic_sequence","3","neutral","",""
"","","","","","html-keyboard-response","104","387777","0.0-104.0","C81A573CDE2949E39FE921AC0A0401B4","019cee5a-8467-7519-9ec0-364a42ad1a78","019cee47-f225-7d34-90ea-6a2b73898f7d","","null","
            <div class=""stimulus-container"" style=""display: flex; align-items: center; justify-content: center; gap: 40px;"">
                <img src=""images/schematic_sequence/flight_scheme/flight_scheme_4.png"" class=""exp-image"">
                <div style=""text-align: center;"">
                    <img src=""images/dollar.png"" style=""width: 150px; height: 150px; border: 5px solid green; border-radius: 15px;"">
                    <p style=""color: green; font-weight: bold; font-size: 28px; margin-top: 15px;"">WORTH MONEY</p>
                </div>
            </div>
            <div class=""question-area""></div>","null","","","","","","","",""
"","","","","","html-button-response","105","389259","0.0-105.0","C81A573CDE2949E39FE921AC0A0401B4","019cee5a-8467-7519-9ec0-364a42ad1a78","019cee47-f225-7d34-90ea-6a2b73898f7d","","1481","
            <div class=""stimulus-container"" style=""display: flex; align-items: center; justify-content: center; gap: 40px;"">
                <img src=""images/schematic_sequence/flight_scheme/flight_scheme_4.png"" class=""exp-image"">
                <div style=""text-align: center;"">
                    <img src=""images/dollar.png"" style=""width: 150px; height: 150px; border: 5px solid green; border-radius: 15px;"">
                    <p style=""color: green; font-weight: bold; font-size: 28px; margin-top: 15px;"">WORTH MONEY</p>
                </div>
            </div>
            <div class=""question-area"">
                <p style=""font-size: 20px; font-weight: bold; margin: 0;"">Was there a person in this image?</p>
            </div>","0","part2_value_learning","","flight_scheme","schematic_sequence","4","valuable","",""
"","","","","","html-keyboard-response","106","395260","0.0-106.0","C81A573CDE2949E39FE921AC0A0401B4","019cee5a-8467-7519-9ec0-364a42ad1a78","019cee47-f225-7d34-90ea-6a2b73898f7d","","null","
            <div class=""stimulus-container"" style=""display: flex; align-items: center; justify-content: center; gap: 40px;"">
                <img src=""images/causal_sequence/the_performance_causal/the_performance_causal_3.png"" class=""exp-image"">
                <div style=""text-align: center;"">
                    <img src=""images/gray.png"" style=""width: 150px; height: 150px; border: 5px solid grey; border-radius: 15px;"">
                    <p style=""color: grey; font-weight: bold; font-size: 28px; margin-top: 15px;"">NEUTRAL VALUE</p>
                </div>
            </div>
            <div class=""question-area""></div>","null","","","","","","","",""
"","","","","","html-button-response","107","398263","0.0-107.0","C81A573CDE2949E39FE921AC0A0401B4","019cee5a-8467-7519-9ec0-364a42ad1a78","019cee47-f225-7d34-90ea-6a2b73898f7d","","null","
            <div class=""stimulus-container"" style=""display: flex; align-items: center; justify-content: center; gap: 40px;"">
                <img src=""images/causal_sequence/the_performance_causal/the_performance_causal_3.png"" class=""exp-image"">
                <div style=""text-align: center;"">
                    <img src=""images/gray.png"" style=""width: 150px; height: 150px; border: 5px solid grey; border-radius: 15px;"">
                    <p style=""color: grey; font-weight: bold; font-size: 28px; margin-top: 15px;"">NEUTRAL VALUE</p>
                </div>
            </div>
            <div class=""question-area"">
                <p style=""font-size: 20px; font-weight: bold; margin: 0;"">Was there a person in this image?</p>
            </div>","null","part2_value_learning","","the_performance_causal","causal_sequence","3","neutral","",""
"","","","","","html-keyboard-response","108","404265","0.0-108.0","C81A573CDE2949E39FE921AC0A0401B4","019cee5a-8467-7519-9ec0-364a42ad1a78","019cee47-f225-7d34-90ea-6a2b73898f7d","","null","
            <div class=""stimulus-container"" style=""display: flex; align-items: center; justify-content: center; gap: 40px;"">
                <img src=""images/causal_sequence/package_causal/package_causal_6.png"" class=""exp-image"">
                <div style=""text-align: center;"">
                    <img src=""images/dollar.png"" style=""width: 150px; height: 150px; border: 5px solid green; border-radius: 15px;"">
                    <p style=""color: green; font-weight: bold; font-size: 28px; margin-top: 15px;"">WORTH MONEY</p>
                </div>
            </div>
            <div class=""question-area""></div>","null","","","","","","","",""
"","","","","","html-button-response","109","407068","0.0-109.0","C81A573CDE2949E39FE921AC0A0401B4","019cee5a-8467-7519-9ec0-364a42ad1a78","019cee47-f225-7d34-90ea-6a2b73898f7d","","2801","
            <div class=""stimulus-container"" style=""display: flex; align-items: center; justify-content: center; gap: 40px;"">
                <img src=""images/causal_sequence/package_causal/package_causal_6.png"" class=""exp-image"">
                <div style=""text-align: center;"">
                    <img src=""images/dollar.png"" style=""width: 150px; height: 150px; border: 5px solid green; border-radius: 15px;"">
                    <p style=""color: green; font-weight: bold; font-size: 28px; margin-top: 15px;"">WORTH MONEY</p>
                </div>
            </div>
            <div class=""question-area"">
                <p style=""font-size: 20px; font-weight: bold; margin: 0;"">Was there a person in this image?</p>
            </div>","0","part2_value_learning","","package_causal","causal_sequence","6","valuable","",""
"","","","","","instructions","110","412438","0.0-110.0","C81A573CDE2949E39FE921AC0A0401B4","019cee5a-8467-7519-9ec0-364a42ad1a78","019cee47-f225-7d34-90ea-6a2b73898f7d","[{""page_index"":0,""viewing_time"":5370}]","5370","","","","","","","","","",""
"","","","","","html-keyboard-response","111","415442","0.0-111.0-0.0","C81A573CDE2949E39FE921AC0A0401B4","019cee5a-8467-7519-9ec0-364a42ad1a78","019cee47-f225-7d34-90ea-6a2b73898f7d","","null","
                        <div style=""font-family: Arial; margin-bottom: 20px;""><h3>Which image is luckier?</h3></div>
                        <div class=""stimulus-container"" style=""display: flex; width: 800px; justify-content: center; gap: 30px;"">
                            <img src=""images/schematic_sequence/hotel_scheme/hotel_scheme_4.png"" class=""small-image"">
                            <img src=""images/schematic_sequence/hotel_scheme/hotel_scheme_2.png"" class=""small-image"">
                        </div>","null","","","","","","","",""
"","","","","","html-button-response","112","416837","0.0-111.0-1.0","C81A573CDE2949E39FE921AC0A0401B4","019cee5a-8467-7519-9ec0-364a42ad1a78","019cee47-f225-7d34-90ea-6a2b73898f7d","","1393","
                        <div style=""font-family: Arial; margin-bottom: 20px;""><h3>Which image is luckier?</h3></div>
                        <div class=""stimulus-container"" style=""display: flex; width: 800px; justify-content: center; gap: 30px;"">
                            <img src=""images/schematic_sequence/hotel_scheme/hotel_scheme_4.png"" class=""small-image"">
                            <img src=""images/schematic_sequence/hotel_scheme/hotel_scheme_2.png"" class=""small-image"">
                        </div>","0","part3_choice_neighbors","","hotel_scheme","","","","4",""
"","","","","","html-keyboard-response","113","419839","0.0-112.0-0.0","C81A573CDE2949E39FE921AC0A0401B4","019cee5a-8467-7519-9ec0-364a42ad1a78","019cee47-f225-7d34-90ea-6a2b73898f7d","","null","
                        <div style=""font-family: Arial; margin-bottom: 20px;""><h3>Which image is luckier?</h3></div>
                        <div class=""stimulus-container"" style=""display: flex; width: 800px; justify-content: center; gap: 30px;"">
                            <img src=""images/causal_sequence/the_performance_causal/the_performance_causal_2.png"" class=""small-image"">
                            <img src=""images/causal_sequence/the_performance_causal/the_performance_causal_4.png"" class=""small-image"">
                        </div>","null","","","","","","","",""
"","","","","","html-button-response","114","421062","0.0-112.0-1.0","C81A573CDE2949E39FE921AC0A0401B4","019cee5a-8467-7519-9ec0-364a42ad1a78","019cee47-f225-7d34-90ea-6a2b73898f7d","","1222","
                        <div style=""font-family: Arial; margin-bottom: 20px;""><h3>Which image is luckier?</h3></div>
                        <div class=""stimulus-container"" style=""display: flex; width: 800px; justify-content: center; gap: 30px;"">
                            <img src=""images/causal_sequence/the_performance_causal/the_performance_causal_2.png"" class=""small-image"">
                            <img src=""images/causal_sequence/the_performance_causal/the_performance_causal_4.png"" class=""small-image"">
                        </div>","1","part3_choice_neighbors","","the_performance_causal","","","","4",""
"","","","","","html-keyboard-response","115","424065","0.0-113.0-0.0","C81A573CDE2949E39FE921AC0A0401B4","019cee5a-8467-7519-9ec0-364a42ad1a78","019cee47-f225-7d34-90ea-6a2b73898f7d","","null","
                        <div style=""font-family: Arial; margin-bottom: 20px;""><h3>Which image is luckier?</h3></div>
                        <div class=""stimulus-container"" style=""display: flex; width: 800px; justify-content: center; gap: 30px;"">
                            <img src=""images/causal_sequence/package_causal/package_causal_5.png"" class=""small-image"">
                            <img src=""images/causal_sequence/package_causal/package_causal_7.png"" class=""small-image"">
                        </div>","null","","","","","","","",""
"","","","","","html-button-response","116","425071","0.0-113.0-1.0","C81A573CDE2949E39FE921AC0A0401B4","019cee5a-8467-7519-9ec0-364a42ad1a78","019cee47-f225-7d34-90ea-6a2b73898f7d","","1005","
                        <div style=""font-family: Arial; margin-bottom: 20px;""><h3>Which image is luckier?</h3></div>
                        <div class=""stimulus-container"" style=""display: flex; width: 800px; justify-content: center; gap: 30px;"">
                            <img src=""images/causal_sequence/package_causal/package_causal_5.png"" class=""small-image"">
                            <img src=""images/causal_sequence/package_causal/package_causal_7.png"" class=""small-image"">
                        </div>","1","part3_choice_neighbors","","package_causal","","","","7",""
"","","","","","html-keyboard-response","117","428073","0.0-114.0-0.0","C81A573CDE2949E39FE921AC0A0401B4","019cee5a-8467-7519-9ec0-364a42ad1a78","019cee47-f225-7d34-90ea-6a2b73898f7d","","null","
                        <div style=""font-family: Arial; margin-bottom: 20px;""><h3>Which image is luckier?</h3></div>
                        <div class=""stimulus-container"" style=""display: flex; width: 800px; justify-content: center; gap: 30px;"">
                            <img src=""images/schematic_sequence/flight_scheme/flight_scheme_5.png"" class=""small-image"">
                            <img src=""images/schematic_sequence/flight_scheme/flight_scheme_3.png"" class=""small-image"">
                        </div>","null","","","","","","","",""
"","","","","","html-button-response","118","429370","0.0-114.0-1.0","C81A573CDE2949E39FE921AC0A0401B4","019cee5a-8467-7519-9ec0-364a42ad1a78","019cee47-f225-7d34-90ea-6a2b73898f7d","","1296","
                        <div style=""font-family: Arial; margin-bottom: 20px;""><h3>Which image is luckier?</h3></div>
                        <div class=""stimulus-container"" style=""display: flex; width: 800px; justify-content: center; gap: 30px;"">
                            <img src=""images/schematic_sequence/flight_scheme/flight_scheme_5.png"" class=""small-image"">
                            <img src=""images/schematic_sequence/flight_scheme/flight_scheme_3.png"" class=""small-image"">
                        </div>","0","part3_choice_neighbors","","flight_scheme","","","","5",""
"","","","","","html-keyboard-response","119","432372","0.0-115.0-0.0","C81A573CDE2949E39FE921AC0A0401B4","019cee5a-8467-7519-9ec0-364a42ad1a78","019cee47-f225-7d34-90ea-6a2b73898f7d","","null","<div style=""font-family: Arial; margin-bottom: 20px;""><h3>Which image is luckier?</h3></div>
                            <div class=""stimulus-container"" style=""display: flex; width: 800px; justify-content: center; gap: 30px;"">
                                <img src=""images/causal_sequence/the_performance_causal/the_performance_causal_6.png"" class=""small-image"">
                                <img src=""images/causal_sequence/package_causal/package_causal_6.png"" class=""small-image"">
                            </div>","null","","","","","","","",""
"","","","","","html-button-response","120","433279","0.0-115.0-1.0","C81A573CDE2949E39FE921AC0A0401B4","019cee5a-8467-7519-9ec0-364a42ad1a78","019cee47-f225-7d34-90ea-6a2b73898f7d","","907","<div style=""font-family: Arial; margin-bottom: 20px;""><h3>Which image is luckier?</h3></div>
                            <div class=""stimulus-container"" style=""display: flex; width: 800px; justify-content: center; gap: 30px;"">
                                <img src=""images/causal_sequence/the_performance_causal/the_performance_causal_6.png"" class=""small-image"">
                                <img src=""images/causal_sequence/package_causal/package_causal_6.png"" class=""small-image"">
                            </div>","0","part3_valuable_vs_neutral_X","","","","","","","false"
"","","","","","html-keyboard-response","121","436282","0.0-116.0-0.0","C81A573CDE2949E39FE921AC0A0401B4","019cee5a-8467-7519-9ec0-364a42ad1a78","019cee47-f225-7d34-90ea-6a2b73898f7d","","null","<div style=""font-family: Arial; margin-bottom: 20px;""><h3>Which image is luckier?</h3></div>
                            <div class=""stimulus-container"" style=""display: flex; width: 800px; justify-content: center; gap: 30px;"">
                                <img src=""images/schematic_sequence/hotel_scheme/hotel_scheme_4.png"" class=""small-image"">
                                <img src=""images/schematic_sequence/flight_scheme/flight_scheme_4.png"" class=""small-image"">
                            </div>","null","","","","","","","",""
"","","","","","html-button-response","122","437106","0.0-116.0-1.0","C81A573CDE2949E39FE921AC0A0401B4","019cee5a-8467-7519-9ec0-364a42ad1a78","019cee47-f225-7d34-90ea-6a2b73898f7d","","821","<div style=""font-family: Arial; margin-bottom: 20px;""><h3>Which image is luckier?</h3></div>
                            <div class=""stimulus-container"" style=""display: flex; width: 800px; justify-content: center; gap: 30px;"">
                                <img src=""images/schematic_sequence/hotel_scheme/hotel_scheme_4.png"" class=""small-image"">
                                <img src=""images/schematic_sequence/flight_scheme/flight_scheme_4.png"" class=""small-image"">
                            </div>","1","part3_valuable_vs_neutral_X","","","","","","","true"
"","","","","","survey-text","123","488050","0.0-117.0","C81A573CDE2949E39FE921AC0A0401B4","019cee5a-8467-7519-9ec0-364a42ad1a78","019cee47-f225-7d34-90ea-6a2b73898f7d","","50940","","{""gender"":""male"",""age"":""32"",""decision_strategy"":""I just went with a feeling. For when there was no feeling, I used which was worth money"",""consistency_check"":""Yes. There's no real logic to a lot of it anyway.""}","demographics_and_strategy","","","","","","",""
"","","","","","instructions","124","490991","0.0-118.0","C81A573CDE2949E39FE921AC0A0401B4","019cee5a-8467-7519-9ec0-364a42ad1a78","019cee47-f225-7d34-90ea-6a2b73898f7d","[{""page_index"":0,""viewing_time"":2941}]","2941","","","","","","","","","",""
