"success","timeout","failed_images","failed_audio","failed_video","trial_type","trial_index","time_elapsed","internal_node_id","subject_id","study_id","session_id","view_history","rt","stimulus","response","task","image_index","folder","sequence_type","presentation_order","valuable_image_index","reward_type","correct_choice","distance_from_x","target_X","chosen_image_index","is_x_plus_dist"
"true","false","[]","[]","[]","preload","0","13122","0.0-0.0","076DF939850047A7A9AC862E2EF5A47E","019cfcb8-a16b-7ef2-a738-bfaf73a37f65","019cfc7b-6c7b-7b1b-afe7-acad8efc6711","","","","","","","","","","","","","","","",""
"","","","","","instructions","1","14147","0.0-1.0","076DF939850047A7A9AC862E2EF5A47E","019cfcb8-a16b-7ef2-a738-bfaf73a37f65","019cfc7b-6c7b-7b1b-afe7-acad8efc6711","[{""page_index"":0,""viewing_time"":1025}]","1025","","","","","","","","","","","","","",""
"","","","","","instructions","2","16163","0.0-2.0","076DF939850047A7A9AC862E2EF5A47E","019cfcb8-a16b-7ef2-a738-bfaf73a37f65","019cfc7b-6c7b-7b1b-afe7-acad8efc6711","[{""page_index"":0,""viewing_time"":2015}]","2015","","","","","","","","","","","","","",""
"true","","","","","fullscreen","3","18081","0.0-3.0","076DF939850047A7A9AC862E2EF5A47E","019cfcb8-a16b-7ef2-a738-bfaf73a37f65","019cfc7b-6c7b-7b1b-afe7-acad8efc6711","","904","","","","","","","","","","","","","",""
"","","","","","instructions","4","19924","0.0-4.0","076DF939850047A7A9AC862E2EF5A47E","019cfcb8-a16b-7ef2-a738-bfaf73a37f65","019cfc7b-6c7b-7b1b-afe7-acad8efc6711","[{""page_index"":0,""viewing_time"":1842}]","1842","","","","","","","","","","","","","",""
"","","","","","instructions","5","21271","0.0-5.0","076DF939850047A7A9AC862E2EF5A47E","019cfcb8-a16b-7ef2-a738-bfaf73a37f65","019cfc7b-6c7b-7b1b-afe7-acad8efc6711","[{""page_index"":0,""viewing_time"":1348}]","1348","","","","","","","","","","","","","",""
"","","","","","html-keyboard-response","6","25275","0.0-6.0","076DF939850047A7A9AC862E2EF5A47E","019cfcb8-a16b-7ef2-a738-bfaf73a37f65","019cfc7b-6c7b-7b1b-afe7-acad8efc6711","","null","
                <div class=""stimulus-container"">
                    <img src=""images/instructions/movie_1.png"" class=""exp-image"">
                    <div class=""question-area""></div> 
                </div>","null","","","","","","","","","","","",""
"","","","","","html-button-response","7","26569","0.0-7.0","076DF939850047A7A9AC862E2EF5A47E","019cfcb8-a16b-7ef2-a738-bfaf73a37f65","019cfc7b-6c7b-7b1b-afe7-acad8efc6711","","1293","
                <div class=""stimulus-container"">
                    <img src=""images/instructions/movie_1.png"" class=""exp-image"">
                    <div class=""question-area"">
                        <p style=""font-size: 20px; font-weight: bold; margin: 0;"">Was there a person in this image?</p>
                    </div>
                </div>","0","example_question","1","","","","","","","","","",""
"","","","","","html-keyboard-response","8","30578","0.0-8.0","076DF939850047A7A9AC862E2EF5A47E","019cfcb8-a16b-7ef2-a738-bfaf73a37f65","019cfc7b-6c7b-7b1b-afe7-acad8efc6711","","null","
                <div class=""stimulus-container"">
                    <img src=""images/instructions/movie_2.png"" class=""exp-image"">
                    <div class=""question-area""></div> 
                </div>","null","","","","","","","","","","","",""
"","","","","","html-button-response","9","31062","0.0-9.0","076DF939850047A7A9AC862E2EF5A47E","019cfcb8-a16b-7ef2-a738-bfaf73a37f65","019cfc7b-6c7b-7b1b-afe7-acad8efc6711","","483","
                <div class=""stimulus-container"">
                    <img src=""images/instructions/movie_2.png"" class=""exp-image"">
                    <div class=""question-area"">
                        <p style=""font-size: 20px; font-weight: bold; margin: 0;"">Was there a person in this image?</p>
                    </div>
                </div>","0","example_question","2","","","","","","","","","",""
"","","","","","html-keyboard-response","10","35073","0.0-10.0","076DF939850047A7A9AC862E2EF5A47E","019cfcb8-a16b-7ef2-a738-bfaf73a37f65","019cfc7b-6c7b-7b1b-afe7-acad8efc6711","","null","
                <div class=""stimulus-container"">
                    <img src=""images/instructions/movie_3.png"" class=""exp-image"">
                    <div class=""question-area""></div> 
                </div>","null","","","","","","","","","","","",""
"","","","","","html-button-response","11","35548","0.0-11.0","076DF939850047A7A9AC862E2EF5A47E","019cfcb8-a16b-7ef2-a738-bfaf73a37f65","019cfc7b-6c7b-7b1b-afe7-acad8efc6711","","474","
                <div class=""stimulus-container"">
                    <img src=""images/instructions/movie_3.png"" class=""exp-image"">
                    <div class=""question-area"">
                        <p style=""font-size: 20px; font-weight: bold; margin: 0;"">Was there a person in this image?</p>
                    </div>
                </div>","0","example_question","3","","","","","","","","","",""
"","","","","","html-keyboard-response","12","39563","0.0-12.0","076DF939850047A7A9AC862E2EF5A47E","019cfcb8-a16b-7ef2-a738-bfaf73a37f65","019cfc7b-6c7b-7b1b-afe7-acad8efc6711","","null","
                <div class=""stimulus-container"">
                    <img src=""images/instructions/movie_4.png"" class=""exp-image"">
                    <div class=""question-area""></div> 
                </div>","null","","","","","","","","","","","",""
"","","","","","html-button-response","13","40010","0.0-13.0","076DF939850047A7A9AC862E2EF5A47E","019cfcb8-a16b-7ef2-a738-bfaf73a37f65","019cfc7b-6c7b-7b1b-afe7-acad8efc6711","","447","
                <div class=""stimulus-container"">
                    <img src=""images/instructions/movie_4.png"" class=""exp-image"">
                    <div class=""question-area"">
                        <p style=""font-size: 20px; font-weight: bold; margin: 0;"">Was there a person in this image?</p>
                    </div>
                </div>","0","example_question","4","","","","","","","","","",""
"","","","","","instructions","14","41066","0.0-14.0","076DF939850047A7A9AC862E2EF5A47E","019cfcb8-a16b-7ef2-a738-bfaf73a37f65","019cfc7b-6c7b-7b1b-afe7-acad8efc6711","[{""page_index"":0,""viewing_time"":1057}]","1057","","","","","","","","","","","","","",""
"","","","","","instructions","15","44477","0.0-15.0","076DF939850047A7A9AC862E2EF5A47E","019cfcb8-a16b-7ef2-a738-bfaf73a37f65","019cfc7b-6c7b-7b1b-afe7-acad8efc6711","[{""page_index"":0,""viewing_time"":3411}]","3411","","","","","","","","","","","","","",""
"","","","","","html-keyboard-response","16","49488","0.0-16.0","076DF939850047A7A9AC862E2EF5A47E","019cfcb8-a16b-7ef2-a738-bfaf73a37f65","019cfc7b-6c7b-7b1b-afe7-acad8efc6711","","null","<div style=""background-color: white; width: 100vw; height: 100vh;""></div>","null","","","","","","","","","","","",""
"","","","","","html-keyboard-response","17","54496","0.0-17.0","076DF939850047A7A9AC862E2EF5A47E","019cfcb8-a16b-7ef2-a738-bfaf73a37f65","019cfc7b-6c7b-7b1b-afe7-acad8efc6711","","null","
                <div class=""stimulus-container"">
                    <img src=""images/schematic_sequence/hotel_scheme/hotel_scheme_1.png"" class=""exp-image"">
                    <div class=""question-area""></div> 
                </div>","null","","","","","","","","","","","",""
"","","","","","html-button-response","18","55366","0.0-18.0","076DF939850047A7A9AC862E2EF5A47E","019cfcb8-a16b-7ef2-a738-bfaf73a37f65","019cfc7b-6c7b-7b1b-afe7-acad8efc6711","","870","
                <div class=""stimulus-container"">
                    <img src=""images/schematic_sequence/hotel_scheme/hotel_scheme_1.png"" class=""exp-image"">
                    <div class=""question-area"">
                        <p style=""font-size: 20px; font-weight: bold; margin: 0;"">Is there a person in this image?</p>
                    </div>
                </div>","1","main_experiment_trial","1","hotel_scheme","schematic_sequence","chronological","","","","","","",""
"","","","","","html-keyboard-response","19","60378","0.0-19.0","076DF939850047A7A9AC862E2EF5A47E","019cfcb8-a16b-7ef2-a738-bfaf73a37f65","019cfc7b-6c7b-7b1b-afe7-acad8efc6711","","null","
                <div class=""stimulus-container"">
                    <img src=""images/schematic_sequence/hotel_scheme/hotel_scheme_2.png"" class=""exp-image"">
                    <div class=""question-area""></div> 
                </div>","null","","","","","","","","","","","",""
"","","","","","html-button-response","20","60856","0.0-20.0","076DF939850047A7A9AC862E2EF5A47E","019cfcb8-a16b-7ef2-a738-bfaf73a37f65","019cfc7b-6c7b-7b1b-afe7-acad8efc6711","","477","
                <div class=""stimulus-container"">
                    <img src=""images/schematic_sequence/hotel_scheme/hotel_scheme_2.png"" class=""exp-image"">
                    <div class=""question-area"">
                        <p style=""font-size: 20px; font-weight: bold; margin: 0;"">Is there a person in this image?</p>
                    </div>
                </div>","0","main_experiment_trial","2","hotel_scheme","schematic_sequence","chronological","","","","","","",""
"","","","","","html-keyboard-response","21","65857","0.0-21.0","076DF939850047A7A9AC862E2EF5A47E","019cfcb8-a16b-7ef2-a738-bfaf73a37f65","019cfc7b-6c7b-7b1b-afe7-acad8efc6711","","null","
                <div class=""stimulus-container"">
                    <img src=""images/schematic_sequence/hotel_scheme/hotel_scheme_3.png"" class=""exp-image"">
                    <div class=""question-area""></div> 
                </div>","null","","","","","","","","","","","",""
"","","","","","html-button-response","22","66192","0.0-22.0","076DF939850047A7A9AC862E2EF5A47E","019cfcb8-a16b-7ef2-a738-bfaf73a37f65","019cfc7b-6c7b-7b1b-afe7-acad8efc6711","","334","
                <div class=""stimulus-container"">
                    <img src=""images/schematic_sequence/hotel_scheme/hotel_scheme_3.png"" class=""exp-image"">
                    <div class=""question-area"">
                        <p style=""font-size: 20px; font-weight: bold; margin: 0;"">Is there a person in this image?</p>
                    </div>
                </div>","0","main_experiment_trial","3","hotel_scheme","schematic_sequence","chronological","","","","","","",""
"","","","","","html-keyboard-response","23","71201","0.0-23.0","076DF939850047A7A9AC862E2EF5A47E","019cfcb8-a16b-7ef2-a738-bfaf73a37f65","019cfc7b-6c7b-7b1b-afe7-acad8efc6711","","null","
                <div class=""stimulus-container"">
                    <img src=""images/schematic_sequence/hotel_scheme/hotel_scheme_4.png"" class=""exp-image"">
                    <div class=""question-area""></div> 
                </div>","null","","","","","","","","","","","",""
"","","","","","html-button-response","24","71832","0.0-24.0","076DF939850047A7A9AC862E2EF5A47E","019cfcb8-a16b-7ef2-a738-bfaf73a37f65","019cfc7b-6c7b-7b1b-afe7-acad8efc6711","","630","
                <div class=""stimulus-container"">
                    <img src=""images/schematic_sequence/hotel_scheme/hotel_scheme_4.png"" class=""exp-image"">
                    <div class=""question-area"">
                        <p style=""font-size: 20px; font-weight: bold; margin: 0;"">Is there a person in this image?</p>
                    </div>
                </div>","1","main_experiment_trial","4","hotel_scheme","schematic_sequence","chronological","","","","","","",""
"","","","","","html-keyboard-response","25","76837","0.0-25.0","076DF939850047A7A9AC862E2EF5A47E","019cfcb8-a16b-7ef2-a738-bfaf73a37f65","019cfc7b-6c7b-7b1b-afe7-acad8efc6711","","null","
                <div class=""stimulus-container"">
                    <img src=""images/schematic_sequence/hotel_scheme/hotel_scheme_5.png"" class=""exp-image"">
                    <div class=""question-area""></div> 
                </div>","null","","","","","","","","","","","",""
"","","","","","html-button-response","26","77205","0.0-26.0","076DF939850047A7A9AC862E2EF5A47E","019cfcb8-a16b-7ef2-a738-bfaf73a37f65","019cfc7b-6c7b-7b1b-afe7-acad8efc6711","","368","
                <div class=""stimulus-container"">
                    <img src=""images/schematic_sequence/hotel_scheme/hotel_scheme_5.png"" class=""exp-image"">
                    <div class=""question-area"">
                        <p style=""font-size: 20px; font-weight: bold; margin: 0;"">Is there a person in this image?</p>
                    </div>
                </div>","0","main_experiment_trial","5","hotel_scheme","schematic_sequence","chronological","","","","","","",""
"","","","","","html-keyboard-response","27","82220","0.0-27.0","076DF939850047A7A9AC862E2EF5A47E","019cfcb8-a16b-7ef2-a738-bfaf73a37f65","019cfc7b-6c7b-7b1b-afe7-acad8efc6711","","null","
                <div class=""stimulus-container"">
                    <img src=""images/schematic_sequence/hotel_scheme/hotel_scheme_6.png"" class=""exp-image"">
                    <div class=""question-area""></div> 
                </div>","null","","","","","","","","","","","",""
"","","","","","html-button-response","28","82612","0.0-28.0","076DF939850047A7A9AC862E2EF5A47E","019cfcb8-a16b-7ef2-a738-bfaf73a37f65","019cfc7b-6c7b-7b1b-afe7-acad8efc6711","","392","
                <div class=""stimulus-container"">
                    <img src=""images/schematic_sequence/hotel_scheme/hotel_scheme_6.png"" class=""exp-image"">
                    <div class=""question-area"">
                        <p style=""font-size: 20px; font-weight: bold; margin: 0;"">Is there a person in this image?</p>
                    </div>
                </div>","0","main_experiment_trial","6","hotel_scheme","schematic_sequence","chronological","","","","","","",""
"","","","","","html-keyboard-response","29","87629","0.0-29.0","076DF939850047A7A9AC862E2EF5A47E","019cfcb8-a16b-7ef2-a738-bfaf73a37f65","019cfc7b-6c7b-7b1b-afe7-acad8efc6711","","null","
                <div class=""stimulus-container"">
                    <img src=""images/schematic_sequence/hotel_scheme/hotel_scheme_7.png"" class=""exp-image"">
                    <div class=""question-area""></div> 
                </div>","null","","","","","","","","","","","",""
"","","","","","html-button-response","30","87992","0.0-30.0","076DF939850047A7A9AC862E2EF5A47E","019cfcb8-a16b-7ef2-a738-bfaf73a37f65","019cfc7b-6c7b-7b1b-afe7-acad8efc6711","","363","
                <div class=""stimulus-container"">
                    <img src=""images/schematic_sequence/hotel_scheme/hotel_scheme_7.png"" class=""exp-image"">
                    <div class=""question-area"">
                        <p style=""font-size: 20px; font-weight: bold; margin: 0;"">Is there a person in this image?</p>
                    </div>
                </div>","0","main_experiment_trial","7","hotel_scheme","schematic_sequence","chronological","","","","","","",""
"","","","","","html-keyboard-response","31","92996","0.0-31.0","076DF939850047A7A9AC862E2EF5A47E","019cfcb8-a16b-7ef2-a738-bfaf73a37f65","019cfc7b-6c7b-7b1b-afe7-acad8efc6711","","null","
                <div class=""stimulus-container"">
                    <img src=""images/schematic_sequence/hotel_scheme/hotel_scheme_8.png"" class=""exp-image"">
                    <div class=""question-area""></div> 
                </div>","null","","","","","","","","","","","",""
"","","","","","html-button-response","32","93538","0.0-32.0","076DF939850047A7A9AC862E2EF5A47E","019cfcb8-a16b-7ef2-a738-bfaf73a37f65","019cfc7b-6c7b-7b1b-afe7-acad8efc6711","","542","
                <div class=""stimulus-container"">
                    <img src=""images/schematic_sequence/hotel_scheme/hotel_scheme_8.png"" class=""exp-image"">
                    <div class=""question-area"">
                        <p style=""font-size: 20px; font-weight: bold; margin: 0;"">Is there a person in this image?</p>
                    </div>
                </div>","0","main_experiment_trial","8","hotel_scheme","schematic_sequence","chronological","","","","","","",""
"","","","","","html-keyboard-response","33","98540","0.0-33.0","076DF939850047A7A9AC862E2EF5A47E","019cfcb8-a16b-7ef2-a738-bfaf73a37f65","019cfc7b-6c7b-7b1b-afe7-acad8efc6711","","null","
                <div class=""stimulus-container"">
                    <img src=""images/schematic_sequence/hotel_scheme/hotel_scheme_9.png"" class=""exp-image"">
                    <div class=""question-area""></div> 
                </div>","null","","","","","","","","","","","",""
"","","","","","html-button-response","34","99012","0.0-34.0","076DF939850047A7A9AC862E2EF5A47E","019cfcb8-a16b-7ef2-a738-bfaf73a37f65","019cfc7b-6c7b-7b1b-afe7-acad8efc6711","","471","
                <div class=""stimulus-container"">
                    <img src=""images/schematic_sequence/hotel_scheme/hotel_scheme_9.png"" class=""exp-image"">
                    <div class=""question-area"">
                        <p style=""font-size: 20px; font-weight: bold; margin: 0;"">Is there a person in this image?</p>
                    </div>
                </div>","0","main_experiment_trial","9","hotel_scheme","schematic_sequence","chronological","","","","","","",""
"","","","","","html-keyboard-response","35","104022","0.0-35.0","076DF939850047A7A9AC862E2EF5A47E","019cfcb8-a16b-7ef2-a738-bfaf73a37f65","019cfc7b-6c7b-7b1b-afe7-acad8efc6711","","null","
                <div class=""stimulus-container"">
                    <img src=""images/schematic_sequence/hotel_scheme/hotel_scheme_ten.png"" class=""exp-image"">
                    <div class=""question-area""></div> 
                </div>","null","","","","","","","","","","","",""
"","","","","","html-button-response","36","104336","0.0-36.0","076DF939850047A7A9AC862E2EF5A47E","019cfcb8-a16b-7ef2-a738-bfaf73a37f65","019cfc7b-6c7b-7b1b-afe7-acad8efc6711","","314","
                <div class=""stimulus-container"">
                    <img src=""images/schematic_sequence/hotel_scheme/hotel_scheme_ten.png"" class=""exp-image"">
                    <div class=""question-area"">
                        <p style=""font-size: 20px; font-weight: bold; margin: 0;"">Is there a person in this image?</p>
                    </div>
                </div>","0","main_experiment_trial","ten","hotel_scheme","schematic_sequence","chronological","","","","","","",""
"","","","","","html-keyboard-response","37","109344","0.0-37.0","076DF939850047A7A9AC862E2EF5A47E","019cfcb8-a16b-7ef2-a738-bfaf73a37f65","019cfc7b-6c7b-7b1b-afe7-acad8efc6711","","null","<div style=""background-color: white; width: 100vw; height: 100vh;""></div>","null","","","","","","","","","","","",""
"","","","","","html-keyboard-response","38","114360","0.0-38.0","076DF939850047A7A9AC862E2EF5A47E","019cfcb8-a16b-7ef2-a738-bfaf73a37f65","019cfc7b-6c7b-7b1b-afe7-acad8efc6711","","null","
                <div class=""stimulus-container"">
                    <img src=""images/schematic_sequence/restaurant_scheme/restaurant_scheme_1.png"" class=""exp-image"">
                    <div class=""question-area""></div> 
                </div>","null","","","","","","","","","","","",""
"","","","","","html-button-response","39","114819","0.0-39.0","076DF939850047A7A9AC862E2EF5A47E","019cfcb8-a16b-7ef2-a738-bfaf73a37f65","019cfc7b-6c7b-7b1b-afe7-acad8efc6711","","459","
                <div class=""stimulus-container"">
                    <img src=""images/schematic_sequence/restaurant_scheme/restaurant_scheme_1.png"" class=""exp-image"">
                    <div class=""question-area"">
                        <p style=""font-size: 20px; font-weight: bold; margin: 0;"">Is there a person in this image?</p>
                    </div>
                </div>","0","main_experiment_trial","1","restaurant_scheme","schematic_sequence","chronological","","","","","","",""
"","","","","","html-keyboard-response","40","119832","0.0-40.0","076DF939850047A7A9AC862E2EF5A47E","019cfcb8-a16b-7ef2-a738-bfaf73a37f65","019cfc7b-6c7b-7b1b-afe7-acad8efc6711","","null","
                <div class=""stimulus-container"">
                    <img src=""images/schematic_sequence/restaurant_scheme/restaurant_scheme_2.png"" class=""exp-image"">
                    <div class=""question-area""></div> 
                </div>","null","","","","","","","","","","","",""
"","","","","","html-button-response","41","120221","0.0-41.0","076DF939850047A7A9AC862E2EF5A47E","019cfcb8-a16b-7ef2-a738-bfaf73a37f65","019cfc7b-6c7b-7b1b-afe7-acad8efc6711","","389","
                <div class=""stimulus-container"">
                    <img src=""images/schematic_sequence/restaurant_scheme/restaurant_scheme_2.png"" class=""exp-image"">
                    <div class=""question-area"">
                        <p style=""font-size: 20px; font-weight: bold; margin: 0;"">Is there a person in this image?</p>
                    </div>
                </div>","1","main_experiment_trial","2","restaurant_scheme","schematic_sequence","chronological","","","","","","",""
"","","","","","html-keyboard-response","42","125230","0.0-42.0","076DF939850047A7A9AC862E2EF5A47E","019cfcb8-a16b-7ef2-a738-bfaf73a37f65","019cfc7b-6c7b-7b1b-afe7-acad8efc6711","","null","
                <div class=""stimulus-container"">
                    <img src=""images/schematic_sequence/restaurant_scheme/restaurant_scheme_3.png"" class=""exp-image"">
                    <div class=""question-area""></div> 
                </div>","null","","","","","","","","","","","",""
"","","","","","html-button-response","43","125582","0.0-43.0","076DF939850047A7A9AC862E2EF5A47E","019cfcb8-a16b-7ef2-a738-bfaf73a37f65","019cfc7b-6c7b-7b1b-afe7-acad8efc6711","","352","
                <div class=""stimulus-container"">
                    <img src=""images/schematic_sequence/restaurant_scheme/restaurant_scheme_3.png"" class=""exp-image"">
                    <div class=""question-area"">
                        <p style=""font-size: 20px; font-weight: bold; margin: 0;"">Is there a person in this image?</p>
                    </div>
                </div>","1","main_experiment_trial","3","restaurant_scheme","schematic_sequence","chronological","","","","","","",""
"","","","","","html-keyboard-response","44","130588","0.0-44.0","076DF939850047A7A9AC862E2EF5A47E","019cfcb8-a16b-7ef2-a738-bfaf73a37f65","019cfc7b-6c7b-7b1b-afe7-acad8efc6711","","null","
                <div class=""stimulus-container"">
                    <img src=""images/schematic_sequence/restaurant_scheme/restaurant_scheme_4.png"" class=""exp-image"">
                    <div class=""question-area""></div> 
                </div>","null","","","","","","","","","","","",""
"","","","","","html-button-response","45","130919","0.0-45.0","076DF939850047A7A9AC862E2EF5A47E","019cfcb8-a16b-7ef2-a738-bfaf73a37f65","019cfc7b-6c7b-7b1b-afe7-acad8efc6711","","330","
                <div class=""stimulus-container"">
                    <img src=""images/schematic_sequence/restaurant_scheme/restaurant_scheme_4.png"" class=""exp-image"">
                    <div class=""question-area"">
                        <p style=""font-size: 20px; font-weight: bold; margin: 0;"">Is there a person in this image?</p>
                    </div>
                </div>","0","main_experiment_trial","4","restaurant_scheme","schematic_sequence","chronological","","","","","","",""
"","","","","","html-keyboard-response","46","135934","0.0-46.0","076DF939850047A7A9AC862E2EF5A47E","019cfcb8-a16b-7ef2-a738-bfaf73a37f65","019cfc7b-6c7b-7b1b-afe7-acad8efc6711","","null","
                <div class=""stimulus-container"">
                    <img src=""images/schematic_sequence/restaurant_scheme/restaurant_scheme_5.png"" class=""exp-image"">
                    <div class=""question-area""></div> 
                </div>","null","","","","","","","","","","","",""
"","","","","","html-button-response","47","136249","0.0-47.0","076DF939850047A7A9AC862E2EF5A47E","019cfcb8-a16b-7ef2-a738-bfaf73a37f65","019cfc7b-6c7b-7b1b-afe7-acad8efc6711","","314","
                <div class=""stimulus-container"">
                    <img src=""images/schematic_sequence/restaurant_scheme/restaurant_scheme_5.png"" class=""exp-image"">
                    <div class=""question-area"">
                        <p style=""font-size: 20px; font-weight: bold; margin: 0;"">Is there a person in this image?</p>
                    </div>
                </div>","0","main_experiment_trial","5","restaurant_scheme","schematic_sequence","chronological","","","","","","",""
"","","","","","html-keyboard-response","48","141260","0.0-48.0","076DF939850047A7A9AC862E2EF5A47E","019cfcb8-a16b-7ef2-a738-bfaf73a37f65","019cfc7b-6c7b-7b1b-afe7-acad8efc6711","","null","
                <div class=""stimulus-container"">
                    <img src=""images/schematic_sequence/restaurant_scheme/restaurant_scheme_6.png"" class=""exp-image"">
                    <div class=""question-area""></div> 
                </div>","null","","","","","","","","","","","",""
"","","","","","html-button-response","49","141757","0.0-49.0","076DF939850047A7A9AC862E2EF5A47E","019cfcb8-a16b-7ef2-a738-bfaf73a37f65","019cfc7b-6c7b-7b1b-afe7-acad8efc6711","","496","
                <div class=""stimulus-container"">
                    <img src=""images/schematic_sequence/restaurant_scheme/restaurant_scheme_6.png"" class=""exp-image"">
                    <div class=""question-area"">
                        <p style=""font-size: 20px; font-weight: bold; margin: 0;"">Is there a person in this image?</p>
                    </div>
                </div>","1","main_experiment_trial","6","restaurant_scheme","schematic_sequence","chronological","","","","","","",""
"","","","","","html-keyboard-response","50","146762","0.0-50.0","076DF939850047A7A9AC862E2EF5A47E","019cfcb8-a16b-7ef2-a738-bfaf73a37f65","019cfc7b-6c7b-7b1b-afe7-acad8efc6711","","null","
                <div class=""stimulus-container"">
                    <img src=""images/schematic_sequence/restaurant_scheme/restaurant_scheme_7.png"" class=""exp-image"">
                    <div class=""question-area""></div> 
                </div>","null","","","","","","","","","","","",""
"","","","","","html-button-response","51","147347","0.0-51.0","076DF939850047A7A9AC862E2EF5A47E","019cfcb8-a16b-7ef2-a738-bfaf73a37f65","019cfc7b-6c7b-7b1b-afe7-acad8efc6711","","584","
                <div class=""stimulus-container"">
                    <img src=""images/schematic_sequence/restaurant_scheme/restaurant_scheme_7.png"" class=""exp-image"">
                    <div class=""question-area"">
                        <p style=""font-size: 20px; font-weight: bold; margin: 0;"">Is there a person in this image?</p>
                    </div>
                </div>","1","main_experiment_trial","7","restaurant_scheme","schematic_sequence","chronological","","","","","","",""
"","","","","","html-keyboard-response","52","152360","0.0-52.0","076DF939850047A7A9AC862E2EF5A47E","019cfcb8-a16b-7ef2-a738-bfaf73a37f65","019cfc7b-6c7b-7b1b-afe7-acad8efc6711","","null","
                <div class=""stimulus-container"">
                    <img src=""images/schematic_sequence/restaurant_scheme/restaurant_scheme_8.png"" class=""exp-image"">
                    <div class=""question-area""></div> 
                </div>","null","","","","","","","","","","","",""
"","","","","","html-button-response","53","152682","0.0-53.0","076DF939850047A7A9AC862E2EF5A47E","019cfcb8-a16b-7ef2-a738-bfaf73a37f65","019cfc7b-6c7b-7b1b-afe7-acad8efc6711","","322","
                <div class=""stimulus-container"">
                    <img src=""images/schematic_sequence/restaurant_scheme/restaurant_scheme_8.png"" class=""exp-image"">
                    <div class=""question-area"">
                        <p style=""font-size: 20px; font-weight: bold; margin: 0;"">Is there a person in this image?</p>
                    </div>
                </div>","0","main_experiment_trial","8","restaurant_scheme","schematic_sequence","chronological","","","","","","",""
"","","","","","html-keyboard-response","54","157690","0.0-54.0","076DF939850047A7A9AC862E2EF5A47E","019cfcb8-a16b-7ef2-a738-bfaf73a37f65","019cfc7b-6c7b-7b1b-afe7-acad8efc6711","","null","
                <div class=""stimulus-container"">
                    <img src=""images/schematic_sequence/restaurant_scheme/restaurant_scheme_9.png"" class=""exp-image"">
                    <div class=""question-area""></div> 
                </div>","null","","","","","","","","","","","",""
"","","","","","html-button-response","55","158481","0.0-55.0","076DF939850047A7A9AC862E2EF5A47E","019cfcb8-a16b-7ef2-a738-bfaf73a37f65","019cfc7b-6c7b-7b1b-afe7-acad8efc6711","","790","
                <div class=""stimulus-container"">
                    <img src=""images/schematic_sequence/restaurant_scheme/restaurant_scheme_9.png"" class=""exp-image"">
                    <div class=""question-area"">
                        <p style=""font-size: 20px; font-weight: bold; margin: 0;"">Is there a person in this image?</p>
                    </div>
                </div>","0","main_experiment_trial","9","restaurant_scheme","schematic_sequence","chronological","","","","","","",""
"","","","","","html-keyboard-response","56","163492","0.0-56.0","076DF939850047A7A9AC862E2EF5A47E","019cfcb8-a16b-7ef2-a738-bfaf73a37f65","019cfc7b-6c7b-7b1b-afe7-acad8efc6711","","null","
                <div class=""stimulus-container"">
                    <img src=""images/schematic_sequence/restaurant_scheme/restaurant_scheme_ten.png"" class=""exp-image"">
                    <div class=""question-area""></div> 
                </div>","null","","","","","","","","","","","",""
"","","","","","html-button-response","57","163813","0.0-57.0","076DF939850047A7A9AC862E2EF5A47E","019cfcb8-a16b-7ef2-a738-bfaf73a37f65","019cfc7b-6c7b-7b1b-afe7-acad8efc6711","","321","
                <div class=""stimulus-container"">
                    <img src=""images/schematic_sequence/restaurant_scheme/restaurant_scheme_ten.png"" class=""exp-image"">
                    <div class=""question-area"">
                        <p style=""font-size: 20px; font-weight: bold; margin: 0;"">Is there a person in this image?</p>
                    </div>
                </div>","0","main_experiment_trial","ten","restaurant_scheme","schematic_sequence","chronological","","","","","","",""
"","","","","","html-keyboard-response","58","168826","0.0-58.0","076DF939850047A7A9AC862E2EF5A47E","019cfcb8-a16b-7ef2-a738-bfaf73a37f65","019cfc7b-6c7b-7b1b-afe7-acad8efc6711","","null","<div style=""background-color: white; width: 100vw; height: 100vh;""></div>","null","","","","","","","","","","","",""
"","","","","","html-keyboard-response","59","173830","0.0-59.0","076DF939850047A7A9AC862E2EF5A47E","019cfcb8-a16b-7ef2-a738-bfaf73a37f65","019cfc7b-6c7b-7b1b-afe7-acad8efc6711","","null","
                <div class=""stimulus-container"">
                    <img src=""images/schematic_sequence/flight_scheme/flight_scheme_1.png"" class=""exp-image"">
                    <div class=""question-area""></div> 
                </div>","null","","","","","","","","","","","",""
"","","","","","html-button-response","60","174288","0.0-60.0","076DF939850047A7A9AC862E2EF5A47E","019cfcb8-a16b-7ef2-a738-bfaf73a37f65","019cfc7b-6c7b-7b1b-afe7-acad8efc6711","","458","
                <div class=""stimulus-container"">
                    <img src=""images/schematic_sequence/flight_scheme/flight_scheme_1.png"" class=""exp-image"">
                    <div class=""question-area"">
                        <p style=""font-size: 20px; font-weight: bold; margin: 0;"">Is there a person in this image?</p>
                    </div>
                </div>","0","main_experiment_trial","1","flight_scheme","schematic_sequence","chronological","","","","","","",""
"","","","","","html-keyboard-response","61","179295","0.0-61.0","076DF939850047A7A9AC862E2EF5A47E","019cfcb8-a16b-7ef2-a738-bfaf73a37f65","019cfc7b-6c7b-7b1b-afe7-acad8efc6711","","null","
                <div class=""stimulus-container"">
                    <img src=""images/schematic_sequence/flight_scheme/flight_scheme_2.png"" class=""exp-image"">
                    <div class=""question-area""></div> 
                </div>","null","","","","","","","","","","","",""
"","","","","","html-button-response","62","179877","0.0-62.0","076DF939850047A7A9AC862E2EF5A47E","019cfcb8-a16b-7ef2-a738-bfaf73a37f65","019cfc7b-6c7b-7b1b-afe7-acad8efc6711","","582","
                <div class=""stimulus-container"">
                    <img src=""images/schematic_sequence/flight_scheme/flight_scheme_2.png"" class=""exp-image"">
                    <div class=""question-area"">
                        <p style=""font-size: 20px; font-weight: bold; margin: 0;"">Is there a person in this image?</p>
                    </div>
                </div>","1","main_experiment_trial","2","flight_scheme","schematic_sequence","chronological","","","","","","",""
"","","","","","html-keyboard-response","63","184878","0.0-63.0","076DF939850047A7A9AC862E2EF5A47E","019cfcb8-a16b-7ef2-a738-bfaf73a37f65","019cfc7b-6c7b-7b1b-afe7-acad8efc6711","","null","
                <div class=""stimulus-container"">
                    <img src=""images/schematic_sequence/flight_scheme/flight_scheme_3.png"" class=""exp-image"">
                    <div class=""question-area""></div> 
                </div>","null","","","","","","","","","","","",""
"","","","","","html-button-response","64","185320","0.0-64.0","076DF939850047A7A9AC862E2EF5A47E","019cfcb8-a16b-7ef2-a738-bfaf73a37f65","019cfc7b-6c7b-7b1b-afe7-acad8efc6711","","441","
                <div class=""stimulus-container"">
                    <img src=""images/schematic_sequence/flight_scheme/flight_scheme_3.png"" class=""exp-image"">
                    <div class=""question-area"">
                        <p style=""font-size: 20px; font-weight: bold; margin: 0;"">Is there a person in this image?</p>
                    </div>
                </div>","0","main_experiment_trial","3","flight_scheme","schematic_sequence","chronological","","","","","","",""
"","","","","","html-keyboard-response","65","190330","0.0-65.0","076DF939850047A7A9AC862E2EF5A47E","019cfcb8-a16b-7ef2-a738-bfaf73a37f65","019cfc7b-6c7b-7b1b-afe7-acad8efc6711","","null","
                <div class=""stimulus-container"">
                    <img src=""images/schematic_sequence/flight_scheme/flight_scheme_4.png"" class=""exp-image"">
                    <div class=""question-area""></div> 
                </div>","null","","","","","","","","","","","",""
"","","","","","html-button-response","66","190628","0.0-66.0","076DF939850047A7A9AC862E2EF5A47E","019cfcb8-a16b-7ef2-a738-bfaf73a37f65","019cfc7b-6c7b-7b1b-afe7-acad8efc6711","","298","
                <div class=""stimulus-container"">
                    <img src=""images/schematic_sequence/flight_scheme/flight_scheme_4.png"" class=""exp-image"">
                    <div class=""question-area"">
                        <p style=""font-size: 20px; font-weight: bold; margin: 0;"">Is there a person in this image?</p>
                    </div>
                </div>","0","main_experiment_trial","4","flight_scheme","schematic_sequence","chronological","","","","","","",""
"","","","","","html-keyboard-response","67","195633","0.0-67.0","076DF939850047A7A9AC862E2EF5A47E","019cfcb8-a16b-7ef2-a738-bfaf73a37f65","019cfc7b-6c7b-7b1b-afe7-acad8efc6711","","null","
                <div class=""stimulus-container"">
                    <img src=""images/schematic_sequence/flight_scheme/flight_scheme_5.png"" class=""exp-image"">
                    <div class=""question-area""></div> 
                </div>","null","","","","","","","","","","","",""
"","","","","","html-button-response","68","196077","0.0-68.0","076DF939850047A7A9AC862E2EF5A47E","019cfcb8-a16b-7ef2-a738-bfaf73a37f65","019cfc7b-6c7b-7b1b-afe7-acad8efc6711","","444","
                <div class=""stimulus-container"">
                    <img src=""images/schematic_sequence/flight_scheme/flight_scheme_5.png"" class=""exp-image"">
                    <div class=""question-area"">
                        <p style=""font-size: 20px; font-weight: bold; margin: 0;"">Is there a person in this image?</p>
                    </div>
                </div>","0","main_experiment_trial","5","flight_scheme","schematic_sequence","chronological","","","","","","",""
"","","","","","html-keyboard-response","69","201081","0.0-69.0","076DF939850047A7A9AC862E2EF5A47E","019cfcb8-a16b-7ef2-a738-bfaf73a37f65","019cfc7b-6c7b-7b1b-afe7-acad8efc6711","","null","
                <div class=""stimulus-container"">
                    <img src=""images/schematic_sequence/flight_scheme/flight_scheme_6.png"" class=""exp-image"">
                    <div class=""question-area""></div> 
                </div>","null","","","","","","","","","","","",""
"","","","","","html-button-response","70","201464","0.0-70.0","076DF939850047A7A9AC862E2EF5A47E","019cfcb8-a16b-7ef2-a738-bfaf73a37f65","019cfc7b-6c7b-7b1b-afe7-acad8efc6711","","383","
                <div class=""stimulus-container"">
                    <img src=""images/schematic_sequence/flight_scheme/flight_scheme_6.png"" class=""exp-image"">
                    <div class=""question-area"">
                        <p style=""font-size: 20px; font-weight: bold; margin: 0;"">Is there a person in this image?</p>
                    </div>
                </div>","1","main_experiment_trial","6","flight_scheme","schematic_sequence","chronological","","","","","","",""
"","","","","","html-keyboard-response","71","206469","0.0-71.0","076DF939850047A7A9AC862E2EF5A47E","019cfcb8-a16b-7ef2-a738-bfaf73a37f65","019cfc7b-6c7b-7b1b-afe7-acad8efc6711","","null","
                <div class=""stimulus-container"">
                    <img src=""images/schematic_sequence/flight_scheme/flight_scheme_7.png"" class=""exp-image"">
                    <div class=""question-area""></div> 
                </div>","null","","","","","","","","","","","",""
"","","","","","html-button-response","72","206799","0.0-72.0","076DF939850047A7A9AC862E2EF5A47E","019cfcb8-a16b-7ef2-a738-bfaf73a37f65","019cfc7b-6c7b-7b1b-afe7-acad8efc6711","","330","
                <div class=""stimulus-container"">
                    <img src=""images/schematic_sequence/flight_scheme/flight_scheme_7.png"" class=""exp-image"">
                    <div class=""question-area"">
                        <p style=""font-size: 20px; font-weight: bold; margin: 0;"">Is there a person in this image?</p>
                    </div>
                </div>","0","main_experiment_trial","7","flight_scheme","schematic_sequence","chronological","","","","","","",""
"","","","","","html-keyboard-response","73","211807","0.0-73.0","076DF939850047A7A9AC862E2EF5A47E","019cfcb8-a16b-7ef2-a738-bfaf73a37f65","019cfc7b-6c7b-7b1b-afe7-acad8efc6711","","null","
                <div class=""stimulus-container"">
                    <img src=""images/schematic_sequence/flight_scheme/flight_scheme_8.png"" class=""exp-image"">
                    <div class=""question-area""></div> 
                </div>","null","","","","","","","","","","","",""
"","","","","","html-button-response","74","212152","0.0-74.0","076DF939850047A7A9AC862E2EF5A47E","019cfcb8-a16b-7ef2-a738-bfaf73a37f65","019cfc7b-6c7b-7b1b-afe7-acad8efc6711","","344","
                <div class=""stimulus-container"">
                    <img src=""images/schematic_sequence/flight_scheme/flight_scheme_8.png"" class=""exp-image"">
                    <div class=""question-area"">
                        <p style=""font-size: 20px; font-weight: bold; margin: 0;"">Is there a person in this image?</p>
                    </div>
                </div>","1","main_experiment_trial","8","flight_scheme","schematic_sequence","chronological","","","","","","",""
"","","","","","html-keyboard-response","75","217159","0.0-75.0","076DF939850047A7A9AC862E2EF5A47E","019cfcb8-a16b-7ef2-a738-bfaf73a37f65","019cfc7b-6c7b-7b1b-afe7-acad8efc6711","","null","
                <div class=""stimulus-container"">
                    <img src=""images/schematic_sequence/flight_scheme/flight_scheme_9.png"" class=""exp-image"">
                    <div class=""question-area""></div> 
                </div>","null","","","","","","","","","","","",""
"","","","","","html-button-response","76","217521","0.0-76.0","076DF939850047A7A9AC862E2EF5A47E","019cfcb8-a16b-7ef2-a738-bfaf73a37f65","019cfc7b-6c7b-7b1b-afe7-acad8efc6711","","361","
                <div class=""stimulus-container"">
                    <img src=""images/schematic_sequence/flight_scheme/flight_scheme_9.png"" class=""exp-image"">
                    <div class=""question-area"">
                        <p style=""font-size: 20px; font-weight: bold; margin: 0;"">Is there a person in this image?</p>
                    </div>
                </div>","0","main_experiment_trial","9","flight_scheme","schematic_sequence","chronological","","","","","","",""
"","","","","","html-keyboard-response","77","222533","0.0-77.0","076DF939850047A7A9AC862E2EF5A47E","019cfcb8-a16b-7ef2-a738-bfaf73a37f65","019cfc7b-6c7b-7b1b-afe7-acad8efc6711","","null","
                <div class=""stimulus-container"">
                    <img src=""images/schematic_sequence/flight_scheme/flight_scheme_ten.png"" class=""exp-image"">
                    <div class=""question-area""></div> 
                </div>","null","","","","","","","","","","","",""
"","","","","","html-button-response","78","222851","0.0-78.0","076DF939850047A7A9AC862E2EF5A47E","019cfcb8-a16b-7ef2-a738-bfaf73a37f65","019cfc7b-6c7b-7b1b-afe7-acad8efc6711","","318","
                <div class=""stimulus-container"">
                    <img src=""images/schematic_sequence/flight_scheme/flight_scheme_ten.png"" class=""exp-image"">
                    <div class=""question-area"">
                        <p style=""font-size: 20px; font-weight: bold; margin: 0;"">Is there a person in this image?</p>
                    </div>
                </div>","0","main_experiment_trial","ten","flight_scheme","schematic_sequence","chronological","","","","","","",""
"","","","","","html-keyboard-response","79","227858","0.0-79.0","076DF939850047A7A9AC862E2EF5A47E","019cfcb8-a16b-7ef2-a738-bfaf73a37f65","019cfc7b-6c7b-7b1b-afe7-acad8efc6711","","null","<div style=""background-color: white; width: 100vw; height: 100vh;""></div>","null","","","","","","","","","","","",""
"","","","","","html-keyboard-response","80","232860","0.0-80.0","076DF939850047A7A9AC862E2EF5A47E","019cfcb8-a16b-7ef2-a738-bfaf73a37f65","019cfc7b-6c7b-7b1b-afe7-acad8efc6711","","null","
                <div class=""stimulus-container"">
                    <img src=""images/semantic_sequence/maintaining_a_car_semantic/maintaining_a_car_semantic_1.png"" class=""exp-image"">
                    <div class=""question-area""></div> 
                </div>","null","","","","","","","","","","","",""
"","","","","","html-button-response","81","233308","0.0-81.0","076DF939850047A7A9AC862E2EF5A47E","019cfcb8-a16b-7ef2-a738-bfaf73a37f65","019cfc7b-6c7b-7b1b-afe7-acad8efc6711","","448","
                <div class=""stimulus-container"">
                    <img src=""images/semantic_sequence/maintaining_a_car_semantic/maintaining_a_car_semantic_1.png"" class=""exp-image"">
                    <div class=""question-area"">
                        <p style=""font-size: 20px; font-weight: bold; margin: 0;"">Is there a person in this image?</p>
                    </div>
                </div>","0","main_experiment_trial","1","maintaining_a_car_semantic","semantic_sequence","chronological","","","","","","",""
"","","","","","html-keyboard-response","82","238318","0.0-82.0","076DF939850047A7A9AC862E2EF5A47E","019cfcb8-a16b-7ef2-a738-bfaf73a37f65","019cfc7b-6c7b-7b1b-afe7-acad8efc6711","","null","
                <div class=""stimulus-container"">
                    <img src=""images/semantic_sequence/maintaining_a_car_semantic/maintaining_a_car_semantic_2.png"" class=""exp-image"">
                    <div class=""question-area""></div> 
                </div>","null","","","","","","","","","","","",""
"","","","","","html-button-response","83","238637","0.0-83.0","076DF939850047A7A9AC862E2EF5A47E","019cfcb8-a16b-7ef2-a738-bfaf73a37f65","019cfc7b-6c7b-7b1b-afe7-acad8efc6711","","318","
                <div class=""stimulus-container"">
                    <img src=""images/semantic_sequence/maintaining_a_car_semantic/maintaining_a_car_semantic_2.png"" class=""exp-image"">
                    <div class=""question-area"">
                        <p style=""font-size: 20px; font-weight: bold; margin: 0;"">Is there a person in this image?</p>
                    </div>
                </div>","0","main_experiment_trial","2","maintaining_a_car_semantic","semantic_sequence","chronological","","","","","","",""
"","","","","","html-keyboard-response","84","243653","0.0-84.0","076DF939850047A7A9AC862E2EF5A47E","019cfcb8-a16b-7ef2-a738-bfaf73a37f65","019cfc7b-6c7b-7b1b-afe7-acad8efc6711","","null","
                <div class=""stimulus-container"">
                    <img src=""images/semantic_sequence/maintaining_a_car_semantic/maintaining_a_car_semantic_3.png"" class=""exp-image"">
                    <div class=""question-area""></div> 
                </div>","null","","","","","","","","","","","",""
"","","","","","html-button-response","85","243975","0.0-85.0","076DF939850047A7A9AC862E2EF5A47E","019cfcb8-a16b-7ef2-a738-bfaf73a37f65","019cfc7b-6c7b-7b1b-afe7-acad8efc6711","","321","
                <div class=""stimulus-container"">
                    <img src=""images/semantic_sequence/maintaining_a_car_semantic/maintaining_a_car_semantic_3.png"" class=""exp-image"">
                    <div class=""question-area"">
                        <p style=""font-size: 20px; font-weight: bold; margin: 0;"">Is there a person in this image?</p>
                    </div>
                </div>","0","main_experiment_trial","3","maintaining_a_car_semantic","semantic_sequence","chronological","","","","","","",""
"","","","","","html-keyboard-response","86","248976","0.0-86.0","076DF939850047A7A9AC862E2EF5A47E","019cfcb8-a16b-7ef2-a738-bfaf73a37f65","019cfc7b-6c7b-7b1b-afe7-acad8efc6711","","null","
                <div class=""stimulus-container"">
                    <img src=""images/semantic_sequence/maintaining_a_car_semantic/maintaining_a_car_semantic_4.png"" class=""exp-image"">
                    <div class=""question-area""></div> 
                </div>","null","","","","","","","","","","","",""
"","","","","","html-button-response","87","249283","0.0-87.0","076DF939850047A7A9AC862E2EF5A47E","019cfcb8-a16b-7ef2-a738-bfaf73a37f65","019cfc7b-6c7b-7b1b-afe7-acad8efc6711","","307","
                <div class=""stimulus-container"">
                    <img src=""images/semantic_sequence/maintaining_a_car_semantic/maintaining_a_car_semantic_4.png"" class=""exp-image"">
                    <div class=""question-area"">
                        <p style=""font-size: 20px; font-weight: bold; margin: 0;"">Is there a person in this image?</p>
                    </div>
                </div>","0","main_experiment_trial","4","maintaining_a_car_semantic","semantic_sequence","chronological","","","","","","",""
"","","","","","html-keyboard-response","88","254290","0.0-88.0","076DF939850047A7A9AC862E2EF5A47E","019cfcb8-a16b-7ef2-a738-bfaf73a37f65","019cfc7b-6c7b-7b1b-afe7-acad8efc6711","","null","
                <div class=""stimulus-container"">
                    <img src=""images/semantic_sequence/maintaining_a_car_semantic/maintaining_a_car_semantic_5.png"" class=""exp-image"">
                    <div class=""question-area""></div> 
                </div>","null","","","","","","","","","","","",""
"","","","","","html-button-response","89","254596","0.0-89.0","076DF939850047A7A9AC862E2EF5A47E","019cfcb8-a16b-7ef2-a738-bfaf73a37f65","019cfc7b-6c7b-7b1b-afe7-acad8efc6711","","305","
                <div class=""stimulus-container"">
                    <img src=""images/semantic_sequence/maintaining_a_car_semantic/maintaining_a_car_semantic_5.png"" class=""exp-image"">
                    <div class=""question-area"">
                        <p style=""font-size: 20px; font-weight: bold; margin: 0;"">Is there a person in this image?</p>
                    </div>
                </div>","0","main_experiment_trial","5","maintaining_a_car_semantic","semantic_sequence","chronological","","","","","","",""
"","","","","","html-keyboard-response","90","259597","0.0-90.0","076DF939850047A7A9AC862E2EF5A47E","019cfcb8-a16b-7ef2-a738-bfaf73a37f65","019cfc7b-6c7b-7b1b-afe7-acad8efc6711","","null","
                <div class=""stimulus-container"">
                    <img src=""images/semantic_sequence/maintaining_a_car_semantic/maintaining_a_car_semantic_6.png"" class=""exp-image"">
                    <div class=""question-area""></div> 
                </div>","null","","","","","","","","","","","",""
"","","","","","html-button-response","91","259983","0.0-91.0","076DF939850047A7A9AC862E2EF5A47E","019cfcb8-a16b-7ef2-a738-bfaf73a37f65","019cfc7b-6c7b-7b1b-afe7-acad8efc6711","","385","
                <div class=""stimulus-container"">
                    <img src=""images/semantic_sequence/maintaining_a_car_semantic/maintaining_a_car_semantic_6.png"" class=""exp-image"">
                    <div class=""question-area"">
                        <p style=""font-size: 20px; font-weight: bold; margin: 0;"">Is there a person in this image?</p>
                    </div>
                </div>","0","main_experiment_trial","6","maintaining_a_car_semantic","semantic_sequence","chronological","","","","","","",""
"","","","","","html-keyboard-response","92","264998","0.0-92.0","076DF939850047A7A9AC862E2EF5A47E","019cfcb8-a16b-7ef2-a738-bfaf73a37f65","019cfc7b-6c7b-7b1b-afe7-acad8efc6711","","null","
                <div class=""stimulus-container"">
                    <img src=""images/semantic_sequence/maintaining_a_car_semantic/maintaining_a_car_semantic_7.png"" class=""exp-image"">
                    <div class=""question-area""></div> 
                </div>","null","","","","","","","","","","","",""
"","","","","","html-button-response","93","265498","0.0-93.0","076DF939850047A7A9AC862E2EF5A47E","019cfcb8-a16b-7ef2-a738-bfaf73a37f65","019cfc7b-6c7b-7b1b-afe7-acad8efc6711","","500","
                <div class=""stimulus-container"">
                    <img src=""images/semantic_sequence/maintaining_a_car_semantic/maintaining_a_car_semantic_7.png"" class=""exp-image"">
                    <div class=""question-area"">
                        <p style=""font-size: 20px; font-weight: bold; margin: 0;"">Is there a person in this image?</p>
                    </div>
                </div>","0","main_experiment_trial","7","maintaining_a_car_semantic","semantic_sequence","chronological","","","","","","",""
"","","","","","html-keyboard-response","94","270501","0.0-94.0","076DF939850047A7A9AC862E2EF5A47E","019cfcb8-a16b-7ef2-a738-bfaf73a37f65","019cfc7b-6c7b-7b1b-afe7-acad8efc6711","","null","
                <div class=""stimulus-container"">
                    <img src=""images/semantic_sequence/maintaining_a_car_semantic/maintaining_a_car_semantic_8.png"" class=""exp-image"">
                    <div class=""question-area""></div> 
                </div>","null","","","","","","","","","","","",""
"","","","","","html-button-response","95","271091","0.0-95.0","076DF939850047A7A9AC862E2EF5A47E","019cfcb8-a16b-7ef2-a738-bfaf73a37f65","019cfc7b-6c7b-7b1b-afe7-acad8efc6711","","589","
                <div class=""stimulus-container"">
                    <img src=""images/semantic_sequence/maintaining_a_car_semantic/maintaining_a_car_semantic_8.png"" class=""exp-image"">
                    <div class=""question-area"">
                        <p style=""font-size: 20px; font-weight: bold; margin: 0;"">Is there a person in this image?</p>
                    </div>
                </div>","0","main_experiment_trial","8","maintaining_a_car_semantic","semantic_sequence","chronological","","","","","","",""
"","","","","","html-keyboard-response","96","276095","0.0-96.0","076DF939850047A7A9AC862E2EF5A47E","019cfcb8-a16b-7ef2-a738-bfaf73a37f65","019cfc7b-6c7b-7b1b-afe7-acad8efc6711","","null","
                <div class=""stimulus-container"">
                    <img src=""images/semantic_sequence/maintaining_a_car_semantic/maintaining_a_car_semantic_9.png"" class=""exp-image"">
                    <div class=""question-area""></div> 
                </div>","null","","","","","","","","","","","",""
"","","","","","html-button-response","97","276690","0.0-97.0","076DF939850047A7A9AC862E2EF5A47E","019cfcb8-a16b-7ef2-a738-bfaf73a37f65","019cfc7b-6c7b-7b1b-afe7-acad8efc6711","","595","
                <div class=""stimulus-container"">
                    <img src=""images/semantic_sequence/maintaining_a_car_semantic/maintaining_a_car_semantic_9.png"" class=""exp-image"">
                    <div class=""question-area"">
                        <p style=""font-size: 20px; font-weight: bold; margin: 0;"">Is there a person in this image?</p>
                    </div>
                </div>","0","main_experiment_trial","9","maintaining_a_car_semantic","semantic_sequence","chronological","","","","","","",""
"","","","","","html-keyboard-response","98","281703","0.0-98.0","076DF939850047A7A9AC862E2EF5A47E","019cfcb8-a16b-7ef2-a738-bfaf73a37f65","019cfc7b-6c7b-7b1b-afe7-acad8efc6711","","null","
                <div class=""stimulus-container"">
                    <img src=""images/semantic_sequence/maintaining_a_car_semantic/maintaining_a_car_semantic_ten.png"" class=""exp-image"">
                    <div class=""question-area""></div> 
                </div>","null","","","","","","","","","","","",""
"","","","","","html-button-response","99","282771","0.0-99.0","076DF939850047A7A9AC862E2EF5A47E","019cfcb8-a16b-7ef2-a738-bfaf73a37f65","019cfc7b-6c7b-7b1b-afe7-acad8efc6711","","1068","
                <div class=""stimulus-container"">
                    <img src=""images/semantic_sequence/maintaining_a_car_semantic/maintaining_a_car_semantic_ten.png"" class=""exp-image"">
                    <div class=""question-area"">
                        <p style=""font-size: 20px; font-weight: bold; margin: 0;"">Is there a person in this image?</p>
                    </div>
                </div>","0","main_experiment_trial","ten","maintaining_a_car_semantic","semantic_sequence","chronological","","","","","","",""
"","","","","","html-keyboard-response","100","287779","0.0-100.0","076DF939850047A7A9AC862E2EF5A47E","019cfcb8-a16b-7ef2-a738-bfaf73a37f65","019cfc7b-6c7b-7b1b-afe7-acad8efc6711","","null","<div style=""background-color: white; width: 100vw; height: 100vh;""></div>","null","","","","","","","","","","","",""
"","","","","","html-keyboard-response","101","292780","0.0-101.0","076DF939850047A7A9AC862E2EF5A47E","019cfcb8-a16b-7ef2-a738-bfaf73a37f65","019cfc7b-6c7b-7b1b-afe7-acad8efc6711","","null","
                <div class=""stimulus-container"">
                    <img src=""images/semantic_sequence/housework_semantic/housework_semantic_1.png"" class=""exp-image"">
                    <div class=""question-area""></div> 
                </div>","null","","","","","","","","","","","",""
"","","","","","html-button-response","102","293605","0.0-102.0","076DF939850047A7A9AC862E2EF5A47E","019cfcb8-a16b-7ef2-a738-bfaf73a37f65","019cfc7b-6c7b-7b1b-afe7-acad8efc6711","","825","
                <div class=""stimulus-container"">
                    <img src=""images/semantic_sequence/housework_semantic/housework_semantic_1.png"" class=""exp-image"">
                    <div class=""question-area"">
                        <p style=""font-size: 20px; font-weight: bold; margin: 0;"">Is there a person in this image?</p>
                    </div>
                </div>","0","main_experiment_trial","1","housework_semantic","semantic_sequence","chronological","","","","","","",""
"","","","","","html-keyboard-response","103","298616","0.0-103.0","076DF939850047A7A9AC862E2EF5A47E","019cfcb8-a16b-7ef2-a738-bfaf73a37f65","019cfc7b-6c7b-7b1b-afe7-acad8efc6711","","null","
                <div class=""stimulus-container"">
                    <img src=""images/semantic_sequence/housework_semantic/housework_semantic_2.png"" class=""exp-image"">
                    <div class=""question-area""></div> 
                </div>","null","","","","","","","","","","","",""
"","","","","","html-button-response","104","299522","0.0-104.0","076DF939850047A7A9AC862E2EF5A47E","019cfcb8-a16b-7ef2-a738-bfaf73a37f65","019cfc7b-6c7b-7b1b-afe7-acad8efc6711","","905","
                <div class=""stimulus-container"">
                    <img src=""images/semantic_sequence/housework_semantic/housework_semantic_2.png"" class=""exp-image"">
                    <div class=""question-area"">
                        <p style=""font-size: 20px; font-weight: bold; margin: 0;"">Is there a person in this image?</p>
                    </div>
                </div>","0","main_experiment_trial","2","housework_semantic","semantic_sequence","chronological","","","","","","",""
"","","","","","html-keyboard-response","105","304531","0.0-105.0","076DF939850047A7A9AC862E2EF5A47E","019cfcb8-a16b-7ef2-a738-bfaf73a37f65","019cfc7b-6c7b-7b1b-afe7-acad8efc6711","","null","
                <div class=""stimulus-container"">
                    <img src=""images/semantic_sequence/housework_semantic/housework_semantic_3.png"" class=""exp-image"">
                    <div class=""question-area""></div> 
                </div>","null","","","","","","","","","","","",""
"","","","","","html-button-response","106","305163","0.0-106.0","076DF939850047A7A9AC862E2EF5A47E","019cfcb8-a16b-7ef2-a738-bfaf73a37f65","019cfc7b-6c7b-7b1b-afe7-acad8efc6711","","632","
                <div class=""stimulus-container"">
                    <img src=""images/semantic_sequence/housework_semantic/housework_semantic_3.png"" class=""exp-image"">
                    <div class=""question-area"">
                        <p style=""font-size: 20px; font-weight: bold; margin: 0;"">Is there a person in this image?</p>
                    </div>
                </div>","0","main_experiment_trial","3","housework_semantic","semantic_sequence","chronological","","","","","","",""
"","","","","","html-keyboard-response","107","310172","0.0-107.0","076DF939850047A7A9AC862E2EF5A47E","019cfcb8-a16b-7ef2-a738-bfaf73a37f65","019cfc7b-6c7b-7b1b-afe7-acad8efc6711","","null","
                <div class=""stimulus-container"">
                    <img src=""images/semantic_sequence/housework_semantic/housework_semantic_4.png"" class=""exp-image"">
                    <div class=""question-area""></div> 
                </div>","null","","","","","","","","","","","",""
"","","","","","html-button-response","108","311247","0.0-108.0","076DF939850047A7A9AC862E2EF5A47E","019cfcb8-a16b-7ef2-a738-bfaf73a37f65","019cfc7b-6c7b-7b1b-afe7-acad8efc6711","","1074","
                <div class=""stimulus-container"">
                    <img src=""images/semantic_sequence/housework_semantic/housework_semantic_4.png"" class=""exp-image"">
                    <div class=""question-area"">
                        <p style=""font-size: 20px; font-weight: bold; margin: 0;"">Is there a person in this image?</p>
                    </div>
                </div>","0","main_experiment_trial","4","housework_semantic","semantic_sequence","chronological","","","","","","",""
"","","","","","html-keyboard-response","109","316249","0.0-109.0","076DF939850047A7A9AC862E2EF5A47E","019cfcb8-a16b-7ef2-a738-bfaf73a37f65","019cfc7b-6c7b-7b1b-afe7-acad8efc6711","","null","
                <div class=""stimulus-container"">
                    <img src=""images/semantic_sequence/housework_semantic/housework_semantic_5.png"" class=""exp-image"">
                    <div class=""question-area""></div> 
                </div>","null","","","","","","","","","","","",""
"","","","","","html-button-response","110","316992","0.0-110.0","076DF939850047A7A9AC862E2EF5A47E","019cfcb8-a16b-7ef2-a738-bfaf73a37f65","019cfc7b-6c7b-7b1b-afe7-acad8efc6711","","742","
                <div class=""stimulus-container"">
                    <img src=""images/semantic_sequence/housework_semantic/housework_semantic_5.png"" class=""exp-image"">
                    <div class=""question-area"">
                        <p style=""font-size: 20px; font-weight: bold; margin: 0;"">Is there a person in this image?</p>
                    </div>
                </div>","0","main_experiment_trial","5","housework_semantic","semantic_sequence","chronological","","","","","","",""
"","","","","","html-keyboard-response","111","321994","0.0-111.0","076DF939850047A7A9AC862E2EF5A47E","019cfcb8-a16b-7ef2-a738-bfaf73a37f65","019cfc7b-6c7b-7b1b-afe7-acad8efc6711","","null","
                <div class=""stimulus-container"">
                    <img src=""images/semantic_sequence/housework_semantic/housework_semantic_6.png"" class=""exp-image"">
                    <div class=""question-area""></div> 
                </div>","null","","","","","","","","","","","",""
"","","","","","html-button-response","112","322259","0.0-112.0","076DF939850047A7A9AC862E2EF5A47E","019cfcb8-a16b-7ef2-a738-bfaf73a37f65","019cfc7b-6c7b-7b1b-afe7-acad8efc6711","","265","
                <div class=""stimulus-container"">
                    <img src=""images/semantic_sequence/housework_semantic/housework_semantic_6.png"" class=""exp-image"">
                    <div class=""question-area"">
                        <p style=""font-size: 20px; font-weight: bold; margin: 0;"">Is there a person in this image?</p>
                    </div>
                </div>","0","main_experiment_trial","6","housework_semantic","semantic_sequence","chronological","","","","","","",""
"","","","","","html-keyboard-response","113","327264","0.0-113.0","076DF939850047A7A9AC862E2EF5A47E","019cfcb8-a16b-7ef2-a738-bfaf73a37f65","019cfc7b-6c7b-7b1b-afe7-acad8efc6711","","null","
                <div class=""stimulus-container"">
                    <img src=""images/semantic_sequence/housework_semantic/housework_semantic_7.png"" class=""exp-image"">
                    <div class=""question-area""></div> 
                </div>","null","","","","","","","","","","","",""
"","","","","","html-button-response","114","327581","0.0-114.0","076DF939850047A7A9AC862E2EF5A47E","019cfcb8-a16b-7ef2-a738-bfaf73a37f65","019cfc7b-6c7b-7b1b-afe7-acad8efc6711","","317","
                <div class=""stimulus-container"">
                    <img src=""images/semantic_sequence/housework_semantic/housework_semantic_7.png"" class=""exp-image"">
                    <div class=""question-area"">
                        <p style=""font-size: 20px; font-weight: bold; margin: 0;"">Is there a person in this image?</p>
                    </div>
                </div>","0","main_experiment_trial","7","housework_semantic","semantic_sequence","chronological","","","","","","",""
"","","","","","html-keyboard-response","115","332592","0.0-115.0","076DF939850047A7A9AC862E2EF5A47E","019cfcb8-a16b-7ef2-a738-bfaf73a37f65","019cfc7b-6c7b-7b1b-afe7-acad8efc6711","","null","
                <div class=""stimulus-container"">
                    <img src=""images/semantic_sequence/housework_semantic/housework_semantic_8.png"" class=""exp-image"">
                    <div class=""question-area""></div> 
                </div>","null","","","","","","","","","","","",""
"","","","","","html-button-response","116","332909","0.0-116.0","076DF939850047A7A9AC862E2EF5A47E","019cfcb8-a16b-7ef2-a738-bfaf73a37f65","019cfc7b-6c7b-7b1b-afe7-acad8efc6711","","316","
                <div class=""stimulus-container"">
                    <img src=""images/semantic_sequence/housework_semantic/housework_semantic_8.png"" class=""exp-image"">
                    <div class=""question-area"">
                        <p style=""font-size: 20px; font-weight: bold; margin: 0;"">Is there a person in this image?</p>
                    </div>
                </div>","0","main_experiment_trial","8","housework_semantic","semantic_sequence","chronological","","","","","","",""
"","","","","","html-keyboard-response","117","337918","0.0-117.0","076DF939850047A7A9AC862E2EF5A47E","019cfcb8-a16b-7ef2-a738-bfaf73a37f65","019cfc7b-6c7b-7b1b-afe7-acad8efc6711","","null","
                <div class=""stimulus-container"">
                    <img src=""images/semantic_sequence/housework_semantic/housework_semantic_9.png"" class=""exp-image"">
                    <div class=""question-area""></div> 
                </div>","null","","","","","","","","","","","",""
"","","","","","html-button-response","118","338410","0.0-118.0","076DF939850047A7A9AC862E2EF5A47E","019cfcb8-a16b-7ef2-a738-bfaf73a37f65","019cfc7b-6c7b-7b1b-afe7-acad8efc6711","","491","
                <div class=""stimulus-container"">
                    <img src=""images/semantic_sequence/housework_semantic/housework_semantic_9.png"" class=""exp-image"">
                    <div class=""question-area"">
                        <p style=""font-size: 20px; font-weight: bold; margin: 0;"">Is there a person in this image?</p>
                    </div>
                </div>","0","main_experiment_trial","9","housework_semantic","semantic_sequence","chronological","","","","","","",""
"","","","","","html-keyboard-response","119","343414","0.0-119.0","076DF939850047A7A9AC862E2EF5A47E","019cfcb8-a16b-7ef2-a738-bfaf73a37f65","019cfc7b-6c7b-7b1b-afe7-acad8efc6711","","null","
                <div class=""stimulus-container"">
                    <img src=""images/semantic_sequence/housework_semantic/housework_semantic_ten.png"" class=""exp-image"">
                    <div class=""question-area""></div> 
                </div>","null","","","","","","","","","","","",""
"","","","","","html-button-response","120","343970","0.0-120.0","076DF939850047A7A9AC862E2EF5A47E","019cfcb8-a16b-7ef2-a738-bfaf73a37f65","019cfc7b-6c7b-7b1b-afe7-acad8efc6711","","556","
                <div class=""stimulus-container"">
                    <img src=""images/semantic_sequence/housework_semantic/housework_semantic_ten.png"" class=""exp-image"">
                    <div class=""question-area"">
                        <p style=""font-size: 20px; font-weight: bold; margin: 0;"">Is there a person in this image?</p>
                    </div>
                </div>","0","main_experiment_trial","ten","housework_semantic","semantic_sequence","chronological","","","","","","",""
"","","","","","html-keyboard-response","121","348978","0.0-121.0","076DF939850047A7A9AC862E2EF5A47E","019cfcb8-a16b-7ef2-a738-bfaf73a37f65","019cfc7b-6c7b-7b1b-afe7-acad8efc6711","","null","<div style=""background-color: white; width: 100vw; height: 100vh;""></div>","null","","","","","","","","","","","",""
"","","","","","html-keyboard-response","122","353988","0.0-122.0","076DF939850047A7A9AC862E2EF5A47E","019cfcb8-a16b-7ef2-a738-bfaf73a37f65","019cfc7b-6c7b-7b1b-afe7-acad8efc6711","","null","
                <div class=""stimulus-container"">
                    <img src=""images/schematic_sequence/dinner_party_scheme/dinner_party_scheme_1.png"" class=""exp-image"">
                    <div class=""question-area""></div> 
                </div>","null","","","","","","","","","","","",""
"","","","","","html-button-response","123","354507","0.0-123.0","076DF939850047A7A9AC862E2EF5A47E","019cfcb8-a16b-7ef2-a738-bfaf73a37f65","019cfc7b-6c7b-7b1b-afe7-acad8efc6711","","518","
                <div class=""stimulus-container"">
                    <img src=""images/schematic_sequence/dinner_party_scheme/dinner_party_scheme_1.png"" class=""exp-image"">
                    <div class=""question-area"">
                        <p style=""font-size: 20px; font-weight: bold; margin: 0;"">Is there a person in this image?</p>
                    </div>
                </div>","0","main_experiment_trial","1","dinner_party_scheme","schematic_sequence","chronological","","","","","","",""
"","","","","","html-keyboard-response","124","359514","0.0-124.0","076DF939850047A7A9AC862E2EF5A47E","019cfcb8-a16b-7ef2-a738-bfaf73a37f65","019cfc7b-6c7b-7b1b-afe7-acad8efc6711","","null","
                <div class=""stimulus-container"">
                    <img src=""images/schematic_sequence/dinner_party_scheme/dinner_party_scheme_2.png"" class=""exp-image"">
                    <div class=""question-area""></div> 
                </div>","null","","","","","","","","","","","",""
"","","","","","html-button-response","125","359852","0.0-125.0","076DF939850047A7A9AC862E2EF5A47E","019cfcb8-a16b-7ef2-a738-bfaf73a37f65","019cfc7b-6c7b-7b1b-afe7-acad8efc6711","","337","
                <div class=""stimulus-container"">
                    <img src=""images/schematic_sequence/dinner_party_scheme/dinner_party_scheme_2.png"" class=""exp-image"">
                    <div class=""question-area"">
                        <p style=""font-size: 20px; font-weight: bold; margin: 0;"">Is there a person in this image?</p>
                    </div>
                </div>","0","main_experiment_trial","2","dinner_party_scheme","schematic_sequence","chronological","","","","","","",""
"","","","","","html-keyboard-response","126","364861","0.0-126.0","076DF939850047A7A9AC862E2EF5A47E","019cfcb8-a16b-7ef2-a738-bfaf73a37f65","019cfc7b-6c7b-7b1b-afe7-acad8efc6711","","null","
                <div class=""stimulus-container"">
                    <img src=""images/schematic_sequence/dinner_party_scheme/dinner_party_scheme_3.png"" class=""exp-image"">
                    <div class=""question-area""></div> 
                </div>","null","","","","","","","","","","","",""
"","","","","","html-button-response","127","365296","0.0-127.0","076DF939850047A7A9AC862E2EF5A47E","019cfcb8-a16b-7ef2-a738-bfaf73a37f65","019cfc7b-6c7b-7b1b-afe7-acad8efc6711","","434","
                <div class=""stimulus-container"">
                    <img src=""images/schematic_sequence/dinner_party_scheme/dinner_party_scheme_3.png"" class=""exp-image"">
                    <div class=""question-area"">
                        <p style=""font-size: 20px; font-weight: bold; margin: 0;"">Is there a person in this image?</p>
                    </div>
                </div>","0","main_experiment_trial","3","dinner_party_scheme","schematic_sequence","chronological","","","","","","",""
"","","","","","html-keyboard-response","128","370307","0.0-128.0","076DF939850047A7A9AC862E2EF5A47E","019cfcb8-a16b-7ef2-a738-bfaf73a37f65","019cfc7b-6c7b-7b1b-afe7-acad8efc6711","","null","
                <div class=""stimulus-container"">
                    <img src=""images/schematic_sequence/dinner_party_scheme/dinner_party_scheme_4.png"" class=""exp-image"">
                    <div class=""question-area""></div> 
                </div>","null","","","","","","","","","","","",""
"","","","","","html-button-response","129","370681","0.0-129.0","076DF939850047A7A9AC862E2EF5A47E","019cfcb8-a16b-7ef2-a738-bfaf73a37f65","019cfc7b-6c7b-7b1b-afe7-acad8efc6711","","373","
                <div class=""stimulus-container"">
                    <img src=""images/schematic_sequence/dinner_party_scheme/dinner_party_scheme_4.png"" class=""exp-image"">
                    <div class=""question-area"">
                        <p style=""font-size: 20px; font-weight: bold; margin: 0;"">Is there a person in this image?</p>
                    </div>
                </div>","0","main_experiment_trial","4","dinner_party_scheme","schematic_sequence","chronological","","","","","","",""
"","","","","","html-keyboard-response","130","375683","0.0-130.0","076DF939850047A7A9AC862E2EF5A47E","019cfcb8-a16b-7ef2-a738-bfaf73a37f65","019cfc7b-6c7b-7b1b-afe7-acad8efc6711","","null","
                <div class=""stimulus-container"">
                    <img src=""images/schematic_sequence/dinner_party_scheme/dinner_party_scheme_5.png"" class=""exp-image"">
                    <div class=""question-area""></div> 
                </div>","null","","","","","","","","","","","",""
"","","","","","html-button-response","131","376222","0.0-131.0","076DF939850047A7A9AC862E2EF5A47E","019cfcb8-a16b-7ef2-a738-bfaf73a37f65","019cfc7b-6c7b-7b1b-afe7-acad8efc6711","","538","
                <div class=""stimulus-container"">
                    <img src=""images/schematic_sequence/dinner_party_scheme/dinner_party_scheme_5.png"" class=""exp-image"">
                    <div class=""question-area"">
                        <p style=""font-size: 20px; font-weight: bold; margin: 0;"">Is there a person in this image?</p>
                    </div>
                </div>","0","main_experiment_trial","5","dinner_party_scheme","schematic_sequence","chronological","","","","","","",""
"","","","","","html-keyboard-response","132","381233","0.0-132.0","076DF939850047A7A9AC862E2EF5A47E","019cfcb8-a16b-7ef2-a738-bfaf73a37f65","019cfc7b-6c7b-7b1b-afe7-acad8efc6711","","null","
                <div class=""stimulus-container"">
                    <img src=""images/schematic_sequence/dinner_party_scheme/dinner_party_scheme_6.png"" class=""exp-image"">
                    <div class=""question-area""></div> 
                </div>","null","","","","","","","","","","","",""
"","","","","","html-button-response","133","381748","0.0-133.0","076DF939850047A7A9AC862E2EF5A47E","019cfcb8-a16b-7ef2-a738-bfaf73a37f65","019cfc7b-6c7b-7b1b-afe7-acad8efc6711","","515","
                <div class=""stimulus-container"">
                    <img src=""images/schematic_sequence/dinner_party_scheme/dinner_party_scheme_6.png"" class=""exp-image"">
                    <div class=""question-area"">
                        <p style=""font-size: 20px; font-weight: bold; margin: 0;"">Is there a person in this image?</p>
                    </div>
                </div>","0","main_experiment_trial","6","dinner_party_scheme","schematic_sequence","chronological","","","","","","",""
"","","","","","html-keyboard-response","134","386757","0.0-134.0","076DF939850047A7A9AC862E2EF5A47E","019cfcb8-a16b-7ef2-a738-bfaf73a37f65","019cfc7b-6c7b-7b1b-afe7-acad8efc6711","","null","
                <div class=""stimulus-container"">
                    <img src=""images/schematic_sequence/dinner_party_scheme/dinner_party_scheme_7.png"" class=""exp-image"">
                    <div class=""question-area""></div> 
                </div>","null","","","","","","","","","","","",""
"","","","","","html-button-response","135","387566","0.0-135.0","076DF939850047A7A9AC862E2EF5A47E","019cfcb8-a16b-7ef2-a738-bfaf73a37f65","019cfc7b-6c7b-7b1b-afe7-acad8efc6711","","808","
                <div class=""stimulus-container"">
                    <img src=""images/schematic_sequence/dinner_party_scheme/dinner_party_scheme_7.png"" class=""exp-image"">
                    <div class=""question-area"">
                        <p style=""font-size: 20px; font-weight: bold; margin: 0;"">Is there a person in this image?</p>
                    </div>
                </div>","0","main_experiment_trial","7","dinner_party_scheme","schematic_sequence","chronological","","","","","","",""
"","","","","","html-keyboard-response","136","392568","0.0-136.0","076DF939850047A7A9AC862E2EF5A47E","019cfcb8-a16b-7ef2-a738-bfaf73a37f65","019cfc7b-6c7b-7b1b-afe7-acad8efc6711","","null","
                <div class=""stimulus-container"">
                    <img src=""images/schematic_sequence/dinner_party_scheme/dinner_party_scheme_8.png"" class=""exp-image"">
                    <div class=""question-area""></div> 
                </div>","null","","","","","","","","","","","",""
"","","","","","html-button-response","137","393475","0.0-137.0","076DF939850047A7A9AC862E2EF5A47E","019cfcb8-a16b-7ef2-a738-bfaf73a37f65","019cfc7b-6c7b-7b1b-afe7-acad8efc6711","","907","
                <div class=""stimulus-container"">
                    <img src=""images/schematic_sequence/dinner_party_scheme/dinner_party_scheme_8.png"" class=""exp-image"">
                    <div class=""question-area"">
                        <p style=""font-size: 20px; font-weight: bold; margin: 0;"">Is there a person in this image?</p>
                    </div>
                </div>","0","main_experiment_trial","8","dinner_party_scheme","schematic_sequence","chronological","","","","","","",""
"","","","","","html-keyboard-response","138","398480","0.0-138.0","076DF939850047A7A9AC862E2EF5A47E","019cfcb8-a16b-7ef2-a738-bfaf73a37f65","019cfc7b-6c7b-7b1b-afe7-acad8efc6711","","null","
                <div class=""stimulus-container"">
                    <img src=""images/schematic_sequence/dinner_party_scheme/dinner_party_scheme_9.png"" class=""exp-image"">
                    <div class=""question-area""></div> 
                </div>","null","","","","","","","","","","","",""
"","","","","","html-button-response","139","399465","0.0-139.0","076DF939850047A7A9AC862E2EF5A47E","019cfcb8-a16b-7ef2-a738-bfaf73a37f65","019cfc7b-6c7b-7b1b-afe7-acad8efc6711","","984","
                <div class=""stimulus-container"">
                    <img src=""images/schematic_sequence/dinner_party_scheme/dinner_party_scheme_9.png"" class=""exp-image"">
                    <div class=""question-area"">
                        <p style=""font-size: 20px; font-weight: bold; margin: 0;"">Is there a person in this image?</p>
                    </div>
                </div>","0","main_experiment_trial","9","dinner_party_scheme","schematic_sequence","chronological","","","","","","",""
"","","","","","html-keyboard-response","140","404470","0.0-140.0","076DF939850047A7A9AC862E2EF5A47E","019cfcb8-a16b-7ef2-a738-bfaf73a37f65","019cfc7b-6c7b-7b1b-afe7-acad8efc6711","","null","
                <div class=""stimulus-container"">
                    <img src=""images/schematic_sequence/dinner_party_scheme/dinner_party_scheme_ten.png"" class=""exp-image"">
                    <div class=""question-area""></div> 
                </div>","null","","","","","","","","","","","",""
"","","","","","html-button-response","141","404949","0.0-141.0","076DF939850047A7A9AC862E2EF5A47E","019cfcb8-a16b-7ef2-a738-bfaf73a37f65","019cfc7b-6c7b-7b1b-afe7-acad8efc6711","","478","
                <div class=""stimulus-container"">
                    <img src=""images/schematic_sequence/dinner_party_scheme/dinner_party_scheme_ten.png"" class=""exp-image"">
                    <div class=""question-area"">
                        <p style=""font-size: 20px; font-weight: bold; margin: 0;"">Is there a person in this image?</p>
                    </div>
                </div>","0","main_experiment_trial","ten","dinner_party_scheme","schematic_sequence","chronological","","","","","","",""
"","","","","","html-keyboard-response","142","409957","0.0-142.0","076DF939850047A7A9AC862E2EF5A47E","019cfcb8-a16b-7ef2-a738-bfaf73a37f65","019cfc7b-6c7b-7b1b-afe7-acad8efc6711","","null","<div style=""background-color: white; width: 100vw; height: 100vh;""></div>","null","","","","","","","","","","","",""
"","","","","","html-keyboard-response","143","414972","0.0-143.0","076DF939850047A7A9AC862E2EF5A47E","019cfcb8-a16b-7ef2-a738-bfaf73a37f65","019cfc7b-6c7b-7b1b-afe7-acad8efc6711","","null","
                <div class=""stimulus-container"">
                    <img src=""images/semantic_sequence/physical_activity_semantic/physical_activity_semantic_1.png"" class=""exp-image"">
                    <div class=""question-area""></div> 
                </div>","null","","","","","","","","","","","",""
"","","","","","html-button-response","144","415842","0.0-144.0","076DF939850047A7A9AC862E2EF5A47E","019cfcb8-a16b-7ef2-a738-bfaf73a37f65","019cfc7b-6c7b-7b1b-afe7-acad8efc6711","","870","
                <div class=""stimulus-container"">
                    <img src=""images/semantic_sequence/physical_activity_semantic/physical_activity_semantic_1.png"" class=""exp-image"">
                    <div class=""question-area"">
                        <p style=""font-size: 20px; font-weight: bold; margin: 0;"">Is there a person in this image?</p>
                    </div>
                </div>","0","main_experiment_trial","1","physical_activity_semantic","semantic_sequence","chronological","","","","","","",""
"","","","","","html-keyboard-response","145","420849","0.0-145.0","076DF939850047A7A9AC862E2EF5A47E","019cfcb8-a16b-7ef2-a738-bfaf73a37f65","019cfc7b-6c7b-7b1b-afe7-acad8efc6711","","null","
                <div class=""stimulus-container"">
                    <img src=""images/semantic_sequence/physical_activity_semantic/physical_activity_semantic_2.png"" class=""exp-image"">
                    <div class=""question-area""></div> 
                </div>","null","","","","","","","","","","","",""
"","","","","","html-button-response","146","421238","0.0-146.0","076DF939850047A7A9AC862E2EF5A47E","019cfcb8-a16b-7ef2-a738-bfaf73a37f65","019cfc7b-6c7b-7b1b-afe7-acad8efc6711","","388","
                <div class=""stimulus-container"">
                    <img src=""images/semantic_sequence/physical_activity_semantic/physical_activity_semantic_2.png"" class=""exp-image"">
                    <div class=""question-area"">
                        <p style=""font-size: 20px; font-weight: bold; margin: 0;"">Is there a person in this image?</p>
                    </div>
                </div>","0","main_experiment_trial","2","physical_activity_semantic","semantic_sequence","chronological","","","","","","",""
"","","","","","html-keyboard-response","147","426244","0.0-147.0","076DF939850047A7A9AC862E2EF5A47E","019cfcb8-a16b-7ef2-a738-bfaf73a37f65","019cfc7b-6c7b-7b1b-afe7-acad8efc6711","","null","
                <div class=""stimulus-container"">
                    <img src=""images/semantic_sequence/physical_activity_semantic/physical_activity_semantic_3.png"" class=""exp-image"">
                    <div class=""question-area""></div> 
                </div>","null","","","","","","","","","","","",""
"","","","","","html-button-response","148","426740","0.0-148.0","076DF939850047A7A9AC862E2EF5A47E","019cfcb8-a16b-7ef2-a738-bfaf73a37f65","019cfc7b-6c7b-7b1b-afe7-acad8efc6711","","495","
                <div class=""stimulus-container"">
                    <img src=""images/semantic_sequence/physical_activity_semantic/physical_activity_semantic_3.png"" class=""exp-image"">
                    <div class=""question-area"">
                        <p style=""font-size: 20px; font-weight: bold; margin: 0;"">Is there a person in this image?</p>
                    </div>
                </div>","0","main_experiment_trial","3","physical_activity_semantic","semantic_sequence","chronological","","","","","","",""
"","","","","","html-keyboard-response","149","431750","0.0-149.0","076DF939850047A7A9AC862E2EF5A47E","019cfcb8-a16b-7ef2-a738-bfaf73a37f65","019cfc7b-6c7b-7b1b-afe7-acad8efc6711","","null","
                <div class=""stimulus-container"">
                    <img src=""images/semantic_sequence/physical_activity_semantic/physical_activity_semantic_4.png"" class=""exp-image"">
                    <div class=""question-area""></div> 
                </div>","null","","","","","","","","","","","",""
"","","","","","html-button-response","150","432163","0.0-150.0","076DF939850047A7A9AC862E2EF5A47E","019cfcb8-a16b-7ef2-a738-bfaf73a37f65","019cfc7b-6c7b-7b1b-afe7-acad8efc6711","","412","
                <div class=""stimulus-container"">
                    <img src=""images/semantic_sequence/physical_activity_semantic/physical_activity_semantic_4.png"" class=""exp-image"">
                    <div class=""question-area"">
                        <p style=""font-size: 20px; font-weight: bold; margin: 0;"">Is there a person in this image?</p>
                    </div>
                </div>","0","main_experiment_trial","4","physical_activity_semantic","semantic_sequence","chronological","","","","","","",""
"","","","","","html-keyboard-response","151","437177","0.0-151.0","076DF939850047A7A9AC862E2EF5A47E","019cfcb8-a16b-7ef2-a738-bfaf73a37f65","019cfc7b-6c7b-7b1b-afe7-acad8efc6711","","null","
                <div class=""stimulus-container"">
                    <img src=""images/semantic_sequence/physical_activity_semantic/physical_activity_semantic_5.png"" class=""exp-image"">
                    <div class=""question-area""></div> 
                </div>","null","","","","","","","","","","","",""
"","","","","","html-button-response","152","437571","0.0-152.0","076DF939850047A7A9AC862E2EF5A47E","019cfcb8-a16b-7ef2-a738-bfaf73a37f65","019cfc7b-6c7b-7b1b-afe7-acad8efc6711","","393","
                <div class=""stimulus-container"">
                    <img src=""images/semantic_sequence/physical_activity_semantic/physical_activity_semantic_5.png"" class=""exp-image"">
                    <div class=""question-area"">
                        <p style=""font-size: 20px; font-weight: bold; margin: 0;"">Is there a person in this image?</p>
                    </div>
                </div>","0","main_experiment_trial","5","physical_activity_semantic","semantic_sequence","chronological","","","","","","",""
"","","","","","html-keyboard-response","153","442577","0.0-153.0","076DF939850047A7A9AC862E2EF5A47E","019cfcb8-a16b-7ef2-a738-bfaf73a37f65","019cfc7b-6c7b-7b1b-afe7-acad8efc6711","","null","
                <div class=""stimulus-container"">
                    <img src=""images/semantic_sequence/physical_activity_semantic/physical_activity_semantic_6.png"" class=""exp-image"">
                    <div class=""question-area""></div> 
                </div>","null","","","","","","","","","","","",""
"","","","","","html-button-response","154","442867","0.0-154.0","076DF939850047A7A9AC862E2EF5A47E","019cfcb8-a16b-7ef2-a738-bfaf73a37f65","019cfc7b-6c7b-7b1b-afe7-acad8efc6711","","289","
                <div class=""stimulus-container"">
                    <img src=""images/semantic_sequence/physical_activity_semantic/physical_activity_semantic_6.png"" class=""exp-image"">
                    <div class=""question-area"">
                        <p style=""font-size: 20px; font-weight: bold; margin: 0;"">Is there a person in this image?</p>
                    </div>
                </div>","0","main_experiment_trial","6","physical_activity_semantic","semantic_sequence","chronological","","","","","","",""
"","","","","","html-keyboard-response","155","447874","0.0-155.0","076DF939850047A7A9AC862E2EF5A47E","019cfcb8-a16b-7ef2-a738-bfaf73a37f65","019cfc7b-6c7b-7b1b-afe7-acad8efc6711","","null","
                <div class=""stimulus-container"">
                    <img src=""images/semantic_sequence/physical_activity_semantic/physical_activity_semantic_7.png"" class=""exp-image"">
                    <div class=""question-area""></div> 
                </div>","null","","","","","","","","","","","",""
"","","","","","html-button-response","156","448427","0.0-156.0","076DF939850047A7A9AC862E2EF5A47E","019cfcb8-a16b-7ef2-a738-bfaf73a37f65","019cfc7b-6c7b-7b1b-afe7-acad8efc6711","","552","
                <div class=""stimulus-container"">
                    <img src=""images/semantic_sequence/physical_activity_semantic/physical_activity_semantic_7.png"" class=""exp-image"">
                    <div class=""question-area"">
                        <p style=""font-size: 20px; font-weight: bold; margin: 0;"">Is there a person in this image?</p>
                    </div>
                </div>","0","main_experiment_trial","7","physical_activity_semantic","semantic_sequence","chronological","","","","","","",""
"","","","","","html-keyboard-response","157","453440","0.0-157.0","076DF939850047A7A9AC862E2EF5A47E","019cfcb8-a16b-7ef2-a738-bfaf73a37f65","019cfc7b-6c7b-7b1b-afe7-acad8efc6711","","null","
                <div class=""stimulus-container"">
                    <img src=""images/semantic_sequence/physical_activity_semantic/physical_activity_semantic_8.png"" class=""exp-image"">
                    <div class=""question-area""></div> 
                </div>","null","","","","","","","","","","","",""
"","","","","","html-button-response","158","454124","0.0-158.0","076DF939850047A7A9AC862E2EF5A47E","019cfcb8-a16b-7ef2-a738-bfaf73a37f65","019cfc7b-6c7b-7b1b-afe7-acad8efc6711","","683","
                <div class=""stimulus-container"">
                    <img src=""images/semantic_sequence/physical_activity_semantic/physical_activity_semantic_8.png"" class=""exp-image"">
                    <div class=""question-area"">
                        <p style=""font-size: 20px; font-weight: bold; margin: 0;"">Is there a person in this image?</p>
                    </div>
                </div>","0","main_experiment_trial","8","physical_activity_semantic","semantic_sequence","chronological","","","","","","",""
"","","","","","html-keyboard-response","159","459137","0.0-159.0","076DF939850047A7A9AC862E2EF5A47E","019cfcb8-a16b-7ef2-a738-bfaf73a37f65","019cfc7b-6c7b-7b1b-afe7-acad8efc6711","","null","
                <div class=""stimulus-container"">
                    <img src=""images/semantic_sequence/physical_activity_semantic/physical_activity_semantic_9.png"" class=""exp-image"">
                    <div class=""question-area""></div> 
                </div>","null","","","","","","","","","","","",""
"","","","","","html-button-response","160","459564","0.0-160.0","076DF939850047A7A9AC862E2EF5A47E","019cfcb8-a16b-7ef2-a738-bfaf73a37f65","019cfc7b-6c7b-7b1b-afe7-acad8efc6711","","426","
                <div class=""stimulus-container"">
                    <img src=""images/semantic_sequence/physical_activity_semantic/physical_activity_semantic_9.png"" class=""exp-image"">
                    <div class=""question-area"">
                        <p style=""font-size: 20px; font-weight: bold; margin: 0;"">Is there a person in this image?</p>
                    </div>
                </div>","0","main_experiment_trial","9","physical_activity_semantic","semantic_sequence","chronological","","","","","","",""
"","","","","","html-keyboard-response","161","464571","0.0-161.0","076DF939850047A7A9AC862E2EF5A47E","019cfcb8-a16b-7ef2-a738-bfaf73a37f65","019cfc7b-6c7b-7b1b-afe7-acad8efc6711","","null","
                <div class=""stimulus-container"">
                    <img src=""images/semantic_sequence/physical_activity_semantic/physical_activity_semantic_ten.png"" class=""exp-image"">
                    <div class=""question-area""></div> 
                </div>","null","","","","","","","","","","","",""
"","","","","","html-button-response","162","465098","0.0-162.0","076DF939850047A7A9AC862E2EF5A47E","019cfcb8-a16b-7ef2-a738-bfaf73a37f65","019cfc7b-6c7b-7b1b-afe7-acad8efc6711","","526","
                <div class=""stimulus-container"">
                    <img src=""images/semantic_sequence/physical_activity_semantic/physical_activity_semantic_ten.png"" class=""exp-image"">
                    <div class=""question-area"">
                        <p style=""font-size: 20px; font-weight: bold; margin: 0;"">Is there a person in this image?</p>
                    </div>
                </div>","0","main_experiment_trial","ten","physical_activity_semantic","semantic_sequence","chronological","","","","","","",""
"","","","","","html-keyboard-response","163","470111","0.0-163.0","076DF939850047A7A9AC862E2EF5A47E","019cfcb8-a16b-7ef2-a738-bfaf73a37f65","019cfc7b-6c7b-7b1b-afe7-acad8efc6711","","null","<div style=""background-color: white; width: 100vw; height: 100vh;""></div>","null","","","","","","","","","","","",""
"","","","","","html-keyboard-response","164","475114","0.0-164.0","076DF939850047A7A9AC862E2EF5A47E","019cfcb8-a16b-7ef2-a738-bfaf73a37f65","019cfc7b-6c7b-7b1b-afe7-acad8efc6711","","null","
                <div class=""stimulus-container"">
                    <img src=""images/causal_sequence/the_performance_causal/the_performance_causal_1.png"" class=""exp-image"">
                    <div class=""question-area""></div> 
                </div>","null","","","","","","","","","","","",""
"","","","","","html-button-response","165","478128","0.0-165.0","076DF939850047A7A9AC862E2EF5A47E","019cfcb8-a16b-7ef2-a738-bfaf73a37f65","019cfc7b-6c7b-7b1b-afe7-acad8efc6711","","null","
                <div class=""stimulus-container"">
                    <img src=""images/causal_sequence/the_performance_causal/the_performance_causal_1.png"" class=""exp-image"">
                    <div class=""question-area"">
                        <p style=""font-size: 20px; font-weight: bold; margin: 0;"">Is there a person in this image?</p>
                    </div>
                </div>","null","main_experiment_trial","1","the_performance_causal","causal_sequence","chronological","","","","","","",""
"","","","","","html-keyboard-response","166","483141","0.0-166.0","076DF939850047A7A9AC862E2EF5A47E","019cfcb8-a16b-7ef2-a738-bfaf73a37f65","019cfc7b-6c7b-7b1b-afe7-acad8efc6711","","null","
                <div class=""stimulus-container"">
                    <img src=""images/causal_sequence/the_performance_causal/the_performance_causal_2.png"" class=""exp-image"">
                    <div class=""question-area""></div> 
                </div>","null","","","","","","","","","","","",""
"","","","","","html-button-response","167","483472","0.0-167.0","076DF939850047A7A9AC862E2EF5A47E","019cfcb8-a16b-7ef2-a738-bfaf73a37f65","019cfc7b-6c7b-7b1b-afe7-acad8efc6711","","330","
                <div class=""stimulus-container"">
                    <img src=""images/causal_sequence/the_performance_causal/the_performance_causal_2.png"" class=""exp-image"">
                    <div class=""question-area"">
                        <p style=""font-size: 20px; font-weight: bold; margin: 0;"">Is there a person in this image?</p>
                    </div>
                </div>","0","main_experiment_trial","2","the_performance_causal","causal_sequence","chronological","","","","","","",""
"","","","","","html-keyboard-response","168","488479","0.0-168.0","076DF939850047A7A9AC862E2EF5A47E","019cfcb8-a16b-7ef2-a738-bfaf73a37f65","019cfc7b-6c7b-7b1b-afe7-acad8efc6711","","null","
                <div class=""stimulus-container"">
                    <img src=""images/causal_sequence/the_performance_causal/the_performance_causal_3.png"" class=""exp-image"">
                    <div class=""question-area""></div> 
                </div>","null","","","","","","","","","","","",""
"","","","","","html-button-response","169","488846","0.0-169.0","076DF939850047A7A9AC862E2EF5A47E","019cfcb8-a16b-7ef2-a738-bfaf73a37f65","019cfc7b-6c7b-7b1b-afe7-acad8efc6711","","367","
                <div class=""stimulus-container"">
                    <img src=""images/causal_sequence/the_performance_causal/the_performance_causal_3.png"" class=""exp-image"">
                    <div class=""question-area"">
                        <p style=""font-size: 20px; font-weight: bold; margin: 0;"">Is there a person in this image?</p>
                    </div>
                </div>","0","main_experiment_trial","3","the_performance_causal","causal_sequence","chronological","","","","","","",""
"","","","","","html-keyboard-response","170","493857","0.0-170.0","076DF939850047A7A9AC862E2EF5A47E","019cfcb8-a16b-7ef2-a738-bfaf73a37f65","019cfc7b-6c7b-7b1b-afe7-acad8efc6711","","null","
                <div class=""stimulus-container"">
                    <img src=""images/causal_sequence/the_performance_causal/the_performance_causal_4.png"" class=""exp-image"">
                    <div class=""question-area""></div> 
                </div>","null","","","","","","","","","","","",""
"","","","","","html-button-response","171","494210","0.0-171.0","076DF939850047A7A9AC862E2EF5A47E","019cfcb8-a16b-7ef2-a738-bfaf73a37f65","019cfc7b-6c7b-7b1b-afe7-acad8efc6711","","352","
                <div class=""stimulus-container"">
                    <img src=""images/causal_sequence/the_performance_causal/the_performance_causal_4.png"" class=""exp-image"">
                    <div class=""question-area"">
                        <p style=""font-size: 20px; font-weight: bold; margin: 0;"">Is there a person in this image?</p>
                    </div>
                </div>","0","main_experiment_trial","4","the_performance_causal","causal_sequence","chronological","","","","","","",""
"","","","","","html-keyboard-response","172","499214","0.0-172.0","076DF939850047A7A9AC862E2EF5A47E","019cfcb8-a16b-7ef2-a738-bfaf73a37f65","019cfc7b-6c7b-7b1b-afe7-acad8efc6711","","null","
                <div class=""stimulus-container"">
                    <img src=""images/causal_sequence/the_performance_causal/the_performance_causal_5.png"" class=""exp-image"">
                    <div class=""question-area""></div> 
                </div>","null","","","","","","","","","","","",""
"","","","","","html-button-response","173","499579","0.0-173.0","076DF939850047A7A9AC862E2EF5A47E","019cfcb8-a16b-7ef2-a738-bfaf73a37f65","019cfc7b-6c7b-7b1b-afe7-acad8efc6711","","364","
                <div class=""stimulus-container"">
                    <img src=""images/causal_sequence/the_performance_causal/the_performance_causal_5.png"" class=""exp-image"">
                    <div class=""question-area"">
                        <p style=""font-size: 20px; font-weight: bold; margin: 0;"">Is there a person in this image?</p>
                    </div>
                </div>","0","main_experiment_trial","5","the_performance_causal","causal_sequence","chronological","","","","","","",""
"","","","","","html-keyboard-response","174","504593","0.0-174.0","076DF939850047A7A9AC862E2EF5A47E","019cfcb8-a16b-7ef2-a738-bfaf73a37f65","019cfc7b-6c7b-7b1b-afe7-acad8efc6711","","null","
                <div class=""stimulus-container"">
                    <img src=""images/causal_sequence/the_performance_causal/the_performance_causal_6.png"" class=""exp-image"">
                    <div class=""question-area""></div> 
                </div>","null","","","","","","","","","","","",""
"","","","","","html-button-response","175","505031","0.0-175.0","076DF939850047A7A9AC862E2EF5A47E","019cfcb8-a16b-7ef2-a738-bfaf73a37f65","019cfc7b-6c7b-7b1b-afe7-acad8efc6711","","438","
                <div class=""stimulus-container"">
                    <img src=""images/causal_sequence/the_performance_causal/the_performance_causal_6.png"" class=""exp-image"">
                    <div class=""question-area"">
                        <p style=""font-size: 20px; font-weight: bold; margin: 0;"">Is there a person in this image?</p>
                    </div>
                </div>","0","main_experiment_trial","6","the_performance_causal","causal_sequence","chronological","","","","","","",""
"","","","","","html-keyboard-response","176","510037","0.0-176.0","076DF939850047A7A9AC862E2EF5A47E","019cfcb8-a16b-7ef2-a738-bfaf73a37f65","019cfc7b-6c7b-7b1b-afe7-acad8efc6711","","null","
                <div class=""stimulus-container"">
