"success","timeout","failed_images","failed_audio","failed_video","trial_type","trial_index","time_elapsed","internal_node_id","subject_id","study_id","session_id","view_history","rt","stimulus","response","task","image_index","folder","sequence_type","presentation_order","valuable_image_index","reward_type","distance_from_x","target_X","chosen_image_index","is_x_plus_dist","correct_choice"
"true","false","[]","[]","[]","preload","0","1681","0.0-0.0","2A9144B4DED64DD1BB278BC52B9D483C","019cfc2b-694b-73b0-85a1-ad580d04fabb","019cfc28-2143-7934-89cc-ce6402563331","","","","","","","","","","","","","","","",""
"","","","","","instructions","1","4857","0.0-1.0","2A9144B4DED64DD1BB278BC52B9D483C","019cfc2b-694b-73b0-85a1-ad580d04fabb","019cfc28-2143-7934-89cc-ce6402563331","[{""page_index"":0,""viewing_time"":3174}]","3175","","","","","","","","","","","","","",""
"","","","","","instructions","2","30215","0.0-2.0","2A9144B4DED64DD1BB278BC52B9D483C","019cfc2b-694b-73b0-85a1-ad580d04fabb","019cfc28-2143-7934-89cc-ce6402563331","[{""page_index"":0,""viewing_time"":25357}]","25357","","","","","","","","","","","","","",""
"true","","","","","fullscreen","3","33616","0.0-3.0","2A9144B4DED64DD1BB278BC52B9D483C","019cfc2b-694b-73b0-85a1-ad580d04fabb","019cfc28-2143-7934-89cc-ce6402563331","","2390","","","","","","","","","","","","","",""
"","","","","","instructions","4","49435","0.0-4.0","2A9144B4DED64DD1BB278BC52B9D483C","019cfc2b-694b-73b0-85a1-ad580d04fabb","019cfc28-2143-7934-89cc-ce6402563331","[{""page_index"":0,""viewing_time"":15818}]","15818","","","","","","","","","","","","","",""
"","","","","","instructions","5","60314","0.0-5.0","2A9144B4DED64DD1BB278BC52B9D483C","019cfc2b-694b-73b0-85a1-ad580d04fabb","019cfc28-2143-7934-89cc-ce6402563331","[{""page_index"":0,""viewing_time"":10879}]","10879","","","","","","","","","","","","","",""
"","","","","","html-keyboard-response","6","64316","0.0-6.0","2A9144B4DED64DD1BB278BC52B9D483C","019cfc2b-694b-73b0-85a1-ad580d04fabb","019cfc28-2143-7934-89cc-ce6402563331","","null","
                <div class=""stimulus-container"">
                    <img src=""images/instructions/movie_1.png"" class=""exp-image"">
                    <div class=""question-area""></div> 
                </div>","null","","","","","","","","","","","",""
"","","","","","html-button-response","7","67018","0.0-7.0","2A9144B4DED64DD1BB278BC52B9D483C","019cfc2b-694b-73b0-85a1-ad580d04fabb","019cfc28-2143-7934-89cc-ce6402563331","","2700","
                <div class=""stimulus-container"">
                    <img src=""images/instructions/movie_1.png"" class=""exp-image"">
                    <div class=""question-area"">
                        <p style=""font-size: 20px; font-weight: bold; margin: 0;"">Was there a person in this image?</p>
                    </div>
                </div>","0","example_question","1","","","","","","","","","",""
"","","","","","html-keyboard-response","8","71019","0.0-8.0","2A9144B4DED64DD1BB278BC52B9D483C","019cfc2b-694b-73b0-85a1-ad580d04fabb","019cfc28-2143-7934-89cc-ce6402563331","","null","
                <div class=""stimulus-container"">
                    <img src=""images/instructions/movie_2.png"" class=""exp-image"">
                    <div class=""question-area""></div> 
                </div>","null","","","","","","","","","","","",""
"","","","","","html-button-response","9","72762","0.0-9.0","2A9144B4DED64DD1BB278BC52B9D483C","019cfc2b-694b-73b0-85a1-ad580d04fabb","019cfc28-2143-7934-89cc-ce6402563331","","1742","
                <div class=""stimulus-container"">
                    <img src=""images/instructions/movie_2.png"" class=""exp-image"">
                    <div class=""question-area"">
                        <p style=""font-size: 20px; font-weight: bold; margin: 0;"">Was there a person in this image?</p>
                    </div>
                </div>","0","example_question","2","","","","","","","","","",""
"","","","","","html-keyboard-response","10","76763","0.0-10.0","2A9144B4DED64DD1BB278BC52B9D483C","019cfc2b-694b-73b0-85a1-ad580d04fabb","019cfc28-2143-7934-89cc-ce6402563331","","null","
                <div class=""stimulus-container"">
                    <img src=""images/instructions/movie_3.png"" class=""exp-image"">
                    <div class=""question-area""></div> 
                </div>","null","","","","","","","","","","","",""
"","","","","","html-button-response","11","77417","0.0-11.0","2A9144B4DED64DD1BB278BC52B9D483C","019cfc2b-694b-73b0-85a1-ad580d04fabb","019cfc28-2143-7934-89cc-ce6402563331","","653","
                <div class=""stimulus-container"">
                    <img src=""images/instructions/movie_3.png"" class=""exp-image"">
                    <div class=""question-area"">
                        <p style=""font-size: 20px; font-weight: bold; margin: 0;"">Was there a person in this image?</p>
                    </div>
                </div>","0","example_question","3","","","","","","","","","",""
"","","","","","html-keyboard-response","12","81418","0.0-12.0","2A9144B4DED64DD1BB278BC52B9D483C","019cfc2b-694b-73b0-85a1-ad580d04fabb","019cfc28-2143-7934-89cc-ce6402563331","","null","
                <div class=""stimulus-container"">
                    <img src=""images/instructions/movie_4.png"" class=""exp-image"">
                    <div class=""question-area""></div> 
                </div>","null","","","","","","","","","","","",""
"","","","","","html-button-response","13","83408","0.0-13.0","2A9144B4DED64DD1BB278BC52B9D483C","019cfc2b-694b-73b0-85a1-ad580d04fabb","019cfc28-2143-7934-89cc-ce6402563331","","1989","
                <div class=""stimulus-container"">
                    <img src=""images/instructions/movie_4.png"" class=""exp-image"">
                    <div class=""question-area"">
                        <p style=""font-size: 20px; font-weight: bold; margin: 0;"">Was there a person in this image?</p>
                    </div>
                </div>","0","example_question","4","","","","","","","","","",""
"","","","","","instructions","14","85592","0.0-14.0","2A9144B4DED64DD1BB278BC52B9D483C","019cfc2b-694b-73b0-85a1-ad580d04fabb","019cfc28-2143-7934-89cc-ce6402563331","[{""page_index"":0,""viewing_time"":2184}]","2184","","","","","","","","","","","","","",""
"","","","","","instructions","15","90800","0.0-15.0","2A9144B4DED64DD1BB278BC52B9D483C","019cfc2b-694b-73b0-85a1-ad580d04fabb","019cfc28-2143-7934-89cc-ce6402563331","[{""page_index"":0,""viewing_time"":5207}]","5207","","","","","","","","","","","","","",""
"","","","","","html-keyboard-response","16","95808","0.0-16.0","2A9144B4DED64DD1BB278BC52B9D483C","019cfc2b-694b-73b0-85a1-ad580d04fabb","019cfc28-2143-7934-89cc-ce6402563331","","null","<div style=""background-color: white; width: 100vw; height: 100vh;""></div>","null","","","","","","","","","","","",""
"","","","","","html-keyboard-response","17","100810","0.0-17.0","2A9144B4DED64DD1BB278BC52B9D483C","019cfc2b-694b-73b0-85a1-ad580d04fabb","019cfc28-2143-7934-89cc-ce6402563331","","null","
                <div class=""stimulus-container"">
                    <img src=""images/semantic_sequence/maintaining_a_car_semantic/maintaining_a_car_semantic_1.png"" class=""exp-image"">
                    <div class=""question-area""></div> 
                </div>","null","","","","","","","","","","","",""
"","","","","","html-button-response","18","103158","0.0-18.0","2A9144B4DED64DD1BB278BC52B9D483C","019cfc2b-694b-73b0-85a1-ad580d04fabb","019cfc28-2143-7934-89cc-ce6402563331","","2347","
                <div class=""stimulus-container"">
                    <img src=""images/semantic_sequence/maintaining_a_car_semantic/maintaining_a_car_semantic_1.png"" class=""exp-image"">
                    <div class=""question-area"">
                        <p style=""font-size: 20px; font-weight: bold; margin: 0;"">Is there a person in this image?</p>
                    </div>
                </div>","0","main_experiment_trial","1","maintaining_a_car_semantic","semantic_sequence","chronological","","","","","","",""
"","","","","","html-keyboard-response","19","108159","0.0-19.0","2A9144B4DED64DD1BB278BC52B9D483C","019cfc2b-694b-73b0-85a1-ad580d04fabb","019cfc28-2143-7934-89cc-ce6402563331","","null","
                <div class=""stimulus-container"">
                    <img src=""images/semantic_sequence/maintaining_a_car_semantic/maintaining_a_car_semantic_2.png"" class=""exp-image"">
                    <div class=""question-area""></div> 
                </div>","null","","","","","","","","","","","",""
"","","","","","html-button-response","20","110861","0.0-20.0","2A9144B4DED64DD1BB278BC52B9D483C","019cfc2b-694b-73b0-85a1-ad580d04fabb","019cfc28-2143-7934-89cc-ce6402563331","","2702","
                <div class=""stimulus-container"">
                    <img src=""images/semantic_sequence/maintaining_a_car_semantic/maintaining_a_car_semantic_2.png"" class=""exp-image"">
                    <div class=""question-area"">
                        <p style=""font-size: 20px; font-weight: bold; margin: 0;"">Is there a person in this image?</p>
                    </div>
                </div>","0","main_experiment_trial","2","maintaining_a_car_semantic","semantic_sequence","chronological","","","","","","",""
"","","","","","html-keyboard-response","21","115863","0.0-21.0","2A9144B4DED64DD1BB278BC52B9D483C","019cfc2b-694b-73b0-85a1-ad580d04fabb","019cfc28-2143-7934-89cc-ce6402563331","","null","
                <div class=""stimulus-container"">
                    <img src=""images/semantic_sequence/maintaining_a_car_semantic/maintaining_a_car_semantic_3.png"" class=""exp-image"">
                    <div class=""question-area""></div> 
                </div>","null","","","","","","","","","","","",""
"","","","","","html-button-response","22","117781","0.0-22.0","2A9144B4DED64DD1BB278BC52B9D483C","019cfc2b-694b-73b0-85a1-ad580d04fabb","019cfc28-2143-7934-89cc-ce6402563331","","1917","
                <div class=""stimulus-container"">
                    <img src=""images/semantic_sequence/maintaining_a_car_semantic/maintaining_a_car_semantic_3.png"" class=""exp-image"">
                    <div class=""question-area"">
                        <p style=""font-size: 20px; font-weight: bold; margin: 0;"">Is there a person in this image?</p>
                    </div>
                </div>","0","main_experiment_trial","3","maintaining_a_car_semantic","semantic_sequence","chronological","","","","","","",""
"","","","","","html-keyboard-response","23","122795","0.0-23.0","2A9144B4DED64DD1BB278BC52B9D483C","019cfc2b-694b-73b0-85a1-ad580d04fabb","019cfc28-2143-7934-89cc-ce6402563331","","null","
                <div class=""stimulus-container"">
                    <img src=""images/semantic_sequence/maintaining_a_car_semantic/maintaining_a_car_semantic_4.png"" class=""exp-image"">
                    <div class=""question-area""></div> 
                </div>","null","","","","","","","","","","","",""
"","","","","","html-button-response","24","124372","0.0-24.0","2A9144B4DED64DD1BB278BC52B9D483C","019cfc2b-694b-73b0-85a1-ad580d04fabb","019cfc28-2143-7934-89cc-ce6402563331","","1576","
                <div class=""stimulus-container"">
                    <img src=""images/semantic_sequence/maintaining_a_car_semantic/maintaining_a_car_semantic_4.png"" class=""exp-image"">
                    <div class=""question-area"">
                        <p style=""font-size: 20px; font-weight: bold; margin: 0;"">Is there a person in this image?</p>
                    </div>
                </div>","0","main_experiment_trial","4","maintaining_a_car_semantic","semantic_sequence","chronological","","","","","","",""
"","","","","","html-keyboard-response","25","129373","0.0-25.0","2A9144B4DED64DD1BB278BC52B9D483C","019cfc2b-694b-73b0-85a1-ad580d04fabb","019cfc28-2143-7934-89cc-ce6402563331","","null","
                <div class=""stimulus-container"">
                    <img src=""images/semantic_sequence/maintaining_a_car_semantic/maintaining_a_car_semantic_5.png"" class=""exp-image"">
                    <div class=""question-area""></div> 
                </div>","null","","","","","","","","","","","",""
"","","","","","html-button-response","26","132375","0.0-26.0","2A9144B4DED64DD1BB278BC52B9D483C","019cfc2b-694b-73b0-85a1-ad580d04fabb","019cfc28-2143-7934-89cc-ce6402563331","","null","
                <div class=""stimulus-container"">
                    <img src=""images/semantic_sequence/maintaining_a_car_semantic/maintaining_a_car_semantic_5.png"" class=""exp-image"">
                    <div class=""question-area"">
                        <p style=""font-size: 20px; font-weight: bold; margin: 0;"">Is there a person in this image?</p>
                    </div>
                </div>","null","main_experiment_trial","5","maintaining_a_car_semantic","semantic_sequence","chronological","","","","","","",""
"","","","","","html-keyboard-response","27","137376","0.0-27.0","2A9144B4DED64DD1BB278BC52B9D483C","019cfc2b-694b-73b0-85a1-ad580d04fabb","019cfc28-2143-7934-89cc-ce6402563331","","null","
                <div class=""stimulus-container"">
                    <img src=""images/semantic_sequence/maintaining_a_car_semantic/maintaining_a_car_semantic_6.png"" class=""exp-image"">
                    <div class=""question-area""></div> 
                </div>","null","","","","","","","","","","","",""
"","","","","","html-button-response","28","138514","0.0-28.0","2A9144B4DED64DD1BB278BC52B9D483C","019cfc2b-694b-73b0-85a1-ad580d04fabb","019cfc28-2143-7934-89cc-ce6402563331","","1138","
                <div class=""stimulus-container"">
                    <img src=""images/semantic_sequence/maintaining_a_car_semantic/maintaining_a_car_semantic_6.png"" class=""exp-image"">
                    <div class=""question-area"">
                        <p style=""font-size: 20px; font-weight: bold; margin: 0;"">Is there a person in this image?</p>
                    </div>
                </div>","0","main_experiment_trial","6","maintaining_a_car_semantic","semantic_sequence","chronological","","","","","","",""
"","","","","","html-keyboard-response","29","143515","0.0-29.0","2A9144B4DED64DD1BB278BC52B9D483C","019cfc2b-694b-73b0-85a1-ad580d04fabb","019cfc28-2143-7934-89cc-ce6402563331","","null","
                <div class=""stimulus-container"">
                    <img src=""images/semantic_sequence/maintaining_a_car_semantic/maintaining_a_car_semantic_7.png"" class=""exp-image"">
                    <div class=""question-area""></div> 
                </div>","null","","","","","","","","","","","",""
"","","","","","html-button-response","30","144540","0.0-30.0","2A9144B4DED64DD1BB278BC52B9D483C","019cfc2b-694b-73b0-85a1-ad580d04fabb","019cfc28-2143-7934-89cc-ce6402563331","","1024","
                <div class=""stimulus-container"">
                    <img src=""images/semantic_sequence/maintaining_a_car_semantic/maintaining_a_car_semantic_7.png"" class=""exp-image"">
                    <div class=""question-area"">
                        <p style=""font-size: 20px; font-weight: bold; margin: 0;"">Is there a person in this image?</p>
                    </div>
                </div>","0","main_experiment_trial","7","maintaining_a_car_semantic","semantic_sequence","chronological","","","","","","",""
"","","","","","html-keyboard-response","31","149541","0.0-31.0","2A9144B4DED64DD1BB278BC52B9D483C","019cfc2b-694b-73b0-85a1-ad580d04fabb","019cfc28-2143-7934-89cc-ce6402563331","","null","
                <div class=""stimulus-container"">
                    <img src=""images/semantic_sequence/maintaining_a_car_semantic/maintaining_a_car_semantic_8.png"" class=""exp-image"">
                    <div class=""question-area""></div> 
                </div>","null","","","","","","","","","","","",""
"","","","","","html-button-response","32","150550","0.0-32.0","2A9144B4DED64DD1BB278BC52B9D483C","019cfc2b-694b-73b0-85a1-ad580d04fabb","019cfc28-2143-7934-89cc-ce6402563331","","1008","
                <div class=""stimulus-container"">
                    <img src=""images/semantic_sequence/maintaining_a_car_semantic/maintaining_a_car_semantic_8.png"" class=""exp-image"">
                    <div class=""question-area"">
                        <p style=""font-size: 20px; font-weight: bold; margin: 0;"">Is there a person in this image?</p>
                    </div>
                </div>","0","main_experiment_trial","8","maintaining_a_car_semantic","semantic_sequence","chronological","","","","","","",""
"","","","","","html-keyboard-response","33","155550","0.0-33.0","2A9144B4DED64DD1BB278BC52B9D483C","019cfc2b-694b-73b0-85a1-ad580d04fabb","019cfc28-2143-7934-89cc-ce6402563331","","null","
                <div class=""stimulus-container"">
                    <img src=""images/semantic_sequence/maintaining_a_car_semantic/maintaining_a_car_semantic_9.png"" class=""exp-image"">
                    <div class=""question-area""></div> 
                </div>","null","","","","","","","","","","","",""
"","","","","","html-button-response","34","156616","0.0-34.0","2A9144B4DED64DD1BB278BC52B9D483C","019cfc2b-694b-73b0-85a1-ad580d04fabb","019cfc28-2143-7934-89cc-ce6402563331","","1058","
                <div class=""stimulus-container"">
                    <img src=""images/semantic_sequence/maintaining_a_car_semantic/maintaining_a_car_semantic_9.png"" class=""exp-image"">
                    <div class=""question-area"">
                        <p style=""font-size: 20px; font-weight: bold; margin: 0;"">Is there a person in this image?</p>
                    </div>
                </div>","0","main_experiment_trial","9","maintaining_a_car_semantic","semantic_sequence","chronological","","","","","","",""
"","","","","","html-keyboard-response","35","161617","0.0-35.0","2A9144B4DED64DD1BB278BC52B9D483C","019cfc2b-694b-73b0-85a1-ad580d04fabb","019cfc28-2143-7934-89cc-ce6402563331","","null","
                <div class=""stimulus-container"">
                    <img src=""images/semantic_sequence/maintaining_a_car_semantic/maintaining_a_car_semantic_ten.png"" class=""exp-image"">
                    <div class=""question-area""></div> 
                </div>","null","","","","","","","","","","","",""
"","","","","","html-button-response","36","162415","0.0-36.0","2A9144B4DED64DD1BB278BC52B9D483C","019cfc2b-694b-73b0-85a1-ad580d04fabb","019cfc28-2143-7934-89cc-ce6402563331","","798","
                <div class=""stimulus-container"">
                    <img src=""images/semantic_sequence/maintaining_a_car_semantic/maintaining_a_car_semantic_ten.png"" class=""exp-image"">
                    <div class=""question-area"">
                        <p style=""font-size: 20px; font-weight: bold; margin: 0;"">Is there a person in this image?</p>
                    </div>
                </div>","0","main_experiment_trial","ten","maintaining_a_car_semantic","semantic_sequence","chronological","","","","","","",""
"","","","","","html-keyboard-response","37","167417","0.0-37.0","2A9144B4DED64DD1BB278BC52B9D483C","019cfc2b-694b-73b0-85a1-ad580d04fabb","019cfc28-2143-7934-89cc-ce6402563331","","null","<div style=""background-color: white; width: 100vw; height: 100vh;""></div>","null","","","","","","","","","","","",""
"","","","","","html-keyboard-response","38","172418","0.0-38.0","2A9144B4DED64DD1BB278BC52B9D483C","019cfc2b-694b-73b0-85a1-ad580d04fabb","019cfc28-2143-7934-89cc-ce6402563331","","null","
                <div class=""stimulus-container"">
                    <img src=""images/schematic_sequence/restaurant_scheme/restaurant_scheme_1.png"" class=""exp-image"">
                    <div class=""question-area""></div> 
                </div>","null","","","","","","","","","","","",""
"","","","","","html-button-response","39","174685","0.0-39.0","2A9144B4DED64DD1BB278BC52B9D483C","019cfc2b-694b-73b0-85a1-ad580d04fabb","019cfc28-2143-7934-89cc-ce6402563331","","2266","
                <div class=""stimulus-container"">
                    <img src=""images/schematic_sequence/restaurant_scheme/restaurant_scheme_1.png"" class=""exp-image"">
                    <div class=""question-area"">
                        <p style=""font-size: 20px; font-weight: bold; margin: 0;"">Is there a person in this image?</p>
                    </div>
                </div>","0","main_experiment_trial","1","restaurant_scheme","schematic_sequence","chronological","","","","","","",""
"","","","","","html-keyboard-response","40","179687","0.0-40.0","2A9144B4DED64DD1BB278BC52B9D483C","019cfc2b-694b-73b0-85a1-ad580d04fabb","019cfc28-2143-7934-89cc-ce6402563331","","null","
                <div class=""stimulus-container"">
                    <img src=""images/schematic_sequence/restaurant_scheme/restaurant_scheme_2.png"" class=""exp-image"">
                    <div class=""question-area""></div> 
                </div>","null","","","","","","","","","","","",""
"","","","","","html-button-response","41","180797","0.0-41.0","2A9144B4DED64DD1BB278BC52B9D483C","019cfc2b-694b-73b0-85a1-ad580d04fabb","019cfc28-2143-7934-89cc-ce6402563331","","1110","
                <div class=""stimulus-container"">
                    <img src=""images/schematic_sequence/restaurant_scheme/restaurant_scheme_2.png"" class=""exp-image"">
                    <div class=""question-area"">
                        <p style=""font-size: 20px; font-weight: bold; margin: 0;"">Is there a person in this image?</p>
                    </div>
                </div>","1","main_experiment_trial","2","restaurant_scheme","schematic_sequence","chronological","","","","","","",""
"","","","","","html-keyboard-response","42","185798","0.0-42.0","2A9144B4DED64DD1BB278BC52B9D483C","019cfc2b-694b-73b0-85a1-ad580d04fabb","019cfc28-2143-7934-89cc-ce6402563331","","null","
                <div class=""stimulus-container"">
                    <img src=""images/schematic_sequence/restaurant_scheme/restaurant_scheme_3.png"" class=""exp-image"">
                    <div class=""question-area""></div> 
                </div>","null","","","","","","","","","","","",""
"","","","","","html-button-response","43","186974","0.0-43.0","2A9144B4DED64DD1BB278BC52B9D483C","019cfc2b-694b-73b0-85a1-ad580d04fabb","019cfc28-2143-7934-89cc-ce6402563331","","1175","
                <div class=""stimulus-container"">
                    <img src=""images/schematic_sequence/restaurant_scheme/restaurant_scheme_3.png"" class=""exp-image"">
                    <div class=""question-area"">
                        <p style=""font-size: 20px; font-weight: bold; margin: 0;"">Is there a person in this image?</p>
                    </div>
                </div>","1","main_experiment_trial","3","restaurant_scheme","schematic_sequence","chronological","","","","","","",""
"","","","","","html-keyboard-response","44","191976","0.0-44.0","2A9144B4DED64DD1BB278BC52B9D483C","019cfc2b-694b-73b0-85a1-ad580d04fabb","019cfc28-2143-7934-89cc-ce6402563331","","null","
                <div class=""stimulus-container"">
                    <img src=""images/schematic_sequence/restaurant_scheme/restaurant_scheme_4.png"" class=""exp-image"">
                    <div class=""question-area""></div> 
                </div>","null","","","","","","","","","","","",""
"","","","","","html-button-response","45","192844","0.0-45.0","2A9144B4DED64DD1BB278BC52B9D483C","019cfc2b-694b-73b0-85a1-ad580d04fabb","019cfc28-2143-7934-89cc-ce6402563331","","868","
                <div class=""stimulus-container"">
                    <img src=""images/schematic_sequence/restaurant_scheme/restaurant_scheme_4.png"" class=""exp-image"">
                    <div class=""question-area"">
                        <p style=""font-size: 20px; font-weight: bold; margin: 0;"">Is there a person in this image?</p>
                    </div>
                </div>","0","main_experiment_trial","4","restaurant_scheme","schematic_sequence","chronological","","","","","","",""
"","","","","","html-keyboard-response","46","197847","0.0-46.0","2A9144B4DED64DD1BB278BC52B9D483C","019cfc2b-694b-73b0-85a1-ad580d04fabb","019cfc28-2143-7934-89cc-ce6402563331","","null","
                <div class=""stimulus-container"">
                    <img src=""images/schematic_sequence/restaurant_scheme/restaurant_scheme_5.png"" class=""exp-image"">
                    <div class=""question-area""></div> 
                </div>","null","","","","","","","","","","","",""
"","","","","","html-button-response","47","198707","0.0-47.0","2A9144B4DED64DD1BB278BC52B9D483C","019cfc2b-694b-73b0-85a1-ad580d04fabb","019cfc28-2143-7934-89cc-ce6402563331","","860","
                <div class=""stimulus-container"">
                    <img src=""images/schematic_sequence/restaurant_scheme/restaurant_scheme_5.png"" class=""exp-image"">
                    <div class=""question-area"">
                        <p style=""font-size: 20px; font-weight: bold; margin: 0;"">Is there a person in this image?</p>
                    </div>
                </div>","0","main_experiment_trial","5","restaurant_scheme","schematic_sequence","chronological","","","","","","",""
"","","","","","html-keyboard-response","48","203708","0.0-48.0","2A9144B4DED64DD1BB278BC52B9D483C","019cfc2b-694b-73b0-85a1-ad580d04fabb","019cfc28-2143-7934-89cc-ce6402563331","","null","
                <div class=""stimulus-container"">
                    <img src=""images/schematic_sequence/restaurant_scheme/restaurant_scheme_6.png"" class=""exp-image"">
                    <div class=""question-area""></div> 
                </div>","null","","","","","","","","","","","",""
"","","","","","html-button-response","49","204470","0.0-49.0","2A9144B4DED64DD1BB278BC52B9D483C","019cfc2b-694b-73b0-85a1-ad580d04fabb","019cfc28-2143-7934-89cc-ce6402563331","","761","
                <div class=""stimulus-container"">
                    <img src=""images/schematic_sequence/restaurant_scheme/restaurant_scheme_6.png"" class=""exp-image"">
                    <div class=""question-area"">
                        <p style=""font-size: 20px; font-weight: bold; margin: 0;"">Is there a person in this image?</p>
                    </div>
                </div>","1","main_experiment_trial","6","restaurant_scheme","schematic_sequence","chronological","","","","","","",""
"","","","","","html-keyboard-response","50","209471","0.0-50.0","2A9144B4DED64DD1BB278BC52B9D483C","019cfc2b-694b-73b0-85a1-ad580d04fabb","019cfc28-2143-7934-89cc-ce6402563331","","null","
                <div class=""stimulus-container"">
                    <img src=""images/schematic_sequence/restaurant_scheme/restaurant_scheme_7.png"" class=""exp-image"">
                    <div class=""question-area""></div> 
                </div>","null","","","","","","","","","","","",""
"","","","","","html-button-response","51","209983","0.0-51.0","2A9144B4DED64DD1BB278BC52B9D483C","019cfc2b-694b-73b0-85a1-ad580d04fabb","019cfc28-2143-7934-89cc-ce6402563331","","511","
                <div class=""stimulus-container"">
                    <img src=""images/schematic_sequence/restaurant_scheme/restaurant_scheme_7.png"" class=""exp-image"">
                    <div class=""question-area"">
                        <p style=""font-size: 20px; font-weight: bold; margin: 0;"">Is there a person in this image?</p>
                    </div>
                </div>","1","main_experiment_trial","7","restaurant_scheme","schematic_sequence","chronological","","","","","","",""
"","","","","","html-keyboard-response","52","214985","0.0-52.0","2A9144B4DED64DD1BB278BC52B9D483C","019cfc2b-694b-73b0-85a1-ad580d04fabb","019cfc28-2143-7934-89cc-ce6402563331","","null","
                <div class=""stimulus-container"">
                    <img src=""images/schematic_sequence/restaurant_scheme/restaurant_scheme_8.png"" class=""exp-image"">
                    <div class=""question-area""></div> 
                </div>","null","","","","","","","","","","","",""
"","","","","","html-button-response","53","217993","0.0-53.0","2A9144B4DED64DD1BB278BC52B9D483C","019cfc2b-694b-73b0-85a1-ad580d04fabb","019cfc28-2143-7934-89cc-ce6402563331","","null","
                <div class=""stimulus-container"">
                    <img src=""images/schematic_sequence/restaurant_scheme/restaurant_scheme_8.png"" class=""exp-image"">
                    <div class=""question-area"">
                        <p style=""font-size: 20px; font-weight: bold; margin: 0;"">Is there a person in this image?</p>
                    </div>
                </div>","null","main_experiment_trial","8","restaurant_scheme","schematic_sequence","chronological","","","","","","",""
"","","","","","html-keyboard-response","54","222995","0.0-54.0","2A9144B4DED64DD1BB278BC52B9D483C","019cfc2b-694b-73b0-85a1-ad580d04fabb","019cfc28-2143-7934-89cc-ce6402563331","","null","
                <div class=""stimulus-container"">
                    <img src=""images/schematic_sequence/restaurant_scheme/restaurant_scheme_9.png"" class=""exp-image"">
                    <div class=""question-area""></div> 
                </div>","null","","","","","","","","","","","",""
"","","","","","html-button-response","55","224136","0.0-55.0","2A9144B4DED64DD1BB278BC52B9D483C","019cfc2b-694b-73b0-85a1-ad580d04fabb","019cfc28-2143-7934-89cc-ce6402563331","","1141","
                <div class=""stimulus-container"">
                    <img src=""images/schematic_sequence/restaurant_scheme/restaurant_scheme_9.png"" class=""exp-image"">
                    <div class=""question-area"">
                        <p style=""font-size: 20px; font-weight: bold; margin: 0;"">Is there a person in this image?</p>
                    </div>
                </div>","0","main_experiment_trial","9","restaurant_scheme","schematic_sequence","chronological","","","","","","",""
"","","","","","html-keyboard-response","56","229137","0.0-56.0","2A9144B4DED64DD1BB278BC52B9D483C","019cfc2b-694b-73b0-85a1-ad580d04fabb","019cfc28-2143-7934-89cc-ce6402563331","","null","
                <div class=""stimulus-container"">
                    <img src=""images/schematic_sequence/restaurant_scheme/restaurant_scheme_ten.png"" class=""exp-image"">
                    <div class=""question-area""></div> 
                </div>","null","","","","","","","","","","","",""
"","","","","","html-button-response","57","229951","0.0-57.0","2A9144B4DED64DD1BB278BC52B9D483C","019cfc2b-694b-73b0-85a1-ad580d04fabb","019cfc28-2143-7934-89cc-ce6402563331","","813","
                <div class=""stimulus-container"">
                    <img src=""images/schematic_sequence/restaurant_scheme/restaurant_scheme_ten.png"" class=""exp-image"">
                    <div class=""question-area"">
                        <p style=""font-size: 20px; font-weight: bold; margin: 0;"">Is there a person in this image?</p>
                    </div>
                </div>","0","main_experiment_trial","ten","restaurant_scheme","schematic_sequence","chronological","","","","","","",""
"","","","","","html-keyboard-response","58","234952","0.0-58.0","2A9144B4DED64DD1BB278BC52B9D483C","019cfc2b-694b-73b0-85a1-ad580d04fabb","019cfc28-2143-7934-89cc-ce6402563331","","null","<div style=""background-color: white; width: 100vw; height: 100vh;""></div>","null","","","","","","","","","","","",""
"","","","","","html-keyboard-response","59","239955","0.0-59.0","2A9144B4DED64DD1BB278BC52B9D483C","019cfc2b-694b-73b0-85a1-ad580d04fabb","019cfc28-2143-7934-89cc-ce6402563331","","null","
                <div class=""stimulus-container"">
                    <img src=""images/semantic_sequence/physical_activity_semantic/physical_activity_semantic_1.png"" class=""exp-image"">
                    <div class=""question-area""></div> 
                </div>","null","","","","","","","","","","","",""
"","","","","","html-button-response","60","240798","0.0-60.0","2A9144B4DED64DD1BB278BC52B9D483C","019cfc2b-694b-73b0-85a1-ad580d04fabb","019cfc28-2143-7934-89cc-ce6402563331","","843","
                <div class=""stimulus-container"">
                    <img src=""images/semantic_sequence/physical_activity_semantic/physical_activity_semantic_1.png"" class=""exp-image"">
                    <div class=""question-area"">
                        <p style=""font-size: 20px; font-weight: bold; margin: 0;"">Is there a person in this image?</p>
                    </div>
                </div>","0","main_experiment_trial","1","physical_activity_semantic","semantic_sequence","chronological","","","","","","",""
"","","","","","html-keyboard-response","61","245800","0.0-61.0","2A9144B4DED64DD1BB278BC52B9D483C","019cfc2b-694b-73b0-85a1-ad580d04fabb","019cfc28-2143-7934-89cc-ce6402563331","","null","
                <div class=""stimulus-container"">
                    <img src=""images/semantic_sequence/physical_activity_semantic/physical_activity_semantic_2.png"" class=""exp-image"">
                    <div class=""question-area""></div> 
                </div>","null","","","","","","","","","","","",""
"","","","","","html-button-response","62","246470","0.0-62.0","2A9144B4DED64DD1BB278BC52B9D483C","019cfc2b-694b-73b0-85a1-ad580d04fabb","019cfc28-2143-7934-89cc-ce6402563331","","670","
                <div class=""stimulus-container"">
                    <img src=""images/semantic_sequence/physical_activity_semantic/physical_activity_semantic_2.png"" class=""exp-image"">
                    <div class=""question-area"">
                        <p style=""font-size: 20px; font-weight: bold; margin: 0;"">Is there a person in this image?</p>
                    </div>
                </div>","0","main_experiment_trial","2","physical_activity_semantic","semantic_sequence","chronological","","","","","","",""
"","","","","","html-keyboard-response","63","251472","0.0-63.0","2A9144B4DED64DD1BB278BC52B9D483C","019cfc2b-694b-73b0-85a1-ad580d04fabb","019cfc28-2143-7934-89cc-ce6402563331","","null","
                <div class=""stimulus-container"">
                    <img src=""images/semantic_sequence/physical_activity_semantic/physical_activity_semantic_3.png"" class=""exp-image"">
                    <div class=""question-area""></div> 
                </div>","null","","","","","","","","","","","",""
"","","","","","html-button-response","64","251886","0.0-64.0","2A9144B4DED64DD1BB278BC52B9D483C","019cfc2b-694b-73b0-85a1-ad580d04fabb","019cfc28-2143-7934-89cc-ce6402563331","","413","
                <div class=""stimulus-container"">
                    <img src=""images/semantic_sequence/physical_activity_semantic/physical_activity_semantic_3.png"" class=""exp-image"">
                    <div class=""question-area"">
                        <p style=""font-size: 20px; font-weight: bold; margin: 0;"">Is there a person in this image?</p>
                    </div>
                </div>","0","main_experiment_trial","3","physical_activity_semantic","semantic_sequence","chronological","","","","","","",""
"","","","","","html-keyboard-response","65","256888","0.0-65.0","2A9144B4DED64DD1BB278BC52B9D483C","019cfc2b-694b-73b0-85a1-ad580d04fabb","019cfc28-2143-7934-89cc-ce6402563331","","null","
                <div class=""stimulus-container"">
                    <img src=""images/semantic_sequence/physical_activity_semantic/physical_activity_semantic_4.png"" class=""exp-image"">
                    <div class=""question-area""></div> 
                </div>","null","","","","","","","","","","","",""
"","","","","","html-button-response","66","257485","0.0-66.0","2A9144B4DED64DD1BB278BC52B9D483C","019cfc2b-694b-73b0-85a1-ad580d04fabb","019cfc28-2143-7934-89cc-ce6402563331","","596","
                <div class=""stimulus-container"">
                    <img src=""images/semantic_sequence/physical_activity_semantic/physical_activity_semantic_4.png"" class=""exp-image"">
                    <div class=""question-area"">
                        <p style=""font-size: 20px; font-weight: bold; margin: 0;"">Is there a person in this image?</p>
                    </div>
                </div>","0","main_experiment_trial","4","physical_activity_semantic","semantic_sequence","chronological","","","","","","",""
"","","","","","html-keyboard-response","67","262487","0.0-67.0","2A9144B4DED64DD1BB278BC52B9D483C","019cfc2b-694b-73b0-85a1-ad580d04fabb","019cfc28-2143-7934-89cc-ce6402563331","","null","
                <div class=""stimulus-container"">
                    <img src=""images/semantic_sequence/physical_activity_semantic/physical_activity_semantic_5.png"" class=""exp-image"">
                    <div class=""question-area""></div> 
                </div>","null","","","","","","","","","","","",""
"","","","","","html-button-response","68","263141","0.0-68.0","2A9144B4DED64DD1BB278BC52B9D483C","019cfc2b-694b-73b0-85a1-ad580d04fabb","019cfc28-2143-7934-89cc-ce6402563331","","653","
                <div class=""stimulus-container"">
                    <img src=""images/semantic_sequence/physical_activity_semantic/physical_activity_semantic_5.png"" class=""exp-image"">
                    <div class=""question-area"">
                        <p style=""font-size: 20px; font-weight: bold; margin: 0;"">Is there a person in this image?</p>
                    </div>
                </div>","0","main_experiment_trial","5","physical_activity_semantic","semantic_sequence","chronological","","","","","","",""
"","","","","","html-keyboard-response","69","268142","0.0-69.0","2A9144B4DED64DD1BB278BC52B9D483C","019cfc2b-694b-73b0-85a1-ad580d04fabb","019cfc28-2143-7934-89cc-ce6402563331","","null","
                <div class=""stimulus-container"">
                    <img src=""images/semantic_sequence/physical_activity_semantic/physical_activity_semantic_6.png"" class=""exp-image"">
                    <div class=""question-area""></div> 
                </div>","null","","","","","","","","","","","",""
"","","","","","html-button-response","70","268909","0.0-70.0","2A9144B4DED64DD1BB278BC52B9D483C","019cfc2b-694b-73b0-85a1-ad580d04fabb","019cfc28-2143-7934-89cc-ce6402563331","","766","
                <div class=""stimulus-container"">
                    <img src=""images/semantic_sequence/physical_activity_semantic/physical_activity_semantic_6.png"" class=""exp-image"">
                    <div class=""question-area"">
                        <p style=""font-size: 20px; font-weight: bold; margin: 0;"">Is there a person in this image?</p>
                    </div>
                </div>","0","main_experiment_trial","6","physical_activity_semantic","semantic_sequence","chronological","","","","","","",""
"","","","","","html-keyboard-response","71","273910","0.0-71.0","2A9144B4DED64DD1BB278BC52B9D483C","019cfc2b-694b-73b0-85a1-ad580d04fabb","019cfc28-2143-7934-89cc-ce6402563331","","null","
                <div class=""stimulus-container"">
                    <img src=""images/semantic_sequence/physical_activity_semantic/physical_activity_semantic_7.png"" class=""exp-image"">
                    <div class=""question-area""></div> 
                </div>","null","","","","","","","","","","","",""
"","","","","","html-button-response","72","274508","0.0-72.0","2A9144B4DED64DD1BB278BC52B9D483C","019cfc2b-694b-73b0-85a1-ad580d04fabb","019cfc28-2143-7934-89cc-ce6402563331","","597","
                <div class=""stimulus-container"">
                    <img src=""images/semantic_sequence/physical_activity_semantic/physical_activity_semantic_7.png"" class=""exp-image"">
                    <div class=""question-area"">
                        <p style=""font-size: 20px; font-weight: bold; margin: 0;"">Is there a person in this image?</p>
                    </div>
                </div>","0","main_experiment_trial","7","physical_activity_semantic","semantic_sequence","chronological","","","","","","",""
"","","","","","html-keyboard-response","73","279517","0.0-73.0","2A9144B4DED64DD1BB278BC52B9D483C","019cfc2b-694b-73b0-85a1-ad580d04fabb","019cfc28-2143-7934-89cc-ce6402563331","","null","
                <div class=""stimulus-container"">
                    <img src=""images/semantic_sequence/physical_activity_semantic/physical_activity_semantic_8.png"" class=""exp-image"">
                    <div class=""question-area""></div> 
                </div>","null","","","","","","","","","","","",""
"","","","","","html-button-response","74","280472","0.0-74.0","2A9144B4DED64DD1BB278BC52B9D483C","019cfc2b-694b-73b0-85a1-ad580d04fabb","019cfc28-2143-7934-89cc-ce6402563331","","953","
                <div class=""stimulus-container"">
                    <img src=""images/semantic_sequence/physical_activity_semantic/physical_activity_semantic_8.png"" class=""exp-image"">
                    <div class=""question-area"">
                        <p style=""font-size: 20px; font-weight: bold; margin: 0;"">Is there a person in this image?</p>
                    </div>
                </div>","0","main_experiment_trial","8","physical_activity_semantic","semantic_sequence","chronological","","","","","","",""
"","","","","","html-keyboard-response","75","285473","0.0-75.0","2A9144B4DED64DD1BB278BC52B9D483C","019cfc2b-694b-73b0-85a1-ad580d04fabb","019cfc28-2143-7934-89cc-ce6402563331","","null","
                <div class=""stimulus-container"">
                    <img src=""images/semantic_sequence/physical_activity_semantic/physical_activity_semantic_9.png"" class=""exp-image"">
                    <div class=""question-area""></div> 
                </div>","null","","","","","","","","","","","",""
"","","","","","html-button-response","76","286042","0.0-76.0","2A9144B4DED64DD1BB278BC52B9D483C","019cfc2b-694b-73b0-85a1-ad580d04fabb","019cfc28-2143-7934-89cc-ce6402563331","","567","
                <div class=""stimulus-container"">
                    <img src=""images/semantic_sequence/physical_activity_semantic/physical_activity_semantic_9.png"" class=""exp-image"">
                    <div class=""question-area"">
                        <p style=""font-size: 20px; font-weight: bold; margin: 0;"">Is there a person in this image?</p>
                    </div>
                </div>","0","main_experiment_trial","9","physical_activity_semantic","semantic_sequence","chronological","","","","","","",""
"","","","","","html-keyboard-response","77","291044","0.0-77.0","2A9144B4DED64DD1BB278BC52B9D483C","019cfc2b-694b-73b0-85a1-ad580d04fabb","019cfc28-2143-7934-89cc-ce6402563331","","null","
                <div class=""stimulus-container"">
                    <img src=""images/semantic_sequence/physical_activity_semantic/physical_activity_semantic_ten.png"" class=""exp-image"">
                    <div class=""question-area""></div> 
                </div>","null","","","","","","","","","","","",""
"","","","","","html-button-response","78","291697","0.0-78.0","2A9144B4DED64DD1BB278BC52B9D483C","019cfc2b-694b-73b0-85a1-ad580d04fabb","019cfc28-2143-7934-89cc-ce6402563331","","653","
                <div class=""stimulus-container"">
                    <img src=""images/semantic_sequence/physical_activity_semantic/physical_activity_semantic_ten.png"" class=""exp-image"">
                    <div class=""question-area"">
                        <p style=""font-size: 20px; font-weight: bold; margin: 0;"">Is there a person in this image?</p>
                    </div>
                </div>","0","main_experiment_trial","ten","physical_activity_semantic","semantic_sequence","chronological","","","","","","",""
"","","","","","html-keyboard-response","79","296699","0.0-79.0","2A9144B4DED64DD1BB278BC52B9D483C","019cfc2b-694b-73b0-85a1-ad580d04fabb","019cfc28-2143-7934-89cc-ce6402563331","","null","<div style=""background-color: white; width: 100vw; height: 100vh;""></div>","null","","","","","","","","","","","",""
"","","","","","html-keyboard-response","80","301701","0.0-80.0","2A9144B4DED64DD1BB278BC52B9D483C","019cfc2b-694b-73b0-85a1-ad580d04fabb","019cfc28-2143-7934-89cc-ce6402563331","","null","
                <div class=""stimulus-container"">
                    <img src=""images/schematic_sequence/dinner_party_scheme/dinner_party_scheme_1.png"" class=""exp-image"">
                    <div class=""question-area""></div> 
                </div>","null","","","","","","","","","","","",""
"","","","","","html-button-response","81","302728","0.0-81.0","2A9144B4DED64DD1BB278BC52B9D483C","019cfc2b-694b-73b0-85a1-ad580d04fabb","019cfc28-2143-7934-89cc-ce6402563331","","1027","
                <div class=""stimulus-container"">
                    <img src=""images/schematic_sequence/dinner_party_scheme/dinner_party_scheme_1.png"" class=""exp-image"">
                    <div class=""question-area"">
                        <p style=""font-size: 20px; font-weight: bold; margin: 0;"">Is there a person in this image?</p>
                    </div>
                </div>","0","main_experiment_trial","1","dinner_party_scheme","schematic_sequence","chronological","","","","","","",""
"","","","","","html-keyboard-response","82","307730","0.0-82.0","2A9144B4DED64DD1BB278BC52B9D483C","019cfc2b-694b-73b0-85a1-ad580d04fabb","019cfc28-2143-7934-89cc-ce6402563331","","null","
                <div class=""stimulus-container"">
                    <img src=""images/schematic_sequence/dinner_party_scheme/dinner_party_scheme_2.png"" class=""exp-image"">
                    <div class=""question-area""></div> 
                </div>","null","","","","","","","","","","","",""
"","","","","","html-button-response","83","308600","0.0-83.0","2A9144B4DED64DD1BB278BC52B9D483C","019cfc2b-694b-73b0-85a1-ad580d04fabb","019cfc28-2143-7934-89cc-ce6402563331","","869","
                <div class=""stimulus-container"">
                    <img src=""images/schematic_sequence/dinner_party_scheme/dinner_party_scheme_2.png"" class=""exp-image"">
                    <div class=""question-area"">
                        <p style=""font-size: 20px; font-weight: bold; margin: 0;"">Is there a person in this image?</p>
                    </div>
                </div>","0","main_experiment_trial","2","dinner_party_scheme","schematic_sequence","chronological","","","","","","",""
"","","","","","html-keyboard-response","84","313601","0.0-84.0","2A9144B4DED64DD1BB278BC52B9D483C","019cfc2b-694b-73b0-85a1-ad580d04fabb","019cfc28-2143-7934-89cc-ce6402563331","","null","
                <div class=""stimulus-container"">
                    <img src=""images/schematic_sequence/dinner_party_scheme/dinner_party_scheme_3.png"" class=""exp-image"">
                    <div class=""question-area""></div> 
                </div>","null","","","","","","","","","","","",""
"","","","","","html-button-response","85","314194","0.0-85.0","2A9144B4DED64DD1BB278BC52B9D483C","019cfc2b-694b-73b0-85a1-ad580d04fabb","019cfc28-2143-7934-89cc-ce6402563331","","593","
                <div class=""stimulus-container"">
                    <img src=""images/schematic_sequence/dinner_party_scheme/dinner_party_scheme_3.png"" class=""exp-image"">
                    <div class=""question-area"">
                        <p style=""font-size: 20px; font-weight: bold; margin: 0;"">Is there a person in this image?</p>
                    </div>
                </div>","0","main_experiment_trial","3","dinner_party_scheme","schematic_sequence","chronological","","","","","","",""
"","","","","","html-keyboard-response","86","319197","0.0-86.0","2A9144B4DED64DD1BB278BC52B9D483C","019cfc2b-694b-73b0-85a1-ad580d04fabb","019cfc28-2143-7934-89cc-ce6402563331","","null","
                <div class=""stimulus-container"">
                    <img src=""images/schematic_sequence/dinner_party_scheme/dinner_party_scheme_4.png"" class=""exp-image"">
                    <div class=""question-area""></div> 
                </div>","null","","","","","","","","","","","",""
"","","","","","html-button-response","87","319734","0.0-87.0","2A9144B4DED64DD1BB278BC52B9D483C","019cfc2b-694b-73b0-85a1-ad580d04fabb","019cfc28-2143-7934-89cc-ce6402563331","","537","
                <div class=""stimulus-container"">
                    <img src=""images/schematic_sequence/dinner_party_scheme/dinner_party_scheme_4.png"" class=""exp-image"">
                    <div class=""question-area"">
                        <p style=""font-size: 20px; font-weight: bold; margin: 0;"">Is there a person in this image?</p>
                    </div>
                </div>","0","main_experiment_trial","4","dinner_party_scheme","schematic_sequence","chronological","","","","","","",""
"","","","","","html-keyboard-response","88","324736","0.0-88.0","2A9144B4DED64DD1BB278BC52B9D483C","019cfc2b-694b-73b0-85a1-ad580d04fabb","019cfc28-2143-7934-89cc-ce6402563331","","null","
                <div class=""stimulus-container"">
                    <img src=""images/schematic_sequence/dinner_party_scheme/dinner_party_scheme_5.png"" class=""exp-image"">
                    <div class=""question-area""></div> 
                </div>","null","","","","","","","","","","","",""
"","","","","","html-button-response","89","325224","0.0-89.0","2A9144B4DED64DD1BB278BC52B9D483C","019cfc2b-694b-73b0-85a1-ad580d04fabb","019cfc28-2143-7934-89cc-ce6402563331","","488","
                <div class=""stimulus-container"">
                    <img src=""images/schematic_sequence/dinner_party_scheme/dinner_party_scheme_5.png"" class=""exp-image"">
                    <div class=""question-area"">
                        <p style=""font-size: 20px; font-weight: bold; margin: 0;"">Is there a person in this image?</p>
                    </div>
                </div>","0","main_experiment_trial","5","dinner_party_scheme","schematic_sequence","chronological","","","","","","",""
"","","","","","html-keyboard-response","90","330225","0.0-90.0","2A9144B4DED64DD1BB278BC52B9D483C","019cfc2b-694b-73b0-85a1-ad580d04fabb","019cfc28-2143-7934-89cc-ce6402563331","","null","
                <div class=""stimulus-container"">
                    <img src=""images/schematic_sequence/dinner_party_scheme/dinner_party_scheme_6.png"" class=""exp-image"">
                    <div class=""question-area""></div> 
                </div>","null","","","","","","","","","","","",""
"","","","","","html-button-response","91","330630","0.0-91.0","2A9144B4DED64DD1BB278BC52B9D483C","019cfc2b-694b-73b0-85a1-ad580d04fabb","019cfc28-2143-7934-89cc-ce6402563331","","404","
                <div class=""stimulus-container"">
                    <img src=""images/schematic_sequence/dinner_party_scheme/dinner_party_scheme_6.png"" class=""exp-image"">
                    <div class=""question-area"">
                        <p style=""font-size: 20px; font-weight: bold; margin: 0;"">Is there a person in this image?</p>
                    </div>
                </div>","0","main_experiment_trial","6","dinner_party_scheme","schematic_sequence","chronological","","","","","","",""
"","","","","","html-keyboard-response","92","335631","0.0-92.0","2A9144B4DED64DD1BB278BC52B9D483C","019cfc2b-694b-73b0-85a1-ad580d04fabb","019cfc28-2143-7934-89cc-ce6402563331","","null","
                <div class=""stimulus-container"">
                    <img src=""images/schematic_sequence/dinner_party_scheme/dinner_party_scheme_7.png"" class=""exp-image"">
                    <div class=""question-area""></div> 
                </div>","null","","","","","","","","","","","",""
"","","","","","html-button-response","93","336022","0.0-93.0","2A9144B4DED64DD1BB278BC52B9D483C","019cfc2b-694b-73b0-85a1-ad580d04fabb","019cfc28-2143-7934-89cc-ce6402563331","","390","
                <div class=""stimulus-container"">
                    <img src=""images/schematic_sequence/dinner_party_scheme/dinner_party_scheme_7.png"" class=""exp-image"">
                    <div class=""question-area"">
                        <p style=""font-size: 20px; font-weight: bold; margin: 0;"">Is there a person in this image?</p>
                    </div>
                </div>","0","main_experiment_trial","7","dinner_party_scheme","schematic_sequence","chronological","","","","","","",""
"","","","","","html-keyboard-response","94","341030","0.0-94.0","2A9144B4DED64DD1BB278BC52B9D483C","019cfc2b-694b-73b0-85a1-ad580d04fabb","019cfc28-2143-7934-89cc-ce6402563331","","null","
                <div class=""stimulus-container"">
                    <img src=""images/schematic_sequence/dinner_party_scheme/dinner_party_scheme_8.png"" class=""exp-image"">
                    <div class=""question-area""></div> 
                </div>","null","","","","","","","","","","","",""
"","","","","","html-button-response","95","341656","0.0-95.0","2A9144B4DED64DD1BB278BC52B9D483C","019cfc2b-694b-73b0-85a1-ad580d04fabb","019cfc28-2143-7934-89cc-ce6402563331","","625","
                <div class=""stimulus-container"">
                    <img src=""images/schematic_sequence/dinner_party_scheme/dinner_party_scheme_8.png"" class=""exp-image"">
                    <div class=""question-area"">
                        <p style=""font-size: 20px; font-weight: bold; margin: 0;"">Is there a person in this image?</p>
                    </div>
                </div>","0","main_experiment_trial","8","dinner_party_scheme","schematic_sequence","chronological","","","","","","",""
"","","","","","html-keyboard-response","96","346658","0.0-96.0","2A9144B4DED64DD1BB278BC52B9D483C","019cfc2b-694b-73b0-85a1-ad580d04fabb","019cfc28-2143-7934-89cc-ce6402563331","","null","
                <div class=""stimulus-container"">
                    <img src=""images/schematic_sequence/dinner_party_scheme/dinner_party_scheme_9.png"" class=""exp-image"">
                    <div class=""question-area""></div> 
                </div>","null","","","","","","","","","","","",""
"","","","","","html-button-response","97","347243","0.0-97.0","2A9144B4DED64DD1BB278BC52B9D483C","019cfc2b-694b-73b0-85a1-ad580d04fabb","019cfc28-2143-7934-89cc-ce6402563331","","584","
                <div class=""stimulus-container"">
                    <img src=""images/schematic_sequence/dinner_party_scheme/dinner_party_scheme_9.png"" class=""exp-image"">
                    <div class=""question-area"">
                        <p style=""font-size: 20px; font-weight: bold; margin: 0;"">Is there a person in this image?</p>
                    </div>
                </div>","0","main_experiment_trial","9","dinner_party_scheme","schematic_sequence","chronological","","","","","","",""
"","","","","","html-keyboard-response","98","352244","0.0-98.0","2A9144B4DED64DD1BB278BC52B9D483C","019cfc2b-694b-73b0-85a1-ad580d04fabb","019cfc28-2143-7934-89cc-ce6402563331","","null","
                <div class=""stimulus-container"">
                    <img src=""images/schematic_sequence/dinner_party_scheme/dinner_party_scheme_ten.png"" class=""exp-image"">
                    <div class=""question-area""></div> 
                </div>","null","","","","","","","","","","","",""
"","","","","","html-button-response","99","352803","0.0-99.0","2A9144B4DED64DD1BB278BC52B9D483C","019cfc2b-694b-73b0-85a1-ad580d04fabb","019cfc28-2143-7934-89cc-ce6402563331","","558","
                <div class=""stimulus-container"">
                    <img src=""images/schematic_sequence/dinner_party_scheme/dinner_party_scheme_ten.png"" class=""exp-image"">
                    <div class=""question-area"">
                        <p style=""font-size: 20px; font-weight: bold; margin: 0;"">Is there a person in this image?</p>
                    </div>
                </div>","0","main_experiment_trial","ten","dinner_party_scheme","schematic_sequence","chronological","","","","","","",""
"","","","","","html-keyboard-response","100","357804","0.0-100.0","2A9144B4DED64DD1BB278BC52B9D483C","019cfc2b-694b-73b0-85a1-ad580d04fabb","019cfc28-2143-7934-89cc-ce6402563331","","null","<div style=""background-color: white; width: 100vw; height: 100vh;""></div>","null","","","","","","","","","","","",""
"","","","","","html-keyboard-response","101","362807","0.0-101.0","2A9144B4DED64DD1BB278BC52B9D483C","019cfc2b-694b-73b0-85a1-ad580d04fabb","019cfc28-2143-7934-89cc-ce6402563331","","null","
                <div class=""stimulus-container"">
                    <img src=""images/schematic_sequence/flight_scheme/flight_scheme_1.png"" class=""exp-image"">
                    <div class=""question-area""></div> 
                </div>","null","","","","","","","","","","","",""
"","","","","","html-button-response","102","364386","0.0-102.0","2A9144B4DED64DD1BB278BC52B9D483C","019cfc2b-694b-73b0-85a1-ad580d04fabb","019cfc28-2143-7934-89cc-ce6402563331","","1578","
                <div class=""stimulus-container"">
                    <img src=""images/schematic_sequence/flight_scheme/flight_scheme_1.png"" class=""exp-image"">
                    <div class=""question-area"">
                        <p style=""font-size: 20px; font-weight: bold; margin: 0;"">Is there a person in this image?</p>
                    </div>
                </div>","0","main_experiment_trial","1","flight_scheme","schematic_sequence","chronological","","","","","","",""
"","","","","","html-keyboard-response","103","369387","0.0-103.0","2A9144B4DED64DD1BB278BC52B9D483C","019cfc2b-694b-73b0-85a1-ad580d04fabb","019cfc28-2143-7934-89cc-ce6402563331","","null","
                <div class=""stimulus-container"">
                    <img src=""images/schematic_sequence/flight_scheme/flight_scheme_2.png"" class=""exp-image"">
                    <div class=""question-area""></div> 
                </div>","null","","","","","","","","","","","",""
"","","","","","html-button-response","104","370117","0.0-104.0","2A9144B4DED64DD1BB278BC52B9D483C","019cfc2b-694b-73b0-85a1-ad580d04fabb","019cfc28-2143-7934-89cc-ce6402563331","","729","
                <div class=""stimulus-container"">
                    <img src=""images/schematic_sequence/flight_scheme/flight_scheme_2.png"" class=""exp-image"">
                    <div class=""question-area"">
                        <p style=""font-size: 20px; font-weight: bold; margin: 0;"">Is there a person in this image?</p>
                    </div>
                </div>","1","main_experiment_trial","2","flight_scheme","schematic_sequence","chronological","","","","","","",""
"","","","","","html-keyboard-response","105","375118","0.0-105.0","2A9144B4DED64DD1BB278BC52B9D483C","019cfc2b-694b-73b0-85a1-ad580d04fabb","019cfc28-2143-7934-89cc-ce6402563331","","null","
                <div class=""stimulus-container"">
                    <img src=""images/schematic_sequence/flight_scheme/flight_scheme_3.png"" class=""exp-image"">
                    <div class=""question-area""></div> 
                </div>","null","","","","","","","","","","","",""
"","","","","","html-button-response","106","375729","0.0-106.0","2A9144B4DED64DD1BB278BC52B9D483C","019cfc2b-694b-73b0-85a1-ad580d04fabb","019cfc28-2143-7934-89cc-ce6402563331","","611","
                <div class=""stimulus-container"">
                    <img src=""images/schematic_sequence/flight_scheme/flight_scheme_3.png"" class=""exp-image"">
                    <div class=""question-area"">
                        <p style=""font-size: 20px; font-weight: bold; margin: 0;"">Is there a person in this image?</p>
                    </div>
                </div>","0","main_experiment_trial","3","flight_scheme","schematic_sequence","chronological","","","","","","",""
"","","","","","html-keyboard-response","107","380730","0.0-107.0","2A9144B4DED64DD1BB278BC52B9D483C","019cfc2b-694b-73b0-85a1-ad580d04fabb","019cfc28-2143-7934-89cc-ce6402563331","","null","
                <div class=""stimulus-container"">
                    <img src=""images/schematic_sequence/flight_scheme/flight_scheme_4.png"" class=""exp-image"">
                    <div class=""question-area""></div> 
                </div>","null","","","","","","","","","","","",""
"","","","","","html-button-response","108","381433","0.0-108.0","2A9144B4DED64DD1BB278BC52B9D483C","019cfc2b-694b-73b0-85a1-ad580d04fabb","019cfc28-2143-7934-89cc-ce6402563331","","702","
                <div class=""stimulus-container"">
                    <img src=""images/schematic_sequence/flight_scheme/flight_scheme_4.png"" class=""exp-image"">
                    <div class=""question-area"">
                        <p style=""font-size: 20px; font-weight: bold; margin: 0;"">Is there a person in this image?</p>
                    </div>
                </div>","0","main_experiment_trial","4","flight_scheme","schematic_sequence","chronological","","","","","","",""
"","","","","","html-keyboard-response","109","386434","0.0-109.0","2A9144B4DED64DD1BB278BC52B9D483C","019cfc2b-694b-73b0-85a1-ad580d04fabb","019cfc28-2143-7934-89cc-ce6402563331","","null","
                <div class=""stimulus-container"">
                    <img src=""images/schematic_sequence/flight_scheme/flight_scheme_5.png"" class=""exp-image"">
                    <div class=""question-area""></div> 
                </div>","null","","","","","","","","","","","",""
"","","","","","html-button-response","110","386938","0.0-110.0","2A9144B4DED64DD1BB278BC52B9D483C","019cfc2b-694b-73b0-85a1-ad580d04fabb","019cfc28-2143-7934-89cc-ce6402563331","","502","
                <div class=""stimulus-container"">
                    <img src=""images/schematic_sequence/flight_scheme/flight_scheme_5.png"" class=""exp-image"">
                    <div class=""question-area"">
                        <p style=""font-size: 20px; font-weight: bold; margin: 0;"">Is there a person in this image?</p>
                    </div>
                </div>","0","main_experiment_trial","5","flight_scheme","schematic_sequence","chronological","","","","","","",""
"","","","","","html-keyboard-response","111","391939","0.0-111.0","2A9144B4DED64DD1BB278BC52B9D483C","019cfc2b-694b-73b0-85a1-ad580d04fabb","019cfc28-2143-7934-89cc-ce6402563331","","null","
                <div class=""stimulus-container"">
                    <img src=""images/schematic_sequence/flight_scheme/flight_scheme_6.png"" class=""exp-image"">
                    <div class=""question-area""></div> 
                </div>","null","","","","","","","","","","","",""
"","","","","","html-button-response","112","392543","0.0-112.0","2A9144B4DED64DD1BB278BC52B9D483C","019cfc2b-694b-73b0-85a1-ad580d04fabb","019cfc28-2143-7934-89cc-ce6402563331","","604","
                <div class=""stimulus-container"">
                    <img src=""images/schematic_sequence/flight_scheme/flight_scheme_6.png"" class=""exp-image"">
                    <div class=""question-area"">
                        <p style=""font-size: 20px; font-weight: bold; margin: 0;"">Is there a person in this image?</p>
                    </div>
                </div>","1","main_experiment_trial","6","flight_scheme","schematic_sequence","chronological","","","","","","",""
"","","","","","html-keyboard-response","113","397545","0.0-113.0","2A9144B4DED64DD1BB278BC52B9D483C","019cfc2b-694b-73b0-85a1-ad580d04fabb","019cfc28-2143-7934-89cc-ce6402563331","","null","
                <div class=""stimulus-container"">
                    <img src=""images/schematic_sequence/flight_scheme/flight_scheme_7.png"" class=""exp-image"">
                    <div class=""question-area""></div> 
                </div>","null","","","","","","","","","","","",""
"","","","","","html-button-response","114","399214","0.0-114.0","2A9144B4DED64DD1BB278BC52B9D483C","019cfc2b-694b-73b0-85a1-ad580d04fabb","019cfc28-2143-7934-89cc-ce6402563331","","1668","
                <div class=""stimulus-container"">
                    <img src=""images/schematic_sequence/flight_scheme/flight_scheme_7.png"" class=""exp-image"">
                    <div class=""question-area"">
                        <p style=""font-size: 20px; font-weight: bold; margin: 0;"">Is there a person in this image?</p>
                    </div>
                </div>","0","main_experiment_trial","7","flight_scheme","schematic_sequence","chronological","","","","","","",""
"","","","","","html-keyboard-response","115","404221","0.0-115.0","2A9144B4DED64DD1BB278BC52B9D483C","019cfc2b-694b-73b0-85a1-ad580d04fabb","019cfc28-2143-7934-89cc-ce6402563331","","null","
                <div class=""stimulus-container"">
                    <img src=""images/schematic_sequence/flight_scheme/flight_scheme_8.png"" class=""exp-image"">
                    <div class=""question-area""></div> 
                </div>","null","","","","","","","","","","","",""
"","","","","","html-button-response","116","405973","0.0-116.0","2A9144B4DED64DD1BB278BC52B9D483C","019cfc2b-694b-73b0-85a1-ad580d04fabb","019cfc28-2143-7934-89cc-ce6402563331","","1751","
                <div class=""stimulus-container"">
                    <img src=""images/schematic_sequence/flight_scheme/flight_scheme_8.png"" class=""exp-image"">
                    <div class=""question-area"">
                        <p style=""font-size: 20px; font-weight: bold; margin: 0;"">Is there a person in this image?</p>
                    </div>
                </div>","1","main_experiment_trial","8","flight_scheme","schematic_sequence","chronological","","","","","","",""
"","","","","","html-keyboard-response","117","410974","0.0-117.0","2A9144B4DED64DD1BB278BC52B9D483C","019cfc2b-694b-73b0-85a1-ad580d04fabb","019cfc28-2143-7934-89cc-ce6402563331","","null","
                <div class=""stimulus-container"">
                    <img src=""images/schematic_sequence/flight_scheme/flight_scheme_9.png"" class=""exp-image"">
                    <div class=""question-area""></div> 
                </div>","null","","","","","","","","","","","",""
"","","","","","html-button-response","118","412101","0.0-118.0","2A9144B4DED64DD1BB278BC52B9D483C","019cfc2b-694b-73b0-85a1-ad580d04fabb","019cfc28-2143-7934-89cc-ce6402563331","","1126","
                <div class=""stimulus-container"">
                    <img src=""images/schematic_sequence/flight_scheme/flight_scheme_9.png"" class=""exp-image"">
                    <div class=""question-area"">
                        <p style=""font-size: 20px; font-weight: bold; margin: 0;"">Is there a person in this image?</p>
                    </div>
                </div>","0","main_experiment_trial","9","flight_scheme","schematic_sequence","chronological","","","","","","",""
"","","","","","html-keyboard-response","119","417102","0.0-119.0","2A9144B4DED64DD1BB278BC52B9D483C","019cfc2b-694b-73b0-85a1-ad580d04fabb","019cfc28-2143-7934-89cc-ce6402563331","","null","
                <div class=""stimulus-container"">
                    <img src=""images/schematic_sequence/flight_scheme/flight_scheme_ten.png"" class=""exp-image"">
                    <div class=""question-area""></div> 
                </div>","null","","","","","","","","","","","",""
"","","","","","html-button-response","120","417652","0.0-120.0","2A9144B4DED64DD1BB278BC52B9D483C","019cfc2b-694b-73b0-85a1-ad580d04fabb","019cfc28-2143-7934-89cc-ce6402563331","","549","
                <div class=""stimulus-container"">
                    <img src=""images/schematic_sequence/flight_scheme/flight_scheme_ten.png"" class=""exp-image"">
                    <div class=""question-area"">
                        <p style=""font-size: 20px; font-weight: bold; margin: 0;"">Is there a person in this image?</p>
                    </div>
                </div>","0","main_experiment_trial","ten","flight_scheme","schematic_sequence","chronological","","","","","","",""
"","","","","","html-keyboard-response","121","422652","0.0-121.0","2A9144B4DED64DD1BB278BC52B9D483C","019cfc2b-694b-73b0-85a1-ad580d04fabb","019cfc28-2143-7934-89cc-ce6402563331","","null","<div style=""background-color: white; width: 100vw; height: 100vh;""></div>","null","","","","","","","","","","","",""
"","","","","","html-keyboard-response","122","427655","0.0-122.0","2A9144B4DED64DD1BB278BC52B9D483C","019cfc2b-694b-73b0-85a1-ad580d04fabb","019cfc28-2143-7934-89cc-ce6402563331","","null","
                <div class=""stimulus-container"">
                    <img src=""images/semantic_sequence/using_technology_semantic/using_technology_semantic_1.png"" class=""exp-image"">
                    <div class=""question-area""></div> 
                </div>","null","","","","","","","","","","","",""
"","","","","","html-button-response","123","428356","0.0-123.0","2A9144B4DED64DD1BB278BC52B9D483C","019cfc2b-694b-73b0-85a1-ad580d04fabb","019cfc28-2143-7934-89cc-ce6402563331","","700","
                <div class=""stimulus-container"">
                    <img src=""images/semantic_sequence/using_technology_semantic/using_technology_semantic_1.png"" class=""exp-image"">
                    <div class=""question-area"">
                        <p style=""font-size: 20px; font-weight: bold; margin: 0;"">Is there a person in this image?</p>
                    </div>
                </div>","0","main_experiment_trial","1","using_technology_semantic","semantic_sequence","chronological","","","","","","",""
"","","","","","html-keyboard-response","124","433358","0.0-124.0","2A9144B4DED64DD1BB278BC52B9D483C","019cfc2b-694b-73b0-85a1-ad580d04fabb","019cfc28-2143-7934-89cc-ce6402563331","","null","
                <div class=""stimulus-container"">
                    <img src=""images/semantic_sequence/using_technology_semantic/using_technology_semantic_2.png"" class=""exp-image"">
                    <div class=""question-area""></div> 
                </div>","null","","","","","","","","","","","",""
"","","","","","html-button-response","125","433851","0.0-125.0","2A9144B4DED64DD1BB278BC52B9D483C","019cfc2b-694b-73b0-85a1-ad580d04fabb","019cfc28-2143-7934-89cc-ce6402563331","","493","
                <div class=""stimulus-container"">
                    <img src=""images/semantic_sequence/using_technology_semantic/using_technology_semantic_2.png"" class=""exp-image"">
                    <div class=""question-area"">
                        <p style=""font-size: 20px; font-weight: bold; margin: 0;"">Is there a person in this image?</p>
                    </div>
                </div>","0","main_experiment_trial","2","using_technology_semantic","semantic_sequence","chronological","","","","","","",""
"","","","","","html-keyboard-response","126","438852","0.0-126.0","2A9144B4DED64DD1BB278BC52B9D483C","019cfc2b-694b-73b0-85a1-ad580d04fabb","019cfc28-2143-7934-89cc-ce6402563331","","null","
                <div class=""stimulus-container"">
                    <img src=""images/semantic_sequence/using_technology_semantic/using_technology_semantic_3.png"" class=""exp-image"">
                    <div class=""question-area""></div> 
                </div>","null","","","","","","","","","","","",""
"","","","","","html-button-response","127","439419","0.0-127.0","2A9144B4DED64DD1BB278BC52B9D483C","019cfc2b-694b-73b0-85a1-ad580d04fabb","019cfc28-2143-7934-89cc-ce6402563331","","566","
                <div class=""stimulus-container"">
                    <img src=""images/semantic_sequence/using_technology_semantic/using_technology_semantic_3.png"" class=""exp-image"">
                    <div class=""question-area"">
                        <p style=""font-size: 20px; font-weight: bold; margin: 0;"">Is there a person in this image?</p>
                    </div>
                </div>","0","main_experiment_trial","3","using_technology_semantic","semantic_sequence","chronological","","","","","","",""
"","","","","","html-keyboard-response","128","444420","0.0-128.0","2A9144B4DED64DD1BB278BC52B9D483C","019cfc2b-694b-73b0-85a1-ad580d04fabb","019cfc28-2143-7934-89cc-ce6402563331","","null","
                <div class=""stimulus-container"">
                    <img src=""images/semantic_sequence/using_technology_semantic/using_technology_semantic_4.png"" class=""exp-image"">
                    <div class=""question-area""></div> 
                </div>","null","","","","","","","","","","","",""
"","","","","","html-button-response","129","445159","0.0-129.0","2A9144B4DED64DD1BB278BC52B9D483C","019cfc2b-694b-73b0-85a1-ad580d04fabb","019cfc28-2143-7934-89cc-ce6402563331","","739","
                <div class=""stimulus-container"">
                    <img src=""images/semantic_sequence/using_technology_semantic/using_technology_semantic_4.png"" class=""exp-image"">
                    <div class=""question-area"">
                        <p style=""font-size: 20px; font-weight: bold; margin: 0;"">Is there a person in this image?</p>
                    </div>
                </div>","0","main_experiment_trial","4","using_technology_semantic","semantic_sequence","chronological","","","","","","",""
"","","","","","html-keyboard-response","130","450161","0.0-130.0","2A9144B4DED64DD1BB278BC52B9D483C","019cfc2b-694b-73b0-85a1-ad580d04fabb","019cfc28-2143-7934-89cc-ce6402563331","","null","
                <div class=""stimulus-container"">
                    <img src=""images/semantic_sequence/using_technology_semantic/using_technology_semantic_5.png"" class=""exp-image"">
                    <div class=""question-area""></div> 
                </div>","null","","","","","","","","","","","",""
"","","","","","html-button-response","131","451065","0.0-131.0","2A9144B4DED64DD1BB278BC52B9D483C","019cfc2b-694b-73b0-85a1-ad580d04fabb","019cfc28-2143-7934-89cc-ce6402563331","","903","
                <div class=""stimulus-container"">
                    <img src=""images/semantic_sequence/using_technology_semantic/using_technology_semantic_5.png"" class=""exp-image"">
                    <div class=""question-area"">
                        <p style=""font-size: 20px; font-weight: bold; margin: 0;"">Is there a person in this image?</p>
                    </div>
                </div>","0","main_experiment_trial","5","using_technology_semantic","semantic_sequence","chronological","","","","","","",""
"","","","","","html-keyboard-response","132","456066","0.0-132.0","2A9144B4DED64DD1BB278BC52B9D483C","019cfc2b-694b-73b0-85a1-ad580d04fabb","019cfc28-2143-7934-89cc-ce6402563331","","null","
                <div class=""stimulus-container"">
                    <img src=""images/semantic_sequence/using_technology_semantic/using_technology_semantic_6.png"" class=""exp-image"">
                    <div class=""question-area""></div> 
                </div>","null","","","","","","","","","","","",""
"","","","","","html-button-response","133","456816","0.0-133.0","2A9144B4DED64DD1BB278BC52B9D483C","019cfc2b-694b-73b0-85a1-ad580d04fabb","019cfc28-2143-7934-89cc-ce6402563331","","750","
                <div class=""stimulus-container"">
                    <img src=""images/semantic_sequence/using_technology_semantic/using_technology_semantic_6.png"" class=""exp-image"">
                    <div class=""question-area"">
                        <p style=""font-size: 20px; font-weight: bold; margin: 0;"">Is there a person in this image?</p>
                    </div>
                </div>","0","main_experiment_trial","6","using_technology_semantic","semantic_sequence","chronological","","","","","","",""
"","","","","","html-keyboard-response","134","461836","0.0-134.0","2A9144B4DED64DD1BB278BC52B9D483C","019cfc2b-694b-73b0-85a1-ad580d04fabb","019cfc28-2143-7934-89cc-ce6402563331","","null","
                <div class=""stimulus-container"">
                    <img src=""images/semantic_sequence/using_technology_semantic/using_technology_semantic_7.png"" class=""exp-image"">
                    <div class=""question-area""></div> 
                </div>","null","","","","","","","","","","","",""
"","","","","","html-button-response","135","462623","0.0-135.0","2A9144B4DED64DD1BB278BC52B9D483C","019cfc2b-694b-73b0-85a1-ad580d04fabb","019cfc28-2143-7934-89cc-ce6402563331","","786","
                <div class=""stimulus-container"">
                    <img src=""images/semantic_sequence/using_technology_semantic/using_technology_semantic_7.png"" class=""exp-image"">
                    <div class=""question-area"">
                        <p style=""font-size: 20px; font-weight: bold; margin: 0;"">Is there a person in this image?</p>
                    </div>
                </div>","0","main_experiment_trial","7","using_technology_semantic","semantic_sequence","chronological","","","","","","",""
"","","","","","html-keyboard-response","136","467624","0.0-136.0","2A9144B4DED64DD1BB278BC52B9D483C","019cfc2b-694b-73b0-85a1-ad580d04fabb","019cfc28-2143-7934-89cc-ce6402563331","","null","
                <div class=""stimulus-container"">
                    <img src=""images/semantic_sequence/using_technology_semantic/using_technology_semantic_8.png"" class=""exp-image"">
                    <div class=""question-area""></div> 
                </div>","null","","","","","","","","","","","",""
"","","","","","html-button-response","137","468335","0.0-137.0","2A9144B4DED64DD1BB278BC52B9D483C","019cfc2b-694b-73b0-85a1-ad580d04fabb","019cfc28-2143-7934-89cc-ce6402563331","","711","
                <div class=""stimulus-container"">
                    <img src=""images/semantic_sequence/using_technology_semantic/using_technology_semantic_8.png"" class=""exp-image"">
                    <div class=""question-area"">
                        <p style=""font-size: 20px; font-weight: bold; margin: 0;"">Is there a person in this image?</p>
                    </div>
                </div>","0","main_experiment_trial","8","using_technology_semantic","semantic_sequence","chronological","","","","","","",""
"","","","","","html-keyboard-response","138","473338","0.0-138.0","2A9144B4DED64DD1BB278BC52B9D483C","019cfc2b-694b-73b0-85a1-ad580d04fabb","019cfc28-2143-7934-89cc-ce6402563331","","null","
                <div class=""stimulus-container"">
                    <img src=""images/semantic_sequence/using_technology_semantic/using_technology_semantic_9.png"" class=""exp-image"">
                    <div class=""question-area""></div> 
                </div>","null","","","","","","","","","","","",""
"","","","","","html-button-response","139","473830","0.0-139.0","2A9144B4DED64DD1BB278BC52B9D483C","019cfc2b-694b-73b0-85a1-ad580d04fabb","019cfc28-2143-7934-89cc-ce6402563331","","491","
                <div class=""stimulus-container"">
                    <img src=""images/semantic_sequence/using_technology_semantic/using_technology_semantic_9.png"" class=""exp-image"">
                    <div class=""question-area"">
                        <p style=""font-size: 20px; font-weight: bold; margin: 0;"">Is there a person in this image?</p>
                    </div>
                </div>","0","main_experiment_trial","9","using_technology_semantic","semantic_sequence","chronological","","","","","","",""
"","","","","","html-keyboard-response","140","478831","0.0-140.0","2A9144B4DED64DD1BB278BC52B9D483C","019cfc2b-694b-73b0-85a1-ad580d04fabb","019cfc28-2143-7934-89cc-ce6402563331","","null","
                <div class=""stimulus-container"">
                    <img src=""images/semantic_sequence/using_technology_semantic/using_technology_semantic_ten.png"" class=""exp-image"">
                    <div class=""question-area""></div> 
                </div>","null","","","","","","","","","","","",""
"","","","","","html-button-response","141","479462","0.0-141.0","2A9144B4DED64DD1BB278BC52B9D483C","019cfc2b-694b-73b0-85a1-ad580d04fabb","019cfc28-2143-7934-89cc-ce6402563331","","630","
                <div class=""stimulus-container"">
                    <img src=""images/semantic_sequence/using_technology_semantic/using_technology_semantic_ten.png"" class=""exp-image"">
                    <div class=""question-area"">
                        <p style=""font-size: 20px; font-weight: bold; margin: 0;"">Is there a person in this image?</p>
                    </div>
                </div>","0","main_experiment_trial","ten","using_technology_semantic","semantic_sequence","chronological","","","","","","",""
"","","","","","html-keyboard-response","142","484463","0.0-142.0","2A9144B4DED64DD1BB278BC52B9D483C","019cfc2b-694b-73b0-85a1-ad580d04fabb","019cfc28-2143-7934-89cc-ce6402563331","","null","<div style=""background-color: white; width: 100vw; height: 100vh;""></div>","null","","","","","","","","","","","",""
"","","","","","html-keyboard-response","143","489464","0.0-143.0","2A9144B4DED64DD1BB278BC52B9D483C","019cfc2b-694b-73b0-85a1-ad580d04fabb","019cfc28-2143-7934-89cc-ce6402563331","","null","
                <div class=""stimulus-container"">
                    <img src=""images/semantic_sequence/housework_semantic/housework_semantic_1.png"" class=""exp-image"">
                    <div class=""question-area""></div> 
                </div>","null","","","","","","","","","","","",""
"","","","","","html-button-response","144","491613","0.0-144.0","2A9144B4DED64DD1BB278BC52B9D483C","019cfc2b-694b-73b0-85a1-ad580d04fabb","019cfc28-2143-7934-89cc-ce6402563331","","2148","
                <div class=""stimulus-container"">
                    <img src=""images/semantic_sequence/housework_semantic/housework_semantic_1.png"" class=""exp-image"">
                    <div class=""question-area"">
                        <p style=""font-size: 20px; font-weight: bold; margin: 0;"">Is there a person in this image?</p>
                    </div>
                </div>","0","main_experiment_trial","1","housework_semantic","semantic_sequence","chronological","","","","","","",""
"","","","","","html-keyboard-response","145","496614","0.0-145.0","2A9144B4DED64DD1BB278BC52B9D483C","019cfc2b-694b-73b0-85a1-ad580d04fabb","019cfc28-2143-7934-89cc-ce6402563331","","null","
                <div class=""stimulus-container"">
                    <img src=""images/semantic_sequence/housework_semantic/housework_semantic_2.png"" class=""exp-image"">
                    <div class=""question-area""></div> 
                </div>","null","","","","","","","","","","","",""
"","","","","","html-button-response","146","497964","0.0-146.0","2A9144B4DED64DD1BB278BC52B9D483C","019cfc2b-694b-73b0-85a1-ad580d04fabb","019cfc28-2143-7934-89cc-ce6402563331","","1349","
                <div class=""stimulus-container"">
                    <img src=""images/semantic_sequence/housework_semantic/housework_semantic_2.png"" class=""exp-image"">
                    <div class=""question-area"">
                        <p style=""font-size: 20px; font-weight: bold; margin: 0;"">Is there a person in this image?</p>
                    </div>
                </div>","0","main_experiment_trial","2","housework_semantic","semantic_sequence","chronological","","","","","","",""
"","","","","","html-keyboard-response","147","502965","0.0-147.0","2A9144B4DED64DD1BB278BC52B9D483C","019cfc2b-694b-73b0-85a1-ad580d04fabb","019cfc28-2143-7934-89cc-ce6402563331","","null","
                <div class=""stimulus-container"">
                    <img src=""images/semantic_sequence/housework_semantic/housework_semantic_3.png"" class=""exp-image"">
                    <div class=""question-area""></div> 
                </div>","null","","","","","","","","","","","",""
"","","","","","html-button-response","148","503756","0.0-148.0","2A9144B4DED64DD1BB278BC52B9D483C","019cfc2b-694b-73b0-85a1-ad580d04fabb","019cfc28-2143-7934-89cc-ce6402563331","","790","
                <div class=""stimulus-container"">
                    <img src=""images/semantic_sequence/housework_semantic/housework_semantic_3.png"" class=""exp-image"">
                    <div class=""question-area"">
                        <p style=""font-size: 20px; font-weight: bold; margin: 0;"">Is there a person in this image?</p>
                    </div>
                </div>","0","main_experiment_trial","3","housework_semantic","semantic_sequence","chronological","","","","","","",""
"","","","","","html-keyboard-response","149","508758","0.0-149.0","2A9144B4DED64DD1BB278BC52B9D483C","019cfc2b-694b-73b0-85a1-ad580d04fabb","019cfc28-2143-7934-89cc-ce6402563331","","null","
                <div class=""stimulus-container"">
                    <img src=""images/semantic_sequence/housework_semantic/housework_semantic_4.png"" class=""exp-image"">
                    <div class=""question-area""></div> 
                </div>","null","","","","","","","","","","","",""
"","","","","","html-button-response","150","509499","0.0-150.0","2A9144B4DED64DD1BB278BC52B9D483C","019cfc2b-694b-73b0-85a1-ad580d04fabb","019cfc28-2143-7934-89cc-ce6402563331","","741","
                <div class=""stimulus-container"">
                    <img src=""images/semantic_sequence/housework_semantic/housework_semantic_4.png"" class=""exp-image"">
                    <div class=""question-area"">
                        <p style=""font-size: 20px; font-weight: bold; margin: 0;"">Is there a person in this image?</p>
                    </div>
                </div>","0","main_experiment_trial","4","housework_semantic","semantic_sequence","chronological","","","","","","",""
"","","","","","html-keyboard-response","151","514501","0.0-151.0","2A9144B4DED64DD1BB278BC52B9D483C","019cfc2b-694b-73b0-85a1-ad580d04fabb","019cfc28-2143-7934-89cc-ce6402563331","","null","
                <div class=""stimulus-container"">
                    <img src=""images/semantic_sequence/housework_semantic/housework_semantic_5.png"" class=""exp-image"">
                    <div class=""question-area""></div> 
                </div>","null","","","","","","","","","","","",""
"","","","","","html-button-response","152","515578","0.0-152.0","2A9144B4DED64DD1BB278BC52B9D483C","019cfc2b-694b-73b0-85a1-ad580d04fabb","019cfc28-2143-7934-89cc-ce6402563331","","1077","
                <div class=""stimulus-container"">
                    <img src=""images/semantic_sequence/housework_semantic/housework_semantic_5.png"" class=""exp-image"">
                    <div class=""question-area"">
                        <p style=""font-size: 20px; font-weight: bold; margin: 0;"">Is there a person in this image?</p>
                    </div>
                </div>","0","main_experiment_trial","5","housework_semantic","semantic_sequence","chronological","","","","","","",""
"","","","","","html-keyboard-response","153","520580","0.0-153.0","2A9144B4DED64DD1BB278BC52B9D483C","019cfc2b-694b-73b0-85a1-ad580d04fabb","019cfc28-2143-7934-89cc-ce6402563331","","null","
                <div class=""stimulus-container"">
                    <img src=""images/semantic_sequence/housework_semantic/housework_semantic_6.png"" class=""exp-image"">
                    <div class=""question-area""></div> 
                </div>","null","","","","","","","","","","","",""
"","","","","","html-button-response","154","521515","0.0-154.0","2A9144B4DED64DD1BB278BC52B9D483C","019cfc2b-694b-73b0-85a1-ad580d04fabb","019cfc28-2143-7934-89cc-ce6402563331","","934","
                <div class=""stimulus-container"">
                    <img src=""images/semantic_sequence/housework_semantic/housework_semantic_6.png"" class=""exp-image"">
                    <div class=""question-area"">
                        <p style=""font-size: 20px; font-weight: bold; margin: 0;"">Is there a person in this image?</p>
                    </div>
                </div>","0","main_experiment_trial","6","housework_semantic","semantic_sequence","chronological","","","","","","",""
"","","","","","html-keyboard-response","155","526523","0.0-155.0","2A9144B4DED64DD1BB278BC52B9D483C","019cfc2b-694b-73b0-85a1-ad580d04fabb","019cfc28-2143-7934-89cc-ce6402563331","","null","
                <div class=""stimulus-container"">
                    <img src=""images/semantic_sequence/housework_semantic/housework_semantic_7.png"" class=""exp-image"">
                    <div class=""question-area""></div> 
                </div>","null","","","","","","","","","","","",""
"","","","","","html-button-response","156","527408","0.0-156.0","2A9144B4DED64DD1BB278BC52B9D483C","019cfc2b-694b-73b0-85a1-ad580d04fabb","019cfc28-2143-7934-89cc-ce6402563331","","885","
                <div class=""stimulus-container"">
                    <img src=""images/semantic_sequence/housework_semantic/housework_semantic_7.png"" class=""exp-image"">
                    <div class=""question-area"">
                        <p style=""font-size: 20px; font-weight: bold; margin: 0;"">Is there a person in this image?</p>
                    </div>
                </div>","0","main_experiment_trial","7","housework_semantic","semantic_sequence","chronological","","","","","","",""
"","","","","","html-keyboard-response","157","532410","0.0-157.0","2A9144B4DED64DD1BB278BC52B9D483C","019cfc2b-694b-73b0-85a1-ad580d04fabb","019cfc28-2143-7934-89cc-ce6402563331","","null","
                <div class=""stimulus-container"">
                    <img src=""images/semantic_sequence/housework_semantic/housework_semantic_8.png"" class=""exp-image"">
                    <div class=""question-area""></div> 
                </div>","null","","","","","","","","","","","",""
"","","","","","html-button-response","158","533507","0.0-158.0","2A9144B4DED64DD1BB278BC52B9D483C","019cfc2b-694b-73b0-85a1-ad580d04fabb","019cfc28-2143-7934-89cc-ce6402563331","","1096","
                <div class=""stimulus-container"">
                    <img src=""images/semantic_sequence/housework_semantic/housework_semantic_8.png"" class=""exp-image"">
                    <div class=""question-area"">
                        <p style=""font-size: 20px; font-weight: bold; margin: 0;"">Is there a person in this image?</p>
                    </div>
                </div>","0","main_experiment_trial","8","housework_semantic","semantic_sequence","chronological","","","","","","",""
"","","","","","html-keyboard-response","159","538508","0.0-159.0","2A9144B4DED64DD1BB278BC52B9D483C","019cfc2b-694b-73b0-85a1-ad580d04fabb","019cfc28-2143-7934-89cc-ce6402563331","","null","
                <div class=""stimulus-container"">
                    <img src=""images/semantic_sequence/housework_semantic/housework_semantic_9.png"" class=""exp-image"">
                    <div class=""question-area""></div> 
                </div>","null","","","","","","","","","","","",""
"","","","","","html-button-response","160","539183","0.0-160.0","2A9144B4DED64DD1BB278BC52B9D483C","019cfc2b-694b-73b0-85a1-ad580d04fabb","019cfc28-2143-7934-89cc-ce6402563331","","675","
                <div class=""stimulus-container"">
                    <img src=""images/semantic_sequence/housework_semantic/housework_semantic_9.png"" class=""exp-image"">
                    <div class=""question-area"">
                        <p style=""font-size: 20px; font-weight: bold; margin: 0;"">Is there a person in this image?</p>
                    </div>
                </div>","0","main_experiment_trial","9","housework_semantic","semantic_sequence","chronological","","","","","","",""
"","","","","","html-keyboard-response","161","544184","0.0-161.0","2A9144B4DED64DD1BB278BC52B9D483C","019cfc2b-694b-73b0-85a1-ad580d04fabb","019cfc28-2143-7934-89cc-ce6402563331","","null","
                <div class=""stimulus-container"">
                    <img src=""images/semantic_sequence/housework_semantic/housework_semantic_ten.png"" class=""exp-image"">
                    <div class=""question-area""></div> 
                </div>","null","","","","","","","","","","","",""
"","","","","","html-button-response","162","545367","0.0-162.0","2A9144B4DED64DD1BB278BC52B9D483C","019cfc2b-694b-73b0-85a1-ad580d04fabb","019cfc28-2143-7934-89cc-ce6402563331","","1182","
                <div class=""stimulus-container"">
                    <img src=""images/semantic_sequence/housework_semantic/housework_semantic_ten.png"" class=""exp-image"">
                    <div class=""question-area"">
                        <p style=""font-size: 20px; font-weight: bold; margin: 0;"">Is there a person in this image?</p>
                    </div>
                </div>","0","main_experiment_trial","ten","housework_semantic","semantic_sequence","chronological","","","","","","",""
"","","","","","html-keyboard-response","163","550368","0.0-163.0","2A9144B4DED64DD1BB278BC52B9D483C","019cfc2b-694b-73b0-85a1-ad580d04fabb","019cfc28-2143-7934-89cc-ce6402563331","","null","<div style=""background-color: white; width: 100vw; height: 100vh;""></div>","null","","","","","","","","","","","",""
"","","","","","html-keyboard-response","164","555368","0.0-164.0","2A9144B4DED64DD1BB278BC52B9D483C","019cfc2b-694b-73b0-85a1-ad580d04fabb","019cfc28-2143-7934-89cc-ce6402563331","","null","
                <div class=""stimulus-container"">
                    <img src=""images/schematic_sequence/supermarket_scheme/supermarket_scheme_1.png"" class=""exp-image"">
                    <div class=""question-area""></div> 
                </div>","null","","","","","","","","","","","",""
"","","","","","html-button-response","165","556270","0.0-165.0","2A9144B4DED64DD1BB278BC52B9D483C","019cfc2b-694b-73b0-85a1-ad580d04fabb","019cfc28-2143-7934-89cc-ce6402563331","","901","
                <div class=""stimulus-container"">
                    <img src=""images/schematic_sequence/supermarket_scheme/supermarket_scheme_1.png"" class=""exp-image"">
                    <div class=""question-area"">
                        <p style=""font-size: 20px; font-weight: bold; margin: 0;"">Is there a person in this image?</p>
                    </div>
                </div>","1","main_experiment_trial","1","supermarket_scheme","schematic_sequence","chronological","","","","","","",""
"","","","","","html-keyboard-response","166","561271","0.0-166.0","2A9144B4DED64DD1BB278BC52B9D483C","019cfc2b-694b-73b0-85a1-ad580d04fabb","019cfc28-2143-7934-89cc-ce6402563331","","null","
                <div class=""stimulus-container"">
                    <img src=""images/schematic_sequence/supermarket_scheme/supermarket_scheme_2.png"" class=""exp-image"">
                    <div class=""question-area""></div> 
                </div>","null","","","","","","","","","","","",""
"","","","","","html-button-response","167","562197","0.0-167.0","2A9144B4DED64DD1BB278BC52B9D483C","019cfc2b-694b-73b0-85a1-ad580d04fabb","019cfc28-2143-7934-89cc-ce6402563331","","925","
                <div class=""stimulus-container"">
                    <img src=""images/schematic_sequence/supermarket_scheme/supermarket_scheme_2.png"" class=""exp-image"">
                    <div class=""question-area"">
                        <p style=""font-size: 20px; font-weight: bold; margin: 0;"">Is there a person in this image?</p>
                    </div>
                </div>","1","main_experiment_trial","2","supermarket_scheme","schematic_sequence","chronological","","","","","","",""
"","","","","","html-keyboard-response","168","567198","0.0-168.0","2A9144B4DED64DD1BB278BC52B9D483C","019cfc2b-694b-73b0-85a1-ad580d04fabb","019cfc28-2143-7934-89cc-ce6402563331","","null","
                <div class=""stimulus-container"">
                    <img src=""images/schematic_sequence/supermarket_scheme/supermarket_scheme_3.png"" class=""exp-image"">
                    <div class=""question-area""></div> 
                </div>","null","","","","","","","","","","","",""
"","","","","","html-button-response","169","567996","0.0-169.0","2A9144B4DED64DD1BB278BC52B9D483C","019cfc2b-694b-73b0-85a1-ad580d04fabb","019cfc28-2143-7934-89cc-ce6402563331","","798","
                <div class=""stimulus-container"">
                    <img src=""images/schematic_sequence/supermarket_scheme/supermarket_scheme_3.png"" class=""exp-image"">
                    <div class=""question-area"">
                        <p style=""font-size: 20px; font-weight: bold; margin: 0;"">Is there a person in this image?</p>
                    </div>
                </div>","1","main_experiment_trial","3","supermarket_scheme","schematic_sequence","chronological","","","","","","",""
"","","","","","html-keyboard-response","170","572997","0.0-170.0","2A9144B4DED64DD1BB278BC52B9D483C","019cfc2b-694b-73b0-85a1-ad580d04fabb","019cfc28-2143-7934-89cc-ce6402563331","","null","
                <div class=""stimulus-container"">
                    <img src=""images/schematic_sequence/supermarket_scheme/supermarket_scheme_4.png"" class=""exp-image"">
                    <div class=""question-area""></div> 
                </div>","null","","","","","","","","","","","",""
"","","","","","html-button-response","171","574148","0.0-171.0","2A9144B4DED64DD1BB278BC52B9D483C","019cfc2b-694b-73b0-85a1-ad580d04fabb","019cfc28-2143-7934-89cc-ce6402563331","","1150","
                <div class=""stimulus-container"">
                    <img src=""images/schematic_sequence/supermarket_scheme/supermarket_scheme_4.png"" class=""exp-image"">
                    <div class=""question-area"">
                        <p style=""font-size: 20px; font-weight: bold; margin: 0;"">Is there a person in this image?</p>
                    </div>
                </div>","0","main_experiment_trial","4","supermarket_scheme","schematic_sequence","chronological","","","","","","",""
"","","","","","html-keyboard-response","172","579149","0.0-172.0","2A9144B4DED64DD1BB278BC52B9D483C","019cfc2b-694b-73b0-85a1-ad580d04fabb","019cfc28-2143-7934-89cc-ce6402563331","","null","
                <div class=""stimulus-container"">
                    <img src=""images/schematic_sequence/supermarket_scheme/supermarket_scheme_5.png"" class=""exp-image"">
                    <div class=""question-area""></div> 
                </div>","null","","","","","","","","","","","",""
"","","","","","html-button-response","173","581579","0.0-173.0","2A9144B4DED64DD1BB278BC52B9D483C","019cfc2b-694b-73b0-85a1-ad580d04fabb","019cfc28-2143-7934-89cc-ce6402563331","","2429","
                <div class=""stimulus-container"">
                    <img src=""images/schematic_sequence/supermarket_scheme/supermarket_scheme_5.png"" class=""exp-image"">
                    <div class=""question-area"">
                        <p style=""font-size: 20px; font-weight: bold; margin: 0;"">Is there a person in this image?</p>
                    </div>
                </div>","1","main_experiment_trial","5","supermarket_scheme","schematic_sequence","chronological","","","","","","",""
"","","","","","html-keyboard-response","174","586588","0.0-174.0","2A9144B4DED64DD1BB278BC52B9D483C","019cfc2b-694b-73b0-85a1-ad580d04fabb","019cfc28-2143-7934-89cc-ce6402563331","","null","
                <div class=""stimulus-container"">
                    <img src=""images/schematic_sequence/supermarket_scheme/supermarket_scheme_6.png"" class=""exp-image"">
                    <div class=""question-area""></div> 
                </div>","null","","","","","","","","","","","",""
"","","","","","html-button-response","175","587409","0.0-175.0","2A9144B4DED64DD1BB278BC52B9D483C","019cfc2b-694b-73b0-85a1-ad580d04fabb","019cfc28-2143-7934-89cc-ce6402563331","","819","
                <div class=""stimulus-container"">
                    <img src=""images/schematic_sequence/supermarket_scheme/supermarket_scheme_6.png"" class=""exp-image"">
                    <div class=""question-area"">
