"success","timeout","failed_images","failed_audio","failed_video","trial_type","trial_index","time_elapsed","internal_node_id","subject","subject_id","study_id","session_id","urlvar","current_url","audio_id","view_history","rt","device_id","stimulus","response","estimated_stimulus_onset","seq_name"
"true","false","[]","[]","[]","preload","0","57025","0.0-0.0","0262A6C94291486AAD77E396199DA474","0262A6C94291486AAD77E396199DA474","28eff0f7-368c-46fe-b296-ff485522aa01","920300cb-ef92-407e-8025-8071213f24fb","{""part"":""2"",""participantId"":""0262A6C94291486AAD77E396199DA474"",""assignmentId"":""28eff0f7-368c-46fe-b296-ff485522aa01"",""projectId"":""920300cb-ef92-407e-8025-8071213f24fb""}","https://test12345.live/?part=2&participantId=0262A6C94291486AAD77E396199DA474&assignmentId=28eff0f7-368c-46fe-b296-ff485522aa01&projectId=920300cb-ef92-407e-8025-8071213f24fb","0262A6C94291486AAD77E396199DA474-2025-05-24-00-13-28","","","","","","",""
"","","","","","instructions","1","97756","0.0-1.0","0262A6C94291486AAD77E396199DA474","0262A6C94291486AAD77E396199DA474","28eff0f7-368c-46fe-b296-ff485522aa01","920300cb-ef92-407e-8025-8071213f24fb","{""part"":""2"",""participantId"":""0262A6C94291486AAD77E396199DA474"",""assignmentId"":""28eff0f7-368c-46fe-b296-ff485522aa01"",""projectId"":""920300cb-ef92-407e-8025-8071213f24fb""}","https://test12345.live/?part=2&participantId=0262A6C94291486AAD77E396199DA474&assignmentId=28eff0f7-368c-46fe-b296-ff485522aa01&projectId=920300cb-ef92-407e-8025-8071213f24fb","0262A6C94291486AAD77E396199DA474-2025-05-24-00-13-28","[{""page_index"":0,""viewing_time"":40729}]","40730","","","","",""
"","","","","","instructions","2","103080","0.0-2.0","0262A6C94291486AAD77E396199DA474","0262A6C94291486AAD77E396199DA474","28eff0f7-368c-46fe-b296-ff485522aa01","920300cb-ef92-407e-8025-8071213f24fb","{""part"":""2"",""participantId"":""0262A6C94291486AAD77E396199DA474"",""assignmentId"":""28eff0f7-368c-46fe-b296-ff485522aa01"",""projectId"":""920300cb-ef92-407e-8025-8071213f24fb""}","https://test12345.live/?part=2&participantId=0262A6C94291486AAD77E396199DA474&assignmentId=28eff0f7-368c-46fe-b296-ff485522aa01&projectId=920300cb-ef92-407e-8025-8071213f24fb","0262A6C94291486AAD77E396199DA474-2025-05-24-00-13-28","[{""page_index"":0,""viewing_time"":5323}]","5323","","","","",""
"true","","","","","fullscreen","3","105716","0.0-3.0","0262A6C94291486AAD77E396199DA474","0262A6C94291486AAD77E396199DA474","28eff0f7-368c-46fe-b296-ff485522aa01","920300cb-ef92-407e-8025-8071213f24fb","{""part"":""2"",""participantId"":""0262A6C94291486AAD77E396199DA474"",""assignmentId"":""28eff0f7-368c-46fe-b296-ff485522aa01"",""projectId"":""920300cb-ef92-407e-8025-8071213f24fb""}","https://test12345.live/?part=2&participantId=0262A6C94291486AAD77E396199DA474&assignmentId=28eff0f7-368c-46fe-b296-ff485522aa01&projectId=920300cb-ef92-407e-8025-8071213f24fb","0262A6C94291486AAD77E396199DA474-2025-05-24-00-13-28","","1628","","","","",""
"","","","","","initialize-microphone","4","108230","0.0-4.0-0.0","0262A6C94291486AAD77E396199DA474","0262A6C94291486AAD77E396199DA474","28eff0f7-368c-46fe-b296-ff485522aa01","920300cb-ef92-407e-8025-8071213f24fb","{""part"":""2"",""participantId"":""0262A6C94291486AAD77E396199DA474"",""assignmentId"":""28eff0f7-368c-46fe-b296-ff485522aa01"",""projectId"":""920300cb-ef92-407e-8025-8071213f24fb""}","https://test12345.live/?part=2&participantId=0262A6C94291486AAD77E396199DA474&assignmentId=28eff0f7-368c-46fe-b296-ff485522aa01&projectId=920300cb-ef92-407e-8025-8071213f24fb","0262A6C94291486AAD77E396199DA474-2025-05-24-00-13-28","","","fada20805cc06457a9c54af4f6c5d8f6be8e1281aecae6609944539f2c9349b5","","","",""
"","","","","","html-audio-response","5","114755","0.0-4.0-1.0","0262A6C94291486AAD77E396199DA474","0262A6C94291486AAD77E396199DA474","28eff0f7-368c-46fe-b296-ff485522aa01","920300cb-ef92-407e-8025-8071213f24fb","{""part"":""2"",""participantId"":""0262A6C94291486AAD77E396199DA474"",""assignmentId"":""28eff0f7-368c-46fe-b296-ff485522aa01"",""projectId"":""920300cb-ef92-407e-8025-8071213f24fb""}","https://test12345.live/?part=2&participantId=0262A6C94291486AAD77E396199DA474&assignmentId=28eff0f7-368c-46fe-b296-ff485522aa01&projectId=920300cb-ef92-407e-8025-8071213f24fb","0262A6C94291486AAD77E396199DA474-2025-05-24-00-13-28","","2284","","<span style=""color: red; font-size: 24px""> NOW RECORDING</span>
        <p>Please test Microphone</p>","","10",""
"","","","","","html-button-response","6","115719","0.0-4.0-2.0","0262A6C94291486AAD77E396199DA474","0262A6C94291486AAD77E396199DA474","28eff0f7-368c-46fe-b296-ff485522aa01","920300cb-ef92-407e-8025-8071213f24fb","{""part"":""2"",""participantId"":""0262A6C94291486AAD77E396199DA474"",""assignmentId"":""28eff0f7-368c-46fe-b296-ff485522aa01"",""projectId"":""920300cb-ef92-407e-8025-8071213f24fb""}","https://test12345.live/?part=2&participantId=0262A6C94291486AAD77E396199DA474&assignmentId=28eff0f7-368c-46fe-b296-ff485522aa01&projectId=920300cb-ef92-407e-8025-8071213f24fb","0262A6C94291486AAD77E396199DA474-2025-05-24-00-13-28","","962","","<p style=""font-size:48px; color:red;"">Is Microphone OK?</p>","1","",""
"","","","","","instructions","7","133799","0.0-5.0","0262A6C94291486AAD77E396199DA474","0262A6C94291486AAD77E396199DA474","28eff0f7-368c-46fe-b296-ff485522aa01","920300cb-ef92-407e-8025-8071213f24fb","{""part"":""2"",""participantId"":""0262A6C94291486AAD77E396199DA474"",""assignmentId"":""28eff0f7-368c-46fe-b296-ff485522aa01"",""projectId"":""920300cb-ef92-407e-8025-8071213f24fb""}","https://test12345.live/?part=2&participantId=0262A6C94291486AAD77E396199DA474&assignmentId=28eff0f7-368c-46fe-b296-ff485522aa01&projectId=920300cb-ef92-407e-8025-8071213f24fb","0262A6C94291486AAD77E396199DA474-2025-05-24-00-13-28","[{""page_index"":0,""viewing_time"":1093},{""page_index"":1,""viewing_time"":5184},{""page_index"":2,""viewing_time"":11801}]","18078","","","","",""
"","","","","","image-button-response","8","139808","0.0-6.0-0.0","0262A6C94291486AAD77E396199DA474","0262A6C94291486AAD77E396199DA474","28eff0f7-368c-46fe-b296-ff485522aa01","920300cb-ef92-407e-8025-8071213f24fb","{""part"":""2"",""participantId"":""0262A6C94291486AAD77E396199DA474"",""assignmentId"":""28eff0f7-368c-46fe-b296-ff485522aa01"",""projectId"":""920300cb-ef92-407e-8025-8071213f24fb""}","https://test12345.live/?part=2&participantId=0262A6C94291486AAD77E396199DA474&assignmentId=28eff0f7-368c-46fe-b296-ff485522aa01&projectId=920300cb-ef92-407e-8025-8071213f24fb","0262A6C94291486AAD77E396199DA474-2025-05-24-00-13-28","","null","","images/instructions/movie_0.png","null","",""
"","","","","","html-audio-response","9","152174","0.0-7.0","0262A6C94291486AAD77E396199DA474","0262A6C94291486AAD77E396199DA474","28eff0f7-368c-46fe-b296-ff485522aa01","920300cb-ef92-407e-8025-8071213f24fb","{""part"":""2"",""participantId"":""0262A6C94291486AAD77E396199DA474"",""assignmentId"":""28eff0f7-368c-46fe-b296-ff485522aa01"",""projectId"":""920300cb-ef92-407e-8025-8071213f24fb""}","https://test12345.live/?part=2&participantId=0262A6C94291486AAD77E396199DA474&assignmentId=28eff0f7-368c-46fe-b296-ff485522aa01&projectId=920300cb-ef92-407e-8025-8071213f24fb","0262A6C94291486AAD77E396199DA474-2025-05-24-00-13-28","","3221","","[""<span style=\""color: red; font-size: 24px\""> NOW RECORDING</span><p>Please say out loud all the images you saw in part 1 of the experiment, in the exact order you saw them. Try to recall as many images as you can, but remember: getting the order right is more important than the number of images you recall.</p>""]","","18",""
"","","","","","instructions","10","153864","0.0-8.0","0262A6C94291486AAD77E396199DA474","0262A6C94291486AAD77E396199DA474","28eff0f7-368c-46fe-b296-ff485522aa01","920300cb-ef92-407e-8025-8071213f24fb","{""part"":""2"",""participantId"":""0262A6C94291486AAD77E396199DA474"",""assignmentId"":""28eff0f7-368c-46fe-b296-ff485522aa01"",""projectId"":""920300cb-ef92-407e-8025-8071213f24fb""}","https://test12345.live/?part=2&participantId=0262A6C94291486AAD77E396199DA474&assignmentId=28eff0f7-368c-46fe-b296-ff485522aa01&projectId=920300cb-ef92-407e-8025-8071213f24fb","0262A6C94291486AAD77E396199DA474-2025-05-24-00-13-28","[{""page_index"":0,""viewing_time"":1684}]","1684","","","","",""
"","","","","","image-button-response","11","159879","0.0-9.0-0.0","0262A6C94291486AAD77E396199DA474","0262A6C94291486AAD77E396199DA474","28eff0f7-368c-46fe-b296-ff485522aa01","920300cb-ef92-407e-8025-8071213f24fb","{""part"":""2"",""participantId"":""0262A6C94291486AAD77E396199DA474"",""assignmentId"":""28eff0f7-368c-46fe-b296-ff485522aa01"",""projectId"":""920300cb-ef92-407e-8025-8071213f24fb""}","https://test12345.live/?part=2&participantId=0262A6C94291486AAD77E396199DA474&assignmentId=28eff0f7-368c-46fe-b296-ff485522aa01&projectId=920300cb-ef92-407e-8025-8071213f24fb","0262A6C94291486AAD77E396199DA474-2025-05-24-00-13-28","","null","","images/causal_sequence/museum_causal/museum_causal_0.png","null","",""
"","","","","","html-audio-response","12","169042","0.0-10.0","0262A6C94291486AAD77E396199DA474","0262A6C94291486AAD77E396199DA474","28eff0f7-368c-46fe-b296-ff485522aa01","920300cb-ef92-407e-8025-8071213f24fb","{""part"":""2"",""participantId"":""0262A6C94291486AAD77E396199DA474"",""assignmentId"":""28eff0f7-368c-46fe-b296-ff485522aa01"",""projectId"":""920300cb-ef92-407e-8025-8071213f24fb""}","https://test12345.live/?part=2&participantId=0262A6C94291486AAD77E396199DA474&assignmentId=28eff0f7-368c-46fe-b296-ff485522aa01&projectId=920300cb-ef92-407e-8025-8071213f24fb","0262A6C94291486AAD77E396199DA474-2025-05-24-00-13-28","","3869","","[""<span style=\""color: red; font-size: 24px\""> NOW RECORDING</span><p>Please say out loud all the images you saw in part 1 of the experiment, in the exact order you saw them. Try to recall as many images as you can, but remember: getting the order right is more important than the number of images you recall. </p>""]","","18","museum_causal"
"","","","","","image-button-response","13","175048","0.0-11.0-0.0","0262A6C94291486AAD77E396199DA474","0262A6C94291486AAD77E396199DA474","28eff0f7-368c-46fe-b296-ff485522aa01","920300cb-ef92-407e-8025-8071213f24fb","{""part"":""2"",""participantId"":""0262A6C94291486AAD77E396199DA474"",""assignmentId"":""28eff0f7-368c-46fe-b296-ff485522aa01"",""projectId"":""920300cb-ef92-407e-8025-8071213f24fb""}","https://test12345.live/?part=2&participantId=0262A6C94291486AAD77E396199DA474&assignmentId=28eff0f7-368c-46fe-b296-ff485522aa01&projectId=920300cb-ef92-407e-8025-8071213f24fb","0262A6C94291486AAD77E396199DA474-2025-05-24-00-13-28","","null","","images/causal_sequence/saving_a_cat_causal/saving_a_cat_causal_0.png","null","",""
"","","","","","html-audio-response","14","180266","0.0-12.0","0262A6C94291486AAD77E396199DA474","0262A6C94291486AAD77E396199DA474","28eff0f7-368c-46fe-b296-ff485522aa01","920300cb-ef92-407e-8025-8071213f24fb","{""part"":""2"",""participantId"":""0262A6C94291486AAD77E396199DA474"",""assignmentId"":""28eff0f7-368c-46fe-b296-ff485522aa01"",""projectId"":""920300cb-ef92-407e-8025-8071213f24fb""}","https://test12345.live/?part=2&participantId=0262A6C94291486AAD77E396199DA474&assignmentId=28eff0f7-368c-46fe-b296-ff485522aa01&projectId=920300cb-ef92-407e-8025-8071213f24fb","0262A6C94291486AAD77E396199DA474-2025-05-24-00-13-28","","3753","","[""<span style=\""color: red; font-size: 24px\""> NOW RECORDING</span><p>Please say out loud all the images you saw in part 1 of the experiment, in the exact order you saw them. Try to recall as many images as you can, but remember: getting the order right is more important than the number of images you recall. </p>""]","","9","saving_a_cat_causal"
"","","","","","image-button-response","15","186280","0.0-13.0-0.0","0262A6C94291486AAD77E396199DA474","0262A6C94291486AAD77E396199DA474","28eff0f7-368c-46fe-b296-ff485522aa01","920300cb-ef92-407e-8025-8071213f24fb","{""part"":""2"",""participantId"":""0262A6C94291486AAD77E396199DA474"",""assignmentId"":""28eff0f7-368c-46fe-b296-ff485522aa01"",""projectId"":""920300cb-ef92-407e-8025-8071213f24fb""}","https://test12345.live/?part=2&participantId=0262A6C94291486AAD77E396199DA474&assignmentId=28eff0f7-368c-46fe-b296-ff485522aa01&projectId=920300cb-ef92-407e-8025-8071213f24fb","0262A6C94291486AAD77E396199DA474-2025-05-24-00-13-28","","null","","images/semantic_sequence/housework_semantic/housework_semantic_0.png","null","",""
"","","","","","html-audio-response","16","206956","0.0-14.0","0262A6C94291486AAD77E396199DA474","0262A6C94291486AAD77E396199DA474","28eff0f7-368c-46fe-b296-ff485522aa01","920300cb-ef92-407e-8025-8071213f24fb","{""part"":""2"",""participantId"":""0262A6C94291486AAD77E396199DA474"",""assignmentId"":""28eff0f7-368c-46fe-b296-ff485522aa01"",""projectId"":""920300cb-ef92-407e-8025-8071213f24fb""}","https://test12345.live/?part=2&participantId=0262A6C94291486AAD77E396199DA474&assignmentId=28eff0f7-368c-46fe-b296-ff485522aa01&projectId=920300cb-ef92-407e-8025-8071213f24fb","0262A6C94291486AAD77E396199DA474-2025-05-24-00-13-28","","12589","","[""<span style=\""color: red; font-size: 24px\""> NOW RECORDING</span><p>Please say out loud all the images you saw in part 1 of the experiment, in the exact order you saw them. Try to recall as many images as you can, but remember: getting the order right is more important than the number of images you recall. </p>""]","","12","housework_semantic"
"","","","","","image-button-response","17","212972","0.0-15.0-0.0","0262A6C94291486AAD77E396199DA474","0262A6C94291486AAD77E396199DA474","28eff0f7-368c-46fe-b296-ff485522aa01","920300cb-ef92-407e-8025-8071213f24fb","{""part"":""2"",""participantId"":""0262A6C94291486AAD77E396199DA474"",""assignmentId"":""28eff0f7-368c-46fe-b296-ff485522aa01"",""projectId"":""920300cb-ef92-407e-8025-8071213f24fb""}","https://test12345.live/?part=2&participantId=0262A6C94291486AAD77E396199DA474&assignmentId=28eff0f7-368c-46fe-b296-ff485522aa01&projectId=920300cb-ef92-407e-8025-8071213f24fb","0262A6C94291486AAD77E396199DA474-2025-05-24-00-13-28","","null","","images/schematic_sequence/restaurant_scheme/restaurant_scheme_0.png","null","",""
"","","","","","html-audio-response","18","227615","0.0-16.0","0262A6C94291486AAD77E396199DA474","0262A6C94291486AAD77E396199DA474","28eff0f7-368c-46fe-b296-ff485522aa01","920300cb-ef92-407e-8025-8071213f24fb","{""part"":""2"",""participantId"":""0262A6C94291486AAD77E396199DA474"",""assignmentId"":""28eff0f7-368c-46fe-b296-ff485522aa01"",""projectId"":""920300cb-ef92-407e-8025-8071213f24fb""}","https://test12345.live/?part=2&participantId=0262A6C94291486AAD77E396199DA474&assignmentId=28eff0f7-368c-46fe-b296-ff485522aa01&projectId=920300cb-ef92-407e-8025-8071213f24fb","0262A6C94291486AAD77E396199DA474-2025-05-24-00-13-28","","13192","","[""<span style=\""color: red; font-size: 24px\""> NOW RECORDING</span><p>Please say out loud all the images you saw in part 1 of the experiment, in the exact order you saw them. Try to recall as many images as you can, but remember: getting the order right is more important than the number of images you recall. </p>""]","","3","restaurant_scheme"
"","","","","","image-button-response","19","233628","0.0-17.0-0.0","0262A6C94291486AAD77E396199DA474","0262A6C94291486AAD77E396199DA474","28eff0f7-368c-46fe-b296-ff485522aa01","920300cb-ef92-407e-8025-8071213f24fb","{""part"":""2"",""participantId"":""0262A6C94291486AAD77E396199DA474"",""assignmentId"":""28eff0f7-368c-46fe-b296-ff485522aa01"",""projectId"":""920300cb-ef92-407e-8025-8071213f24fb""}","https://test12345.live/?part=2&participantId=0262A6C94291486AAD77E396199DA474&assignmentId=28eff0f7-368c-46fe-b296-ff485522aa01&projectId=920300cb-ef92-407e-8025-8071213f24fb","0262A6C94291486AAD77E396199DA474-2025-05-24-00-13-28","","null","","images/semantic_sequence/exploring_nature_semantic/exploring_nature_semantic_0.png","null","",""
"","","","","","html-audio-response","20","244204","0.0-18.0","0262A6C94291486AAD77E396199DA474","0262A6C94291486AAD77E396199DA474","28eff0f7-368c-46fe-b296-ff485522aa01","920300cb-ef92-407e-8025-8071213f24fb","{""part"":""2"",""participantId"":""0262A6C94291486AAD77E396199DA474"",""assignmentId"":""28eff0f7-368c-46fe-b296-ff485522aa01"",""projectId"":""920300cb-ef92-407e-8025-8071213f24fb""}","https://test12345.live/?part=2&participantId=0262A6C94291486AAD77E396199DA474&assignmentId=28eff0f7-368c-46fe-b296-ff485522aa01&projectId=920300cb-ef92-407e-8025-8071213f24fb","0262A6C94291486AAD77E396199DA474-2025-05-24-00-13-28","","8879","","[""<span style=\""color: red; font-size: 24px\""> NOW RECORDING</span><p>Please say out loud all the images you saw in part 1 of the experiment, in the exact order you saw them. Try to recall as many images as you can, but remember: getting the order right is more important than the number of images you recall. </p>""]","","9","exploring_nature_semantic"
"","","","","","image-button-response","21","250212","0.0-19.0-0.0","0262A6C94291486AAD77E396199DA474","0262A6C94291486AAD77E396199DA474","28eff0f7-368c-46fe-b296-ff485522aa01","920300cb-ef92-407e-8025-8071213f24fb","{""part"":""2"",""participantId"":""0262A6C94291486AAD77E396199DA474"",""assignmentId"":""28eff0f7-368c-46fe-b296-ff485522aa01"",""projectId"":""920300cb-ef92-407e-8025-8071213f24fb""}","https://test12345.live/?part=2&participantId=0262A6C94291486AAD77E396199DA474&assignmentId=28eff0f7-368c-46fe-b296-ff485522aa01&projectId=920300cb-ef92-407e-8025-8071213f24fb","0262A6C94291486AAD77E396199DA474-2025-05-24-00-13-28","","null","","images/schematic_sequence/supermarket_scheme/supermarket_scheme_0.png","null","",""
"","","","","","html-audio-response","22","260880","0.0-20.0","0262A6C94291486AAD77E396199DA474","0262A6C94291486AAD77E396199DA474","28eff0f7-368c-46fe-b296-ff485522aa01","920300cb-ef92-407e-8025-8071213f24fb","{""part"":""2"",""participantId"":""0262A6C94291486AAD77E396199DA474"",""assignmentId"":""28eff0f7-368c-46fe-b296-ff485522aa01"",""projectId"":""920300cb-ef92-407e-8025-8071213f24fb""}","https://test12345.live/?part=2&participantId=0262A6C94291486AAD77E396199DA474&assignmentId=28eff0f7-368c-46fe-b296-ff485522aa01&projectId=920300cb-ef92-407e-8025-8071213f24fb","0262A6C94291486AAD77E396199DA474-2025-05-24-00-13-28","","9542","","[""<span style=\""color: red; font-size: 24px\""> NOW RECORDING</span><p>Please say out loud all the images you saw in part 1 of the experiment, in the exact order you saw them. Try to recall as many images as you can, but remember: getting the order right is more important than the number of images you recall. </p>""]","","12","supermarket_scheme"
"","","","","","image-button-response","23","266894","0.0-21.0-0.0","0262A6C94291486AAD77E396199DA474","0262A6C94291486AAD77E396199DA474","28eff0f7-368c-46fe-b296-ff485522aa01","920300cb-ef92-407e-8025-8071213f24fb","{""part"":""2"",""participantId"":""0262A6C94291486AAD77E396199DA474"",""assignmentId"":""28eff0f7-368c-46fe-b296-ff485522aa01"",""projectId"":""920300cb-ef92-407e-8025-8071213f24fb""}","https://test12345.live/?part=2&participantId=0262A6C94291486AAD77E396199DA474&assignmentId=28eff0f7-368c-46fe-b296-ff485522aa01&projectId=920300cb-ef92-407e-8025-8071213f24fb","0262A6C94291486AAD77E396199DA474-2025-05-24-00-13-28","","null","","images/semantic_sequence/using_technology_semantic/using_technology_semantic_0.png","null","",""
"","","","","","html-audio-response","24","275586","0.0-22.0","0262A6C94291486AAD77E396199DA474","0262A6C94291486AAD77E396199DA474","28eff0f7-368c-46fe-b296-ff485522aa01","920300cb-ef92-407e-8025-8071213f24fb","{""part"":""2"",""participantId"":""0262A6C94291486AAD77E396199DA474"",""assignmentId"":""28eff0f7-368c-46fe-b296-ff485522aa01"",""projectId"":""920300cb-ef92-407e-8025-8071213f24fb""}","https://test12345.live/?part=2&participantId=0262A6C94291486AAD77E396199DA474&assignmentId=28eff0f7-368c-46fe-b296-ff485522aa01&projectId=920300cb-ef92-407e-8025-8071213f24fb","0262A6C94291486AAD77E396199DA474-2025-05-24-00-13-28","","7259","","[""<span style=\""color: red; font-size: 24px\""> NOW RECORDING</span><p>Please say out loud all the images you saw in part 1 of the experiment, in the exact order you saw them. Try to recall as many images as you can, but remember: getting the order right is more important than the number of images you recall. </p>""]","","15","using_technology_semantic"
"","","","","","image-button-response","25","281595","0.0-23.0-0.0","0262A6C94291486AAD77E396199DA474","0262A6C94291486AAD77E396199DA474","28eff0f7-368c-46fe-b296-ff485522aa01","920300cb-ef92-407e-8025-8071213f24fb","{""part"":""2"",""participantId"":""0262A6C94291486AAD77E396199DA474"",""assignmentId"":""28eff0f7-368c-46fe-b296-ff485522aa01"",""projectId"":""920300cb-ef92-407e-8025-8071213f24fb""}","https://test12345.live/?part=2&participantId=0262A6C94291486AAD77E396199DA474&assignmentId=28eff0f7-368c-46fe-b296-ff485522aa01&projectId=920300cb-ef92-407e-8025-8071213f24fb","0262A6C94291486AAD77E396199DA474-2025-05-24-00-13-28","","null","","images/semantic_sequence/cat_care_semantic/cat_care_semantic_0.png","null","",""
"","","","","","html-audio-response","26","293544","0.0-24.0","0262A6C94291486AAD77E396199DA474","0262A6C94291486AAD77E396199DA474","28eff0f7-368c-46fe-b296-ff485522aa01","920300cb-ef92-407e-8025-8071213f24fb","{""part"":""2"",""participantId"":""0262A6C94291486AAD77E396199DA474"",""assignmentId"":""28eff0f7-368c-46fe-b296-ff485522aa01"",""projectId"":""920300cb-ef92-407e-8025-8071213f24fb""}","https://test12345.live/?part=2&participantId=0262A6C94291486AAD77E396199DA474&assignmentId=28eff0f7-368c-46fe-b296-ff485522aa01&projectId=920300cb-ef92-407e-8025-8071213f24fb","0262A6C94291486AAD77E396199DA474-2025-05-24-00-13-28","","10782","","[""<span style=\""color: red; font-size: 24px\""> NOW RECORDING</span><p>Please say out loud all the images you saw in part 1 of the experiment, in the exact order you saw them. Try to recall as many images as you can, but remember: getting the order right is more important than the number of images you recall. </p>""]","","14","cat_care_semantic"
"","","","","","image-button-response","27","299557","0.0-25.0-0.0","0262A6C94291486AAD77E396199DA474","0262A6C94291486AAD77E396199DA474","28eff0f7-368c-46fe-b296-ff485522aa01","920300cb-ef92-407e-8025-8071213f24fb","{""part"":""2"",""participantId"":""0262A6C94291486AAD77E396199DA474"",""assignmentId"":""28eff0f7-368c-46fe-b296-ff485522aa01"",""projectId"":""920300cb-ef92-407e-8025-8071213f24fb""}","https://test12345.live/?part=2&participantId=0262A6C94291486AAD77E396199DA474&assignmentId=28eff0f7-368c-46fe-b296-ff485522aa01&projectId=920300cb-ef92-407e-8025-8071213f24fb","0262A6C94291486AAD77E396199DA474-2025-05-24-00-13-28","","null","","images/semantic_sequence/creative_activities_semantic/creative_activities_semantic_0.png","null","",""
"","","","","","html-audio-response","28","307830","0.0-26.0","0262A6C94291486AAD77E396199DA474","0262A6C94291486AAD77E396199DA474","28eff0f7-368c-46fe-b296-ff485522aa01","920300cb-ef92-407e-8025-8071213f24fb","{""part"":""2"",""participantId"":""0262A6C94291486AAD77E396199DA474"",""assignmentId"":""28eff0f7-368c-46fe-b296-ff485522aa01"",""projectId"":""920300cb-ef92-407e-8025-8071213f24fb""}","https://test12345.live/?part=2&participantId=0262A6C94291486AAD77E396199DA474&assignmentId=28eff0f7-368c-46fe-b296-ff485522aa01&projectId=920300cb-ef92-407e-8025-8071213f24fb","0262A6C94291486AAD77E396199DA474-2025-05-24-00-13-28","","7388","","[""<span style=\""color: red; font-size: 24px\""> NOW RECORDING</span><p>Please say out loud all the images you saw in part 1 of the experiment, in the exact order you saw them. Try to recall as many images as you can, but remember: getting the order right is more important than the number of images you recall. </p>""]","","7","creative_activities_semantic"
"","","","","","image-button-response","29","313843","0.0-27.0-0.0","0262A6C94291486AAD77E396199DA474","0262A6C94291486AAD77E396199DA474","28eff0f7-368c-46fe-b296-ff485522aa01","920300cb-ef92-407e-8025-8071213f24fb","{""part"":""2"",""participantId"":""0262A6C94291486AAD77E396199DA474"",""assignmentId"":""28eff0f7-368c-46fe-b296-ff485522aa01"",""projectId"":""920300cb-ef92-407e-8025-8071213f24fb""}","https://test12345.live/?part=2&participantId=0262A6C94291486AAD77E396199DA474&assignmentId=28eff0f7-368c-46fe-b296-ff485522aa01&projectId=920300cb-ef92-407e-8025-8071213f24fb","0262A6C94291486AAD77E396199DA474-2025-05-24-00-13-28","","null","","images/causal_sequence/the_performance_causal/the_performance_causal_0.png","null","",""
"","","","","","html-audio-response","30","322631","0.0-28.0","0262A6C94291486AAD77E396199DA474","0262A6C94291486AAD77E396199DA474","28eff0f7-368c-46fe-b296-ff485522aa01","920300cb-ef92-407e-8025-8071213f24fb","{""part"":""2"",""participantId"":""0262A6C94291486AAD77E396199DA474"",""assignmentId"":""28eff0f7-368c-46fe-b296-ff485522aa01"",""projectId"":""920300cb-ef92-407e-8025-8071213f24fb""}","https://test12345.live/?part=2&participantId=0262A6C94291486AAD77E396199DA474&assignmentId=28eff0f7-368c-46fe-b296-ff485522aa01&projectId=920300cb-ef92-407e-8025-8071213f24fb","0262A6C94291486AAD77E396199DA474-2025-05-24-00-13-28","","6460","","[""<span style=\""color: red; font-size: 24px\""> NOW RECORDING</span><p>Please say out loud all the images you saw in part 1 of the experiment, in the exact order you saw them. Try to recall as many images as you can, but remember: getting the order right is more important than the number of images you recall. </p>""]","","12","the_performance_causal"
"","","","","","image-button-response","31","328639","0.0-29.0-0.0","0262A6C94291486AAD77E396199DA474","0262A6C94291486AAD77E396199DA474","28eff0f7-368c-46fe-b296-ff485522aa01","920300cb-ef92-407e-8025-8071213f24fb","{""part"":""2"",""participantId"":""0262A6C94291486AAD77E396199DA474"",""assignmentId"":""28eff0f7-368c-46fe-b296-ff485522aa01"",""projectId"":""920300cb-ef92-407e-8025-8071213f24fb""}","https://test12345.live/?part=2&participantId=0262A6C94291486AAD77E396199DA474&assignmentId=28eff0f7-368c-46fe-b296-ff485522aa01&projectId=920300cb-ef92-407e-8025-8071213f24fb","0262A6C94291486AAD77E396199DA474-2025-05-24-00-13-28","","null","","images/semantic_sequence/visiting_cities_semantic/visiting_cities_semantic_0.png","null","",""
"","","","","","html-audio-response","32","345595","0.0-30.0","0262A6C94291486AAD77E396199DA474","0262A6C94291486AAD77E396199DA474","28eff0f7-368c-46fe-b296-ff485522aa01","920300cb-ef92-407e-8025-8071213f24fb","{""part"":""2"",""participantId"":""0262A6C94291486AAD77E396199DA474"",""assignmentId"":""28eff0f7-368c-46fe-b296-ff485522aa01"",""projectId"":""920300cb-ef92-407e-8025-8071213f24fb""}","https://test12345.live/?part=2&participantId=0262A6C94291486AAD77E396199DA474&assignmentId=28eff0f7-368c-46fe-b296-ff485522aa01&projectId=920300cb-ef92-407e-8025-8071213f24fb","0262A6C94291486AAD77E396199DA474-2025-05-24-00-13-28","","15862","","[""<span style=\""color: red; font-size: 24px\""> NOW RECORDING</span><p>Please say out loud all the images you saw in part 1 of the experiment, in the exact order you saw them. Try to recall as many images as you can, but remember: getting the order right is more important than the number of images you recall. </p>""]","","13","visiting_cities_semantic"
"","","","","","image-button-response","33","351608","0.0-31.0-0.0","0262A6C94291486AAD77E396199DA474","0262A6C94291486AAD77E396199DA474","28eff0f7-368c-46fe-b296-ff485522aa01","920300cb-ef92-407e-8025-8071213f24fb","{""part"":""2"",""participantId"":""0262A6C94291486AAD77E396199DA474"",""assignmentId"":""28eff0f7-368c-46fe-b296-ff485522aa01"",""projectId"":""920300cb-ef92-407e-8025-8071213f24fb""}","https://test12345.live/?part=2&participantId=0262A6C94291486AAD77E396199DA474&assignmentId=28eff0f7-368c-46fe-b296-ff485522aa01&projectId=920300cb-ef92-407e-8025-8071213f24fb","0262A6C94291486AAD77E396199DA474-2025-05-24-00-13-28","","null","","images/schematic_sequence/flight_scheme/flight_scheme_0.png","null","",""
"","","","","","html-audio-response","34","363226","0.0-32.0","0262A6C94291486AAD77E396199DA474","0262A6C94291486AAD77E396199DA474","28eff0f7-368c-46fe-b296-ff485522aa01","920300cb-ef92-407e-8025-8071213f24fb","{""part"":""2"",""participantId"":""0262A6C94291486AAD77E396199DA474"",""assignmentId"":""28eff0f7-368c-46fe-b296-ff485522aa01"",""projectId"":""920300cb-ef92-407e-8025-8071213f24fb""}","https://test12345.live/?part=2&participantId=0262A6C94291486AAD77E396199DA474&assignmentId=28eff0f7-368c-46fe-b296-ff485522aa01&projectId=920300cb-ef92-407e-8025-8071213f24fb","0262A6C94291486AAD77E396199DA474-2025-05-24-00-13-28","","9416","","[""<span style=\""color: red; font-size: 24px\""> NOW RECORDING</span><p>Please say out loud all the images you saw in part 1 of the experiment, in the exact order you saw them. Try to recall as many images as you can, but remember: getting the order right is more important than the number of images you recall. </p>""]","","9","flight_scheme"
"","","","","","image-button-response","35","369240","0.0-33.0-0.0","0262A6C94291486AAD77E396199DA474","0262A6C94291486AAD77E396199DA474","28eff0f7-368c-46fe-b296-ff485522aa01","920300cb-ef92-407e-8025-8071213f24fb","{""part"":""2"",""participantId"":""0262A6C94291486AAD77E396199DA474"",""assignmentId"":""28eff0f7-368c-46fe-b296-ff485522aa01"",""projectId"":""920300cb-ef92-407e-8025-8071213f24fb""}","https://test12345.live/?part=2&participantId=0262A6C94291486AAD77E396199DA474&assignmentId=28eff0f7-368c-46fe-b296-ff485522aa01&projectId=920300cb-ef92-407e-8025-8071213f24fb","0262A6C94291486AAD77E396199DA474-2025-05-24-00-13-28","","null","","images/causal_sequence/coin_causal/coin_causal_0.png","null","",""
"","","","","","html-audio-response","36","374077","0.0-34.0","0262A6C94291486AAD77E396199DA474","0262A6C94291486AAD77E396199DA474","28eff0f7-368c-46fe-b296-ff485522aa01","920300cb-ef92-407e-8025-8071213f24fb","{""part"":""2"",""participantId"":""0262A6C94291486AAD77E396199DA474"",""assignmentId"":""28eff0f7-368c-46fe-b296-ff485522aa01"",""projectId"":""920300cb-ef92-407e-8025-8071213f24fb""}","https://test12345.live/?part=2&participantId=0262A6C94291486AAD77E396199DA474&assignmentId=28eff0f7-368c-46fe-b296-ff485522aa01&projectId=920300cb-ef92-407e-8025-8071213f24fb","0262A6C94291486AAD77E396199DA474-2025-05-24-00-13-28","","3944","","[""<span style=\""color: red; font-size: 24px\""> NOW RECORDING</span><p>Please say out loud all the images you saw in part 1 of the experiment, in the exact order you saw them. Try to recall as many images as you can, but remember: getting the order right is more important than the number of images you recall. </p>""]","","11","coin_causal"
"","","","","","image-button-response","37","380091","0.0-35.0-0.0","0262A6C94291486AAD77E396199DA474","0262A6C94291486AAD77E396199DA474","28eff0f7-368c-46fe-b296-ff485522aa01","920300cb-ef92-407e-8025-8071213f24fb","{""part"":""2"",""participantId"":""0262A6C94291486AAD77E396199DA474"",""assignmentId"":""28eff0f7-368c-46fe-b296-ff485522aa01"",""projectId"":""920300cb-ef92-407e-8025-8071213f24fb""}","https://test12345.live/?part=2&participantId=0262A6C94291486AAD77E396199DA474&assignmentId=28eff0f7-368c-46fe-b296-ff485522aa01&projectId=920300cb-ef92-407e-8025-8071213f24fb","0262A6C94291486AAD77E396199DA474-2025-05-24-00-13-28","","null","","images/semantic_sequence/self_care_activities_semantic/self_care_activities_semantic_0.png","null","",""
"","","","","","html-audio-response","38","392604","0.0-36.0","0262A6C94291486AAD77E396199DA474","0262A6C94291486AAD77E396199DA474","28eff0f7-368c-46fe-b296-ff485522aa01","920300cb-ef92-407e-8025-8071213f24fb","{""part"":""2"",""participantId"":""0262A6C94291486AAD77E396199DA474"",""assignmentId"":""28eff0f7-368c-46fe-b296-ff485522aa01"",""projectId"":""920300cb-ef92-407e-8025-8071213f24fb""}","https://test12345.live/?part=2&participantId=0262A6C94291486AAD77E396199DA474&assignmentId=28eff0f7-368c-46fe-b296-ff485522aa01&projectId=920300cb-ef92-407e-8025-8071213f24fb","0262A6C94291486AAD77E396199DA474-2025-05-24-00-13-28","","11334","","[""<span style=\""color: red; font-size: 24px\""> NOW RECORDING</span><p>Please say out loud all the images you saw in part 1 of the experiment, in the exact order you saw them. Try to recall as many images as you can, but remember: getting the order right is more important than the number of images you recall. </p>""]","","12","self_care_activities_semantic"
"","","","","","image-button-response","39","398623","0.0-37.0-0.0","0262A6C94291486AAD77E396199DA474","0262A6C94291486AAD77E396199DA474","28eff0f7-368c-46fe-b296-ff485522aa01","920300cb-ef92-407e-8025-8071213f24fb","{""part"":""2"",""participantId"":""0262A6C94291486AAD77E396199DA474"",""assignmentId"":""28eff0f7-368c-46fe-b296-ff485522aa01"",""projectId"":""920300cb-ef92-407e-8025-8071213f24fb""}","https://test12345.live/?part=2&participantId=0262A6C94291486AAD77E396199DA474&assignmentId=28eff0f7-368c-46fe-b296-ff485522aa01&projectId=920300cb-ef92-407e-8025-8071213f24fb","0262A6C94291486AAD77E396199DA474-2025-05-24-00-13-28","","null","","images/causal_sequence/dog_causal/dog_causal_0.png","null","",""
"","","","","","html-audio-response","40","405459","0.0-38.0","0262A6C94291486AAD77E396199DA474","0262A6C94291486AAD77E396199DA474","28eff0f7-368c-46fe-b296-ff485522aa01","920300cb-ef92-407e-8025-8071213f24fb","{""part"":""2"",""participantId"":""0262A6C94291486AAD77E396199DA474"",""assignmentId"":""28eff0f7-368c-46fe-b296-ff485522aa01"",""projectId"":""920300cb-ef92-407e-8025-8071213f24fb""}","https://test12345.live/?part=2&participantId=0262A6C94291486AAD77E396199DA474&assignmentId=28eff0f7-368c-46fe-b296-ff485522aa01&projectId=920300cb-ef92-407e-8025-8071213f24fb","0262A6C94291486AAD77E396199DA474-2025-05-24-00-13-28","","5826","","[""<span style=\""color: red; font-size: 24px\""> NOW RECORDING</span><p>Please say out loud all the images you saw in part 1 of the experiment, in the exact order you saw them. Try to recall as many images as you can, but remember: getting the order right is more important than the number of images you recall. </p>""]","","14","dog_causal"
"","","","","","image-button-response","41","411470","0.0-39.0-0.0","0262A6C94291486AAD77E396199DA474","0262A6C94291486AAD77E396199DA474","28eff0f7-368c-46fe-b296-ff485522aa01","920300cb-ef92-407e-8025-8071213f24fb","{""part"":""2"",""participantId"":""0262A6C94291486AAD77E396199DA474"",""assignmentId"":""28eff0f7-368c-46fe-b296-ff485522aa01"",""projectId"":""920300cb-ef92-407e-8025-8071213f24fb""}","https://test12345.live/?part=2&participantId=0262A6C94291486AAD77E396199DA474&assignmentId=28eff0f7-368c-46fe-b296-ff485522aa01&projectId=920300cb-ef92-407e-8025-8071213f24fb","0262A6C94291486AAD77E396199DA474-2025-05-24-00-13-28","","null","","images/causal_sequence/package_causal/package_causal_0.png","null","",""
"","","","","","html-audio-response","42","418139","0.0-40.0","0262A6C94291486AAD77E396199DA474","0262A6C94291486AAD77E396199DA474","28eff0f7-368c-46fe-b296-ff485522aa01","920300cb-ef92-407e-8025-8071213f24fb","{""part"":""2"",""participantId"":""0262A6C94291486AAD77E396199DA474"",""assignmentId"":""28eff0f7-368c-46fe-b296-ff485522aa01"",""projectId"":""920300cb-ef92-407e-8025-8071213f24fb""}","https://test12345.live/?part=2&participantId=0262A6C94291486AAD77E396199DA474&assignmentId=28eff0f7-368c-46fe-b296-ff485522aa01&projectId=920300cb-ef92-407e-8025-8071213f24fb","0262A6C94291486AAD77E396199DA474-2025-05-24-00-13-28","","5661","","[""<span style=\""color: red; font-size: 24px\""> NOW RECORDING</span><p>Please say out loud all the images you saw in part 1 of the experiment, in the exact order you saw them. Try to recall as many images as you can, but remember: getting the order right is more important than the number of images you recall. </p>""]","","14","package_causal"
"","","","","","image-button-response","43","424144","0.0-41.0-0.0","0262A6C94291486AAD77E396199DA474","0262A6C94291486AAD77E396199DA474","28eff0f7-368c-46fe-b296-ff485522aa01","920300cb-ef92-407e-8025-8071213f24fb","{""part"":""2"",""participantId"":""0262A6C94291486AAD77E396199DA474"",""assignmentId"":""28eff0f7-368c-46fe-b296-ff485522aa01"",""projectId"":""920300cb-ef92-407e-8025-8071213f24fb""}","https://test12345.live/?part=2&participantId=0262A6C94291486AAD77E396199DA474&assignmentId=28eff0f7-368c-46fe-b296-ff485522aa01&projectId=920300cb-ef92-407e-8025-8071213f24fb","0262A6C94291486AAD77E396199DA474-2025-05-24-00-13-28","","null","","images/semantic_sequence/physical_activity_semantic/physical_activity_semantic_0.png","null","",""
"","","","","","html-audio-response","44","442219","0.0-42.0","0262A6C94291486AAD77E396199DA474","0262A6C94291486AAD77E396199DA474","28eff0f7-368c-46fe-b296-ff485522aa01","920300cb-ef92-407e-8025-8071213f24fb","{""part"":""2"",""participantId"":""0262A6C94291486AAD77E396199DA474"",""assignmentId"":""28eff0f7-368c-46fe-b296-ff485522aa01"",""projectId"":""920300cb-ef92-407e-8025-8071213f24fb""}","https://test12345.live/?part=2&participantId=0262A6C94291486AAD77E396199DA474&assignmentId=28eff0f7-368c-46fe-b296-ff485522aa01&projectId=920300cb-ef92-407e-8025-8071213f24fb","0262A6C94291486AAD77E396199DA474-2025-05-24-00-13-28","","8784","","[""<span style=\""color: red; font-size: 24px\""> NOW RECORDING</span><p>Please say out loud all the images you saw in part 1 of the experiment, in the exact order you saw them. Try to recall as many images as you can, but remember: getting the order right is more important than the number of images you recall. </p>""]","","6","physical_activity_semantic"
"","","","","","image-button-response","45","448227","0.0-43.0-0.0","0262A6C94291486AAD77E396199DA474","0262A6C94291486AAD77E396199DA474","28eff0f7-368c-46fe-b296-ff485522aa01","920300cb-ef92-407e-8025-8071213f24fb","{""part"":""2"",""participantId"":""0262A6C94291486AAD77E396199DA474"",""assignmentId"":""28eff0f7-368c-46fe-b296-ff485522aa01"",""projectId"":""920300cb-ef92-407e-8025-8071213f24fb""}","https://test12345.live/?part=2&participantId=0262A6C94291486AAD77E396199DA474&assignmentId=28eff0f7-368c-46fe-b296-ff485522aa01&projectId=920300cb-ef92-407e-8025-8071213f24fb","0262A6C94291486AAD77E396199DA474-2025-05-24-00-13-28","","null","","images/semantic_sequence/market_semantic/market_semantic_0.png","null","",""
"","","","","","html-audio-response","46","459496","0.0-44.0","0262A6C94291486AAD77E396199DA474","0262A6C94291486AAD77E396199DA474","28eff0f7-368c-46fe-b296-ff485522aa01","920300cb-ef92-407e-8025-8071213f24fb","{""part"":""2"",""participantId"":""0262A6C94291486AAD77E396199DA474"",""assignmentId"":""28eff0f7-368c-46fe-b296-ff485522aa01"",""projectId"":""920300cb-ef92-407e-8025-8071213f24fb""}","https://test12345.live/?part=2&participantId=0262A6C94291486AAD77E396199DA474&assignmentId=28eff0f7-368c-46fe-b296-ff485522aa01&projectId=920300cb-ef92-407e-8025-8071213f24fb","0262A6C94291486AAD77E396199DA474-2025-05-24-00-13-28","","10560","","[""<span style=\""color: red; font-size: 24px\""> NOW RECORDING</span><p>Please say out loud all the images you saw in part 1 of the experiment, in the exact order you saw them. Try to recall as many images as you can, but remember: getting the order right is more important than the number of images you recall. </p>""]","","18","market_semantic"
"","","","","","image-button-response","47","465506","0.0-45.0-0.0","0262A6C94291486AAD77E396199DA474","0262A6C94291486AAD77E396199DA474","28eff0f7-368c-46fe-b296-ff485522aa01","920300cb-ef92-407e-8025-8071213f24fb","{""part"":""2"",""participantId"":""0262A6C94291486AAD77E396199DA474"",""assignmentId"":""28eff0f7-368c-46fe-b296-ff485522aa01"",""projectId"":""920300cb-ef92-407e-8025-8071213f24fb""}","https://test12345.live/?part=2&participantId=0262A6C94291486AAD77E396199DA474&assignmentId=28eff0f7-368c-46fe-b296-ff485522aa01&projectId=920300cb-ef92-407e-8025-8071213f24fb","0262A6C94291486AAD77E396199DA474-2025-05-24-00-13-28","","null","","images/schematic_sequence/interview_scheme/interview_scheme_0.png","null","",""
"","","","","","html-audio-response","48","481255","0.0-46.0","0262A6C94291486AAD77E396199DA474","0262A6C94291486AAD77E396199DA474","28eff0f7-368c-46fe-b296-ff485522aa01","920300cb-ef92-407e-8025-8071213f24fb","{""part"":""2"",""participantId"":""0262A6C94291486AAD77E396199DA474"",""assignmentId"":""28eff0f7-368c-46fe-b296-ff485522aa01"",""projectId"":""920300cb-ef92-407e-8025-8071213f24fb""}","https://test12345.live/?part=2&participantId=0262A6C94291486AAD77E396199DA474&assignmentId=28eff0f7-368c-46fe-b296-ff485522aa01&projectId=920300cb-ef92-407e-8025-8071213f24fb","0262A6C94291486AAD77E396199DA474-2025-05-24-00-13-28","","14401","","[""<span style=\""color: red; font-size: 24px\""> NOW RECORDING</span><p>Please say out loud all the images you saw in part 1 of the experiment, in the exact order you saw them. Try to recall as many images as you can, but remember: getting the order right is more important than the number of images you recall. </p>""]","","4","interview_scheme"
"","","","","","image-button-response","49","487267","0.0-47.0-0.0","0262A6C94291486AAD77E396199DA474","0262A6C94291486AAD77E396199DA474","28eff0f7-368c-46fe-b296-ff485522aa01","920300cb-ef92-407e-8025-8071213f24fb","{""part"":""2"",""participantId"":""0262A6C94291486AAD77E396199DA474"",""assignmentId"":""28eff0f7-368c-46fe-b296-ff485522aa01"",""projectId"":""920300cb-ef92-407e-8025-8071213f24fb""}","https://test12345.live/?part=2&participantId=0262A6C94291486AAD77E396199DA474&assignmentId=28eff0f7-368c-46fe-b296-ff485522aa01&projectId=920300cb-ef92-407e-8025-8071213f24fb","0262A6C94291486AAD77E396199DA474-2025-05-24-00-13-28","","null","","images/semantic_sequence/kitchen_operations_semantic/kitchen_operations_semantic_0.png","null","",""
"","","","","","html-audio-response","50","493991","0.0-48.0","0262A6C94291486AAD77E396199DA474","0262A6C94291486AAD77E396199DA474","28eff0f7-368c-46fe-b296-ff485522aa01","920300cb-ef92-407e-8025-8071213f24fb","{""part"":""2"",""participantId"":""0262A6C94291486AAD77E396199DA474"",""assignmentId"":""28eff0f7-368c-46fe-b296-ff485522aa01"",""projectId"":""920300cb-ef92-407e-8025-8071213f24fb""}","https://test12345.live/?part=2&participantId=0262A6C94291486AAD77E396199DA474&assignmentId=28eff0f7-368c-46fe-b296-ff485522aa01&projectId=920300cb-ef92-407e-8025-8071213f24fb","0262A6C94291486AAD77E396199DA474-2025-05-24-00-13-28","","5653","","[""<span style=\""color: red; font-size: 24px\""> NOW RECORDING</span><p>Please say out loud all the images you saw in part 1 of the experiment, in the exact order you saw them. Try to recall as many images as you can, but remember: getting the order right is more important than the number of images you recall. </p>""]","","12","kitchen_operations_semantic"
"","","","","","image-button-response","51","499999","0.0-49.0-0.0","0262A6C94291486AAD77E396199DA474","0262A6C94291486AAD77E396199DA474","28eff0f7-368c-46fe-b296-ff485522aa01","920300cb-ef92-407e-8025-8071213f24fb","{""part"":""2"",""participantId"":""0262A6C94291486AAD77E396199DA474"",""assignmentId"":""28eff0f7-368c-46fe-b296-ff485522aa01"",""projectId"":""920300cb-ef92-407e-8025-8071213f24fb""}","https://test12345.live/?part=2&participantId=0262A6C94291486AAD77E396199DA474&assignmentId=28eff0f7-368c-46fe-b296-ff485522aa01&projectId=920300cb-ef92-407e-8025-8071213f24fb","0262A6C94291486AAD77E396199DA474-2025-05-24-00-13-28","","null","","images/semantic_sequence/redecorating_semantic/redecorating_semantic_0.png","null","",""
"","","","","","html-audio-response","52","504582","0.0-50.0","0262A6C94291486AAD77E396199DA474","0262A6C94291486AAD77E396199DA474","28eff0f7-368c-46fe-b296-ff485522aa01","920300cb-ef92-407e-8025-8071213f24fb","{""part"":""2"",""participantId"":""0262A6C94291486AAD77E396199DA474"",""assignmentId"":""28eff0f7-368c-46fe-b296-ff485522aa01"",""projectId"":""920300cb-ef92-407e-8025-8071213f24fb""}","https://test12345.live/?part=2&participantId=0262A6C94291486AAD77E396199DA474&assignmentId=28eff0f7-368c-46fe-b296-ff485522aa01&projectId=920300cb-ef92-407e-8025-8071213f24fb","0262A6C94291486AAD77E396199DA474-2025-05-24-00-13-28","","3492","","[""<span style=\""color: red; font-size: 24px\""> NOW RECORDING</span><p>Please say out loud all the images you saw in part 1 of the experiment, in the exact order you saw them. Try to recall as many images as you can, but remember: getting the order right is more important than the number of images you recall. </p>""]","","14","redecorating_semantic"
"","","","","","image-button-response","53","510588","0.0-51.0-0.0","0262A6C94291486AAD77E396199DA474","0262A6C94291486AAD77E396199DA474","28eff0f7-368c-46fe-b296-ff485522aa01","920300cb-ef92-407e-8025-8071213f24fb","{""part"":""2"",""participantId"":""0262A6C94291486AAD77E396199DA474"",""assignmentId"":""28eff0f7-368c-46fe-b296-ff485522aa01"",""projectId"":""920300cb-ef92-407e-8025-8071213f24fb""}","https://test12345.live/?part=2&participantId=0262A6C94291486AAD77E396199DA474&assignmentId=28eff0f7-368c-46fe-b296-ff485522aa01&projectId=920300cb-ef92-407e-8025-8071213f24fb","0262A6C94291486AAD77E396199DA474-2025-05-24-00-13-28","","null","","images/schematic_sequence/dinner_party_scheme/dinner_party_scheme_0.png","null","",""
"","","","","","html-audio-response","54","519842","0.0-52.0","0262A6C94291486AAD77E396199DA474","0262A6C94291486AAD77E396199DA474","28eff0f7-368c-46fe-b296-ff485522aa01","920300cb-ef92-407e-8025-8071213f24fb","{""part"":""2"",""participantId"":""0262A6C94291486AAD77E396199DA474"",""assignmentId"":""28eff0f7-368c-46fe-b296-ff485522aa01"",""projectId"":""920300cb-ef92-407e-8025-8071213f24fb""}","https://test12345.live/?part=2&participantId=0262A6C94291486AAD77E396199DA474&assignmentId=28eff0f7-368c-46fe-b296-ff485522aa01&projectId=920300cb-ef92-407e-8025-8071213f24fb","0262A6C94291486AAD77E396199DA474-2025-05-24-00-13-28","","8533","","[""<span style=\""color: red; font-size: 24px\""> NOW RECORDING</span><p>Please say out loud all the images you saw in part 1 of the experiment, in the exact order you saw them. Try to recall as many images as you can, but remember: getting the order right is more important than the number of images you recall. </p>""]","","6","dinner_party_scheme"
"","","","","","image-button-response","55","525853","0.0-53.0-0.0","0262A6C94291486AAD77E396199DA474","0262A6C94291486AAD77E396199DA474","28eff0f7-368c-46fe-b296-ff485522aa01","920300cb-ef92-407e-8025-8071213f24fb","{""part"":""2"",""participantId"":""0262A6C94291486AAD77E396199DA474"",""assignmentId"":""28eff0f7-368c-46fe-b296-ff485522aa01"",""projectId"":""920300cb-ef92-407e-8025-8071213f24fb""}","https://test12345.live/?part=2&participantId=0262A6C94291486AAD77E396199DA474&assignmentId=28eff0f7-368c-46fe-b296-ff485522aa01&projectId=920300cb-ef92-407e-8025-8071213f24fb","0262A6C94291486AAD77E396199DA474-2025-05-24-00-13-28","","null","","images/schematic_sequence/hotel_scheme/hotel_scheme_0.png","null","",""
"","","","","","html-audio-response","56","530052","0.0-54.0","0262A6C94291486AAD77E396199DA474","0262A6C94291486AAD77E396199DA474","28eff0f7-368c-46fe-b296-ff485522aa01","920300cb-ef92-407e-8025-8071213f24fb","{""part"":""2"",""participantId"":""0262A6C94291486AAD77E396199DA474"",""assignmentId"":""28eff0f7-368c-46fe-b296-ff485522aa01"",""projectId"":""920300cb-ef92-407e-8025-8071213f24fb""}","https://test12345.live/?part=2&participantId=0262A6C94291486AAD77E396199DA474&assignmentId=28eff0f7-368c-46fe-b296-ff485522aa01&projectId=920300cb-ef92-407e-8025-8071213f24fb","0262A6C94291486AAD77E396199DA474-2025-05-24-00-13-28","","3345","","[""<span style=\""color: red; font-size: 24px\""> NOW RECORDING</span><p>Please say out loud all the images you saw in part 1 of the experiment, in the exact order you saw them. Try to recall as many images as you can, but remember: getting the order right is more important than the number of images you recall. </p>""]","","13","hotel_scheme"
"","","","","","image-button-response","57","536069","0.0-55.0-0.0","0262A6C94291486AAD77E396199DA474","0262A6C94291486AAD77E396199DA474","28eff0f7-368c-46fe-b296-ff485522aa01","920300cb-ef92-407e-8025-8071213f24fb","{""part"":""2"",""participantId"":""0262A6C94291486AAD77E396199DA474"",""assignmentId"":""28eff0f7-368c-46fe-b296-ff485522aa01"",""projectId"":""920300cb-ef92-407e-8025-8071213f24fb""}","https://test12345.live/?part=2&participantId=0262A6C94291486AAD77E396199DA474&assignmentId=28eff0f7-368c-46fe-b296-ff485522aa01&projectId=920300cb-ef92-407e-8025-8071213f24fb","0262A6C94291486AAD77E396199DA474-2025-05-24-00-13-28","","null","","images/semantic_sequence/maintaining_a_car_semantic/maintaining_a_car_semantic_0.png","null","",""
"","","","","","html-audio-response","58","540588","0.0-56.0","0262A6C94291486AAD77E396199DA474","0262A6C94291486AAD77E396199DA474","28eff0f7-368c-46fe-b296-ff485522aa01","920300cb-ef92-407e-8025-8071213f24fb","{""part"":""2"",""participantId"":""0262A6C94291486AAD77E396199DA474"",""assignmentId"":""28eff0f7-368c-46fe-b296-ff485522aa01"",""projectId"":""920300cb-ef92-407e-8025-8071213f24fb""}","https://test12345.live/?part=2&participantId=0262A6C94291486AAD77E396199DA474&assignmentId=28eff0f7-368c-46fe-b296-ff485522aa01&projectId=920300cb-ef92-407e-8025-8071213f24fb","0262A6C94291486AAD77E396199DA474-2025-05-24-00-13-28","","3617","","[""<span style=\""color: red; font-size: 24px\""> NOW RECORDING</span><p>Please say out loud all the images you saw in part 1 of the experiment, in the exact order you saw them. Try to recall as many images as you can, but remember: getting the order right is more important than the number of images you recall. </p>""]","","9","maintaining_a_car_semantic"
"","","","","","survey-text","59","547522","0.0-57.0","0262A6C94291486AAD77E396199DA474","0262A6C94291486AAD77E396199DA474","28eff0f7-368c-46fe-b296-ff485522aa01","920300cb-ef92-407e-8025-8071213f24fb","{""part"":""2"",""participantId"":""0262A6C94291486AAD77E396199DA474"",""assignmentId"":""28eff0f7-368c-46fe-b296-ff485522aa01"",""projectId"":""920300cb-ef92-407e-8025-8071213f24fb""}","https://test12345.live/?part=2&participantId=0262A6C94291486AAD77E396199DA474&assignmentId=28eff0f7-368c-46fe-b296-ff485522aa01&projectId=920300cb-ef92-407e-8025-8071213f24fb","0262A6C94291486AAD77E396199DA474-2025-05-24-00-13-28","","6914","","","{""Q0"":""male"",""Q1"":""19""}","",""
"","","","","","instructions","60","551401","0.0-58.0","0262A6C94291486AAD77E396199DA474","0262A6C94291486AAD77E396199DA474","28eff0f7-368c-46fe-b296-ff485522aa01","920300cb-ef92-407e-8025-8071213f24fb","{""part"":""2"",""participantId"":""0262A6C94291486AAD77E396199DA474"",""assignmentId"":""28eff0f7-368c-46fe-b296-ff485522aa01"",""projectId"":""920300cb-ef92-407e-8025-8071213f24fb""}","https://test12345.live/?part=2&participantId=0262A6C94291486AAD77E396199DA474&assignmentId=28eff0f7-368c-46fe-b296-ff485522aa01&projectId=920300cb-ef92-407e-8025-8071213f24fb","0262A6C94291486AAD77E396199DA474-2025-05-24-00-13-28","[{""page_index"":0,""viewing_time"":3876}]","3877","","","","",""
"","","","","","survey-text","61","553369","0.0-59.0","0262A6C94291486AAD77E396199DA474","0262A6C94291486AAD77E396199DA474","28eff0f7-368c-46fe-b296-ff485522aa01","920300cb-ef92-407e-8025-8071213f24fb","{""part"":""2"",""participantId"":""0262A6C94291486AAD77E396199DA474"",""assignmentId"":""28eff0f7-368c-46fe-b296-ff485522aa01"",""projectId"":""920300cb-ef92-407e-8025-8071213f24fb""}","https://test12345.live/?part=2&participantId=0262A6C94291486AAD77E396199DA474&assignmentId=28eff0f7-368c-46fe-b296-ff485522aa01&projectId=920300cb-ef92-407e-8025-8071213f24fb","0262A6C94291486AAD77E396199DA474-2025-05-24-00-13-28","","1963","","","{""Q0"":""AJFHBG896""}","",""
