"success","timeout","failed_images","failed_audio","failed_video","trial_type","trial_index","time_elapsed","internal_node_id","subject","subject_id","study_id","session_id","urlvar","current_url","audio_id","view_history","rt","device_id","stimulus","response","estimated_stimulus_onset","seq_name"
"true","false","[]","[]","[]","preload","0","108","0.0-0.0","0806AF6DA36A42189200AF58F574B929","0806AF6DA36A42189200AF58F574B929","0198c263-5439-7f59-8332-42a64c710c83","0198c075-3de9-7cab-996b-8cffe1adb15f","{""num_scrambled_semantic"":""8"",""num_scrambled_causal"":""4"",""num_scrambled_schematic"":""4"",""participantId"":""0806AF6DA36A42189200AF58F574B929"",""assignmentId"":""0198c263-5439-7f59-8332-42a64c710c83"",""projectId"":""0198c075-3de9-7cab-996b-8cffe1adb15f""}","https://test12345.live/?num_scrambled_semantic=8&num_scrambled_causal=4&num_scrambled_schematic=4&participantId=0806AF6DA36A42189200AF58F574B929&assignmentId=0198c263-5439-7f59-8332-42a64c710c83&projectId=0198c075-3de9-7cab-996b-8cffe1adb15f","0806AF6DA36A42189200AF58F574B929-2025-08-19-13-08-44","","","","","","",""
"","","","","","instructions","1","38985","0.0-1.0","0806AF6DA36A42189200AF58F574B929","0806AF6DA36A42189200AF58F574B929","0198c263-5439-7f59-8332-42a64c710c83","0198c075-3de9-7cab-996b-8cffe1adb15f","{""num_scrambled_semantic"":""8"",""num_scrambled_causal"":""4"",""num_scrambled_schematic"":""4"",""participantId"":""0806AF6DA36A42189200AF58F574B929"",""assignmentId"":""0198c263-5439-7f59-8332-42a64c710c83"",""projectId"":""0198c075-3de9-7cab-996b-8cffe1adb15f""}","https://test12345.live/?num_scrambled_semantic=8&num_scrambled_causal=4&num_scrambled_schematic=4&participantId=0806AF6DA36A42189200AF58F574B929&assignmentId=0198c263-5439-7f59-8332-42a64c710c83&projectId=0198c075-3de9-7cab-996b-8cffe1adb15f","0806AF6DA36A42189200AF58F574B929-2025-08-19-13-08-44","[{""page_index"":0,""viewing_time"":38876}]","38877","","","","",""
"","","","","","instructions","2","50450","0.0-2.0","0806AF6DA36A42189200AF58F574B929","0806AF6DA36A42189200AF58F574B929","0198c263-5439-7f59-8332-42a64c710c83","0198c075-3de9-7cab-996b-8cffe1adb15f","{""num_scrambled_semantic"":""8"",""num_scrambled_causal"":""4"",""num_scrambled_schematic"":""4"",""participantId"":""0806AF6DA36A42189200AF58F574B929"",""assignmentId"":""0198c263-5439-7f59-8332-42a64c710c83"",""projectId"":""0198c075-3de9-7cab-996b-8cffe1adb15f""}","https://test12345.live/?num_scrambled_semantic=8&num_scrambled_causal=4&num_scrambled_schematic=4&participantId=0806AF6DA36A42189200AF58F574B929&assignmentId=0198c263-5439-7f59-8332-42a64c710c83&projectId=0198c075-3de9-7cab-996b-8cffe1adb15f","0806AF6DA36A42189200AF58F574B929-2025-08-19-13-08-44","[{""page_index"":0,""viewing_time"":11464}]","11464","","","","",""
"true","","","","","fullscreen","3","54609","0.0-3.0","0806AF6DA36A42189200AF58F574B929","0806AF6DA36A42189200AF58F574B929","0198c263-5439-7f59-8332-42a64c710c83","0198c075-3de9-7cab-996b-8cffe1adb15f","{""num_scrambled_semantic"":""8"",""num_scrambled_causal"":""4"",""num_scrambled_schematic"":""4"",""participantId"":""0806AF6DA36A42189200AF58F574B929"",""assignmentId"":""0198c263-5439-7f59-8332-42a64c710c83"",""projectId"":""0198c075-3de9-7cab-996b-8cffe1adb15f""}","https://test12345.live/?num_scrambled_semantic=8&num_scrambled_causal=4&num_scrambled_schematic=4&participantId=0806AF6DA36A42189200AF58F574B929&assignmentId=0198c263-5439-7f59-8332-42a64c710c83&projectId=0198c075-3de9-7cab-996b-8cffe1adb15f","0806AF6DA36A42189200AF58F574B929-2025-08-19-13-08-44","","3150","","","","",""
"","","","","","initialize-microphone","4","130864","0.0-4.0-0.0","0806AF6DA36A42189200AF58F574B929","0806AF6DA36A42189200AF58F574B929","0198c263-5439-7f59-8332-42a64c710c83","0198c075-3de9-7cab-996b-8cffe1adb15f","{""num_scrambled_semantic"":""8"",""num_scrambled_causal"":""4"",""num_scrambled_schematic"":""4"",""participantId"":""0806AF6DA36A42189200AF58F574B929"",""assignmentId"":""0198c263-5439-7f59-8332-42a64c710c83"",""projectId"":""0198c075-3de9-7cab-996b-8cffe1adb15f""}","https://test12345.live/?num_scrambled_semantic=8&num_scrambled_causal=4&num_scrambled_schematic=4&participantId=0806AF6DA36A42189200AF58F574B929&assignmentId=0198c263-5439-7f59-8332-42a64c710c83&projectId=0198c075-3de9-7cab-996b-8cffe1adb15f","0806AF6DA36A42189200AF58F574B929-2025-08-19-13-08-44","","","a415cadd7d583c4d546d7b2cddddaf376acbd83fb3eaf5941c14dd6828a85cbc","","","",""
"","","","","","html-audio-response","5","148424","0.0-4.0-1.0","0806AF6DA36A42189200AF58F574B929","0806AF6DA36A42189200AF58F574B929","0198c263-5439-7f59-8332-42a64c710c83","0198c075-3de9-7cab-996b-8cffe1adb15f","{""num_scrambled_semantic"":""8"",""num_scrambled_causal"":""4"",""num_scrambled_schematic"":""4"",""participantId"":""0806AF6DA36A42189200AF58F574B929"",""assignmentId"":""0198c263-5439-7f59-8332-42a64c710c83"",""projectId"":""0198c075-3de9-7cab-996b-8cffe1adb15f""}","https://test12345.live/?num_scrambled_semantic=8&num_scrambled_causal=4&num_scrambled_schematic=4&participantId=0806AF6DA36A42189200AF58F574B929&assignmentId=0198c263-5439-7f59-8332-42a64c710c83&projectId=0198c075-3de9-7cab-996b-8cffe1adb15f","0806AF6DA36A42189200AF58F574B929-2025-08-19-13-08-44","","6274","","<span style=""color: red; font-size: 24px""> NOW RECORDING</span>
        <p>Please test Microphone</p>","","4",""
"","","","","","html-button-response","6","150663","0.0-4.0-2.0","0806AF6DA36A42189200AF58F574B929","0806AF6DA36A42189200AF58F574B929","0198c263-5439-7f59-8332-42a64c710c83","0198c075-3de9-7cab-996b-8cffe1adb15f","{""num_scrambled_semantic"":""8"",""num_scrambled_causal"":""4"",""num_scrambled_schematic"":""4"",""participantId"":""0806AF6DA36A42189200AF58F574B929"",""assignmentId"":""0198c263-5439-7f59-8332-42a64c710c83"",""projectId"":""0198c075-3de9-7cab-996b-8cffe1adb15f""}","https://test12345.live/?num_scrambled_semantic=8&num_scrambled_causal=4&num_scrambled_schematic=4&participantId=0806AF6DA36A42189200AF58F574B929&assignmentId=0198c263-5439-7f59-8332-42a64c710c83&projectId=0198c075-3de9-7cab-996b-8cffe1adb15f","0806AF6DA36A42189200AF58F574B929-2025-08-19-13-08-44","","2236","","<p style=""font-size:48px; color:red;"">Is Microphone OK?</p>","1","",""
"","","","","","instructions","7","170673","0.0-5.0","0806AF6DA36A42189200AF58F574B929","0806AF6DA36A42189200AF58F574B929","0198c263-5439-7f59-8332-42a64c710c83","0198c075-3de9-7cab-996b-8cffe1adb15f","{""num_scrambled_semantic"":""8"",""num_scrambled_causal"":""4"",""num_scrambled_schematic"":""4"",""participantId"":""0806AF6DA36A42189200AF58F574B929"",""assignmentId"":""0198c263-5439-7f59-8332-42a64c710c83"",""projectId"":""0198c075-3de9-7cab-996b-8cffe1adb15f""}","https://test12345.live/?num_scrambled_semantic=8&num_scrambled_causal=4&num_scrambled_schematic=4&participantId=0806AF6DA36A42189200AF58F574B929&assignmentId=0198c263-5439-7f59-8332-42a64c710c83&projectId=0198c075-3de9-7cab-996b-8cffe1adb15f","0806AF6DA36A42189200AF58F574B929-2025-08-19-13-08-44","[{""page_index"":0,""viewing_time"":1486},{""page_index"":1,""viewing_time"":5966},{""page_index"":2,""viewing_time"":12557}]","20009","","","","",""
"","","","","","image-button-response","8","176685","0.0-6.0-0.0","0806AF6DA36A42189200AF58F574B929","0806AF6DA36A42189200AF58F574B929","0198c263-5439-7f59-8332-42a64c710c83","0198c075-3de9-7cab-996b-8cffe1adb15f","{""num_scrambled_semantic"":""8"",""num_scrambled_causal"":""4"",""num_scrambled_schematic"":""4"",""participantId"":""0806AF6DA36A42189200AF58F574B929"",""assignmentId"":""0198c263-5439-7f59-8332-42a64c710c83"",""projectId"":""0198c075-3de9-7cab-996b-8cffe1adb15f""}","https://test12345.live/?num_scrambled_semantic=8&num_scrambled_causal=4&num_scrambled_schematic=4&participantId=0806AF6DA36A42189200AF58F574B929&assignmentId=0198c263-5439-7f59-8332-42a64c710c83&projectId=0198c075-3de9-7cab-996b-8cffe1adb15f","0806AF6DA36A42189200AF58F574B929-2025-08-19-13-08-44","","null","","images/instructions/movie_0.png","null","",""
"","","","","","html-audio-response","9","208611","0.0-7.0","0806AF6DA36A42189200AF58F574B929","0806AF6DA36A42189200AF58F574B929","0198c263-5439-7f59-8332-42a64c710c83","0198c075-3de9-7cab-996b-8cffe1adb15f","{""num_scrambled_semantic"":""8"",""num_scrambled_causal"":""4"",""num_scrambled_schematic"":""4"",""participantId"":""0806AF6DA36A42189200AF58F574B929"",""assignmentId"":""0198c263-5439-7f59-8332-42a64c710c83"",""projectId"":""0198c075-3de9-7cab-996b-8cffe1adb15f""}","https://test12345.live/?num_scrambled_semantic=8&num_scrambled_causal=4&num_scrambled_schematic=4&participantId=0806AF6DA36A42189200AF58F574B929&assignmentId=0198c263-5439-7f59-8332-42a64c710c83&projectId=0198c075-3de9-7cab-996b-8cffe1adb15f","0806AF6DA36A42189200AF58F574B929-2025-08-19-13-08-44","","15655","","[""<span style=\""color: red; font-size: 24px\""> NOW RECORDING</span><p>Please say out loud all the images you saw in part 1 of the experiment, as many as you can remember. The images can be said in any order.</p>""]","","2",""
"","","","","","instructions","10","213784","0.0-8.0","0806AF6DA36A42189200AF58F574B929","0806AF6DA36A42189200AF58F574B929","0198c263-5439-7f59-8332-42a64c710c83","0198c075-3de9-7cab-996b-8cffe1adb15f","{""num_scrambled_semantic"":""8"",""num_scrambled_causal"":""4"",""num_scrambled_schematic"":""4"",""participantId"":""0806AF6DA36A42189200AF58F574B929"",""assignmentId"":""0198c263-5439-7f59-8332-42a64c710c83"",""projectId"":""0198c075-3de9-7cab-996b-8cffe1adb15f""}","https://test12345.live/?num_scrambled_semantic=8&num_scrambled_causal=4&num_scrambled_schematic=4&participantId=0806AF6DA36A42189200AF58F574B929&assignmentId=0198c263-5439-7f59-8332-42a64c710c83&projectId=0198c075-3de9-7cab-996b-8cffe1adb15f","0806AF6DA36A42189200AF58F574B929-2025-08-19-13-08-44","[{""page_index"":0,""viewing_time"":5167}]","5167","","","","",""
"","","","","","image-button-response","11","219797","0.0-9.0-0.0","0806AF6DA36A42189200AF58F574B929","0806AF6DA36A42189200AF58F574B929","0198c263-5439-7f59-8332-42a64c710c83","0198c075-3de9-7cab-996b-8cffe1adb15f","{""num_scrambled_semantic"":""8"",""num_scrambled_causal"":""4"",""num_scrambled_schematic"":""4"",""participantId"":""0806AF6DA36A42189200AF58F574B929"",""assignmentId"":""0198c263-5439-7f59-8332-42a64c710c83"",""projectId"":""0198c075-3de9-7cab-996b-8cffe1adb15f""}","https://test12345.live/?num_scrambled_semantic=8&num_scrambled_causal=4&num_scrambled_schematic=4&participantId=0806AF6DA36A42189200AF58F574B929&assignmentId=0198c263-5439-7f59-8332-42a64c710c83&projectId=0198c075-3de9-7cab-996b-8cffe1adb15f","0806AF6DA36A42189200AF58F574B929-2025-08-19-13-08-44","","null","","images/semantic_sequence/housework_semantic/housework_semantic_0.png","null","",""
"","","","","","html-audio-response","12","271900","0.0-10.0","0806AF6DA36A42189200AF58F574B929","0806AF6DA36A42189200AF58F574B929","0198c263-5439-7f59-8332-42a64c710c83","0198c075-3de9-7cab-996b-8cffe1adb15f","{""num_scrambled_semantic"":""8"",""num_scrambled_causal"":""4"",""num_scrambled_schematic"":""4"",""participantId"":""0806AF6DA36A42189200AF58F574B929"",""assignmentId"":""0198c263-5439-7f59-8332-42a64c710c83"",""projectId"":""0198c075-3de9-7cab-996b-8cffe1adb15f""}","https://test12345.live/?num_scrambled_semantic=8&num_scrambled_causal=4&num_scrambled_schematic=4&participantId=0806AF6DA36A42189200AF58F574B929&assignmentId=0198c263-5439-7f59-8332-42a64c710c83&projectId=0198c075-3de9-7cab-996b-8cffe1adb15f","0806AF6DA36A42189200AF58F574B929-2025-08-19-13-08-44","","28777","","[""<span style=\""color: red; font-size: 24px\""> NOW RECORDING</span><p>Please say out loud all the images you saw in part 1 of the experiment, as many as you can remember. The images can be said in any order.</p>""]","","1","housework_semantic"
"","","","","","image-button-response","13","277917","0.0-11.0-0.0","0806AF6DA36A42189200AF58F574B929","0806AF6DA36A42189200AF58F574B929","0198c263-5439-7f59-8332-42a64c710c83","0198c075-3de9-7cab-996b-8cffe1adb15f","{""num_scrambled_semantic"":""8"",""num_scrambled_causal"":""4"",""num_scrambled_schematic"":""4"",""participantId"":""0806AF6DA36A42189200AF58F574B929"",""assignmentId"":""0198c263-5439-7f59-8332-42a64c710c83"",""projectId"":""0198c075-3de9-7cab-996b-8cffe1adb15f""}","https://test12345.live/?num_scrambled_semantic=8&num_scrambled_causal=4&num_scrambled_schematic=4&participantId=0806AF6DA36A42189200AF58F574B929&assignmentId=0198c263-5439-7f59-8332-42a64c710c83&projectId=0198c075-3de9-7cab-996b-8cffe1adb15f","0806AF6DA36A42189200AF58F574B929-2025-08-19-13-08-44","","null","","images/semantic_sequence/creative_activities_semantic/creative_activities_semantic_0.png","null","",""
"","","","","","html-audio-response","14","332483","0.0-12.0","0806AF6DA36A42189200AF58F574B929","0806AF6DA36A42189200AF58F574B929","0198c263-5439-7f59-8332-42a64c710c83","0198c075-3de9-7cab-996b-8cffe1adb15f","{""num_scrambled_semantic"":""8"",""num_scrambled_causal"":""4"",""num_scrambled_schematic"":""4"",""participantId"":""0806AF6DA36A42189200AF58F574B929"",""assignmentId"":""0198c263-5439-7f59-8332-42a64c710c83"",""projectId"":""0198c075-3de9-7cab-996b-8cffe1adb15f""}","https://test12345.live/?num_scrambled_semantic=8&num_scrambled_causal=4&num_scrambled_schematic=4&participantId=0806AF6DA36A42189200AF58F574B929&assignmentId=0198c263-5439-7f59-8332-42a64c710c83&projectId=0198c075-3de9-7cab-996b-8cffe1adb15f","0806AF6DA36A42189200AF58F574B929-2025-08-19-13-08-44","","33154","","[""<span style=\""color: red; font-size: 24px\""> NOW RECORDING</span><p>Please say out loud all the images you saw in part 1 of the experiment, as many as you can remember. The images can be said in any order.</p>""]","","2","creative_activities_semantic"
"","","","","","image-button-response","15","338501","0.0-13.0-0.0","0806AF6DA36A42189200AF58F574B929","0806AF6DA36A42189200AF58F574B929","0198c263-5439-7f59-8332-42a64c710c83","0198c075-3de9-7cab-996b-8cffe1adb15f","{""num_scrambled_semantic"":""8"",""num_scrambled_causal"":""4"",""num_scrambled_schematic"":""4"",""participantId"":""0806AF6DA36A42189200AF58F574B929"",""assignmentId"":""0198c263-5439-7f59-8332-42a64c710c83"",""projectId"":""0198c075-3de9-7cab-996b-8cffe1adb15f""}","https://test12345.live/?num_scrambled_semantic=8&num_scrambled_causal=4&num_scrambled_schematic=4&participantId=0806AF6DA36A42189200AF58F574B929&assignmentId=0198c263-5439-7f59-8332-42a64c710c83&projectId=0198c075-3de9-7cab-996b-8cffe1adb15f","0806AF6DA36A42189200AF58F574B929-2025-08-19-13-08-44","","null","","images/semantic_sequence/redecorating_semantic/redecorating_semantic_0.png","null","",""
"","","","","","html-audio-response","16","400506","0.0-14.0","0806AF6DA36A42189200AF58F574B929","0806AF6DA36A42189200AF58F574B929","0198c263-5439-7f59-8332-42a64c710c83","0198c075-3de9-7cab-996b-8cffe1adb15f","{""num_scrambled_semantic"":""8"",""num_scrambled_causal"":""4"",""num_scrambled_schematic"":""4"",""participantId"":""0806AF6DA36A42189200AF58F574B929"",""assignmentId"":""0198c263-5439-7f59-8332-42a64c710c83"",""projectId"":""0198c075-3de9-7cab-996b-8cffe1adb15f""}","https://test12345.live/?num_scrambled_semantic=8&num_scrambled_causal=4&num_scrambled_schematic=4&participantId=0806AF6DA36A42189200AF58F574B929&assignmentId=0198c263-5439-7f59-8332-42a64c710c83&projectId=0198c075-3de9-7cab-996b-8cffe1adb15f","0806AF6DA36A42189200AF58F574B929-2025-08-19-13-08-44","","41824","","[""<span style=\""color: red; font-size: 24px\""> NOW RECORDING</span><p>Please say out loud all the images you saw in part 1 of the experiment, as many as you can remember. The images can be said in any order.</p>""]","","2","redecorating_semantic"
"","","","","","image-button-response","17","406523","0.0-15.0-0.0","0806AF6DA36A42189200AF58F574B929","0806AF6DA36A42189200AF58F574B929","0198c263-5439-7f59-8332-42a64c710c83","0198c075-3de9-7cab-996b-8cffe1adb15f","{""num_scrambled_semantic"":""8"",""num_scrambled_causal"":""4"",""num_scrambled_schematic"":""4"",""participantId"":""0806AF6DA36A42189200AF58F574B929"",""assignmentId"":""0198c263-5439-7f59-8332-42a64c710c83"",""projectId"":""0198c075-3de9-7cab-996b-8cffe1adb15f""}","https://test12345.live/?num_scrambled_semantic=8&num_scrambled_causal=4&num_scrambled_schematic=4&participantId=0806AF6DA36A42189200AF58F574B929&assignmentId=0198c263-5439-7f59-8332-42a64c710c83&projectId=0198c075-3de9-7cab-996b-8cffe1adb15f","0806AF6DA36A42189200AF58F574B929-2025-08-19-13-08-44","","null","","images/causal_sequence/the_performance_causal/the_performance_causal_0.png","null","",""
"","","","","","html-audio-response","18","476833","0.0-16.0","0806AF6DA36A42189200AF58F574B929","0806AF6DA36A42189200AF58F574B929","0198c263-5439-7f59-8332-42a64c710c83","0198c075-3de9-7cab-996b-8cffe1adb15f","{""num_scrambled_semantic"":""8"",""num_scrambled_causal"":""4"",""num_scrambled_schematic"":""4"",""participantId"":""0806AF6DA36A42189200AF58F574B929"",""assignmentId"":""0198c263-5439-7f59-8332-42a64c710c83"",""projectId"":""0198c075-3de9-7cab-996b-8cffe1adb15f""}","https://test12345.live/?num_scrambled_semantic=8&num_scrambled_causal=4&num_scrambled_schematic=4&participantId=0806AF6DA36A42189200AF58F574B929&assignmentId=0198c263-5439-7f59-8332-42a64c710c83&projectId=0198c075-3de9-7cab-996b-8cffe1adb15f","0806AF6DA36A42189200AF58F574B929-2025-08-19-13-08-44","","49405","","[""<span style=\""color: red; font-size: 24px\""> NOW RECORDING</span><p>Please say out loud all the images you saw in part 1 of the experiment, as many as you can remember. The images can be said in any order.</p>""]","","5","the_performance_causal"
"","","","","","image-button-response","19","482857","0.0-17.0-0.0","0806AF6DA36A42189200AF58F574B929","0806AF6DA36A42189200AF58F574B929","0198c263-5439-7f59-8332-42a64c710c83","0198c075-3de9-7cab-996b-8cffe1adb15f","{""num_scrambled_semantic"":""8"",""num_scrambled_causal"":""4"",""num_scrambled_schematic"":""4"",""participantId"":""0806AF6DA36A42189200AF58F574B929"",""assignmentId"":""0198c263-5439-7f59-8332-42a64c710c83"",""projectId"":""0198c075-3de9-7cab-996b-8cffe1adb15f""}","https://test12345.live/?num_scrambled_semantic=8&num_scrambled_causal=4&num_scrambled_schematic=4&participantId=0806AF6DA36A42189200AF58F574B929&assignmentId=0198c263-5439-7f59-8332-42a64c710c83&projectId=0198c075-3de9-7cab-996b-8cffe1adb15f","0806AF6DA36A42189200AF58F574B929-2025-08-19-13-08-44","","null","","images/causal_sequence/saving_a_cat_causal/saving_a_cat_causal_0.png","null","",""
"","","","","","html-audio-response","20","534275","0.0-18.0","0806AF6DA36A42189200AF58F574B929","0806AF6DA36A42189200AF58F574B929","0198c263-5439-7f59-8332-42a64c710c83","0198c075-3de9-7cab-996b-8cffe1adb15f","{""num_scrambled_semantic"":""8"",""num_scrambled_causal"":""4"",""num_scrambled_schematic"":""4"",""participantId"":""0806AF6DA36A42189200AF58F574B929"",""assignmentId"":""0198c263-5439-7f59-8332-42a64c710c83"",""projectId"":""0198c075-3de9-7cab-996b-8cffe1adb15f""}","https://test12345.live/?num_scrambled_semantic=8&num_scrambled_causal=4&num_scrambled_schematic=4&participantId=0806AF6DA36A42189200AF58F574B929&assignmentId=0198c263-5439-7f59-8332-42a64c710c83&projectId=0198c075-3de9-7cab-996b-8cffe1adb15f","0806AF6DA36A42189200AF58F574B929-2025-08-19-13-08-44","","23625","","[""<span style=\""color: red; font-size: 24px\""> NOW RECORDING</span><p>Please say out loud all the images you saw in part 1 of the experiment, as many as you can remember. The images can be said in any order.</p>""]","","2","saving_a_cat_causal"
"","","","","","image-button-response","21","540294","0.0-19.0-0.0","0806AF6DA36A42189200AF58F574B929","0806AF6DA36A42189200AF58F574B929","0198c263-5439-7f59-8332-42a64c710c83","0198c075-3de9-7cab-996b-8cffe1adb15f","{""num_scrambled_semantic"":""8"",""num_scrambled_causal"":""4"",""num_scrambled_schematic"":""4"",""participantId"":""0806AF6DA36A42189200AF58F574B929"",""assignmentId"":""0198c263-5439-7f59-8332-42a64c710c83"",""projectId"":""0198c075-3de9-7cab-996b-8cffe1adb15f""}","https://test12345.live/?num_scrambled_semantic=8&num_scrambled_causal=4&num_scrambled_schematic=4&participantId=0806AF6DA36A42189200AF58F574B929&assignmentId=0198c263-5439-7f59-8332-42a64c710c83&projectId=0198c075-3de9-7cab-996b-8cffe1adb15f","0806AF6DA36A42189200AF58F574B929-2025-08-19-13-08-44","","null","","images/causal_sequence/package_causal/package_causal_0.png","null","",""
"","","","","","html-audio-response","22","593146","0.0-20.0","0806AF6DA36A42189200AF58F574B929","0806AF6DA36A42189200AF58F574B929","0198c263-5439-7f59-8332-42a64c710c83","0198c075-3de9-7cab-996b-8cffe1adb15f","{""num_scrambled_semantic"":""8"",""num_scrambled_causal"":""4"",""num_scrambled_schematic"":""4"",""participantId"":""0806AF6DA36A42189200AF58F574B929"",""assignmentId"":""0198c263-5439-7f59-8332-42a64c710c83"",""projectId"":""0198c075-3de9-7cab-996b-8cffe1adb15f""}","https://test12345.live/?num_scrambled_semantic=8&num_scrambled_causal=4&num_scrambled_schematic=4&participantId=0806AF6DA36A42189200AF58F574B929&assignmentId=0198c263-5439-7f59-8332-42a64c710c83&projectId=0198c075-3de9-7cab-996b-8cffe1adb15f","0806AF6DA36A42189200AF58F574B929-2025-08-19-13-08-44","","36490","","[""<span style=\""color: red; font-size: 24px\""> NOW RECORDING</span><p>Please say out loud all the images you saw in part 1 of the experiment, as many as you can remember. The images can be said in any order.</p>""]","","2","package_causal"
"","","","","","image-button-response","23","599172","0.0-21.0-0.0","0806AF6DA36A42189200AF58F574B929","0806AF6DA36A42189200AF58F574B929","0198c263-5439-7f59-8332-42a64c710c83","0198c075-3de9-7cab-996b-8cffe1adb15f","{""num_scrambled_semantic"":""8"",""num_scrambled_causal"":""4"",""num_scrambled_schematic"":""4"",""participantId"":""0806AF6DA36A42189200AF58F574B929"",""assignmentId"":""0198c263-5439-7f59-8332-42a64c710c83"",""projectId"":""0198c075-3de9-7cab-996b-8cffe1adb15f""}","https://test12345.live/?num_scrambled_semantic=8&num_scrambled_causal=4&num_scrambled_schematic=4&participantId=0806AF6DA36A42189200AF58F574B929&assignmentId=0198c263-5439-7f59-8332-42a64c710c83&projectId=0198c075-3de9-7cab-996b-8cffe1adb15f","0806AF6DA36A42189200AF58F574B929-2025-08-19-13-08-44","","null","","images/causal_sequence/museum_causal/museum_causal_0.png","null","",""
"","","","","","html-audio-response","24","710169","0.0-22.0","0806AF6DA36A42189200AF58F574B929","0806AF6DA36A42189200AF58F574B929","0198c263-5439-7f59-8332-42a64c710c83","0198c075-3de9-7cab-996b-8cffe1adb15f","{""num_scrambled_semantic"":""8"",""num_scrambled_causal"":""4"",""num_scrambled_schematic"":""4"",""participantId"":""0806AF6DA36A42189200AF58F574B929"",""assignmentId"":""0198c263-5439-7f59-8332-42a64c710c83"",""projectId"":""0198c075-3de9-7cab-996b-8cffe1adb15f""}","https://test12345.live/?num_scrambled_semantic=8&num_scrambled_causal=4&num_scrambled_schematic=4&participantId=0806AF6DA36A42189200AF58F574B929&assignmentId=0198c263-5439-7f59-8332-42a64c710c83&projectId=0198c075-3de9-7cab-996b-8cffe1adb15f","0806AF6DA36A42189200AF58F574B929-2025-08-19-13-08-44","","53488","","[""<span style=\""color: red; font-size: 24px\""> NOW RECORDING</span><p>Please say out loud all the images you saw in part 1 of the experiment, as many as you can remember. The images can be said in any order.</p>""]","","2","museum_causal"
"","","","","","image-button-response","25","716189","0.0-23.0-0.0","0806AF6DA36A42189200AF58F574B929","0806AF6DA36A42189200AF58F574B929","0198c263-5439-7f59-8332-42a64c710c83","0198c075-3de9-7cab-996b-8cffe1adb15f","{""num_scrambled_semantic"":""8"",""num_scrambled_causal"":""4"",""num_scrambled_schematic"":""4"",""participantId"":""0806AF6DA36A42189200AF58F574B929"",""assignmentId"":""0198c263-5439-7f59-8332-42a64c710c83"",""projectId"":""0198c075-3de9-7cab-996b-8cffe1adb15f""}","https://test12345.live/?num_scrambled_semantic=8&num_scrambled_causal=4&num_scrambled_schematic=4&participantId=0806AF6DA36A42189200AF58F574B929&assignmentId=0198c263-5439-7f59-8332-42a64c710c83&projectId=0198c075-3de9-7cab-996b-8cffe1adb15f","0806AF6DA36A42189200AF58F574B929-2025-08-19-13-08-44","","null","","images/causal_sequence/coin_causal/coin_causal_0.png","null","",""
"","","","","","html-audio-response","26","775124","0.0-24.0","0806AF6DA36A42189200AF58F574B929","0806AF6DA36A42189200AF58F574B929","0198c263-5439-7f59-8332-42a64c710c83","0198c075-3de9-7cab-996b-8cffe1adb15f","{""num_scrambled_semantic"":""8"",""num_scrambled_causal"":""4"",""num_scrambled_schematic"":""4"",""participantId"":""0806AF6DA36A42189200AF58F574B929"",""assignmentId"":""0198c263-5439-7f59-8332-42a64c710c83"",""projectId"":""0198c075-3de9-7cab-996b-8cffe1adb15f""}","https://test12345.live/?num_scrambled_semantic=8&num_scrambled_causal=4&num_scrambled_schematic=4&participantId=0806AF6DA36A42189200AF58F574B929&assignmentId=0198c263-5439-7f59-8332-42a64c710c83&projectId=0198c075-3de9-7cab-996b-8cffe1adb15f","0806AF6DA36A42189200AF58F574B929-2025-08-19-13-08-44","","14980","","[""<span style=\""color: red; font-size: 24px\""> NOW RECORDING</span><p>Please say out loud all the images you saw in part 1 of the experiment, as many as you can remember. The images can be said in any order.</p>""]","","2","coin_causal"
"","","","","","image-button-response","27","781138","0.0-25.0-0.0","0806AF6DA36A42189200AF58F574B929","0806AF6DA36A42189200AF58F574B929","0198c263-5439-7f59-8332-42a64c710c83","0198c075-3de9-7cab-996b-8cffe1adb15f","{""num_scrambled_semantic"":""8"",""num_scrambled_causal"":""4"",""num_scrambled_schematic"":""4"",""participantId"":""0806AF6DA36A42189200AF58F574B929"",""assignmentId"":""0198c263-5439-7f59-8332-42a64c710c83"",""projectId"":""0198c075-3de9-7cab-996b-8cffe1adb15f""}","https://test12345.live/?num_scrambled_semantic=8&num_scrambled_causal=4&num_scrambled_schematic=4&participantId=0806AF6DA36A42189200AF58F574B929&assignmentId=0198c263-5439-7f59-8332-42a64c710c83&projectId=0198c075-3de9-7cab-996b-8cffe1adb15f","0806AF6DA36A42189200AF58F574B929-2025-08-19-13-08-44","","null","","images/semantic_sequence/cat_care_semantic/cat_care_semantic_0.png","null","",""
"","","","","","html-audio-response","28","819405","0.0-26.0","0806AF6DA36A42189200AF58F574B929","0806AF6DA36A42189200AF58F574B929","0198c263-5439-7f59-8332-42a64c710c83","0198c075-3de9-7cab-996b-8cffe1adb15f","{""num_scrambled_semantic"":""8"",""num_scrambled_causal"":""4"",""num_scrambled_schematic"":""4"",""participantId"":""0806AF6DA36A42189200AF58F574B929"",""assignmentId"":""0198c263-5439-7f59-8332-42a64c710c83"",""projectId"":""0198c075-3de9-7cab-996b-8cffe1adb15f""}","https://test12345.live/?num_scrambled_semantic=8&num_scrambled_causal=4&num_scrambled_schematic=4&participantId=0806AF6DA36A42189200AF58F574B929&assignmentId=0198c263-5439-7f59-8332-42a64c710c83&projectId=0198c075-3de9-7cab-996b-8cffe1adb15f","0806AF6DA36A42189200AF58F574B929-2025-08-19-13-08-44","","26230","","[""<span style=\""color: red; font-size: 24px\""> NOW RECORDING</span><p>Please say out loud all the images you saw in part 1 of the experiment, as many as you can remember. The images can be said in any order.</p>""]","","2","cat_care_semantic"
"","","","","","image-button-response","29","825421","0.0-27.0-0.0","0806AF6DA36A42189200AF58F574B929","0806AF6DA36A42189200AF58F574B929","0198c263-5439-7f59-8332-42a64c710c83","0198c075-3de9-7cab-996b-8cffe1adb15f","{""num_scrambled_semantic"":""8"",""num_scrambled_causal"":""4"",""num_scrambled_schematic"":""4"",""participantId"":""0806AF6DA36A42189200AF58F574B929"",""assignmentId"":""0198c263-5439-7f59-8332-42a64c710c83"",""projectId"":""0198c075-3de9-7cab-996b-8cffe1adb15f""}","https://test12345.live/?num_scrambled_semantic=8&num_scrambled_causal=4&num_scrambled_schematic=4&participantId=0806AF6DA36A42189200AF58F574B929&assignmentId=0198c263-5439-7f59-8332-42a64c710c83&projectId=0198c075-3de9-7cab-996b-8cffe1adb15f","0806AF6DA36A42189200AF58F574B929-2025-08-19-13-08-44","","null","","images/semantic_sequence/maintaining_a_car_semantic/maintaining_a_car_semantic_0.png","null","",""
"","","","","","html-audio-response","30","850280","0.0-28.0","0806AF6DA36A42189200AF58F574B929","0806AF6DA36A42189200AF58F574B929","0198c263-5439-7f59-8332-42a64c710c83","0198c075-3de9-7cab-996b-8cffe1adb15f","{""num_scrambled_semantic"":""8"",""num_scrambled_causal"":""4"",""num_scrambled_schematic"":""4"",""participantId"":""0806AF6DA36A42189200AF58F574B929"",""assignmentId"":""0198c263-5439-7f59-8332-42a64c710c83"",""projectId"":""0198c075-3de9-7cab-996b-8cffe1adb15f""}","https://test12345.live/?num_scrambled_semantic=8&num_scrambled_causal=4&num_scrambled_schematic=4&participantId=0806AF6DA36A42189200AF58F574B929&assignmentId=0198c263-5439-7f59-8332-42a64c710c83&projectId=0198c075-3de9-7cab-996b-8cffe1adb15f","0806AF6DA36A42189200AF58F574B929-2025-08-19-13-08-44","","5269","","[""<span style=\""color: red; font-size: 24px\""> NOW RECORDING</span><p>Please say out loud all the images you saw in part 1 of the experiment, as many as you can remember. The images can be said in any order.</p>""]","","2","maintaining_a_car_semantic"
"","","","","","image-button-response","31","856296","0.0-29.0-0.0","0806AF6DA36A42189200AF58F574B929","0806AF6DA36A42189200AF58F574B929","0198c263-5439-7f59-8332-42a64c710c83","0198c075-3de9-7cab-996b-8cffe1adb15f","{""num_scrambled_semantic"":""8"",""num_scrambled_causal"":""4"",""num_scrambled_schematic"":""4"",""participantId"":""0806AF6DA36A42189200AF58F574B929"",""assignmentId"":""0198c263-5439-7f59-8332-42a64c710c83"",""projectId"":""0198c075-3de9-7cab-996b-8cffe1adb15f""}","https://test12345.live/?num_scrambled_semantic=8&num_scrambled_causal=4&num_scrambled_schematic=4&participantId=0806AF6DA36A42189200AF58F574B929&assignmentId=0198c263-5439-7f59-8332-42a64c710c83&projectId=0198c075-3de9-7cab-996b-8cffe1adb15f","0806AF6DA36A42189200AF58F574B929-2025-08-19-13-08-44","","null","","images/semantic_sequence/physical_activity_semantic/physical_activity_semantic_0.png","null","",""
"","","","","","html-audio-response","32","880417","0.0-30.0","0806AF6DA36A42189200AF58F574B929","0806AF6DA36A42189200AF58F574B929","0198c263-5439-7f59-8332-42a64c710c83","0198c075-3de9-7cab-996b-8cffe1adb15f","{""num_scrambled_semantic"":""8"",""num_scrambled_causal"":""4"",""num_scrambled_schematic"":""4"",""participantId"":""0806AF6DA36A42189200AF58F574B929"",""assignmentId"":""0198c263-5439-7f59-8332-42a64c710c83"",""projectId"":""0198c075-3de9-7cab-996b-8cffe1adb15f""}","https://test12345.live/?num_scrambled_semantic=8&num_scrambled_causal=4&num_scrambled_schematic=4&participantId=0806AF6DA36A42189200AF58F574B929&assignmentId=0198c263-5439-7f59-8332-42a64c710c83&projectId=0198c075-3de9-7cab-996b-8cffe1adb15f","0806AF6DA36A42189200AF58F574B929-2025-08-19-13-08-44","","13145","","[""<span style=\""color: red; font-size: 24px\""> NOW RECORDING</span><p>Please say out loud all the images you saw in part 1 of the experiment, as many as you can remember. The images can be said in any order.</p>""]","","2","physical_activity_semantic"
"","","","","","image-button-response","33","886434","0.0-31.0-0.0","0806AF6DA36A42189200AF58F574B929","0806AF6DA36A42189200AF58F574B929","0198c263-5439-7f59-8332-42a64c710c83","0198c075-3de9-7cab-996b-8cffe1adb15f","{""num_scrambled_semantic"":""8"",""num_scrambled_causal"":""4"",""num_scrambled_schematic"":""4"",""participantId"":""0806AF6DA36A42189200AF58F574B929"",""assignmentId"":""0198c263-5439-7f59-8332-42a64c710c83"",""projectId"":""0198c075-3de9-7cab-996b-8cffe1adb15f""}","https://test12345.live/?num_scrambled_semantic=8&num_scrambled_causal=4&num_scrambled_schematic=4&participantId=0806AF6DA36A42189200AF58F574B929&assignmentId=0198c263-5439-7f59-8332-42a64c710c83&projectId=0198c075-3de9-7cab-996b-8cffe1adb15f","0806AF6DA36A42189200AF58F574B929-2025-08-19-13-08-44","","null","","images/semantic_sequence/using_technology_semantic/using_technology_semantic_0.png","null","",""
"","","","","","html-audio-response","34","902677","0.0-32.0","0806AF6DA36A42189200AF58F574B929","0806AF6DA36A42189200AF58F574B929","0198c263-5439-7f59-8332-42a64c710c83","0198c075-3de9-7cab-996b-8cffe1adb15f","{""num_scrambled_semantic"":""8"",""num_scrambled_causal"":""4"",""num_scrambled_schematic"":""4"",""participantId"":""0806AF6DA36A42189200AF58F574B929"",""assignmentId"":""0198c263-5439-7f59-8332-42a64c710c83"",""projectId"":""0198c075-3de9-7cab-996b-8cffe1adb15f""}","https://test12345.live/?num_scrambled_semantic=8&num_scrambled_causal=4&num_scrambled_schematic=4&participantId=0806AF6DA36A42189200AF58F574B929&assignmentId=0198c263-5439-7f59-8332-42a64c710c83&projectId=0198c075-3de9-7cab-996b-8cffe1adb15f","0806AF6DA36A42189200AF58F574B929-2025-08-19-13-08-44","","11419","","[""<span style=\""color: red; font-size: 24px\""> NOW RECORDING</span><p>Please say out loud all the images you saw in part 1 of the experiment, as many as you can remember. The images can be said in any order.</p>""]","","2","using_technology_semantic"
"","","","","","image-button-response","35","908695","0.0-33.0-0.0","0806AF6DA36A42189200AF58F574B929","0806AF6DA36A42189200AF58F574B929","0198c263-5439-7f59-8332-42a64c710c83","0198c075-3de9-7cab-996b-8cffe1adb15f","{""num_scrambled_semantic"":""8"",""num_scrambled_causal"":""4"",""num_scrambled_schematic"":""4"",""participantId"":""0806AF6DA36A42189200AF58F574B929"",""assignmentId"":""0198c263-5439-7f59-8332-42a64c710c83"",""projectId"":""0198c075-3de9-7cab-996b-8cffe1adb15f""}","https://test12345.live/?num_scrambled_semantic=8&num_scrambled_causal=4&num_scrambled_schematic=4&participantId=0806AF6DA36A42189200AF58F574B929&assignmentId=0198c263-5439-7f59-8332-42a64c710c83&projectId=0198c075-3de9-7cab-996b-8cffe1adb15f","0806AF6DA36A42189200AF58F574B929-2025-08-19-13-08-44","","null","","images/causal_sequence/dog_causal/dog_causal_0.png","null","",""
"","","","","","html-audio-response","36","953296","0.0-34.0","0806AF6DA36A42189200AF58F574B929","0806AF6DA36A42189200AF58F574B929","0198c263-5439-7f59-8332-42a64c710c83","0198c075-3de9-7cab-996b-8cffe1adb15f","{""num_scrambled_semantic"":""8"",""num_scrambled_causal"":""4"",""num_scrambled_schematic"":""4"",""participantId"":""0806AF6DA36A42189200AF58F574B929"",""assignmentId"":""0198c263-5439-7f59-8332-42a64c710c83"",""projectId"":""0198c075-3de9-7cab-996b-8cffe1adb15f""}","https://test12345.live/?num_scrambled_semantic=8&num_scrambled_causal=4&num_scrambled_schematic=4&participantId=0806AF6DA36A42189200AF58F574B929&assignmentId=0198c263-5439-7f59-8332-42a64c710c83&projectId=0198c075-3de9-7cab-996b-8cffe1adb15f","0806AF6DA36A42189200AF58F574B929-2025-08-19-13-08-44","","30267","","[""<span style=\""color: red; font-size: 24px\""> NOW RECORDING</span><p>Please say out loud all the images you saw in part 1 of the experiment, as many as you can remember. The images can be said in any order.</p>""]","","2","dog_causal"
"","","","","","survey-text","37","959866","0.0-35.0","0806AF6DA36A42189200AF58F574B929","0806AF6DA36A42189200AF58F574B929","0198c263-5439-7f59-8332-42a64c710c83","0198c075-3de9-7cab-996b-8cffe1adb15f","{""num_scrambled_semantic"":""8"",""num_scrambled_causal"":""4"",""num_scrambled_schematic"":""4"",""participantId"":""0806AF6DA36A42189200AF58F574B929"",""assignmentId"":""0198c263-5439-7f59-8332-42a64c710c83"",""projectId"":""0198c075-3de9-7cab-996b-8cffe1adb15f""}","https://test12345.live/?num_scrambled_semantic=8&num_scrambled_causal=4&num_scrambled_schematic=4&participantId=0806AF6DA36A42189200AF58F574B929&assignmentId=0198c263-5439-7f59-8332-42a64c710c83&projectId=0198c075-3de9-7cab-996b-8cffe1adb15f","0806AF6DA36A42189200AF58F574B929-2025-08-19-13-08-44","","6553","","","{""Q0"":""FEMALE"",""Q1"":""21""}","",""
"","","","","","instructions","38","967387","0.0-36.0","0806AF6DA36A42189200AF58F574B929","0806AF6DA36A42189200AF58F574B929","0198c263-5439-7f59-8332-42a64c710c83","0198c075-3de9-7cab-996b-8cffe1adb15f","{""num_scrambled_semantic"":""8"",""num_scrambled_causal"":""4"",""num_scrambled_schematic"":""4"",""participantId"":""0806AF6DA36A42189200AF58F574B929"",""assignmentId"":""0198c263-5439-7f59-8332-42a64c710c83"",""projectId"":""0198c075-3de9-7cab-996b-8cffe1adb15f""}","https://test12345.live/?num_scrambled_semantic=8&num_scrambled_causal=4&num_scrambled_schematic=4&participantId=0806AF6DA36A42189200AF58F574B929&assignmentId=0198c263-5439-7f59-8332-42a64c710c83&projectId=0198c075-3de9-7cab-996b-8cffe1adb15f","0806AF6DA36A42189200AF58F574B929-2025-08-19-13-08-44","[{""page_index"":0,""viewing_time"":7519}]","7519","","","","",""
"","","","","","survey-text","39","969552","0.0-37.0","0806AF6DA36A42189200AF58F574B929","0806AF6DA36A42189200AF58F574B929","0198c263-5439-7f59-8332-42a64c710c83","0198c075-3de9-7cab-996b-8cffe1adb15f","{""num_scrambled_semantic"":""8"",""num_scrambled_causal"":""4"",""num_scrambled_schematic"":""4"",""participantId"":""0806AF6DA36A42189200AF58F574B929"",""assignmentId"":""0198c263-5439-7f59-8332-42a64c710c83"",""projectId"":""0198c075-3de9-7cab-996b-8cffe1adb15f""}","https://test12345.live/?num_scrambled_semantic=8&num_scrambled_causal=4&num_scrambled_schematic=4&participantId=0806AF6DA36A42189200AF58F574B929&assignmentId=0198c263-5439-7f59-8332-42a64c710c83&projectId=0198c075-3de9-7cab-996b-8cffe1adb15f","0806AF6DA36A42189200AF58F574B929-2025-08-19-13-08-44","","2160","","","{""Q0"":""AJFHBG896""}","",""
