"success","timeout","failed_images","failed_audio","failed_video","trial_type","trial_index","time_elapsed","internal_node_id","subject","subject_id","study_id","session_id","urlvar","current_url","audio_id","view_history","rt","device_id","stimulus","response","estimated_stimulus_onset","seq_name"
"true","false","[]","[]","[]","preload","0","1130","0.0-0.0","0A107DA056AD49E289FBA3922D72F56E","0A107DA056AD49E289FBA3922D72F56E","e3bb0a4f-7cbf-4dbf-ab73-6c0ba8058262","9596d7a2-d401-47b1-aedd-70105f5f2f42","{""part"":""2"",""participantId"":""0A107DA056AD49E289FBA3922D72F56E"",""assignmentId"":""e3bb0a4f-7cbf-4dbf-ab73-6c0ba8058262"",""projectId"":""9596d7a2-d401-47b1-aedd-70105f5f2f42""}","https://test12345.live/?part=2&participantId=0A107DA056AD49E289FBA3922D72F56E&assignmentId=e3bb0a4f-7cbf-4dbf-ab73-6c0ba8058262&projectId=9596d7a2-d401-47b1-aedd-70105f5f2f42","0A107DA056AD49E289FBA3922D72F56E-2025-05-28-17-32-29","","","","","","",""
"","","","","","instructions","1","7568","0.0-1.0","0A107DA056AD49E289FBA3922D72F56E","0A107DA056AD49E289FBA3922D72F56E","e3bb0a4f-7cbf-4dbf-ab73-6c0ba8058262","9596d7a2-d401-47b1-aedd-70105f5f2f42","{""part"":""2"",""participantId"":""0A107DA056AD49E289FBA3922D72F56E"",""assignmentId"":""e3bb0a4f-7cbf-4dbf-ab73-6c0ba8058262"",""projectId"":""9596d7a2-d401-47b1-aedd-70105f5f2f42""}","https://test12345.live/?part=2&participantId=0A107DA056AD49E289FBA3922D72F56E&assignmentId=e3bb0a4f-7cbf-4dbf-ab73-6c0ba8058262&projectId=9596d7a2-d401-47b1-aedd-70105f5f2f42","0A107DA056AD49E289FBA3922D72F56E-2025-05-28-17-32-29","[{""page_index"":0,""viewing_time"":6437}]","6437","","","","",""
"","","","","","instructions","2","9963","0.0-2.0","0A107DA056AD49E289FBA3922D72F56E","0A107DA056AD49E289FBA3922D72F56E","e3bb0a4f-7cbf-4dbf-ab73-6c0ba8058262","9596d7a2-d401-47b1-aedd-70105f5f2f42","{""part"":""2"",""participantId"":""0A107DA056AD49E289FBA3922D72F56E"",""assignmentId"":""e3bb0a4f-7cbf-4dbf-ab73-6c0ba8058262"",""projectId"":""9596d7a2-d401-47b1-aedd-70105f5f2f42""}","https://test12345.live/?part=2&participantId=0A107DA056AD49E289FBA3922D72F56E&assignmentId=e3bb0a4f-7cbf-4dbf-ab73-6c0ba8058262&projectId=9596d7a2-d401-47b1-aedd-70105f5f2f42","0A107DA056AD49E289FBA3922D72F56E-2025-05-28-17-32-29","[{""page_index"":0,""viewing_time"":2395}]","2395","","","","",""
"true","","","","","fullscreen","3","13288","0.0-3.0","0A107DA056AD49E289FBA3922D72F56E","0A107DA056AD49E289FBA3922D72F56E","e3bb0a4f-7cbf-4dbf-ab73-6c0ba8058262","9596d7a2-d401-47b1-aedd-70105f5f2f42","{""part"":""2"",""participantId"":""0A107DA056AD49E289FBA3922D72F56E"",""assignmentId"":""e3bb0a4f-7cbf-4dbf-ab73-6c0ba8058262"",""projectId"":""9596d7a2-d401-47b1-aedd-70105f5f2f42""}","https://test12345.live/?part=2&participantId=0A107DA056AD49E289FBA3922D72F56E&assignmentId=e3bb0a4f-7cbf-4dbf-ab73-6c0ba8058262&projectId=9596d7a2-d401-47b1-aedd-70105f5f2f42","0A107DA056AD49E289FBA3922D72F56E-2025-05-28-17-32-29","","2317","","","","",""
"","","","","","initialize-microphone","4","20098","0.0-4.0-0.0","0A107DA056AD49E289FBA3922D72F56E","0A107DA056AD49E289FBA3922D72F56E","e3bb0a4f-7cbf-4dbf-ab73-6c0ba8058262","9596d7a2-d401-47b1-aedd-70105f5f2f42","{""part"":""2"",""participantId"":""0A107DA056AD49E289FBA3922D72F56E"",""assignmentId"":""e3bb0a4f-7cbf-4dbf-ab73-6c0ba8058262"",""projectId"":""9596d7a2-d401-47b1-aedd-70105f5f2f42""}","https://test12345.live/?part=2&participantId=0A107DA056AD49E289FBA3922D72F56E&assignmentId=e3bb0a4f-7cbf-4dbf-ab73-6c0ba8058262&projectId=9596d7a2-d401-47b1-aedd-70105f5f2f42","0A107DA056AD49E289FBA3922D72F56E-2025-05-28-17-32-29","","","59bd3f5d74ee531fb9a892f92c0413a3a8033d777a08aed108c6c73b5debf386","","","",""
"","","","","","html-audio-response","5","47645","0.0-4.0-1.0","0A107DA056AD49E289FBA3922D72F56E","0A107DA056AD49E289FBA3922D72F56E","e3bb0a4f-7cbf-4dbf-ab73-6c0ba8058262","9596d7a2-d401-47b1-aedd-70105f5f2f42","{""part"":""2"",""participantId"":""0A107DA056AD49E289FBA3922D72F56E"",""assignmentId"":""e3bb0a4f-7cbf-4dbf-ab73-6c0ba8058262"",""projectId"":""9596d7a2-d401-47b1-aedd-70105f5f2f42""}","https://test12345.live/?part=2&participantId=0A107DA056AD49E289FBA3922D72F56E&assignmentId=e3bb0a4f-7cbf-4dbf-ab73-6c0ba8058262&projectId=9596d7a2-d401-47b1-aedd-70105f5f2f42","0A107DA056AD49E289FBA3922D72F56E-2025-05-28-17-32-29","","3330","","<span style=""color: red; font-size: 24px""> NOW RECORDING</span>
        <p>Please test Microphone</p>","","7",""
"","","","","","html-button-response","6","50708","0.0-4.0-2.0","0A107DA056AD49E289FBA3922D72F56E","0A107DA056AD49E289FBA3922D72F56E","e3bb0a4f-7cbf-4dbf-ab73-6c0ba8058262","9596d7a2-d401-47b1-aedd-70105f5f2f42","{""part"":""2"",""participantId"":""0A107DA056AD49E289FBA3922D72F56E"",""assignmentId"":""e3bb0a4f-7cbf-4dbf-ab73-6c0ba8058262"",""projectId"":""9596d7a2-d401-47b1-aedd-70105f5f2f42""}","https://test12345.live/?part=2&participantId=0A107DA056AD49E289FBA3922D72F56E&assignmentId=e3bb0a4f-7cbf-4dbf-ab73-6c0ba8058262&projectId=9596d7a2-d401-47b1-aedd-70105f5f2f42","0A107DA056AD49E289FBA3922D72F56E-2025-05-28-17-32-29","","3061","","<p style=""font-size:48px; color:red;"">Is Microphone OK?</p>","1","",""
"","","","","","instructions","7","67636","0.0-5.0","0A107DA056AD49E289FBA3922D72F56E","0A107DA056AD49E289FBA3922D72F56E","e3bb0a4f-7cbf-4dbf-ab73-6c0ba8058262","9596d7a2-d401-47b1-aedd-70105f5f2f42","{""part"":""2"",""participantId"":""0A107DA056AD49E289FBA3922D72F56E"",""assignmentId"":""e3bb0a4f-7cbf-4dbf-ab73-6c0ba8058262"",""projectId"":""9596d7a2-d401-47b1-aedd-70105f5f2f42""}","https://test12345.live/?part=2&participantId=0A107DA056AD49E289FBA3922D72F56E&assignmentId=e3bb0a4f-7cbf-4dbf-ab73-6c0ba8058262&projectId=9596d7a2-d401-47b1-aedd-70105f5f2f42","0A107DA056AD49E289FBA3922D72F56E-2025-05-28-17-32-29","[{""page_index"":0,""viewing_time"":1993},{""page_index"":1,""viewing_time"":7059},{""page_index"":2,""viewing_time"":7874}]","16927","","","","",""
"","","","","","image-button-response","8","73649","0.0-6.0-0.0","0A107DA056AD49E289FBA3922D72F56E","0A107DA056AD49E289FBA3922D72F56E","e3bb0a4f-7cbf-4dbf-ab73-6c0ba8058262","9596d7a2-d401-47b1-aedd-70105f5f2f42","{""part"":""2"",""participantId"":""0A107DA056AD49E289FBA3922D72F56E"",""assignmentId"":""e3bb0a4f-7cbf-4dbf-ab73-6c0ba8058262"",""projectId"":""9596d7a2-d401-47b1-aedd-70105f5f2f42""}","https://test12345.live/?part=2&participantId=0A107DA056AD49E289FBA3922D72F56E&assignmentId=e3bb0a4f-7cbf-4dbf-ab73-6c0ba8058262&projectId=9596d7a2-d401-47b1-aedd-70105f5f2f42","0A107DA056AD49E289FBA3922D72F56E-2025-05-28-17-32-29","","null","","images/instructions/movie_0.png","null","",""
"","","","","","html-audio-response","9","80774","0.0-7.0","0A107DA056AD49E289FBA3922D72F56E","0A107DA056AD49E289FBA3922D72F56E","e3bb0a4f-7cbf-4dbf-ab73-6c0ba8058262","9596d7a2-d401-47b1-aedd-70105f5f2f42","{""part"":""2"",""participantId"":""0A107DA056AD49E289FBA3922D72F56E"",""assignmentId"":""e3bb0a4f-7cbf-4dbf-ab73-6c0ba8058262"",""projectId"":""9596d7a2-d401-47b1-aedd-70105f5f2f42""}","https://test12345.live/?part=2&participantId=0A107DA056AD49E289FBA3922D72F56E&assignmentId=e3bb0a4f-7cbf-4dbf-ab73-6c0ba8058262&projectId=9596d7a2-d401-47b1-aedd-70105f5f2f42","0A107DA056AD49E289FBA3922D72F56E-2025-05-28-17-32-29","","3300","","[""<span style=\""color: red; font-size: 24px\""> NOW RECORDING</span><p>Please say out loud all the images you saw in part 1 of the experiment, in the exact order you saw them. Try to recall as many images as you can, but remember: getting the order right is more important than the number of images you recall.</p>""]","","1",""
"","","","","","instructions","10","83577","0.0-8.0","0A107DA056AD49E289FBA3922D72F56E","0A107DA056AD49E289FBA3922D72F56E","e3bb0a4f-7cbf-4dbf-ab73-6c0ba8058262","9596d7a2-d401-47b1-aedd-70105f5f2f42","{""part"":""2"",""participantId"":""0A107DA056AD49E289FBA3922D72F56E"",""assignmentId"":""e3bb0a4f-7cbf-4dbf-ab73-6c0ba8058262"",""projectId"":""9596d7a2-d401-47b1-aedd-70105f5f2f42""}","https://test12345.live/?part=2&participantId=0A107DA056AD49E289FBA3922D72F56E&assignmentId=e3bb0a4f-7cbf-4dbf-ab73-6c0ba8058262&projectId=9596d7a2-d401-47b1-aedd-70105f5f2f42","0A107DA056AD49E289FBA3922D72F56E-2025-05-28-17-32-29","[{""page_index"":0,""viewing_time"":2800}]","2800","","","","",""
"","","","","","image-button-response","11","89587","0.0-9.0-0.0","0A107DA056AD49E289FBA3922D72F56E","0A107DA056AD49E289FBA3922D72F56E","e3bb0a4f-7cbf-4dbf-ab73-6c0ba8058262","9596d7a2-d401-47b1-aedd-70105f5f2f42","{""part"":""2"",""participantId"":""0A107DA056AD49E289FBA3922D72F56E"",""assignmentId"":""e3bb0a4f-7cbf-4dbf-ab73-6c0ba8058262"",""projectId"":""9596d7a2-d401-47b1-aedd-70105f5f2f42""}","https://test12345.live/?part=2&participantId=0A107DA056AD49E289FBA3922D72F56E&assignmentId=e3bb0a4f-7cbf-4dbf-ab73-6c0ba8058262&projectId=9596d7a2-d401-47b1-aedd-70105f5f2f42","0A107DA056AD49E289FBA3922D72F56E-2025-05-28-17-32-29","","null","","images/causal_sequence/museum_causal/museum_causal_0.png","null","",""
"","","","","","html-audio-response","12","95019","0.0-10.0","0A107DA056AD49E289FBA3922D72F56E","0A107DA056AD49E289FBA3922D72F56E","e3bb0a4f-7cbf-4dbf-ab73-6c0ba8058262","9596d7a2-d401-47b1-aedd-70105f5f2f42","{""part"":""2"",""participantId"":""0A107DA056AD49E289FBA3922D72F56E"",""assignmentId"":""e3bb0a4f-7cbf-4dbf-ab73-6c0ba8058262"",""projectId"":""9596d7a2-d401-47b1-aedd-70105f5f2f42""}","https://test12345.live/?part=2&participantId=0A107DA056AD49E289FBA3922D72F56E&assignmentId=e3bb0a4f-7cbf-4dbf-ab73-6c0ba8058262&projectId=9596d7a2-d401-47b1-aedd-70105f5f2f42","0A107DA056AD49E289FBA3922D72F56E-2025-05-28-17-32-29","","2547","","[""<span style=\""color: red; font-size: 24px\""> NOW RECORDING</span><p>Please say out loud all the images you saw in part 1 of the experiment, in the exact order you saw them. Try to recall as many images as you can, but remember: getting the order right is more important than the number of images you recall. </p>""]","","25","museum_causal"
"","","","","","image-button-response","13","101024","0.0-11.0-0.0","0A107DA056AD49E289FBA3922D72F56E","0A107DA056AD49E289FBA3922D72F56E","e3bb0a4f-7cbf-4dbf-ab73-6c0ba8058262","9596d7a2-d401-47b1-aedd-70105f5f2f42","{""part"":""2"",""participantId"":""0A107DA056AD49E289FBA3922D72F56E"",""assignmentId"":""e3bb0a4f-7cbf-4dbf-ab73-6c0ba8058262"",""projectId"":""9596d7a2-d401-47b1-aedd-70105f5f2f42""}","https://test12345.live/?part=2&participantId=0A107DA056AD49E289FBA3922D72F56E&assignmentId=e3bb0a4f-7cbf-4dbf-ab73-6c0ba8058262&projectId=9596d7a2-d401-47b1-aedd-70105f5f2f42","0A107DA056AD49E289FBA3922D72F56E-2025-05-28-17-32-29","","null","","images/schematic_sequence/dinner_party_scheme/dinner_party_scheme_0.png","null","",""
"","","","","","html-audio-response","14","105476","0.0-12.0","0A107DA056AD49E289FBA3922D72F56E","0A107DA056AD49E289FBA3922D72F56E","e3bb0a4f-7cbf-4dbf-ab73-6c0ba8058262","9596d7a2-d401-47b1-aedd-70105f5f2f42","{""part"":""2"",""participantId"":""0A107DA056AD49E289FBA3922D72F56E"",""assignmentId"":""e3bb0a4f-7cbf-4dbf-ab73-6c0ba8058262"",""projectId"":""9596d7a2-d401-47b1-aedd-70105f5f2f42""}","https://test12345.live/?part=2&participantId=0A107DA056AD49E289FBA3922D72F56E&assignmentId=e3bb0a4f-7cbf-4dbf-ab73-6c0ba8058262&projectId=9596d7a2-d401-47b1-aedd-70105f5f2f42","0A107DA056AD49E289FBA3922D72F56E-2025-05-28-17-32-29","","1943","","[""<span style=\""color: red; font-size: 24px\""> NOW RECORDING</span><p>Please say out loud all the images you saw in part 1 of the experiment, in the exact order you saw them. Try to recall as many images as you can, but remember: getting the order right is more important than the number of images you recall. </p>""]","","3","dinner_party_scheme"
"","","","","","image-button-response","15","111483","0.0-13.0-0.0","0A107DA056AD49E289FBA3922D72F56E","0A107DA056AD49E289FBA3922D72F56E","e3bb0a4f-7cbf-4dbf-ab73-6c0ba8058262","9596d7a2-d401-47b1-aedd-70105f5f2f42","{""part"":""2"",""participantId"":""0A107DA056AD49E289FBA3922D72F56E"",""assignmentId"":""e3bb0a4f-7cbf-4dbf-ab73-6c0ba8058262"",""projectId"":""9596d7a2-d401-47b1-aedd-70105f5f2f42""}","https://test12345.live/?part=2&participantId=0A107DA056AD49E289FBA3922D72F56E&assignmentId=e3bb0a4f-7cbf-4dbf-ab73-6c0ba8058262&projectId=9596d7a2-d401-47b1-aedd-70105f5f2f42","0A107DA056AD49E289FBA3922D72F56E-2025-05-28-17-32-29","","null","","images/semantic_sequence/housework_semantic/housework_semantic_0.png","null","",""
"","","","","","html-audio-response","16","116850","0.0-14.0","0A107DA056AD49E289FBA3922D72F56E","0A107DA056AD49E289FBA3922D72F56E","e3bb0a4f-7cbf-4dbf-ab73-6c0ba8058262","9596d7a2-d401-47b1-aedd-70105f5f2f42","{""part"":""2"",""participantId"":""0A107DA056AD49E289FBA3922D72F56E"",""assignmentId"":""e3bb0a4f-7cbf-4dbf-ab73-6c0ba8058262"",""projectId"":""9596d7a2-d401-47b1-aedd-70105f5f2f42""}","https://test12345.live/?part=2&participantId=0A107DA056AD49E289FBA3922D72F56E&assignmentId=e3bb0a4f-7cbf-4dbf-ab73-6c0ba8058262&projectId=9596d7a2-d401-47b1-aedd-70105f5f2f42","0A107DA056AD49E289FBA3922D72F56E-2025-05-28-17-32-29","","2190","","[""<span style=\""color: red; font-size: 24px\""> NOW RECORDING</span><p>Please say out loud all the images you saw in part 1 of the experiment, in the exact order you saw them. Try to recall as many images as you can, but remember: getting the order right is more important than the number of images you recall. </p>""]","","1","housework_semantic"
"","","","","","image-button-response","17","122857","0.0-15.0-0.0","0A107DA056AD49E289FBA3922D72F56E","0A107DA056AD49E289FBA3922D72F56E","e3bb0a4f-7cbf-4dbf-ab73-6c0ba8058262","9596d7a2-d401-47b1-aedd-70105f5f2f42","{""part"":""2"",""participantId"":""0A107DA056AD49E289FBA3922D72F56E"",""assignmentId"":""e3bb0a4f-7cbf-4dbf-ab73-6c0ba8058262"",""projectId"":""9596d7a2-d401-47b1-aedd-70105f5f2f42""}","https://test12345.live/?part=2&participantId=0A107DA056AD49E289FBA3922D72F56E&assignmentId=e3bb0a4f-7cbf-4dbf-ab73-6c0ba8058262&projectId=9596d7a2-d401-47b1-aedd-70105f5f2f42","0A107DA056AD49E289FBA3922D72F56E-2025-05-28-17-32-29","","null","","images/causal_sequence/package_causal/package_causal_0.png","null","",""
"","","","","","html-audio-response","18","126504","0.0-16.0","0A107DA056AD49E289FBA3922D72F56E","0A107DA056AD49E289FBA3922D72F56E","e3bb0a4f-7cbf-4dbf-ab73-6c0ba8058262","9596d7a2-d401-47b1-aedd-70105f5f2f42","{""part"":""2"",""participantId"":""0A107DA056AD49E289FBA3922D72F56E"",""assignmentId"":""e3bb0a4f-7cbf-4dbf-ab73-6c0ba8058262"",""projectId"":""9596d7a2-d401-47b1-aedd-70105f5f2f42""}","https://test12345.live/?part=2&participantId=0A107DA056AD49E289FBA3922D72F56E&assignmentId=e3bb0a4f-7cbf-4dbf-ab73-6c0ba8058262&projectId=9596d7a2-d401-47b1-aedd-70105f5f2f42","0A107DA056AD49E289FBA3922D72F56E-2025-05-28-17-32-29","","1600","","[""<span style=\""color: red; font-size: 24px\""> NOW RECORDING</span><p>Please say out loud all the images you saw in part 1 of the experiment, in the exact order you saw them. Try to recall as many images as you can, but remember: getting the order right is more important than the number of images you recall. </p>""]","","6","package_causal"
"","","","","","image-button-response","19","132512","0.0-17.0-0.0","0A107DA056AD49E289FBA3922D72F56E","0A107DA056AD49E289FBA3922D72F56E","e3bb0a4f-7cbf-4dbf-ab73-6c0ba8058262","9596d7a2-d401-47b1-aedd-70105f5f2f42","{""part"":""2"",""participantId"":""0A107DA056AD49E289FBA3922D72F56E"",""assignmentId"":""e3bb0a4f-7cbf-4dbf-ab73-6c0ba8058262"",""projectId"":""9596d7a2-d401-47b1-aedd-70105f5f2f42""}","https://test12345.live/?part=2&participantId=0A107DA056AD49E289FBA3922D72F56E&assignmentId=e3bb0a4f-7cbf-4dbf-ab73-6c0ba8058262&projectId=9596d7a2-d401-47b1-aedd-70105f5f2f42","0A107DA056AD49E289FBA3922D72F56E-2025-05-28-17-32-29","","null","","images/semantic_sequence/physical_activity_semantic/physical_activity_semantic_0.png","null","",""
"","","","","","html-audio-response","20","136971","0.0-18.0","0A107DA056AD49E289FBA3922D72F56E","0A107DA056AD49E289FBA3922D72F56E","e3bb0a4f-7cbf-4dbf-ab73-6c0ba8058262","9596d7a2-d401-47b1-aedd-70105f5f2f42","{""part"":""2"",""participantId"":""0A107DA056AD49E289FBA3922D72F56E"",""assignmentId"":""e3bb0a4f-7cbf-4dbf-ab73-6c0ba8058262"",""projectId"":""9596d7a2-d401-47b1-aedd-70105f5f2f42""}","https://test12345.live/?part=2&participantId=0A107DA056AD49E289FBA3922D72F56E&assignmentId=e3bb0a4f-7cbf-4dbf-ab73-6c0ba8058262&projectId=9596d7a2-d401-47b1-aedd-70105f5f2f42","0A107DA056AD49E289FBA3922D72F56E-2025-05-28-17-32-29","","2204","","[""<span style=\""color: red; font-size: 24px\""> NOW RECORDING</span><p>Please say out loud all the images you saw in part 1 of the experiment, in the exact order you saw them. Try to recall as many images as you can, but remember: getting the order right is more important than the number of images you recall. </p>""]","","1","physical_activity_semantic"
"","","","","","image-button-response","21","142982","0.0-19.0-0.0","0A107DA056AD49E289FBA3922D72F56E","0A107DA056AD49E289FBA3922D72F56E","e3bb0a4f-7cbf-4dbf-ab73-6c0ba8058262","9596d7a2-d401-47b1-aedd-70105f5f2f42","{""part"":""2"",""participantId"":""0A107DA056AD49E289FBA3922D72F56E"",""assignmentId"":""e3bb0a4f-7cbf-4dbf-ab73-6c0ba8058262"",""projectId"":""9596d7a2-d401-47b1-aedd-70105f5f2f42""}","https://test12345.live/?part=2&participantId=0A107DA056AD49E289FBA3922D72F56E&assignmentId=e3bb0a4f-7cbf-4dbf-ab73-6c0ba8058262&projectId=9596d7a2-d401-47b1-aedd-70105f5f2f42","0A107DA056AD49E289FBA3922D72F56E-2025-05-28-17-32-29","","null","","images/causal_sequence/the_performance_causal/the_performance_causal_0.png","null","",""
"","","","","","html-audio-response","22","147997","0.0-20.0","0A107DA056AD49E289FBA3922D72F56E","0A107DA056AD49E289FBA3922D72F56E","e3bb0a4f-7cbf-4dbf-ab73-6c0ba8058262","9596d7a2-d401-47b1-aedd-70105f5f2f42","{""part"":""2"",""participantId"":""0A107DA056AD49E289FBA3922D72F56E"",""assignmentId"":""e3bb0a4f-7cbf-4dbf-ab73-6c0ba8058262"",""projectId"":""9596d7a2-d401-47b1-aedd-70105f5f2f42""}","https://test12345.live/?part=2&participantId=0A107DA056AD49E289FBA3922D72F56E&assignmentId=e3bb0a4f-7cbf-4dbf-ab73-6c0ba8058262&projectId=9596d7a2-d401-47b1-aedd-70105f5f2f42","0A107DA056AD49E289FBA3922D72F56E-2025-05-28-17-32-29","","2418","","[""<span style=\""color: red; font-size: 24px\""> NOW RECORDING</span><p>Please say out loud all the images you saw in part 1 of the experiment, in the exact order you saw them. Try to recall as many images as you can, but remember: getting the order right is more important than the number of images you recall. </p>""]","","1","the_performance_causal"
"","","","","","image-button-response","23","154003","0.0-21.0-0.0","0A107DA056AD49E289FBA3922D72F56E","0A107DA056AD49E289FBA3922D72F56E","e3bb0a4f-7cbf-4dbf-ab73-6c0ba8058262","9596d7a2-d401-47b1-aedd-70105f5f2f42","{""part"":""2"",""participantId"":""0A107DA056AD49E289FBA3922D72F56E"",""assignmentId"":""e3bb0a4f-7cbf-4dbf-ab73-6c0ba8058262"",""projectId"":""9596d7a2-d401-47b1-aedd-70105f5f2f42""}","https://test12345.live/?part=2&participantId=0A107DA056AD49E289FBA3922D72F56E&assignmentId=e3bb0a4f-7cbf-4dbf-ab73-6c0ba8058262&projectId=9596d7a2-d401-47b1-aedd-70105f5f2f42","0A107DA056AD49E289FBA3922D72F56E-2025-05-28-17-32-29","","null","","images/semantic_sequence/using_technology_semantic/using_technology_semantic_0.png","null","",""
"","","","","","html-audio-response","24","159018","0.0-22.0","0A107DA056AD49E289FBA3922D72F56E","0A107DA056AD49E289FBA3922D72F56E","e3bb0a4f-7cbf-4dbf-ab73-6c0ba8058262","9596d7a2-d401-47b1-aedd-70105f5f2f42","{""part"":""2"",""participantId"":""0A107DA056AD49E289FBA3922D72F56E"",""assignmentId"":""e3bb0a4f-7cbf-4dbf-ab73-6c0ba8058262"",""projectId"":""9596d7a2-d401-47b1-aedd-70105f5f2f42""}","https://test12345.live/?part=2&participantId=0A107DA056AD49E289FBA3922D72F56E&assignmentId=e3bb0a4f-7cbf-4dbf-ab73-6c0ba8058262&projectId=9596d7a2-d401-47b1-aedd-70105f5f2f42","0A107DA056AD49E289FBA3922D72F56E-2025-05-28-17-32-29","","2172","","[""<span style=\""color: red; font-size: 24px\""> NOW RECORDING</span><p>Please say out loud all the images you saw in part 1 of the experiment, in the exact order you saw them. Try to recall as many images as you can, but remember: getting the order right is more important than the number of images you recall. </p>""]","","5","using_technology_semantic"
"","","","","","image-button-response","25","165023","0.0-23.0-0.0","0A107DA056AD49E289FBA3922D72F56E","0A107DA056AD49E289FBA3922D72F56E","e3bb0a4f-7cbf-4dbf-ab73-6c0ba8058262","9596d7a2-d401-47b1-aedd-70105f5f2f42","{""part"":""2"",""participantId"":""0A107DA056AD49E289FBA3922D72F56E"",""assignmentId"":""e3bb0a4f-7cbf-4dbf-ab73-6c0ba8058262"",""projectId"":""9596d7a2-d401-47b1-aedd-70105f5f2f42""}","https://test12345.live/?part=2&participantId=0A107DA056AD49E289FBA3922D72F56E&assignmentId=e3bb0a4f-7cbf-4dbf-ab73-6c0ba8058262&projectId=9596d7a2-d401-47b1-aedd-70105f5f2f42","0A107DA056AD49E289FBA3922D72F56E-2025-05-28-17-32-29","","null","","images/causal_sequence/coin_causal/coin_causal_0.png","null","",""
"","","","","","html-audio-response","26","170944","0.0-24.0","0A107DA056AD49E289FBA3922D72F56E","0A107DA056AD49E289FBA3922D72F56E","e3bb0a4f-7cbf-4dbf-ab73-6c0ba8058262","9596d7a2-d401-47b1-aedd-70105f5f2f42","{""part"":""2"",""participantId"":""0A107DA056AD49E289FBA3922D72F56E"",""assignmentId"":""e3bb0a4f-7cbf-4dbf-ab73-6c0ba8058262"",""projectId"":""9596d7a2-d401-47b1-aedd-70105f5f2f42""}","https://test12345.live/?part=2&participantId=0A107DA056AD49E289FBA3922D72F56E&assignmentId=e3bb0a4f-7cbf-4dbf-ab73-6c0ba8058262&projectId=9596d7a2-d401-47b1-aedd-70105f5f2f42","0A107DA056AD49E289FBA3922D72F56E-2025-05-28-17-32-29","","2954","","[""<span style=\""color: red; font-size: 24px\""> NOW RECORDING</span><p>Please say out loud all the images you saw in part 1 of the experiment, in the exact order you saw them. Try to recall as many images as you can, but remember: getting the order right is more important than the number of images you recall. </p>""]","","1","coin_causal"
"","","","","","image-button-response","27","176951","0.0-25.0-0.0","0A107DA056AD49E289FBA3922D72F56E","0A107DA056AD49E289FBA3922D72F56E","e3bb0a4f-7cbf-4dbf-ab73-6c0ba8058262","9596d7a2-d401-47b1-aedd-70105f5f2f42","{""part"":""2"",""participantId"":""0A107DA056AD49E289FBA3922D72F56E"",""assignmentId"":""e3bb0a4f-7cbf-4dbf-ab73-6c0ba8058262"",""projectId"":""9596d7a2-d401-47b1-aedd-70105f5f2f42""}","https://test12345.live/?part=2&participantId=0A107DA056AD49E289FBA3922D72F56E&assignmentId=e3bb0a4f-7cbf-4dbf-ab73-6c0ba8058262&projectId=9596d7a2-d401-47b1-aedd-70105f5f2f42","0A107DA056AD49E289FBA3922D72F56E-2025-05-28-17-32-29","","null","","images/semantic_sequence/self_care_activities_semantic/self_care_activities_semantic_0.png","null","",""
"","","","","","html-audio-response","28","183995","0.0-26.0","0A107DA056AD49E289FBA3922D72F56E","0A107DA056AD49E289FBA3922D72F56E","e3bb0a4f-7cbf-4dbf-ab73-6c0ba8058262","9596d7a2-d401-47b1-aedd-70105f5f2f42","{""part"":""2"",""participantId"":""0A107DA056AD49E289FBA3922D72F56E"",""assignmentId"":""e3bb0a4f-7cbf-4dbf-ab73-6c0ba8058262"",""projectId"":""9596d7a2-d401-47b1-aedd-70105f5f2f42""}","https://test12345.live/?part=2&participantId=0A107DA056AD49E289FBA3922D72F56E&assignmentId=e3bb0a4f-7cbf-4dbf-ab73-6c0ba8058262&projectId=9596d7a2-d401-47b1-aedd-70105f5f2f42","0A107DA056AD49E289FBA3922D72F56E-2025-05-28-17-32-29","","3799","","[""<span style=\""color: red; font-size: 24px\""> NOW RECORDING</span><p>Please say out loud all the images you saw in part 1 of the experiment, in the exact order you saw them. Try to recall as many images as you can, but remember: getting the order right is more important than the number of images you recall. </p>""]","","9","self_care_activities_semantic"
"","","","","","image-button-response","29","190001","0.0-27.0-0.0","0A107DA056AD49E289FBA3922D72F56E","0A107DA056AD49E289FBA3922D72F56E","e3bb0a4f-7cbf-4dbf-ab73-6c0ba8058262","9596d7a2-d401-47b1-aedd-70105f5f2f42","{""part"":""2"",""participantId"":""0A107DA056AD49E289FBA3922D72F56E"",""assignmentId"":""e3bb0a4f-7cbf-4dbf-ab73-6c0ba8058262"",""projectId"":""9596d7a2-d401-47b1-aedd-70105f5f2f42""}","https://test12345.live/?part=2&participantId=0A107DA056AD49E289FBA3922D72F56E&assignmentId=e3bb0a4f-7cbf-4dbf-ab73-6c0ba8058262&projectId=9596d7a2-d401-47b1-aedd-70105f5f2f42","0A107DA056AD49E289FBA3922D72F56E-2025-05-28-17-32-29","","null","","images/schematic_sequence/restaurant_scheme/restaurant_scheme_0.png","null","",""
"","","","","","html-audio-response","30","195145","0.0-28.0","0A107DA056AD49E289FBA3922D72F56E","0A107DA056AD49E289FBA3922D72F56E","e3bb0a4f-7cbf-4dbf-ab73-6c0ba8058262","9596d7a2-d401-47b1-aedd-70105f5f2f42","{""part"":""2"",""participantId"":""0A107DA056AD49E289FBA3922D72F56E"",""assignmentId"":""e3bb0a4f-7cbf-4dbf-ab73-6c0ba8058262"",""projectId"":""9596d7a2-d401-47b1-aedd-70105f5f2f42""}","https://test12345.live/?part=2&participantId=0A107DA056AD49E289FBA3922D72F56E&assignmentId=e3bb0a4f-7cbf-4dbf-ab73-6c0ba8058262&projectId=9596d7a2-d401-47b1-aedd-70105f5f2f42","0A107DA056AD49E289FBA3922D72F56E-2025-05-28-17-32-29","","2088","","[""<span style=\""color: red; font-size: 24px\""> NOW RECORDING</span><p>Please say out loud all the images you saw in part 1 of the experiment, in the exact order you saw them. Try to recall as many images as you can, but remember: getting the order right is more important than the number of images you recall. </p>""]","","1","restaurant_scheme"
"","","","","","image-button-response","31","201152","0.0-29.0-0.0","0A107DA056AD49E289FBA3922D72F56E","0A107DA056AD49E289FBA3922D72F56E","e3bb0a4f-7cbf-4dbf-ab73-6c0ba8058262","9596d7a2-d401-47b1-aedd-70105f5f2f42","{""part"":""2"",""participantId"":""0A107DA056AD49E289FBA3922D72F56E"",""assignmentId"":""e3bb0a4f-7cbf-4dbf-ab73-6c0ba8058262"",""projectId"":""9596d7a2-d401-47b1-aedd-70105f5f2f42""}","https://test12345.live/?part=2&participantId=0A107DA056AD49E289FBA3922D72F56E&assignmentId=e3bb0a4f-7cbf-4dbf-ab73-6c0ba8058262&projectId=9596d7a2-d401-47b1-aedd-70105f5f2f42","0A107DA056AD49E289FBA3922D72F56E-2025-05-28-17-32-29","","null","","images/semantic_sequence/redecorating_semantic/redecorating_semantic_0.png","null","",""
"","","","","","html-audio-response","32","206767","0.0-30.0","0A107DA056AD49E289FBA3922D72F56E","0A107DA056AD49E289FBA3922D72F56E","e3bb0a4f-7cbf-4dbf-ab73-6c0ba8058262","9596d7a2-d401-47b1-aedd-70105f5f2f42","{""part"":""2"",""participantId"":""0A107DA056AD49E289FBA3922D72F56E"",""assignmentId"":""e3bb0a4f-7cbf-4dbf-ab73-6c0ba8058262"",""projectId"":""9596d7a2-d401-47b1-aedd-70105f5f2f42""}","https://test12345.live/?part=2&participantId=0A107DA056AD49E289FBA3922D72F56E&assignmentId=e3bb0a4f-7cbf-4dbf-ab73-6c0ba8058262&projectId=9596d7a2-d401-47b1-aedd-70105f5f2f42","0A107DA056AD49E289FBA3922D72F56E-2025-05-28-17-32-29","","2381","","[""<span style=\""color: red; font-size: 24px\""> NOW RECORDING</span><p>Please say out loud all the images you saw in part 1 of the experiment, in the exact order you saw them. Try to recall as many images as you can, but remember: getting the order right is more important than the number of images you recall. </p>""]","","1","redecorating_semantic"
"","","","","","image-button-response","33","212777","0.0-31.0-0.0","0A107DA056AD49E289FBA3922D72F56E","0A107DA056AD49E289FBA3922D72F56E","e3bb0a4f-7cbf-4dbf-ab73-6c0ba8058262","9596d7a2-d401-47b1-aedd-70105f5f2f42","{""part"":""2"",""participantId"":""0A107DA056AD49E289FBA3922D72F56E"",""assignmentId"":""e3bb0a4f-7cbf-4dbf-ab73-6c0ba8058262"",""projectId"":""9596d7a2-d401-47b1-aedd-70105f5f2f42""}","https://test12345.live/?part=2&participantId=0A107DA056AD49E289FBA3922D72F56E&assignmentId=e3bb0a4f-7cbf-4dbf-ab73-6c0ba8058262&projectId=9596d7a2-d401-47b1-aedd-70105f5f2f42","0A107DA056AD49E289FBA3922D72F56E-2025-05-28-17-32-29","","null","","images/semantic_sequence/visiting_cities_semantic/visiting_cities_semantic_0.png","null","",""
"","","","","","html-audio-response","34","218294","0.0-32.0","0A107DA056AD49E289FBA3922D72F56E","0A107DA056AD49E289FBA3922D72F56E","e3bb0a4f-7cbf-4dbf-ab73-6c0ba8058262","9596d7a2-d401-47b1-aedd-70105f5f2f42","{""part"":""2"",""participantId"":""0A107DA056AD49E289FBA3922D72F56E"",""assignmentId"":""e3bb0a4f-7cbf-4dbf-ab73-6c0ba8058262"",""projectId"":""9596d7a2-d401-47b1-aedd-70105f5f2f42""}","https://test12345.live/?part=2&participantId=0A107DA056AD49E289FBA3922D72F56E&assignmentId=e3bb0a4f-7cbf-4dbf-ab73-6c0ba8058262&projectId=9596d7a2-d401-47b1-aedd-70105f5f2f42","0A107DA056AD49E289FBA3922D72F56E-2025-05-28-17-32-29","","2163","","[""<span style=\""color: red; font-size: 24px\""> NOW RECORDING</span><p>Please say out loud all the images you saw in part 1 of the experiment, in the exact order you saw them. Try to recall as many images as you can, but remember: getting the order right is more important than the number of images you recall. </p>""]","","1","visiting_cities_semantic"
"","","","","","image-button-response","35","224302","0.0-33.0-0.0","0A107DA056AD49E289FBA3922D72F56E","0A107DA056AD49E289FBA3922D72F56E","e3bb0a4f-7cbf-4dbf-ab73-6c0ba8058262","9596d7a2-d401-47b1-aedd-70105f5f2f42","{""part"":""2"",""participantId"":""0A107DA056AD49E289FBA3922D72F56E"",""assignmentId"":""e3bb0a4f-7cbf-4dbf-ab73-6c0ba8058262"",""projectId"":""9596d7a2-d401-47b1-aedd-70105f5f2f42""}","https://test12345.live/?part=2&participantId=0A107DA056AD49E289FBA3922D72F56E&assignmentId=e3bb0a4f-7cbf-4dbf-ab73-6c0ba8058262&projectId=9596d7a2-d401-47b1-aedd-70105f5f2f42","0A107DA056AD49E289FBA3922D72F56E-2025-05-28-17-32-29","","null","","images/schematic_sequence/flight_scheme/flight_scheme_0.png","null","",""
"","","","","","html-audio-response","36","228626","0.0-34.0","0A107DA056AD49E289FBA3922D72F56E","0A107DA056AD49E289FBA3922D72F56E","e3bb0a4f-7cbf-4dbf-ab73-6c0ba8058262","9596d7a2-d401-47b1-aedd-70105f5f2f42","{""part"":""2"",""participantId"":""0A107DA056AD49E289FBA3922D72F56E"",""assignmentId"":""e3bb0a4f-7cbf-4dbf-ab73-6c0ba8058262"",""projectId"":""9596d7a2-d401-47b1-aedd-70105f5f2f42""}","https://test12345.live/?part=2&participantId=0A107DA056AD49E289FBA3922D72F56E&assignmentId=e3bb0a4f-7cbf-4dbf-ab73-6c0ba8058262&projectId=9596d7a2-d401-47b1-aedd-70105f5f2f42","0A107DA056AD49E289FBA3922D72F56E-2025-05-28-17-32-29","","1979","","[""<span style=\""color: red; font-size: 24px\""> NOW RECORDING</span><p>Please say out loud all the images you saw in part 1 of the experiment, in the exact order you saw them. Try to recall as many images as you can, but remember: getting the order right is more important than the number of images you recall. </p>""]","","5","flight_scheme"
"","","","","","instructions","37","231937","0.0-35.0","0A107DA056AD49E289FBA3922D72F56E","0A107DA056AD49E289FBA3922D72F56E","e3bb0a4f-7cbf-4dbf-ab73-6c0ba8058262","9596d7a2-d401-47b1-aedd-70105f5f2f42","{""part"":""2"",""participantId"":""0A107DA056AD49E289FBA3922D72F56E"",""assignmentId"":""e3bb0a4f-7cbf-4dbf-ab73-6c0ba8058262"",""projectId"":""9596d7a2-d401-47b1-aedd-70105f5f2f42""}","https://test12345.live/?part=2&participantId=0A107DA056AD49E289FBA3922D72F56E&assignmentId=e3bb0a4f-7cbf-4dbf-ab73-6c0ba8058262&projectId=9596d7a2-d401-47b1-aedd-70105f5f2f42","0A107DA056AD49E289FBA3922D72F56E-2025-05-28-17-32-29","[{""page_index"":0,""viewing_time"":3308}]","3308","","","","",""
"","","","","","image-button-response","38","237938","0.0-36.0-0.0","0A107DA056AD49E289FBA3922D72F56E","0A107DA056AD49E289FBA3922D72F56E","e3bb0a4f-7cbf-4dbf-ab73-6c0ba8058262","9596d7a2-d401-47b1-aedd-70105f5f2f42","{""part"":""2"",""participantId"":""0A107DA056AD49E289FBA3922D72F56E"",""assignmentId"":""e3bb0a4f-7cbf-4dbf-ab73-6c0ba8058262"",""projectId"":""9596d7a2-d401-47b1-aedd-70105f5f2f42""}","https://test12345.live/?part=2&participantId=0A107DA056AD49E289FBA3922D72F56E&assignmentId=e3bb0a4f-7cbf-4dbf-ab73-6c0ba8058262&projectId=9596d7a2-d401-47b1-aedd-70105f5f2f42","0A107DA056AD49E289FBA3922D72F56E-2025-05-28-17-32-29","","null","","images/semantic_sequence/cat_care_semantic/cat_care_semantic_0.png","null","",""
"","","","","","html-audio-response","39","245461","0.0-37.0","0A107DA056AD49E289FBA3922D72F56E","0A107DA056AD49E289FBA3922D72F56E","e3bb0a4f-7cbf-4dbf-ab73-6c0ba8058262","9596d7a2-d401-47b1-aedd-70105f5f2f42","{""part"":""2"",""participantId"":""0A107DA056AD49E289FBA3922D72F56E"",""assignmentId"":""e3bb0a4f-7cbf-4dbf-ab73-6c0ba8058262"",""projectId"":""9596d7a2-d401-47b1-aedd-70105f5f2f42""}","https://test12345.live/?part=2&participantId=0A107DA056AD49E289FBA3922D72F56E&assignmentId=e3bb0a4f-7cbf-4dbf-ab73-6c0ba8058262&projectId=9596d7a2-d401-47b1-aedd-70105f5f2f42","0A107DA056AD49E289FBA3922D72F56E-2025-05-28-17-32-29","","3134","","[""<span style=\""color: red; font-size: 24px\""> NOW RECORDING</span><p>Please say out loud all the images you saw in part 1 of the experiment, in the exact order you saw them. Try to recall as many images as you can, but remember: getting the order right is more important than the number of images you recall. </p>""]","","1","cat_care_semantic"
"","","","","","image-button-response","40","251469","0.0-38.0-0.0","0A107DA056AD49E289FBA3922D72F56E","0A107DA056AD49E289FBA3922D72F56E","e3bb0a4f-7cbf-4dbf-ab73-6c0ba8058262","9596d7a2-d401-47b1-aedd-70105f5f2f42","{""part"":""2"",""participantId"":""0A107DA056AD49E289FBA3922D72F56E"",""assignmentId"":""e3bb0a4f-7cbf-4dbf-ab73-6c0ba8058262"",""projectId"":""9596d7a2-d401-47b1-aedd-70105f5f2f42""}","https://test12345.live/?part=2&participantId=0A107DA056AD49E289FBA3922D72F56E&assignmentId=e3bb0a4f-7cbf-4dbf-ab73-6c0ba8058262&projectId=9596d7a2-d401-47b1-aedd-70105f5f2f42","0A107DA056AD49E289FBA3922D72F56E-2025-05-28-17-32-29","","null","","images/causal_sequence/saving_a_cat_causal/saving_a_cat_causal_0.png","null","",""
"","","","","","html-audio-response","41","258796","0.0-39.0","0A107DA056AD49E289FBA3922D72F56E","0A107DA056AD49E289FBA3922D72F56E","e3bb0a4f-7cbf-4dbf-ab73-6c0ba8058262","9596d7a2-d401-47b1-aedd-70105f5f2f42","{""part"":""2"",""participantId"":""0A107DA056AD49E289FBA3922D72F56E"",""assignmentId"":""e3bb0a4f-7cbf-4dbf-ab73-6c0ba8058262"",""projectId"":""9596d7a2-d401-47b1-aedd-70105f5f2f42""}","https://test12345.live/?part=2&participantId=0A107DA056AD49E289FBA3922D72F56E&assignmentId=e3bb0a4f-7cbf-4dbf-ab73-6c0ba8058262&projectId=9596d7a2-d401-47b1-aedd-70105f5f2f42","0A107DA056AD49E289FBA3922D72F56E-2025-05-28-17-32-29","","3624","","[""<span style=\""color: red; font-size: 24px\""> NOW RECORDING</span><p>Please say out loud all the images you saw in part 1 of the experiment, in the exact order you saw them. Try to recall as many images as you can, but remember: getting the order right is more important than the number of images you recall. </p>""]","","1","saving_a_cat_causal"
"","","","","","image-button-response","42","264801","0.0-40.0-0.0","0A107DA056AD49E289FBA3922D72F56E","0A107DA056AD49E289FBA3922D72F56E","e3bb0a4f-7cbf-4dbf-ab73-6c0ba8058262","9596d7a2-d401-47b1-aedd-70105f5f2f42","{""part"":""2"",""participantId"":""0A107DA056AD49E289FBA3922D72F56E"",""assignmentId"":""e3bb0a4f-7cbf-4dbf-ab73-6c0ba8058262"",""projectId"":""9596d7a2-d401-47b1-aedd-70105f5f2f42""}","https://test12345.live/?part=2&participantId=0A107DA056AD49E289FBA3922D72F56E&assignmentId=e3bb0a4f-7cbf-4dbf-ab73-6c0ba8058262&projectId=9596d7a2-d401-47b1-aedd-70105f5f2f42","0A107DA056AD49E289FBA3922D72F56E-2025-05-28-17-32-29","","null","","images/semantic_sequence/maintaining_a_car_semantic/maintaining_a_car_semantic_0.png","null","",""
"","","","","","html-audio-response","43","269730","0.0-41.0","0A107DA056AD49E289FBA3922D72F56E","0A107DA056AD49E289FBA3922D72F56E","e3bb0a4f-7cbf-4dbf-ab73-6c0ba8058262","9596d7a2-d401-47b1-aedd-70105f5f2f42","{""part"":""2"",""participantId"":""0A107DA056AD49E289FBA3922D72F56E"",""assignmentId"":""e3bb0a4f-7cbf-4dbf-ab73-6c0ba8058262"",""projectId"":""9596d7a2-d401-47b1-aedd-70105f5f2f42""}","https://test12345.live/?part=2&participantId=0A107DA056AD49E289FBA3922D72F56E&assignmentId=e3bb0a4f-7cbf-4dbf-ab73-6c0ba8058262&projectId=9596d7a2-d401-47b1-aedd-70105f5f2f42","0A107DA056AD49E289FBA3922D72F56E-2025-05-28-17-32-29","","2150","","[""<span style=\""color: red; font-size: 24px\""> NOW RECORDING</span><p>Please say out loud all the images you saw in part 1 of the experiment, in the exact order you saw them. Try to recall as many images as you can, but remember: getting the order right is more important than the number of images you recall. </p>""]","","1","maintaining_a_car_semantic"
"","","","","","image-button-response","44","275735","0.0-42.0-0.0","0A107DA056AD49E289FBA3922D72F56E","0A107DA056AD49E289FBA3922D72F56E","e3bb0a4f-7cbf-4dbf-ab73-6c0ba8058262","9596d7a2-d401-47b1-aedd-70105f5f2f42","{""part"":""2"",""participantId"":""0A107DA056AD49E289FBA3922D72F56E"",""assignmentId"":""e3bb0a4f-7cbf-4dbf-ab73-6c0ba8058262"",""projectId"":""9596d7a2-d401-47b1-aedd-70105f5f2f42""}","https://test12345.live/?part=2&participantId=0A107DA056AD49E289FBA3922D72F56E&assignmentId=e3bb0a4f-7cbf-4dbf-ab73-6c0ba8058262&projectId=9596d7a2-d401-47b1-aedd-70105f5f2f42","0A107DA056AD49E289FBA3922D72F56E-2025-05-28-17-32-29","","null","","images/semantic_sequence/kitchen_operations_semantic/kitchen_operations_semantic_0.png","null","",""
"","","","","","html-audio-response","45","280672","0.0-43.0","0A107DA056AD49E289FBA3922D72F56E","0A107DA056AD49E289FBA3922D72F56E","e3bb0a4f-7cbf-4dbf-ab73-6c0ba8058262","9596d7a2-d401-47b1-aedd-70105f5f2f42","{""part"":""2"",""participantId"":""0A107DA056AD49E289FBA3922D72F56E"",""assignmentId"":""e3bb0a4f-7cbf-4dbf-ab73-6c0ba8058262"",""projectId"":""9596d7a2-d401-47b1-aedd-70105f5f2f42""}","https://test12345.live/?part=2&participantId=0A107DA056AD49E289FBA3922D72F56E&assignmentId=e3bb0a4f-7cbf-4dbf-ab73-6c0ba8058262&projectId=9596d7a2-d401-47b1-aedd-70105f5f2f42","0A107DA056AD49E289FBA3922D72F56E-2025-05-28-17-32-29","","2614","","[""<span style=\""color: red; font-size: 24px\""> NOW RECORDING</span><p>Please say out loud all the images you saw in part 1 of the experiment, in the exact order you saw them. Try to recall as many images as you can, but remember: getting the order right is more important than the number of images you recall. </p>""]","","2","kitchen_operations_semantic"
"","","","","","image-button-response","46","286679","0.0-44.0-0.0","0A107DA056AD49E289FBA3922D72F56E","0A107DA056AD49E289FBA3922D72F56E","e3bb0a4f-7cbf-4dbf-ab73-6c0ba8058262","9596d7a2-d401-47b1-aedd-70105f5f2f42","{""part"":""2"",""participantId"":""0A107DA056AD49E289FBA3922D72F56E"",""assignmentId"":""e3bb0a4f-7cbf-4dbf-ab73-6c0ba8058262"",""projectId"":""9596d7a2-d401-47b1-aedd-70105f5f2f42""}","https://test12345.live/?part=2&participantId=0A107DA056AD49E289FBA3922D72F56E&assignmentId=e3bb0a4f-7cbf-4dbf-ab73-6c0ba8058262&projectId=9596d7a2-d401-47b1-aedd-70105f5f2f42","0A107DA056AD49E289FBA3922D72F56E-2025-05-28-17-32-29","","null","","images/semantic_sequence/exploring_nature_semantic/exploring_nature_semantic_0.png","null","",""
"","","","","","html-audio-response","47","291708","0.0-45.0","0A107DA056AD49E289FBA3922D72F56E","0A107DA056AD49E289FBA3922D72F56E","e3bb0a4f-7cbf-4dbf-ab73-6c0ba8058262","9596d7a2-d401-47b1-aedd-70105f5f2f42","{""part"":""2"",""participantId"":""0A107DA056AD49E289FBA3922D72F56E"",""assignmentId"":""e3bb0a4f-7cbf-4dbf-ab73-6c0ba8058262"",""projectId"":""9596d7a2-d401-47b1-aedd-70105f5f2f42""}","https://test12345.live/?part=2&participantId=0A107DA056AD49E289FBA3922D72F56E&assignmentId=e3bb0a4f-7cbf-4dbf-ab73-6c0ba8058262&projectId=9596d7a2-d401-47b1-aedd-70105f5f2f42","0A107DA056AD49E289FBA3922D72F56E-2025-05-28-17-32-29","","2295","","[""<span style=\""color: red; font-size: 24px\""> NOW RECORDING</span><p>Please say out loud all the images you saw in part 1 of the experiment, in the exact order you saw them. Try to recall as many images as you can, but remember: getting the order right is more important than the number of images you recall. </p>""]","","1","exploring_nature_semantic"
"","","","","","image-button-response","48","297713","0.0-46.0-0.0","0A107DA056AD49E289FBA3922D72F56E","0A107DA056AD49E289FBA3922D72F56E","e3bb0a4f-7cbf-4dbf-ab73-6c0ba8058262","9596d7a2-d401-47b1-aedd-70105f5f2f42","{""part"":""2"",""participantId"":""0A107DA056AD49E289FBA3922D72F56E"",""assignmentId"":""e3bb0a4f-7cbf-4dbf-ab73-6c0ba8058262"",""projectId"":""9596d7a2-d401-47b1-aedd-70105f5f2f42""}","https://test12345.live/?part=2&participantId=0A107DA056AD49E289FBA3922D72F56E&assignmentId=e3bb0a4f-7cbf-4dbf-ab73-6c0ba8058262&projectId=9596d7a2-d401-47b1-aedd-70105f5f2f42","0A107DA056AD49E289FBA3922D72F56E-2025-05-28-17-32-29","","null","","images/schematic_sequence/interview_scheme/interview_scheme_0.png","null","",""
"","","","","","html-audio-response","49","302909","0.0-47.0","0A107DA056AD49E289FBA3922D72F56E","0A107DA056AD49E289FBA3922D72F56E","e3bb0a4f-7cbf-4dbf-ab73-6c0ba8058262","9596d7a2-d401-47b1-aedd-70105f5f2f42","{""part"":""2"",""participantId"":""0A107DA056AD49E289FBA3922D72F56E"",""assignmentId"":""e3bb0a4f-7cbf-4dbf-ab73-6c0ba8058262"",""projectId"":""9596d7a2-d401-47b1-aedd-70105f5f2f42""}","https://test12345.live/?part=2&participantId=0A107DA056AD49E289FBA3922D72F56E&assignmentId=e3bb0a4f-7cbf-4dbf-ab73-6c0ba8058262&projectId=9596d7a2-d401-47b1-aedd-70105f5f2f42","0A107DA056AD49E289FBA3922D72F56E-2025-05-28-17-32-29","","2327","","[""<span style=\""color: red; font-size: 24px\""> NOW RECORDING</span><p>Please say out loud all the images you saw in part 1 of the experiment, in the exact order you saw them. Try to recall as many images as you can, but remember: getting the order right is more important than the number of images you recall. </p>""]","","1","interview_scheme"
"","","","","","image-button-response","50","308914","0.0-48.0-0.0","0A107DA056AD49E289FBA3922D72F56E","0A107DA056AD49E289FBA3922D72F56E","e3bb0a4f-7cbf-4dbf-ab73-6c0ba8058262","9596d7a2-d401-47b1-aedd-70105f5f2f42","{""part"":""2"",""participantId"":""0A107DA056AD49E289FBA3922D72F56E"",""assignmentId"":""e3bb0a4f-7cbf-4dbf-ab73-6c0ba8058262"",""projectId"":""9596d7a2-d401-47b1-aedd-70105f5f2f42""}","https://test12345.live/?part=2&participantId=0A107DA056AD49E289FBA3922D72F56E&assignmentId=e3bb0a4f-7cbf-4dbf-ab73-6c0ba8058262&projectId=9596d7a2-d401-47b1-aedd-70105f5f2f42","0A107DA056AD49E289FBA3922D72F56E-2025-05-28-17-32-29","","null","","images/semantic_sequence/creative_activities_semantic/creative_activities_semantic_0.png","null","",""
"","","","","","html-audio-response","51","313781","0.0-49.0","0A107DA056AD49E289FBA3922D72F56E","0A107DA056AD49E289FBA3922D72F56E","e3bb0a4f-7cbf-4dbf-ab73-6c0ba8058262","9596d7a2-d401-47b1-aedd-70105f5f2f42","{""part"":""2"",""participantId"":""0A107DA056AD49E289FBA3922D72F56E"",""assignmentId"":""e3bb0a4f-7cbf-4dbf-ab73-6c0ba8058262"",""projectId"":""9596d7a2-d401-47b1-aedd-70105f5f2f42""}","https://test12345.live/?part=2&participantId=0A107DA056AD49E289FBA3922D72F56E&assignmentId=e3bb0a4f-7cbf-4dbf-ab73-6c0ba8058262&projectId=9596d7a2-d401-47b1-aedd-70105f5f2f42","0A107DA056AD49E289FBA3922D72F56E-2025-05-28-17-32-29","","2213","","[""<span style=\""color: red; font-size: 24px\""> NOW RECORDING</span><p>Please say out loud all the images you saw in part 1 of the experiment, in the exact order you saw them. Try to recall as many images as you can, but remember: getting the order right is more important than the number of images you recall. </p>""]","","10","creative_activities_semantic"
"","","","","","image-button-response","52","319786","0.0-50.0-0.0","0A107DA056AD49E289FBA3922D72F56E","0A107DA056AD49E289FBA3922D72F56E","e3bb0a4f-7cbf-4dbf-ab73-6c0ba8058262","9596d7a2-d401-47b1-aedd-70105f5f2f42","{""part"":""2"",""participantId"":""0A107DA056AD49E289FBA3922D72F56E"",""assignmentId"":""e3bb0a4f-7cbf-4dbf-ab73-6c0ba8058262"",""projectId"":""9596d7a2-d401-47b1-aedd-70105f5f2f42""}","https://test12345.live/?part=2&participantId=0A107DA056AD49E289FBA3922D72F56E&assignmentId=e3bb0a4f-7cbf-4dbf-ab73-6c0ba8058262&projectId=9596d7a2-d401-47b1-aedd-70105f5f2f42","0A107DA056AD49E289FBA3922D72F56E-2025-05-28-17-32-29","","null","","images/schematic_sequence/hotel_scheme/hotel_scheme_0.png","null","",""
"","","","","","html-audio-response","53","325093","0.0-51.0","0A107DA056AD49E289FBA3922D72F56E","0A107DA056AD49E289FBA3922D72F56E","e3bb0a4f-7cbf-4dbf-ab73-6c0ba8058262","9596d7a2-d401-47b1-aedd-70105f5f2f42","{""part"":""2"",""participantId"":""0A107DA056AD49E289FBA3922D72F56E"",""assignmentId"":""e3bb0a4f-7cbf-4dbf-ab73-6c0ba8058262"",""projectId"":""9596d7a2-d401-47b1-aedd-70105f5f2f42""}","https://test12345.live/?part=2&participantId=0A107DA056AD49E289FBA3922D72F56E&assignmentId=e3bb0a4f-7cbf-4dbf-ab73-6c0ba8058262&projectId=9596d7a2-d401-47b1-aedd-70105f5f2f42","0A107DA056AD49E289FBA3922D72F56E-2025-05-28-17-32-29","","2400","","[""<span style=\""color: red; font-size: 24px\""> NOW RECORDING</span><p>Please say out loud all the images you saw in part 1 of the experiment, in the exact order you saw them. Try to recall as many images as you can, but remember: getting the order right is more important than the number of images you recall. </p>""]","","2","hotel_scheme"
"","","","","","image-button-response","54","331099","0.0-52.0-0.0","0A107DA056AD49E289FBA3922D72F56E","0A107DA056AD49E289FBA3922D72F56E","e3bb0a4f-7cbf-4dbf-ab73-6c0ba8058262","9596d7a2-d401-47b1-aedd-70105f5f2f42","{""part"":""2"",""participantId"":""0A107DA056AD49E289FBA3922D72F56E"",""assignmentId"":""e3bb0a4f-7cbf-4dbf-ab73-6c0ba8058262"",""projectId"":""9596d7a2-d401-47b1-aedd-70105f5f2f42""}","https://test12345.live/?part=2&participantId=0A107DA056AD49E289FBA3922D72F56E&assignmentId=e3bb0a4f-7cbf-4dbf-ab73-6c0ba8058262&projectId=9596d7a2-d401-47b1-aedd-70105f5f2f42","0A107DA056AD49E289FBA3922D72F56E-2025-05-28-17-32-29","","null","","images/semantic_sequence/market_semantic/market_semantic_0.png","null","",""
"","","","","","html-audio-response","55","335094","0.0-53.0","0A107DA056AD49E289FBA3922D72F56E","0A107DA056AD49E289FBA3922D72F56E","e3bb0a4f-7cbf-4dbf-ab73-6c0ba8058262","9596d7a2-d401-47b1-aedd-70105f5f2f42","{""part"":""2"",""participantId"":""0A107DA056AD49E289FBA3922D72F56E"",""assignmentId"":""e3bb0a4f-7cbf-4dbf-ab73-6c0ba8058262"",""projectId"":""9596d7a2-d401-47b1-aedd-70105f5f2f42""}","https://test12345.live/?part=2&participantId=0A107DA056AD49E289FBA3922D72F56E&assignmentId=e3bb0a4f-7cbf-4dbf-ab73-6c0ba8058262&projectId=9596d7a2-d401-47b1-aedd-70105f5f2f42","0A107DA056AD49E289FBA3922D72F56E-2025-05-28-17-32-29","","1691","","[""<span style=\""color: red; font-size: 24px\""> NOW RECORDING</span><p>Please say out loud all the images you saw in part 1 of the experiment, in the exact order you saw them. Try to recall as many images as you can, but remember: getting the order right is more important than the number of images you recall. </p>""]","","1","market_semantic"
"","","","","","image-button-response","56","341097","0.0-54.0-0.0","0A107DA056AD49E289FBA3922D72F56E","0A107DA056AD49E289FBA3922D72F56E","e3bb0a4f-7cbf-4dbf-ab73-6c0ba8058262","9596d7a2-d401-47b1-aedd-70105f5f2f42","{""part"":""2"",""participantId"":""0A107DA056AD49E289FBA3922D72F56E"",""assignmentId"":""e3bb0a4f-7cbf-4dbf-ab73-6c0ba8058262"",""projectId"":""9596d7a2-d401-47b1-aedd-70105f5f2f42""}","https://test12345.live/?part=2&participantId=0A107DA056AD49E289FBA3922D72F56E&assignmentId=e3bb0a4f-7cbf-4dbf-ab73-6c0ba8058262&projectId=9596d7a2-d401-47b1-aedd-70105f5f2f42","0A107DA056AD49E289FBA3922D72F56E-2025-05-28-17-32-29","","null","","images/causal_sequence/dog_causal/dog_causal_0.png","null","",""
"","","","","","html-audio-response","57","346284","0.0-55.0","0A107DA056AD49E289FBA3922D72F56E","0A107DA056AD49E289FBA3922D72F56E","e3bb0a4f-7cbf-4dbf-ab73-6c0ba8058262","9596d7a2-d401-47b1-aedd-70105f5f2f42","{""part"":""2"",""participantId"":""0A107DA056AD49E289FBA3922D72F56E"",""assignmentId"":""e3bb0a4f-7cbf-4dbf-ab73-6c0ba8058262"",""projectId"":""9596d7a2-d401-47b1-aedd-70105f5f2f42""}","https://test12345.live/?part=2&participantId=0A107DA056AD49E289FBA3922D72F56E&assignmentId=e3bb0a4f-7cbf-4dbf-ab73-6c0ba8058262&projectId=9596d7a2-d401-47b1-aedd-70105f5f2f42","0A107DA056AD49E289FBA3922D72F56E-2025-05-28-17-32-29","","2692","","[""<span style=\""color: red; font-size: 24px\""> NOW RECORDING</span><p>Please say out loud all the images you saw in part 1 of the experiment, in the exact order you saw them. Try to recall as many images as you can, but remember: getting the order right is more important than the number of images you recall. </p>""]","","1","dog_causal"
"","","","","","image-button-response","58","352294","0.0-56.0-0.0","0A107DA056AD49E289FBA3922D72F56E","0A107DA056AD49E289FBA3922D72F56E","e3bb0a4f-7cbf-4dbf-ab73-6c0ba8058262","9596d7a2-d401-47b1-aedd-70105f5f2f42","{""part"":""2"",""participantId"":""0A107DA056AD49E289FBA3922D72F56E"",""assignmentId"":""e3bb0a4f-7cbf-4dbf-ab73-6c0ba8058262"",""projectId"":""9596d7a2-d401-47b1-aedd-70105f5f2f42""}","https://test12345.live/?part=2&participantId=0A107DA056AD49E289FBA3922D72F56E&assignmentId=e3bb0a4f-7cbf-4dbf-ab73-6c0ba8058262&projectId=9596d7a2-d401-47b1-aedd-70105f5f2f42","0A107DA056AD49E289FBA3922D72F56E-2025-05-28-17-32-29","","null","","images/schematic_sequence/supermarket_scheme/supermarket_scheme_0.png","null","",""
"","","","","","html-audio-response","59","357490","0.0-57.0","0A107DA056AD49E289FBA3922D72F56E","0A107DA056AD49E289FBA3922D72F56E","e3bb0a4f-7cbf-4dbf-ab73-6c0ba8058262","9596d7a2-d401-47b1-aedd-70105f5f2f42","{""part"":""2"",""participantId"":""0A107DA056AD49E289FBA3922D72F56E"",""assignmentId"":""e3bb0a4f-7cbf-4dbf-ab73-6c0ba8058262"",""projectId"":""9596d7a2-d401-47b1-aedd-70105f5f2f42""}","https://test12345.live/?part=2&participantId=0A107DA056AD49E289FBA3922D72F56E&assignmentId=e3bb0a4f-7cbf-4dbf-ab73-6c0ba8058262&projectId=9596d7a2-d401-47b1-aedd-70105f5f2f42","0A107DA056AD49E289FBA3922D72F56E-2025-05-28-17-32-29","","1960","","[""<span style=\""color: red; font-size: 24px\""> NOW RECORDING</span><p>Please say out loud all the images you saw in part 1 of the experiment, in the exact order you saw them. Try to recall as many images as you can, but remember: getting the order right is more important than the number of images you recall. </p>""]","","1","supermarket_scheme"
"","","","","","survey-text","60","364891","0.0-58.0","0A107DA056AD49E289FBA3922D72F56E","0A107DA056AD49E289FBA3922D72F56E","e3bb0a4f-7cbf-4dbf-ab73-6c0ba8058262","9596d7a2-d401-47b1-aedd-70105f5f2f42","{""part"":""2"",""participantId"":""0A107DA056AD49E289FBA3922D72F56E"",""assignmentId"":""e3bb0a4f-7cbf-4dbf-ab73-6c0ba8058262"",""projectId"":""9596d7a2-d401-47b1-aedd-70105f5f2f42""}","https://test12345.live/?part=2&participantId=0A107DA056AD49E289FBA3922D72F56E&assignmentId=e3bb0a4f-7cbf-4dbf-ab73-6c0ba8058262&projectId=9596d7a2-d401-47b1-aedd-70105f5f2f42","0A107DA056AD49E289FBA3922D72F56E-2025-05-28-17-32-29","","7390","","","{""Q0"":""MALE"",""Q1"":""29""}","",""
"","","","","","instructions","61","369791","0.0-59.0","0A107DA056AD49E289FBA3922D72F56E","0A107DA056AD49E289FBA3922D72F56E","e3bb0a4f-7cbf-4dbf-ab73-6c0ba8058262","9596d7a2-d401-47b1-aedd-70105f5f2f42","{""part"":""2"",""participantId"":""0A107DA056AD49E289FBA3922D72F56E"",""assignmentId"":""e3bb0a4f-7cbf-4dbf-ab73-6c0ba8058262"",""projectId"":""9596d7a2-d401-47b1-aedd-70105f5f2f42""}","https://test12345.live/?part=2&participantId=0A107DA056AD49E289FBA3922D72F56E&assignmentId=e3bb0a4f-7cbf-4dbf-ab73-6c0ba8058262&projectId=9596d7a2-d401-47b1-aedd-70105f5f2f42","0A107DA056AD49E289FBA3922D72F56E-2025-05-28-17-32-29","[{""page_index"":0,""viewing_time"":4899}]","4900","","","","",""
"","","","","","survey-text","62","373732","0.0-60.0","0A107DA056AD49E289FBA3922D72F56E","0A107DA056AD49E289FBA3922D72F56E","e3bb0a4f-7cbf-4dbf-ab73-6c0ba8058262","9596d7a2-d401-47b1-aedd-70105f5f2f42","{""part"":""2"",""participantId"":""0A107DA056AD49E289FBA3922D72F56E"",""assignmentId"":""e3bb0a4f-7cbf-4dbf-ab73-6c0ba8058262"",""projectId"":""9596d7a2-d401-47b1-aedd-70105f5f2f42""}","https://test12345.live/?part=2&participantId=0A107DA056AD49E289FBA3922D72F56E&assignmentId=e3bb0a4f-7cbf-4dbf-ab73-6c0ba8058262&projectId=9596d7a2-d401-47b1-aedd-70105f5f2f42","0A107DA056AD49E289FBA3922D72F56E-2025-05-28-17-32-29","","3937","","","{""Q0"":""AJFHBG896""}","",""
