"success","timeout","failed_images","failed_audio","failed_video","trial_type","trial_index","time_elapsed","internal_node_id","subject","subject_id","study_id","session_id","urlvar","current_url","audio_id","view_history","rt","device_id","stimulus","response","estimated_stimulus_onset","seq_name"
"true","false","[]","[]","[]","preload","0","5981","0.0-0.0","0A5A94AF3B684EA295C8964456EBA17C","0A5A94AF3B684EA295C8964456EBA17C","0198c6c6-78a4-7046-9f28-b98c20c703e7","0198c3e5-90db-7030-b026-3fe33584d632","{""num_scrambled_semantic"":""8"",""num_scrambled_causal"":""4"",""num_scrambled_schematic"":""4"",""participantId"":""0A5A94AF3B684EA295C8964456EBA17C"",""assignmentId"":""0198c6c6-78a4-7046-9f28-b98c20c703e7"",""projectId"":""0198c3e5-90db-7030-b026-3fe33584d632""}","https://test12345.live/?num_scrambled_semantic=8&num_scrambled_causal=4&num_scrambled_schematic=4&participantId=0A5A94AF3B684EA295C8964456EBA17C&assignmentId=0198c6c6-78a4-7046-9f28-b98c20c703e7&projectId=0198c3e5-90db-7030-b026-3fe33584d632","0A5A94AF3B684EA295C8964456EBA17C-2025-08-20-09-27-40","","","","","","",""
"","","","","","instructions","1","29022","0.0-1.0","0A5A94AF3B684EA295C8964456EBA17C","0A5A94AF3B684EA295C8964456EBA17C","0198c6c6-78a4-7046-9f28-b98c20c703e7","0198c3e5-90db-7030-b026-3fe33584d632","{""num_scrambled_semantic"":""8"",""num_scrambled_causal"":""4"",""num_scrambled_schematic"":""4"",""participantId"":""0A5A94AF3B684EA295C8964456EBA17C"",""assignmentId"":""0198c6c6-78a4-7046-9f28-b98c20c703e7"",""projectId"":""0198c3e5-90db-7030-b026-3fe33584d632""}","https://test12345.live/?num_scrambled_semantic=8&num_scrambled_causal=4&num_scrambled_schematic=4&participantId=0A5A94AF3B684EA295C8964456EBA17C&assignmentId=0198c6c6-78a4-7046-9f28-b98c20c703e7&projectId=0198c3e5-90db-7030-b026-3fe33584d632","0A5A94AF3B684EA295C8964456EBA17C-2025-08-20-09-27-40","[{""page_index"":0,""viewing_time"":23040}]","23040","","","","",""
"","","","","","instructions","2","77111","0.0-2.0","0A5A94AF3B684EA295C8964456EBA17C","0A5A94AF3B684EA295C8964456EBA17C","0198c6c6-78a4-7046-9f28-b98c20c703e7","0198c3e5-90db-7030-b026-3fe33584d632","{""num_scrambled_semantic"":""8"",""num_scrambled_causal"":""4"",""num_scrambled_schematic"":""4"",""participantId"":""0A5A94AF3B684EA295C8964456EBA17C"",""assignmentId"":""0198c6c6-78a4-7046-9f28-b98c20c703e7"",""projectId"":""0198c3e5-90db-7030-b026-3fe33584d632""}","https://test12345.live/?num_scrambled_semantic=8&num_scrambled_causal=4&num_scrambled_schematic=4&participantId=0A5A94AF3B684EA295C8964456EBA17C&assignmentId=0198c6c6-78a4-7046-9f28-b98c20c703e7&projectId=0198c3e5-90db-7030-b026-3fe33584d632","0A5A94AF3B684EA295C8964456EBA17C-2025-08-20-09-27-40","[{""page_index"":0,""viewing_time"":48084}]","48084","","","","",""
"true","","","","","fullscreen","3","80410","0.0-3.0","0A5A94AF3B684EA295C8964456EBA17C","0A5A94AF3B684EA295C8964456EBA17C","0198c6c6-78a4-7046-9f28-b98c20c703e7","0198c3e5-90db-7030-b026-3fe33584d632","{""num_scrambled_semantic"":""8"",""num_scrambled_causal"":""4"",""num_scrambled_schematic"":""4"",""participantId"":""0A5A94AF3B684EA295C8964456EBA17C"",""assignmentId"":""0198c6c6-78a4-7046-9f28-b98c20c703e7"",""projectId"":""0198c3e5-90db-7030-b026-3fe33584d632""}","https://test12345.live/?num_scrambled_semantic=8&num_scrambled_causal=4&num_scrambled_schematic=4&participantId=0A5A94AF3B684EA295C8964456EBA17C&assignmentId=0198c6c6-78a4-7046-9f28-b98c20c703e7&projectId=0198c3e5-90db-7030-b026-3fe33584d632","0A5A94AF3B684EA295C8964456EBA17C-2025-08-20-09-27-40","","2285","","","","",""
"","","","","","initialize-microphone","4","87352","0.0-4.0-0.0","0A5A94AF3B684EA295C8964456EBA17C","0A5A94AF3B684EA295C8964456EBA17C","0198c6c6-78a4-7046-9f28-b98c20c703e7","0198c3e5-90db-7030-b026-3fe33584d632","{""num_scrambled_semantic"":""8"",""num_scrambled_causal"":""4"",""num_scrambled_schematic"":""4"",""participantId"":""0A5A94AF3B684EA295C8964456EBA17C"",""assignmentId"":""0198c6c6-78a4-7046-9f28-b98c20c703e7"",""projectId"":""0198c3e5-90db-7030-b026-3fe33584d632""}","https://test12345.live/?num_scrambled_semantic=8&num_scrambled_causal=4&num_scrambled_schematic=4&participantId=0A5A94AF3B684EA295C8964456EBA17C&assignmentId=0198c6c6-78a4-7046-9f28-b98c20c703e7&projectId=0198c3e5-90db-7030-b026-3fe33584d632","0A5A94AF3B684EA295C8964456EBA17C-2025-08-20-09-27-40","","","48d3b6dc6033dc135c42b169a04b4b83bbc286eaa6978c997ac18190d33a46e0","","","",""
"","","","","","html-audio-response","5","174420","0.0-4.0-1.0","0A5A94AF3B684EA295C8964456EBA17C","0A5A94AF3B684EA295C8964456EBA17C","0198c6c6-78a4-7046-9f28-b98c20c703e7","0198c3e5-90db-7030-b026-3fe33584d632","{""num_scrambled_semantic"":""8"",""num_scrambled_causal"":""4"",""num_scrambled_schematic"":""4"",""participantId"":""0A5A94AF3B684EA295C8964456EBA17C"",""assignmentId"":""0198c6c6-78a4-7046-9f28-b98c20c703e7"",""projectId"":""0198c3e5-90db-7030-b026-3fe33584d632""}","https://test12345.live/?num_scrambled_semantic=8&num_scrambled_causal=4&num_scrambled_schematic=4&participantId=0A5A94AF3B684EA295C8964456EBA17C&assignmentId=0198c6c6-78a4-7046-9f28-b98c20c703e7&projectId=0198c3e5-90db-7030-b026-3fe33584d632","0A5A94AF3B684EA295C8964456EBA17C-2025-08-20-09-27-40","","3028","","<span style=""color: red; font-size: 24px""> NOW RECORDING</span>
        <p>Please test Microphone</p>","","15",""
"","","","","","html-button-response","6","176581","0.0-4.0-2.0","0A5A94AF3B684EA295C8964456EBA17C","0A5A94AF3B684EA295C8964456EBA17C","0198c6c6-78a4-7046-9f28-b98c20c703e7","0198c3e5-90db-7030-b026-3fe33584d632","{""num_scrambled_semantic"":""8"",""num_scrambled_causal"":""4"",""num_scrambled_schematic"":""4"",""participantId"":""0A5A94AF3B684EA295C8964456EBA17C"",""assignmentId"":""0198c6c6-78a4-7046-9f28-b98c20c703e7"",""projectId"":""0198c3e5-90db-7030-b026-3fe33584d632""}","https://test12345.live/?num_scrambled_semantic=8&num_scrambled_causal=4&num_scrambled_schematic=4&participantId=0A5A94AF3B684EA295C8964456EBA17C&assignmentId=0198c6c6-78a4-7046-9f28-b98c20c703e7&projectId=0198c3e5-90db-7030-b026-3fe33584d632","0A5A94AF3B684EA295C8964456EBA17C-2025-08-20-09-27-40","","2159","","<p style=""font-size:48px; color:red;"">Is Microphone OK?</p>","1","",""
"","","","","","instructions","7","203499","0.0-5.0","0A5A94AF3B684EA295C8964456EBA17C","0A5A94AF3B684EA295C8964456EBA17C","0198c6c6-78a4-7046-9f28-b98c20c703e7","0198c3e5-90db-7030-b026-3fe33584d632","{""num_scrambled_semantic"":""8"",""num_scrambled_causal"":""4"",""num_scrambled_schematic"":""4"",""participantId"":""0A5A94AF3B684EA295C8964456EBA17C"",""assignmentId"":""0198c6c6-78a4-7046-9f28-b98c20c703e7"",""projectId"":""0198c3e5-90db-7030-b026-3fe33584d632""}","https://test12345.live/?num_scrambled_semantic=8&num_scrambled_causal=4&num_scrambled_schematic=4&participantId=0A5A94AF3B684EA295C8964456EBA17C&assignmentId=0198c6c6-78a4-7046-9f28-b98c20c703e7&projectId=0198c3e5-90db-7030-b026-3fe33584d632","0A5A94AF3B684EA295C8964456EBA17C-2025-08-20-09-27-40","[{""page_index"":0,""viewing_time"":1670},{""page_index"":1,""viewing_time"":14652},{""page_index"":2,""viewing_time"":10595}]","26917","","","","",""
"","","","","","image-button-response","8","209517","0.0-6.0-0.0","0A5A94AF3B684EA295C8964456EBA17C","0A5A94AF3B684EA295C8964456EBA17C","0198c6c6-78a4-7046-9f28-b98c20c703e7","0198c3e5-90db-7030-b026-3fe33584d632","{""num_scrambled_semantic"":""8"",""num_scrambled_causal"":""4"",""num_scrambled_schematic"":""4"",""participantId"":""0A5A94AF3B684EA295C8964456EBA17C"",""assignmentId"":""0198c6c6-78a4-7046-9f28-b98c20c703e7"",""projectId"":""0198c3e5-90db-7030-b026-3fe33584d632""}","https://test12345.live/?num_scrambled_semantic=8&num_scrambled_causal=4&num_scrambled_schematic=4&participantId=0A5A94AF3B684EA295C8964456EBA17C&assignmentId=0198c6c6-78a4-7046-9f28-b98c20c703e7&projectId=0198c3e5-90db-7030-b026-3fe33584d632","0A5A94AF3B684EA295C8964456EBA17C-2025-08-20-09-27-40","","null","","images/instructions/movie_0.png","null","",""
"","","","","","html-audio-response","9","217924","0.0-7.0","0A5A94AF3B684EA295C8964456EBA17C","0A5A94AF3B684EA295C8964456EBA17C","0198c6c6-78a4-7046-9f28-b98c20c703e7","0198c3e5-90db-7030-b026-3fe33584d632","{""num_scrambled_semantic"":""8"",""num_scrambled_causal"":""4"",""num_scrambled_schematic"":""4"",""participantId"":""0A5A94AF3B684EA295C8964456EBA17C"",""assignmentId"":""0198c6c6-78a4-7046-9f28-b98c20c703e7"",""projectId"":""0198c3e5-90db-7030-b026-3fe33584d632""}","https://test12345.live/?num_scrambled_semantic=8&num_scrambled_causal=4&num_scrambled_schematic=4&participantId=0A5A94AF3B684EA295C8964456EBA17C&assignmentId=0198c6c6-78a4-7046-9f28-b98c20c703e7&projectId=0198c3e5-90db-7030-b026-3fe33584d632","0A5A94AF3B684EA295C8964456EBA17C-2025-08-20-09-27-40","","3661","","[""<span style=\""color: red; font-size: 24px\""> NOW RECORDING</span><p>Please say out loud all the images you saw in part 1 of the experiment, as many as you can remember. The images can be said in any order.</p>""]","","2",""
"","","","","","instructions","10","363702","0.0-8.0","0A5A94AF3B684EA295C8964456EBA17C","0A5A94AF3B684EA295C8964456EBA17C","0198c6c6-78a4-7046-9f28-b98c20c703e7","0198c3e5-90db-7030-b026-3fe33584d632","{""num_scrambled_semantic"":""8"",""num_scrambled_causal"":""4"",""num_scrambled_schematic"":""4"",""participantId"":""0A5A94AF3B684EA295C8964456EBA17C"",""assignmentId"":""0198c6c6-78a4-7046-9f28-b98c20c703e7"",""projectId"":""0198c3e5-90db-7030-b026-3fe33584d632""}","https://test12345.live/?num_scrambled_semantic=8&num_scrambled_causal=4&num_scrambled_schematic=4&participantId=0A5A94AF3B684EA295C8964456EBA17C&assignmentId=0198c6c6-78a4-7046-9f28-b98c20c703e7&projectId=0198c3e5-90db-7030-b026-3fe33584d632","0A5A94AF3B684EA295C8964456EBA17C-2025-08-20-09-27-40","[{""page_index"":0,""viewing_time"":145774}]","145775","","","","",""
"","","","","","image-button-response","11","369704","0.0-9.0-0.0","0A5A94AF3B684EA295C8964456EBA17C","0A5A94AF3B684EA295C8964456EBA17C","0198c6c6-78a4-7046-9f28-b98c20c703e7","0198c3e5-90db-7030-b026-3fe33584d632","{""num_scrambled_semantic"":""8"",""num_scrambled_causal"":""4"",""num_scrambled_schematic"":""4"",""participantId"":""0A5A94AF3B684EA295C8964456EBA17C"",""assignmentId"":""0198c6c6-78a4-7046-9f28-b98c20c703e7"",""projectId"":""0198c3e5-90db-7030-b026-3fe33584d632""}","https://test12345.live/?num_scrambled_semantic=8&num_scrambled_causal=4&num_scrambled_schematic=4&participantId=0A5A94AF3B684EA295C8964456EBA17C&assignmentId=0198c6c6-78a4-7046-9f28-b98c20c703e7&projectId=0198c3e5-90db-7030-b026-3fe33584d632","0A5A94AF3B684EA295C8964456EBA17C-2025-08-20-09-27-40","","null","","images/causal_sequence/coin_causal/coin_causal_0.png","null","",""
"","","","","","html-audio-response","12","377617","0.0-10.0","0A5A94AF3B684EA295C8964456EBA17C","0A5A94AF3B684EA295C8964456EBA17C","0198c6c6-78a4-7046-9f28-b98c20c703e7","0198c3e5-90db-7030-b026-3fe33584d632","{""num_scrambled_semantic"":""8"",""num_scrambled_causal"":""4"",""num_scrambled_schematic"":""4"",""participantId"":""0A5A94AF3B684EA295C8964456EBA17C"",""assignmentId"":""0198c6c6-78a4-7046-9f28-b98c20c703e7"",""projectId"":""0198c3e5-90db-7030-b026-3fe33584d632""}","https://test12345.live/?num_scrambled_semantic=8&num_scrambled_causal=4&num_scrambled_schematic=4&participantId=0A5A94AF3B684EA295C8964456EBA17C&assignmentId=0198c6c6-78a4-7046-9f28-b98c20c703e7&projectId=0198c3e5-90db-7030-b026-3fe33584d632","0A5A94AF3B684EA295C8964456EBA17C-2025-08-20-09-27-40","","3220","","[""<span style=\""color: red; font-size: 24px\""> NOW RECORDING</span><p>Please say out loud all the images you saw, following the storyline they create. Try to recall the sequence of events as they unfolded in the story, rather than the order in which they appeared on the screen.</p>""]","","2","coin_causal"
"","","","","","image-button-response","13","383636","0.0-11.0-0.0","0A5A94AF3B684EA295C8964456EBA17C","0A5A94AF3B684EA295C8964456EBA17C","0198c6c6-78a4-7046-9f28-b98c20c703e7","0198c3e5-90db-7030-b026-3fe33584d632","{""num_scrambled_semantic"":""8"",""num_scrambled_causal"":""4"",""num_scrambled_schematic"":""4"",""participantId"":""0A5A94AF3B684EA295C8964456EBA17C"",""assignmentId"":""0198c6c6-78a4-7046-9f28-b98c20c703e7"",""projectId"":""0198c3e5-90db-7030-b026-3fe33584d632""}","https://test12345.live/?num_scrambled_semantic=8&num_scrambled_causal=4&num_scrambled_schematic=4&participantId=0A5A94AF3B684EA295C8964456EBA17C&assignmentId=0198c6c6-78a4-7046-9f28-b98c20c703e7&projectId=0198c3e5-90db-7030-b026-3fe33584d632","0A5A94AF3B684EA295C8964456EBA17C-2025-08-20-09-27-40","","null","","images/semantic_sequence/creative_activities_semantic/creative_activities_semantic_0.png","null","",""
"","","","","","html-audio-response","14","389895","0.0-12.0","0A5A94AF3B684EA295C8964456EBA17C","0A5A94AF3B684EA295C8964456EBA17C","0198c6c6-78a4-7046-9f28-b98c20c703e7","0198c3e5-90db-7030-b026-3fe33584d632","{""num_scrambled_semantic"":""8"",""num_scrambled_causal"":""4"",""num_scrambled_schematic"":""4"",""participantId"":""0A5A94AF3B684EA295C8964456EBA17C"",""assignmentId"":""0198c6c6-78a4-7046-9f28-b98c20c703e7"",""projectId"":""0198c3e5-90db-7030-b026-3fe33584d632""}","https://test12345.live/?num_scrambled_semantic=8&num_scrambled_causal=4&num_scrambled_schematic=4&participantId=0A5A94AF3B684EA295C8964456EBA17C&assignmentId=0198c6c6-78a4-7046-9f28-b98c20c703e7&projectId=0198c3e5-90db-7030-b026-3fe33584d632","0A5A94AF3B684EA295C8964456EBA17C-2025-08-20-09-27-40","","2840","","[""<span style=\""color: red; font-size: 24px\""> NOW RECORDING</span><p>Please say out loud all the images you saw, following the storyline they create. Try to recall the sequence of events as they unfolded in the story, rather than the order in which they appeared on the screen.</p>""]","","1","creative_activities_semantic"
"","","","","","image-button-response","15","395913","0.0-13.0-0.0","0A5A94AF3B684EA295C8964456EBA17C","0A5A94AF3B684EA295C8964456EBA17C","0198c6c6-78a4-7046-9f28-b98c20c703e7","0198c3e5-90db-7030-b026-3fe33584d632","{""num_scrambled_semantic"":""8"",""num_scrambled_causal"":""4"",""num_scrambled_schematic"":""4"",""participantId"":""0A5A94AF3B684EA295C8964456EBA17C"",""assignmentId"":""0198c6c6-78a4-7046-9f28-b98c20c703e7"",""projectId"":""0198c3e5-90db-7030-b026-3fe33584d632""}","https://test12345.live/?num_scrambled_semantic=8&num_scrambled_causal=4&num_scrambled_schematic=4&participantId=0A5A94AF3B684EA295C8964456EBA17C&assignmentId=0198c6c6-78a4-7046-9f28-b98c20c703e7&projectId=0198c3e5-90db-7030-b026-3fe33584d632","0A5A94AF3B684EA295C8964456EBA17C-2025-08-20-09-27-40","","null","","images/causal_sequence/the_performance_causal/the_performance_causal_0.png","null","",""
"","","","","","html-audio-response","16","401789","0.0-14.0","0A5A94AF3B684EA295C8964456EBA17C","0A5A94AF3B684EA295C8964456EBA17C","0198c6c6-78a4-7046-9f28-b98c20c703e7","0198c3e5-90db-7030-b026-3fe33584d632","{""num_scrambled_semantic"":""8"",""num_scrambled_causal"":""4"",""num_scrambled_schematic"":""4"",""participantId"":""0A5A94AF3B684EA295C8964456EBA17C"",""assignmentId"":""0198c6c6-78a4-7046-9f28-b98c20c703e7"",""projectId"":""0198c3e5-90db-7030-b026-3fe33584d632""}","https://test12345.live/?num_scrambled_semantic=8&num_scrambled_causal=4&num_scrambled_schematic=4&participantId=0A5A94AF3B684EA295C8964456EBA17C&assignmentId=0198c6c6-78a4-7046-9f28-b98c20c703e7&projectId=0198c3e5-90db-7030-b026-3fe33584d632","0A5A94AF3B684EA295C8964456EBA17C-2025-08-20-09-27-40","","2353","","[""<span style=\""color: red; font-size: 24px\""> NOW RECORDING</span><p>Please say out loud all the images you saw, following the storyline they create. Try to recall the sequence of events as they unfolded in the story, rather than the order in which they appeared on the screen.</p>""]","","1","the_performance_causal"
"","","","","","image-button-response","17","407799","0.0-15.0-0.0","0A5A94AF3B684EA295C8964456EBA17C","0A5A94AF3B684EA295C8964456EBA17C","0198c6c6-78a4-7046-9f28-b98c20c703e7","0198c3e5-90db-7030-b026-3fe33584d632","{""num_scrambled_semantic"":""8"",""num_scrambled_causal"":""4"",""num_scrambled_schematic"":""4"",""participantId"":""0A5A94AF3B684EA295C8964456EBA17C"",""assignmentId"":""0198c6c6-78a4-7046-9f28-b98c20c703e7"",""projectId"":""0198c3e5-90db-7030-b026-3fe33584d632""}","https://test12345.live/?num_scrambled_semantic=8&num_scrambled_causal=4&num_scrambled_schematic=4&participantId=0A5A94AF3B684EA295C8964456EBA17C&assignmentId=0198c6c6-78a4-7046-9f28-b98c20c703e7&projectId=0198c3e5-90db-7030-b026-3fe33584d632","0A5A94AF3B684EA295C8964456EBA17C-2025-08-20-09-27-40","","null","","images/semantic_sequence/cat_care_semantic/cat_care_semantic_0.png","null","",""
"","","","","","html-audio-response","18","413043","0.0-16.0","0A5A94AF3B684EA295C8964456EBA17C","0A5A94AF3B684EA295C8964456EBA17C","0198c6c6-78a4-7046-9f28-b98c20c703e7","0198c3e5-90db-7030-b026-3fe33584d632","{""num_scrambled_semantic"":""8"",""num_scrambled_causal"":""4"",""num_scrambled_schematic"":""4"",""participantId"":""0A5A94AF3B684EA295C8964456EBA17C"",""assignmentId"":""0198c6c6-78a4-7046-9f28-b98c20c703e7"",""projectId"":""0198c3e5-90db-7030-b026-3fe33584d632""}","https://test12345.live/?num_scrambled_semantic=8&num_scrambled_causal=4&num_scrambled_schematic=4&participantId=0A5A94AF3B684EA295C8964456EBA17C&assignmentId=0198c6c6-78a4-7046-9f28-b98c20c703e7&projectId=0198c3e5-90db-7030-b026-3fe33584d632","0A5A94AF3B684EA295C8964456EBA17C-2025-08-20-09-27-40","","2299","","[""<span style=\""color: red; font-size: 24px\""> NOW RECORDING</span><p>Please say out loud all the images you saw, following the storyline they create. Try to recall the sequence of events as they unfolded in the story, rather than the order in which they appeared on the screen.</p>""]","","2","cat_care_semantic"
"","","","","","image-button-response","19","419047","0.0-17.0-0.0","0A5A94AF3B684EA295C8964456EBA17C","0A5A94AF3B684EA295C8964456EBA17C","0198c6c6-78a4-7046-9f28-b98c20c703e7","0198c3e5-90db-7030-b026-3fe33584d632","{""num_scrambled_semantic"":""8"",""num_scrambled_causal"":""4"",""num_scrambled_schematic"":""4"",""participantId"":""0A5A94AF3B684EA295C8964456EBA17C"",""assignmentId"":""0198c6c6-78a4-7046-9f28-b98c20c703e7"",""projectId"":""0198c3e5-90db-7030-b026-3fe33584d632""}","https://test12345.live/?num_scrambled_semantic=8&num_scrambled_causal=4&num_scrambled_schematic=4&participantId=0A5A94AF3B684EA295C8964456EBA17C&assignmentId=0198c6c6-78a4-7046-9f28-b98c20c703e7&projectId=0198c3e5-90db-7030-b026-3fe33584d632","0A5A94AF3B684EA295C8964456EBA17C-2025-08-20-09-27-40","","null","","images/semantic_sequence/housework_semantic/housework_semantic_0.png","null","",""
"","","","","","html-audio-response","20","421670","0.0-18.0","0A5A94AF3B684EA295C8964456EBA17C","0A5A94AF3B684EA295C8964456EBA17C","0198c6c6-78a4-7046-9f28-b98c20c703e7","0198c3e5-90db-7030-b026-3fe33584d632","{""num_scrambled_semantic"":""8"",""num_scrambled_causal"":""4"",""num_scrambled_schematic"":""4"",""participantId"":""0A5A94AF3B684EA295C8964456EBA17C"",""assignmentId"":""0198c6c6-78a4-7046-9f28-b98c20c703e7"",""projectId"":""0198c3e5-90db-7030-b026-3fe33584d632""}","https://test12345.live/?num_scrambled_semantic=8&num_scrambled_causal=4&num_scrambled_schematic=4&participantId=0A5A94AF3B684EA295C8964456EBA17C&assignmentId=0198c6c6-78a4-7046-9f28-b98c20c703e7&projectId=0198c3e5-90db-7030-b026-3fe33584d632","0A5A94AF3B684EA295C8964456EBA17C-2025-08-20-09-27-40","","1969","","[""<span style=\""color: red; font-size: 24px\""> NOW RECORDING</span><p>Please say out loud all the images you saw, following the storyline they create. Try to recall the sequence of events as they unfolded in the story, rather than the order in which they appeared on the screen.</p>""]","","1","housework_semantic"
"","","","","","image-button-response","21","427678","0.0-19.0-0.0","0A5A94AF3B684EA295C8964456EBA17C","0A5A94AF3B684EA295C8964456EBA17C","0198c6c6-78a4-7046-9f28-b98c20c703e7","0198c3e5-90db-7030-b026-3fe33584d632","{""num_scrambled_semantic"":""8"",""num_scrambled_causal"":""4"",""num_scrambled_schematic"":""4"",""participantId"":""0A5A94AF3B684EA295C8964456EBA17C"",""assignmentId"":""0198c6c6-78a4-7046-9f28-b98c20c703e7"",""projectId"":""0198c3e5-90db-7030-b026-3fe33584d632""}","https://test12345.live/?num_scrambled_semantic=8&num_scrambled_causal=4&num_scrambled_schematic=4&participantId=0A5A94AF3B684EA295C8964456EBA17C&assignmentId=0198c6c6-78a4-7046-9f28-b98c20c703e7&projectId=0198c3e5-90db-7030-b026-3fe33584d632","0A5A94AF3B684EA295C8964456EBA17C-2025-08-20-09-27-40","","null","","images/causal_sequence/dog_causal/dog_causal_0.png","null","",""
"","","","","","html-audio-response","22","429841","0.0-20.0","0A5A94AF3B684EA295C8964456EBA17C","0A5A94AF3B684EA295C8964456EBA17C","0198c6c6-78a4-7046-9f28-b98c20c703e7","0198c3e5-90db-7030-b026-3fe33584d632","{""num_scrambled_semantic"":""8"",""num_scrambled_causal"":""4"",""num_scrambled_schematic"":""4"",""participantId"":""0A5A94AF3B684EA295C8964456EBA17C"",""assignmentId"":""0198c6c6-78a4-7046-9f28-b98c20c703e7"",""projectId"":""0198c3e5-90db-7030-b026-3fe33584d632""}","https://test12345.live/?num_scrambled_semantic=8&num_scrambled_causal=4&num_scrambled_schematic=4&participantId=0A5A94AF3B684EA295C8964456EBA17C&assignmentId=0198c6c6-78a4-7046-9f28-b98c20c703e7&projectId=0198c3e5-90db-7030-b026-3fe33584d632","0A5A94AF3B684EA295C8964456EBA17C-2025-08-20-09-27-40","","1799","","[""<span style=\""color: red; font-size: 24px\""> NOW RECORDING</span><p>Please say out loud all the images you saw, following the storyline they create. Try to recall the sequence of events as they unfolded in the story, rather than the order in which they appeared on the screen.</p>""]","","1","dog_causal"
"","","","","","image-button-response","23","435858","0.0-21.0-0.0","0A5A94AF3B684EA295C8964456EBA17C","0A5A94AF3B684EA295C8964456EBA17C","0198c6c6-78a4-7046-9f28-b98c20c703e7","0198c3e5-90db-7030-b026-3fe33584d632","{""num_scrambled_semantic"":""8"",""num_scrambled_causal"":""4"",""num_scrambled_schematic"":""4"",""participantId"":""0A5A94AF3B684EA295C8964456EBA17C"",""assignmentId"":""0198c6c6-78a4-7046-9f28-b98c20c703e7"",""projectId"":""0198c3e5-90db-7030-b026-3fe33584d632""}","https://test12345.live/?num_scrambled_semantic=8&num_scrambled_causal=4&num_scrambled_schematic=4&participantId=0A5A94AF3B684EA295C8964456EBA17C&assignmentId=0198c6c6-78a4-7046-9f28-b98c20c703e7&projectId=0198c3e5-90db-7030-b026-3fe33584d632","0A5A94AF3B684EA295C8964456EBA17C-2025-08-20-09-27-40","","null","","images/causal_sequence/museum_causal/museum_causal_0.png","null","",""
"","","","","","html-audio-response","24","441529","0.0-22.0","0A5A94AF3B684EA295C8964456EBA17C","0A5A94AF3B684EA295C8964456EBA17C","0198c6c6-78a4-7046-9f28-b98c20c703e7","0198c3e5-90db-7030-b026-3fe33584d632","{""num_scrambled_semantic"":""8"",""num_scrambled_causal"":""4"",""num_scrambled_schematic"":""4"",""participantId"":""0A5A94AF3B684EA295C8964456EBA17C"",""assignmentId"":""0198c6c6-78a4-7046-9f28-b98c20c703e7"",""projectId"":""0198c3e5-90db-7030-b026-3fe33584d632""}","https://test12345.live/?num_scrambled_semantic=8&num_scrambled_causal=4&num_scrambled_schematic=4&participantId=0A5A94AF3B684EA295C8964456EBA17C&assignmentId=0198c6c6-78a4-7046-9f28-b98c20c703e7&projectId=0198c3e5-90db-7030-b026-3fe33584d632","0A5A94AF3B684EA295C8964456EBA17C-2025-08-20-09-27-40","","1886","","[""<span style=\""color: red; font-size: 24px\""> NOW RECORDING</span><p>Please say out loud all the images you saw, following the storyline they create. Try to recall the sequence of events as they unfolded in the story, rather than the order in which they appeared on the screen.</p>""]","","7","museum_causal"
"","","","","","image-button-response","25","447534","0.0-23.0-0.0","0A5A94AF3B684EA295C8964456EBA17C","0A5A94AF3B684EA295C8964456EBA17C","0198c6c6-78a4-7046-9f28-b98c20c703e7","0198c3e5-90db-7030-b026-3fe33584d632","{""num_scrambled_semantic"":""8"",""num_scrambled_causal"":""4"",""num_scrambled_schematic"":""4"",""participantId"":""0A5A94AF3B684EA295C8964456EBA17C"",""assignmentId"":""0198c6c6-78a4-7046-9f28-b98c20c703e7"",""projectId"":""0198c3e5-90db-7030-b026-3fe33584d632""}","https://test12345.live/?num_scrambled_semantic=8&num_scrambled_causal=4&num_scrambled_schematic=4&participantId=0A5A94AF3B684EA295C8964456EBA17C&assignmentId=0198c6c6-78a4-7046-9f28-b98c20c703e7&projectId=0198c3e5-90db-7030-b026-3fe33584d632","0A5A94AF3B684EA295C8964456EBA17C-2025-08-20-09-27-40","","null","","images/semantic_sequence/using_technology_semantic/using_technology_semantic_0.png","null","",""
"","","","","","html-audio-response","26","452868","0.0-24.0","0A5A94AF3B684EA295C8964456EBA17C","0A5A94AF3B684EA295C8964456EBA17C","0198c6c6-78a4-7046-9f28-b98c20c703e7","0198c3e5-90db-7030-b026-3fe33584d632","{""num_scrambled_semantic"":""8"",""num_scrambled_causal"":""4"",""num_scrambled_schematic"":""4"",""participantId"":""0A5A94AF3B684EA295C8964456EBA17C"",""assignmentId"":""0198c6c6-78a4-7046-9f28-b98c20c703e7"",""projectId"":""0198c3e5-90db-7030-b026-3fe33584d632""}","https://test12345.live/?num_scrambled_semantic=8&num_scrambled_causal=4&num_scrambled_schematic=4&participantId=0A5A94AF3B684EA295C8964456EBA17C&assignmentId=0198c6c6-78a4-7046-9f28-b98c20c703e7&projectId=0198c3e5-90db-7030-b026-3fe33584d632","0A5A94AF3B684EA295C8964456EBA17C-2025-08-20-09-27-40","","2102","","[""<span style=\""color: red; font-size: 24px\""> NOW RECORDING</span><p>Please say out loud all the images you saw, following the storyline they create. Try to recall the sequence of events as they unfolded in the story, rather than the order in which they appeared on the screen.</p>""]","","1","using_technology_semantic"
"","","","","","image-button-response","27","458881","0.0-25.0-0.0","0A5A94AF3B684EA295C8964456EBA17C","0A5A94AF3B684EA295C8964456EBA17C","0198c6c6-78a4-7046-9f28-b98c20c703e7","0198c3e5-90db-7030-b026-3fe33584d632","{""num_scrambled_semantic"":""8"",""num_scrambled_causal"":""4"",""num_scrambled_schematic"":""4"",""participantId"":""0A5A94AF3B684EA295C8964456EBA17C"",""assignmentId"":""0198c6c6-78a4-7046-9f28-b98c20c703e7"",""projectId"":""0198c3e5-90db-7030-b026-3fe33584d632""}","https://test12345.live/?num_scrambled_semantic=8&num_scrambled_causal=4&num_scrambled_schematic=4&participantId=0A5A94AF3B684EA295C8964456EBA17C&assignmentId=0198c6c6-78a4-7046-9f28-b98c20c703e7&projectId=0198c3e5-90db-7030-b026-3fe33584d632","0A5A94AF3B684EA295C8964456EBA17C-2025-08-20-09-27-40","","null","","images/causal_sequence/saving_a_cat_causal/saving_a_cat_causal_0.png","null","",""
"","","","","","html-audio-response","28","461845","0.0-26.0","0A5A94AF3B684EA295C8964456EBA17C","0A5A94AF3B684EA295C8964456EBA17C","0198c6c6-78a4-7046-9f28-b98c20c703e7","0198c3e5-90db-7030-b026-3fe33584d632","{""num_scrambled_semantic"":""8"",""num_scrambled_causal"":""4"",""num_scrambled_schematic"":""4"",""participantId"":""0A5A94AF3B684EA295C8964456EBA17C"",""assignmentId"":""0198c6c6-78a4-7046-9f28-b98c20c703e7"",""projectId"":""0198c3e5-90db-7030-b026-3fe33584d632""}","https://test12345.live/?num_scrambled_semantic=8&num_scrambled_causal=4&num_scrambled_schematic=4&participantId=0A5A94AF3B684EA295C8964456EBA17C&assignmentId=0198c6c6-78a4-7046-9f28-b98c20c703e7&projectId=0198c3e5-90db-7030-b026-3fe33584d632","0A5A94AF3B684EA295C8964456EBA17C-2025-08-20-09-27-40","","2082","","[""<span style=\""color: red; font-size: 24px\""> NOW RECORDING</span><p>Please say out loud all the images you saw, following the storyline they create. Try to recall the sequence of events as they unfolded in the story, rather than the order in which they appeared on the screen.</p>""]","","1","saving_a_cat_causal"
"","","","","","image-button-response","29","467852","0.0-27.0-0.0","0A5A94AF3B684EA295C8964456EBA17C","0A5A94AF3B684EA295C8964456EBA17C","0198c6c6-78a4-7046-9f28-b98c20c703e7","0198c3e5-90db-7030-b026-3fe33584d632","{""num_scrambled_semantic"":""8"",""num_scrambled_causal"":""4"",""num_scrambled_schematic"":""4"",""participantId"":""0A5A94AF3B684EA295C8964456EBA17C"",""assignmentId"":""0198c6c6-78a4-7046-9f28-b98c20c703e7"",""projectId"":""0198c3e5-90db-7030-b026-3fe33584d632""}","https://test12345.live/?num_scrambled_semantic=8&num_scrambled_causal=4&num_scrambled_schematic=4&participantId=0A5A94AF3B684EA295C8964456EBA17C&assignmentId=0198c6c6-78a4-7046-9f28-b98c20c703e7&projectId=0198c3e5-90db-7030-b026-3fe33584d632","0A5A94AF3B684EA295C8964456EBA17C-2025-08-20-09-27-40","","null","","images/semantic_sequence/redecorating_semantic/redecorating_semantic_0.png","null","",""
"","","","","","html-audio-response","30","470488","0.0-28.0","0A5A94AF3B684EA295C8964456EBA17C","0A5A94AF3B684EA295C8964456EBA17C","0198c6c6-78a4-7046-9f28-b98c20c703e7","0198c3e5-90db-7030-b026-3fe33584d632","{""num_scrambled_semantic"":""8"",""num_scrambled_causal"":""4"",""num_scrambled_schematic"":""4"",""participantId"":""0A5A94AF3B684EA295C8964456EBA17C"",""assignmentId"":""0198c6c6-78a4-7046-9f28-b98c20c703e7"",""projectId"":""0198c3e5-90db-7030-b026-3fe33584d632""}","https://test12345.live/?num_scrambled_semantic=8&num_scrambled_causal=4&num_scrambled_schematic=4&participantId=0A5A94AF3B684EA295C8964456EBA17C&assignmentId=0198c6c6-78a4-7046-9f28-b98c20c703e7&projectId=0198c3e5-90db-7030-b026-3fe33584d632","0A5A94AF3B684EA295C8964456EBA17C-2025-08-20-09-27-40","","1962","","[""<span style=\""color: red; font-size: 24px\""> NOW RECORDING</span><p>Please say out loud all the images you saw, following the storyline they create. Try to recall the sequence of events as they unfolded in the story, rather than the order in which they appeared on the screen.</p>""]","","1","redecorating_semantic"
"","","","","","image-button-response","31","476500","0.0-29.0-0.0","0A5A94AF3B684EA295C8964456EBA17C","0A5A94AF3B684EA295C8964456EBA17C","0198c6c6-78a4-7046-9f28-b98c20c703e7","0198c3e5-90db-7030-b026-3fe33584d632","{""num_scrambled_semantic"":""8"",""num_scrambled_causal"":""4"",""num_scrambled_schematic"":""4"",""participantId"":""0A5A94AF3B684EA295C8964456EBA17C"",""assignmentId"":""0198c6c6-78a4-7046-9f28-b98c20c703e7"",""projectId"":""0198c3e5-90db-7030-b026-3fe33584d632""}","https://test12345.live/?num_scrambled_semantic=8&num_scrambled_causal=4&num_scrambled_schematic=4&participantId=0A5A94AF3B684EA295C8964456EBA17C&assignmentId=0198c6c6-78a4-7046-9f28-b98c20c703e7&projectId=0198c3e5-90db-7030-b026-3fe33584d632","0A5A94AF3B684EA295C8964456EBA17C-2025-08-20-09-27-40","","null","","images/semantic_sequence/physical_activity_semantic/physical_activity_semantic_0.png","null","",""
"","","","","","html-audio-response","32","480055","0.0-30.0","0A5A94AF3B684EA295C8964456EBA17C","0A5A94AF3B684EA295C8964456EBA17C","0198c6c6-78a4-7046-9f28-b98c20c703e7","0198c3e5-90db-7030-b026-3fe33584d632","{""num_scrambled_semantic"":""8"",""num_scrambled_causal"":""4"",""num_scrambled_schematic"":""4"",""participantId"":""0A5A94AF3B684EA295C8964456EBA17C"",""assignmentId"":""0198c6c6-78a4-7046-9f28-b98c20c703e7"",""projectId"":""0198c3e5-90db-7030-b026-3fe33584d632""}","https://test12345.live/?num_scrambled_semantic=8&num_scrambled_causal=4&num_scrambled_schematic=4&participantId=0A5A94AF3B684EA295C8964456EBA17C&assignmentId=0198c6c6-78a4-7046-9f28-b98c20c703e7&projectId=0198c3e5-90db-7030-b026-3fe33584d632","0A5A94AF3B684EA295C8964456EBA17C-2025-08-20-09-27-40","","2948","","[""<span style=\""color: red; font-size: 24px\""> NOW RECORDING</span><p>Please say out loud all the images you saw, following the storyline they create. Try to recall the sequence of events as they unfolded in the story, rather than the order in which they appeared on the screen.</p>""]","","1","physical_activity_semantic"
"","","","","","image-button-response","33","486069","0.0-31.0-0.0","0A5A94AF3B684EA295C8964456EBA17C","0A5A94AF3B684EA295C8964456EBA17C","0198c6c6-78a4-7046-9f28-b98c20c703e7","0198c3e5-90db-7030-b026-3fe33584d632","{""num_scrambled_semantic"":""8"",""num_scrambled_causal"":""4"",""num_scrambled_schematic"":""4"",""participantId"":""0A5A94AF3B684EA295C8964456EBA17C"",""assignmentId"":""0198c6c6-78a4-7046-9f28-b98c20c703e7"",""projectId"":""0198c3e5-90db-7030-b026-3fe33584d632""}","https://test12345.live/?num_scrambled_semantic=8&num_scrambled_causal=4&num_scrambled_schematic=4&participantId=0A5A94AF3B684EA295C8964456EBA17C&assignmentId=0198c6c6-78a4-7046-9f28-b98c20c703e7&projectId=0198c3e5-90db-7030-b026-3fe33584d632","0A5A94AF3B684EA295C8964456EBA17C-2025-08-20-09-27-40","","null","","images/semantic_sequence/maintaining_a_car_semantic/maintaining_a_car_semantic_0.png","null","",""
"","","","","","html-audio-response","34","488407","0.0-32.0","0A5A94AF3B684EA295C8964456EBA17C","0A5A94AF3B684EA295C8964456EBA17C","0198c6c6-78a4-7046-9f28-b98c20c703e7","0198c3e5-90db-7030-b026-3fe33584d632","{""num_scrambled_semantic"":""8"",""num_scrambled_causal"":""4"",""num_scrambled_schematic"":""4"",""participantId"":""0A5A94AF3B684EA295C8964456EBA17C"",""assignmentId"":""0198c6c6-78a4-7046-9f28-b98c20c703e7"",""projectId"":""0198c3e5-90db-7030-b026-3fe33584d632""}","https://test12345.live/?num_scrambled_semantic=8&num_scrambled_causal=4&num_scrambled_schematic=4&participantId=0A5A94AF3B684EA295C8964456EBA17C&assignmentId=0198c6c6-78a4-7046-9f28-b98c20c703e7&projectId=0198c3e5-90db-7030-b026-3fe33584d632","0A5A94AF3B684EA295C8964456EBA17C-2025-08-20-09-27-40","","1687","","[""<span style=\""color: red; font-size: 24px\""> NOW RECORDING</span><p>Please say out loud all the images you saw, following the storyline they create. Try to recall the sequence of events as they unfolded in the story, rather than the order in which they appeared on the screen.</p>""]","","1","maintaining_a_car_semantic"
"","","","","","image-button-response","35","494411","0.0-33.0-0.0","0A5A94AF3B684EA295C8964456EBA17C","0A5A94AF3B684EA295C8964456EBA17C","0198c6c6-78a4-7046-9f28-b98c20c703e7","0198c3e5-90db-7030-b026-3fe33584d632","{""num_scrambled_semantic"":""8"",""num_scrambled_causal"":""4"",""num_scrambled_schematic"":""4"",""participantId"":""0A5A94AF3B684EA295C8964456EBA17C"",""assignmentId"":""0198c6c6-78a4-7046-9f28-b98c20c703e7"",""projectId"":""0198c3e5-90db-7030-b026-3fe33584d632""}","https://test12345.live/?num_scrambled_semantic=8&num_scrambled_causal=4&num_scrambled_schematic=4&participantId=0A5A94AF3B684EA295C8964456EBA17C&assignmentId=0198c6c6-78a4-7046-9f28-b98c20c703e7&projectId=0198c3e5-90db-7030-b026-3fe33584d632","0A5A94AF3B684EA295C8964456EBA17C-2025-08-20-09-27-40","","null","","images/causal_sequence/package_causal/package_causal_0.png","null","",""
"","","","","","html-audio-response","36","497258","0.0-34.0","0A5A94AF3B684EA295C8964456EBA17C","0A5A94AF3B684EA295C8964456EBA17C","0198c6c6-78a4-7046-9f28-b98c20c703e7","0198c3e5-90db-7030-b026-3fe33584d632","{""num_scrambled_semantic"":""8"",""num_scrambled_causal"":""4"",""num_scrambled_schematic"":""4"",""participantId"":""0A5A94AF3B684EA295C8964456EBA17C"",""assignmentId"":""0198c6c6-78a4-7046-9f28-b98c20c703e7"",""projectId"":""0198c3e5-90db-7030-b026-3fe33584d632""}","https://test12345.live/?num_scrambled_semantic=8&num_scrambled_causal=4&num_scrambled_schematic=4&participantId=0A5A94AF3B684EA295C8964456EBA17C&assignmentId=0198c6c6-78a4-7046-9f28-b98c20c703e7&projectId=0198c3e5-90db-7030-b026-3fe33584d632","0A5A94AF3B684EA295C8964456EBA17C-2025-08-20-09-27-40","","1528","","[""<span style=\""color: red; font-size: 24px\""> NOW RECORDING</span><p>Please say out loud all the images you saw, following the storyline they create. Try to recall the sequence of events as they unfolded in the story, rather than the order in which they appeared on the screen.</p>""]","","1","package_causal"
"","","","","","survey-text","37","503745","0.0-35.0","0A5A94AF3B684EA295C8964456EBA17C","0A5A94AF3B684EA295C8964456EBA17C","0198c6c6-78a4-7046-9f28-b98c20c703e7","0198c3e5-90db-7030-b026-3fe33584d632","{""num_scrambled_semantic"":""8"",""num_scrambled_causal"":""4"",""num_scrambled_schematic"":""4"",""participantId"":""0A5A94AF3B684EA295C8964456EBA17C"",""assignmentId"":""0198c6c6-78a4-7046-9f28-b98c20c703e7"",""projectId"":""0198c3e5-90db-7030-b026-3fe33584d632""}","https://test12345.live/?num_scrambled_semantic=8&num_scrambled_causal=4&num_scrambled_schematic=4&participantId=0A5A94AF3B684EA295C8964456EBA17C&assignmentId=0198c6c6-78a4-7046-9f28-b98c20c703e7&projectId=0198c3e5-90db-7030-b026-3fe33584d632","0A5A94AF3B684EA295C8964456EBA17C-2025-08-20-09-27-40","","6480","","","{""Q0"":""male"",""Q1"":""29""}","",""
"","","","","","instructions","38","508023","0.0-36.0","0A5A94AF3B684EA295C8964456EBA17C","0A5A94AF3B684EA295C8964456EBA17C","0198c6c6-78a4-7046-9f28-b98c20c703e7","0198c3e5-90db-7030-b026-3fe33584d632","{""num_scrambled_semantic"":""8"",""num_scrambled_causal"":""4"",""num_scrambled_schematic"":""4"",""participantId"":""0A5A94AF3B684EA295C8964456EBA17C"",""assignmentId"":""0198c6c6-78a4-7046-9f28-b98c20c703e7"",""projectId"":""0198c3e5-90db-7030-b026-3fe33584d632""}","https://test12345.live/?num_scrambled_semantic=8&num_scrambled_causal=4&num_scrambled_schematic=4&participantId=0A5A94AF3B684EA295C8964456EBA17C&assignmentId=0198c6c6-78a4-7046-9f28-b98c20c703e7&projectId=0198c3e5-90db-7030-b026-3fe33584d632","0A5A94AF3B684EA295C8964456EBA17C-2025-08-20-09-27-40","[{""page_index"":0,""viewing_time"":4277}]","4277","","","","",""
"","","","","","survey-text","39","511404","0.0-37.0","0A5A94AF3B684EA295C8964456EBA17C","0A5A94AF3B684EA295C8964456EBA17C","0198c6c6-78a4-7046-9f28-b98c20c703e7","0198c3e5-90db-7030-b026-3fe33584d632","{""num_scrambled_semantic"":""8"",""num_scrambled_causal"":""4"",""num_scrambled_schematic"":""4"",""participantId"":""0A5A94AF3B684EA295C8964456EBA17C"",""assignmentId"":""0198c6c6-78a4-7046-9f28-b98c20c703e7"",""projectId"":""0198c3e5-90db-7030-b026-3fe33584d632""}","https://test12345.live/?num_scrambled_semantic=8&num_scrambled_causal=4&num_scrambled_schematic=4&participantId=0A5A94AF3B684EA295C8964456EBA17C&assignmentId=0198c6c6-78a4-7046-9f28-b98c20c703e7&projectId=0198c3e5-90db-7030-b026-3fe33584d632","0A5A94AF3B684EA295C8964456EBA17C-2025-08-20-09-27-40","","3380","","","{""Q0"":""AJFHBG896""}","",""
