"success","timeout","failed_images","failed_audio","failed_video","trial_type","trial_index","time_elapsed","internal_node_id","subject","subject_id","study_id","session_id","urlvar","current_url","audio_id","view_history","rt","device_id","stimulus","response","estimated_stimulus_onset","seq_name"
"true","false","[]","[]","[]","preload","0","3852","0.0-0.0","1821F336D9EA49FE815252461275C2D2","1821F336D9EA49FE815252461275C2D2","30aa87c8-c083-48d0-8e85-6974edf2d91b","e9cc2542-c7dc-4d8f-b94f-d088ad8989d1","{""part"":""2"",""participantId"":""1821F336D9EA49FE815252461275C2D2"",""assignmentId"":""30aa87c8-c083-48d0-8e85-6974edf2d91b"",""projectId"":""e9cc2542-c7dc-4d8f-b94f-d088ad8989d1""}","https://test12345.live/?part=2&participantId=1821F336D9EA49FE815252461275C2D2&assignmentId=30aa87c8-c083-48d0-8e85-6974edf2d91b&projectId=e9cc2542-c7dc-4d8f-b94f-d088ad8989d1","1821F336D9EA49FE815252461275C2D2-2025-05-16-18-47-46","","","","","","",""
"","","","","","instructions","1","13480","0.0-1.0","1821F336D9EA49FE815252461275C2D2","1821F336D9EA49FE815252461275C2D2","30aa87c8-c083-48d0-8e85-6974edf2d91b","e9cc2542-c7dc-4d8f-b94f-d088ad8989d1","{""part"":""2"",""participantId"":""1821F336D9EA49FE815252461275C2D2"",""assignmentId"":""30aa87c8-c083-48d0-8e85-6974edf2d91b"",""projectId"":""e9cc2542-c7dc-4d8f-b94f-d088ad8989d1""}","https://test12345.live/?part=2&participantId=1821F336D9EA49FE815252461275C2D2&assignmentId=30aa87c8-c083-48d0-8e85-6974edf2d91b&projectId=e9cc2542-c7dc-4d8f-b94f-d088ad8989d1","1821F336D9EA49FE815252461275C2D2-2025-05-16-18-47-46","[{""page_index"":0,""viewing_time"":9625}]","9626","","","","",""
"","","","","","instructions","2","20779","0.0-2.0","1821F336D9EA49FE815252461275C2D2","1821F336D9EA49FE815252461275C2D2","30aa87c8-c083-48d0-8e85-6974edf2d91b","e9cc2542-c7dc-4d8f-b94f-d088ad8989d1","{""part"":""2"",""participantId"":""1821F336D9EA49FE815252461275C2D2"",""assignmentId"":""30aa87c8-c083-48d0-8e85-6974edf2d91b"",""projectId"":""e9cc2542-c7dc-4d8f-b94f-d088ad8989d1""}","https://test12345.live/?part=2&participantId=1821F336D9EA49FE815252461275C2D2&assignmentId=30aa87c8-c083-48d0-8e85-6974edf2d91b&projectId=e9cc2542-c7dc-4d8f-b94f-d088ad8989d1","1821F336D9EA49FE815252461275C2D2-2025-05-16-18-47-46","[{""page_index"":0,""viewing_time"":7298}]","7299","","","","",""
"true","","","","","fullscreen","3","23164","0.0-3.0","1821F336D9EA49FE815252461275C2D2","1821F336D9EA49FE815252461275C2D2","30aa87c8-c083-48d0-8e85-6974edf2d91b","e9cc2542-c7dc-4d8f-b94f-d088ad8989d1","{""part"":""2"",""participantId"":""1821F336D9EA49FE815252461275C2D2"",""assignmentId"":""30aa87c8-c083-48d0-8e85-6974edf2d91b"",""projectId"":""e9cc2542-c7dc-4d8f-b94f-d088ad8989d1""}","https://test12345.live/?part=2&participantId=1821F336D9EA49FE815252461275C2D2&assignmentId=30aa87c8-c083-48d0-8e85-6974edf2d91b&projectId=e9cc2542-c7dc-4d8f-b94f-d088ad8989d1","1821F336D9EA49FE815252461275C2D2-2025-05-16-18-47-46","","1381","","","","",""
"","","","","","initialize-microphone","4","33045","0.0-4.0-0.0","1821F336D9EA49FE815252461275C2D2","1821F336D9EA49FE815252461275C2D2","30aa87c8-c083-48d0-8e85-6974edf2d91b","e9cc2542-c7dc-4d8f-b94f-d088ad8989d1","{""part"":""2"",""participantId"":""1821F336D9EA49FE815252461275C2D2"",""assignmentId"":""30aa87c8-c083-48d0-8e85-6974edf2d91b"",""projectId"":""e9cc2542-c7dc-4d8f-b94f-d088ad8989d1""}","https://test12345.live/?part=2&participantId=1821F336D9EA49FE815252461275C2D2&assignmentId=30aa87c8-c083-48d0-8e85-6974edf2d91b&projectId=e9cc2542-c7dc-4d8f-b94f-d088ad8989d1","1821F336D9EA49FE815252461275C2D2-2025-05-16-18-47-46","","","67216ffb6d726298d1e8a0e289d1976af847277de0e1b6b404ddd4ad74ed0572","","","",""
"","","","","","html-audio-response","5","52112","0.0-4.0-1.0","1821F336D9EA49FE815252461275C2D2","1821F336D9EA49FE815252461275C2D2","30aa87c8-c083-48d0-8e85-6974edf2d91b","e9cc2542-c7dc-4d8f-b94f-d088ad8989d1","{""part"":""2"",""participantId"":""1821F336D9EA49FE815252461275C2D2"",""assignmentId"":""30aa87c8-c083-48d0-8e85-6974edf2d91b"",""projectId"":""e9cc2542-c7dc-4d8f-b94f-d088ad8989d1""}","https://test12345.live/?part=2&participantId=1821F336D9EA49FE815252461275C2D2&assignmentId=30aa87c8-c083-48d0-8e85-6974edf2d91b&projectId=e9cc2542-c7dc-4d8f-b94f-d088ad8989d1","1821F336D9EA49FE815252461275C2D2-2025-05-16-18-47-46","","3373","","<span style=""color: red; font-size: 24px""> NOW RECORDING</span>
        <p>Please test Microphone</p>","","1",""
"","","","","","html-button-response","6","53313","0.0-4.0-2.0","1821F336D9EA49FE815252461275C2D2","1821F336D9EA49FE815252461275C2D2","30aa87c8-c083-48d0-8e85-6974edf2d91b","e9cc2542-c7dc-4d8f-b94f-d088ad8989d1","{""part"":""2"",""participantId"":""1821F336D9EA49FE815252461275C2D2"",""assignmentId"":""30aa87c8-c083-48d0-8e85-6974edf2d91b"",""projectId"":""e9cc2542-c7dc-4d8f-b94f-d088ad8989d1""}","https://test12345.live/?part=2&participantId=1821F336D9EA49FE815252461275C2D2&assignmentId=30aa87c8-c083-48d0-8e85-6974edf2d91b&projectId=e9cc2542-c7dc-4d8f-b94f-d088ad8989d1","1821F336D9EA49FE815252461275C2D2-2025-05-16-18-47-46","","1199","","<p style=""font-size:48px; color:red;"">Is Microphone OK?</p>","1","",""
"","","","","","instructions","7","65029","0.0-5.0","1821F336D9EA49FE815252461275C2D2","1821F336D9EA49FE815252461275C2D2","30aa87c8-c083-48d0-8e85-6974edf2d91b","e9cc2542-c7dc-4d8f-b94f-d088ad8989d1","{""part"":""2"",""participantId"":""1821F336D9EA49FE815252461275C2D2"",""assignmentId"":""30aa87c8-c083-48d0-8e85-6974edf2d91b"",""projectId"":""e9cc2542-c7dc-4d8f-b94f-d088ad8989d1""}","https://test12345.live/?part=2&participantId=1821F336D9EA49FE815252461275C2D2&assignmentId=30aa87c8-c083-48d0-8e85-6974edf2d91b&projectId=e9cc2542-c7dc-4d8f-b94f-d088ad8989d1","1821F336D9EA49FE815252461275C2D2-2025-05-16-18-47-46","[{""page_index"":0,""viewing_time"":1214},{""page_index"":1,""viewing_time"":3617},{""page_index"":2,""viewing_time"":6883}]","11714","","","","",""
"","","","","","image-button-response","8","71038","0.0-6.0-0.0","1821F336D9EA49FE815252461275C2D2","1821F336D9EA49FE815252461275C2D2","30aa87c8-c083-48d0-8e85-6974edf2d91b","e9cc2542-c7dc-4d8f-b94f-d088ad8989d1","{""part"":""2"",""participantId"":""1821F336D9EA49FE815252461275C2D2"",""assignmentId"":""30aa87c8-c083-48d0-8e85-6974edf2d91b"",""projectId"":""e9cc2542-c7dc-4d8f-b94f-d088ad8989d1""}","https://test12345.live/?part=2&participantId=1821F336D9EA49FE815252461275C2D2&assignmentId=30aa87c8-c083-48d0-8e85-6974edf2d91b&projectId=e9cc2542-c7dc-4d8f-b94f-d088ad8989d1","1821F336D9EA49FE815252461275C2D2-2025-05-16-18-47-46","","null","","images/instructions/movie_0.png","null","",""
"","","","","","html-audio-response","9","86512","0.0-7.0","1821F336D9EA49FE815252461275C2D2","1821F336D9EA49FE815252461275C2D2","30aa87c8-c083-48d0-8e85-6974edf2d91b","e9cc2542-c7dc-4d8f-b94f-d088ad8989d1","{""part"":""2"",""participantId"":""1821F336D9EA49FE815252461275C2D2"",""assignmentId"":""30aa87c8-c083-48d0-8e85-6974edf2d91b"",""projectId"":""e9cc2542-c7dc-4d8f-b94f-d088ad8989d1""}","https://test12345.live/?part=2&participantId=1821F336D9EA49FE815252461275C2D2&assignmentId=30aa87c8-c083-48d0-8e85-6974edf2d91b&projectId=e9cc2542-c7dc-4d8f-b94f-d088ad8989d1","1821F336D9EA49FE815252461275C2D2-2025-05-16-18-47-46","","14278","","[""<span style=\""color: red; font-size: 24px\""> NOW RECORDING</span><p>Please say out loud all the images you saw in part 1 of the experiment, as many as you can remember. The images can be said in any order.</p>""]","","4",""
"","","","","","instructions","10","87912","0.0-8.0","1821F336D9EA49FE815252461275C2D2","1821F336D9EA49FE815252461275C2D2","30aa87c8-c083-48d0-8e85-6974edf2d91b","e9cc2542-c7dc-4d8f-b94f-d088ad8989d1","{""part"":""2"",""participantId"":""1821F336D9EA49FE815252461275C2D2"",""assignmentId"":""30aa87c8-c083-48d0-8e85-6974edf2d91b"",""projectId"":""e9cc2542-c7dc-4d8f-b94f-d088ad8989d1""}","https://test12345.live/?part=2&participantId=1821F336D9EA49FE815252461275C2D2&assignmentId=30aa87c8-c083-48d0-8e85-6974edf2d91b&projectId=e9cc2542-c7dc-4d8f-b94f-d088ad8989d1","1821F336D9EA49FE815252461275C2D2-2025-05-16-18-47-46","[{""page_index"":0,""viewing_time"":1395}]","1396","","","","",""
"","","","","","image-button-response","11","93918","0.0-9.0-0.0","1821F336D9EA49FE815252461275C2D2","1821F336D9EA49FE815252461275C2D2","30aa87c8-c083-48d0-8e85-6974edf2d91b","e9cc2542-c7dc-4d8f-b94f-d088ad8989d1","{""part"":""2"",""participantId"":""1821F336D9EA49FE815252461275C2D2"",""assignmentId"":""30aa87c8-c083-48d0-8e85-6974edf2d91b"",""projectId"":""e9cc2542-c7dc-4d8f-b94f-d088ad8989d1""}","https://test12345.live/?part=2&participantId=1821F336D9EA49FE815252461275C2D2&assignmentId=30aa87c8-c083-48d0-8e85-6974edf2d91b&projectId=e9cc2542-c7dc-4d8f-b94f-d088ad8989d1","1821F336D9EA49FE815252461275C2D2-2025-05-16-18-47-46","","null","","images/schematic_sequence/interview_scheme/interview_scheme_0.png","null","",""
"","","","","","html-audio-response","12","118345","0.0-10.0","1821F336D9EA49FE815252461275C2D2","1821F336D9EA49FE815252461275C2D2","30aa87c8-c083-48d0-8e85-6974edf2d91b","e9cc2542-c7dc-4d8f-b94f-d088ad8989d1","{""part"":""2"",""participantId"":""1821F336D9EA49FE815252461275C2D2"",""assignmentId"":""30aa87c8-c083-48d0-8e85-6974edf2d91b"",""projectId"":""e9cc2542-c7dc-4d8f-b94f-d088ad8989d1""}","https://test12345.live/?part=2&participantId=1821F336D9EA49FE815252461275C2D2&assignmentId=30aa87c8-c083-48d0-8e85-6974edf2d91b&projectId=e9cc2542-c7dc-4d8f-b94f-d088ad8989d1","1821F336D9EA49FE815252461275C2D2-2025-05-16-18-47-46","","21665","","[""<span style=\""color: red; font-size: 24px\""> NOW RECORDING</span><p>Please say out loud all the images you saw in part 1 of the experiment, as many as you can remember. The images can be said in any order.</p>""]","","2","interview_scheme"
"","","","","","image-button-response","13","124354","0.0-11.0-0.0","1821F336D9EA49FE815252461275C2D2","1821F336D9EA49FE815252461275C2D2","30aa87c8-c083-48d0-8e85-6974edf2d91b","e9cc2542-c7dc-4d8f-b94f-d088ad8989d1","{""part"":""2"",""participantId"":""1821F336D9EA49FE815252461275C2D2"",""assignmentId"":""30aa87c8-c083-48d0-8e85-6974edf2d91b"",""projectId"":""e9cc2542-c7dc-4d8f-b94f-d088ad8989d1""}","https://test12345.live/?part=2&participantId=1821F336D9EA49FE815252461275C2D2&assignmentId=30aa87c8-c083-48d0-8e85-6974edf2d91b&projectId=e9cc2542-c7dc-4d8f-b94f-d088ad8989d1","1821F336D9EA49FE815252461275C2D2-2025-05-16-18-47-46","","null","","images/semantic_sequence/market_semantic/market_semantic_0.png","null","",""
"","","","","","html-audio-response","14","135661","0.0-12.0","1821F336D9EA49FE815252461275C2D2","1821F336D9EA49FE815252461275C2D2","30aa87c8-c083-48d0-8e85-6974edf2d91b","e9cc2542-c7dc-4d8f-b94f-d088ad8989d1","{""part"":""2"",""participantId"":""1821F336D9EA49FE815252461275C2D2"",""assignmentId"":""30aa87c8-c083-48d0-8e85-6974edf2d91b"",""projectId"":""e9cc2542-c7dc-4d8f-b94f-d088ad8989d1""}","https://test12345.live/?part=2&participantId=1821F336D9EA49FE815252461275C2D2&assignmentId=30aa87c8-c083-48d0-8e85-6974edf2d91b&projectId=e9cc2542-c7dc-4d8f-b94f-d088ad8989d1","1821F336D9EA49FE815252461275C2D2-2025-05-16-18-47-46","","10409","","[""<span style=\""color: red; font-size: 24px\""> NOW RECORDING</span><p>Please say out loud all the images you saw in part 1 of the experiment, as many as you can remember. The images can be said in any order.</p>""]","","2","market_semantic"
"","","","","","image-button-response","15","141670","0.0-13.0-0.0","1821F336D9EA49FE815252461275C2D2","1821F336D9EA49FE815252461275C2D2","30aa87c8-c083-48d0-8e85-6974edf2d91b","e9cc2542-c7dc-4d8f-b94f-d088ad8989d1","{""part"":""2"",""participantId"":""1821F336D9EA49FE815252461275C2D2"",""assignmentId"":""30aa87c8-c083-48d0-8e85-6974edf2d91b"",""projectId"":""e9cc2542-c7dc-4d8f-b94f-d088ad8989d1""}","https://test12345.live/?part=2&participantId=1821F336D9EA49FE815252461275C2D2&assignmentId=30aa87c8-c083-48d0-8e85-6974edf2d91b&projectId=e9cc2542-c7dc-4d8f-b94f-d088ad8989d1","1821F336D9EA49FE815252461275C2D2-2025-05-16-18-47-46","","null","","images/causal_sequence/museum_causal/museum_causal_0.png","null","",""
"","","","","","html-audio-response","16","162861","0.0-14.0","1821F336D9EA49FE815252461275C2D2","1821F336D9EA49FE815252461275C2D2","30aa87c8-c083-48d0-8e85-6974edf2d91b","e9cc2542-c7dc-4d8f-b94f-d088ad8989d1","{""part"":""2"",""participantId"":""1821F336D9EA49FE815252461275C2D2"",""assignmentId"":""30aa87c8-c083-48d0-8e85-6974edf2d91b"",""projectId"":""e9cc2542-c7dc-4d8f-b94f-d088ad8989d1""}","https://test12345.live/?part=2&participantId=1821F336D9EA49FE815252461275C2D2&assignmentId=30aa87c8-c083-48d0-8e85-6974edf2d91b&projectId=e9cc2542-c7dc-4d8f-b94f-d088ad8989d1","1821F336D9EA49FE815252461275C2D2-2025-05-16-18-47-46","","20199","","[""<span style=\""color: red; font-size: 24px\""> NOW RECORDING</span><p>Please say out loud all the images you saw in part 1 of the experiment, as many as you can remember. The images can be said in any order.</p>""]","","2","museum_causal"
"","","","","","image-button-response","17","168872","0.0-15.0-0.0","1821F336D9EA49FE815252461275C2D2","1821F336D9EA49FE815252461275C2D2","30aa87c8-c083-48d0-8e85-6974edf2d91b","e9cc2542-c7dc-4d8f-b94f-d088ad8989d1","{""part"":""2"",""participantId"":""1821F336D9EA49FE815252461275C2D2"",""assignmentId"":""30aa87c8-c083-48d0-8e85-6974edf2d91b"",""projectId"":""e9cc2542-c7dc-4d8f-b94f-d088ad8989d1""}","https://test12345.live/?part=2&participantId=1821F336D9EA49FE815252461275C2D2&assignmentId=30aa87c8-c083-48d0-8e85-6974edf2d91b&projectId=e9cc2542-c7dc-4d8f-b94f-d088ad8989d1","1821F336D9EA49FE815252461275C2D2-2025-05-16-18-47-46","","null","","images/causal_sequence/coin_causal/coin_causal_0.png","null","",""
"","","","","","html-audio-response","18","184310","0.0-16.0","1821F336D9EA49FE815252461275C2D2","1821F336D9EA49FE815252461275C2D2","30aa87c8-c083-48d0-8e85-6974edf2d91b","e9cc2542-c7dc-4d8f-b94f-d088ad8989d1","{""part"":""2"",""participantId"":""1821F336D9EA49FE815252461275C2D2"",""assignmentId"":""30aa87c8-c083-48d0-8e85-6974edf2d91b"",""projectId"":""e9cc2542-c7dc-4d8f-b94f-d088ad8989d1""}","https://test12345.live/?part=2&participantId=1821F336D9EA49FE815252461275C2D2&assignmentId=30aa87c8-c083-48d0-8e85-6974edf2d91b&projectId=e9cc2542-c7dc-4d8f-b94f-d088ad8989d1","1821F336D9EA49FE815252461275C2D2-2025-05-16-18-47-46","","14696","","[""<span style=\""color: red; font-size: 24px\""> NOW RECORDING</span><p>Please say out loud all the images you saw in part 1 of the experiment, as many as you can remember. The images can be said in any order.</p>""]","","6","coin_causal"
"","","","","","image-button-response","19","190318","0.0-17.0-0.0","1821F336D9EA49FE815252461275C2D2","1821F336D9EA49FE815252461275C2D2","30aa87c8-c083-48d0-8e85-6974edf2d91b","e9cc2542-c7dc-4d8f-b94f-d088ad8989d1","{""part"":""2"",""participantId"":""1821F336D9EA49FE815252461275C2D2"",""assignmentId"":""30aa87c8-c083-48d0-8e85-6974edf2d91b"",""projectId"":""e9cc2542-c7dc-4d8f-b94f-d088ad8989d1""}","https://test12345.live/?part=2&participantId=1821F336D9EA49FE815252461275C2D2&assignmentId=30aa87c8-c083-48d0-8e85-6974edf2d91b&projectId=e9cc2542-c7dc-4d8f-b94f-d088ad8989d1","1821F336D9EA49FE815252461275C2D2-2025-05-16-18-47-46","","null","","images/semantic_sequence/visiting_cities_semantic/visiting_cities_semantic_0.png","null","",""
"","","","","","html-audio-response","20","201694","0.0-18.0","1821F336D9EA49FE815252461275C2D2","1821F336D9EA49FE815252461275C2D2","30aa87c8-c083-48d0-8e85-6974edf2d91b","e9cc2542-c7dc-4d8f-b94f-d088ad8989d1","{""part"":""2"",""participantId"":""1821F336D9EA49FE815252461275C2D2"",""assignmentId"":""30aa87c8-c083-48d0-8e85-6974edf2d91b"",""projectId"":""e9cc2542-c7dc-4d8f-b94f-d088ad8989d1""}","https://test12345.live/?part=2&participantId=1821F336D9EA49FE815252461275C2D2&assignmentId=30aa87c8-c083-48d0-8e85-6974edf2d91b&projectId=e9cc2542-c7dc-4d8f-b94f-d088ad8989d1","1821F336D9EA49FE815252461275C2D2-2025-05-16-18-47-46","","10634","","[""<span style=\""color: red; font-size: 24px\""> NOW RECORDING</span><p>Please say out loud all the images you saw in part 1 of the experiment, as many as you can remember. The images can be said in any order.</p>""]","","2","visiting_cities_semantic"
"","","","","","image-button-response","21","207703","0.0-19.0-0.0","1821F336D9EA49FE815252461275C2D2","1821F336D9EA49FE815252461275C2D2","30aa87c8-c083-48d0-8e85-6974edf2d91b","e9cc2542-c7dc-4d8f-b94f-d088ad8989d1","{""part"":""2"",""participantId"":""1821F336D9EA49FE815252461275C2D2"",""assignmentId"":""30aa87c8-c083-48d0-8e85-6974edf2d91b"",""projectId"":""e9cc2542-c7dc-4d8f-b94f-d088ad8989d1""}","https://test12345.live/?part=2&participantId=1821F336D9EA49FE815252461275C2D2&assignmentId=30aa87c8-c083-48d0-8e85-6974edf2d91b&projectId=e9cc2542-c7dc-4d8f-b94f-d088ad8989d1","1821F336D9EA49FE815252461275C2D2-2025-05-16-18-47-46","","null","","images/semantic_sequence/physical_activity_semantic/physical_activity_semantic_0.png","null","",""
"","","","","","html-audio-response","22","220344","0.0-20.0","1821F336D9EA49FE815252461275C2D2","1821F336D9EA49FE815252461275C2D2","30aa87c8-c083-48d0-8e85-6974edf2d91b","e9cc2542-c7dc-4d8f-b94f-d088ad8989d1","{""part"":""2"",""participantId"":""1821F336D9EA49FE815252461275C2D2"",""assignmentId"":""30aa87c8-c083-48d0-8e85-6974edf2d91b"",""projectId"":""e9cc2542-c7dc-4d8f-b94f-d088ad8989d1""}","https://test12345.live/?part=2&participantId=1821F336D9EA49FE815252461275C2D2&assignmentId=30aa87c8-c083-48d0-8e85-6974edf2d91b&projectId=e9cc2542-c7dc-4d8f-b94f-d088ad8989d1","1821F336D9EA49FE815252461275C2D2-2025-05-16-18-47-46","","12043","","[""<span style=\""color: red; font-size: 24px\""> NOW RECORDING</span><p>Please say out loud all the images you saw in part 1 of the experiment, as many as you can remember. The images can be said in any order.</p>""]","","2","physical_activity_semantic"
"","","","","","image-button-response","23","226353","0.0-21.0-0.0","1821F336D9EA49FE815252461275C2D2","1821F336D9EA49FE815252461275C2D2","30aa87c8-c083-48d0-8e85-6974edf2d91b","e9cc2542-c7dc-4d8f-b94f-d088ad8989d1","{""part"":""2"",""participantId"":""1821F336D9EA49FE815252461275C2D2"",""assignmentId"":""30aa87c8-c083-48d0-8e85-6974edf2d91b"",""projectId"":""e9cc2542-c7dc-4d8f-b94f-d088ad8989d1""}","https://test12345.live/?part=2&participantId=1821F336D9EA49FE815252461275C2D2&assignmentId=30aa87c8-c083-48d0-8e85-6974edf2d91b&projectId=e9cc2542-c7dc-4d8f-b94f-d088ad8989d1","1821F336D9EA49FE815252461275C2D2-2025-05-16-18-47-46","","null","","images/causal_sequence/package_causal/package_causal_0.png","null","",""
"","","","","","html-audio-response","24","245510","0.0-22.0","1821F336D9EA49FE815252461275C2D2","1821F336D9EA49FE815252461275C2D2","30aa87c8-c083-48d0-8e85-6974edf2d91b","e9cc2542-c7dc-4d8f-b94f-d088ad8989d1","{""part"":""2"",""participantId"":""1821F336D9EA49FE815252461275C2D2"",""assignmentId"":""30aa87c8-c083-48d0-8e85-6974edf2d91b"",""projectId"":""e9cc2542-c7dc-4d8f-b94f-d088ad8989d1""}","https://test12345.live/?part=2&participantId=1821F336D9EA49FE815252461275C2D2&assignmentId=30aa87c8-c083-48d0-8e85-6974edf2d91b&projectId=e9cc2542-c7dc-4d8f-b94f-d088ad8989d1","1821F336D9EA49FE815252461275C2D2-2025-05-16-18-47-46","","18576","","[""<span style=\""color: red; font-size: 24px\""> NOW RECORDING</span><p>Please say out loud all the images you saw in part 1 of the experiment, as many as you can remember. The images can be said in any order.</p>""]","","2","package_causal"
"","","","","","image-button-response","25","251518","0.0-23.0-0.0","1821F336D9EA49FE815252461275C2D2","1821F336D9EA49FE815252461275C2D2","30aa87c8-c083-48d0-8e85-6974edf2d91b","e9cc2542-c7dc-4d8f-b94f-d088ad8989d1","{""part"":""2"",""participantId"":""1821F336D9EA49FE815252461275C2D2"",""assignmentId"":""30aa87c8-c083-48d0-8e85-6974edf2d91b"",""projectId"":""e9cc2542-c7dc-4d8f-b94f-d088ad8989d1""}","https://test12345.live/?part=2&participantId=1821F336D9EA49FE815252461275C2D2&assignmentId=30aa87c8-c083-48d0-8e85-6974edf2d91b&projectId=e9cc2542-c7dc-4d8f-b94f-d088ad8989d1","1821F336D9EA49FE815252461275C2D2-2025-05-16-18-47-46","","null","","images/semantic_sequence/kitchen_operations_semantic/kitchen_operations_semantic_0.png","null","",""
"","","","","","html-audio-response","26","262161","0.0-24.0","1821F336D9EA49FE815252461275C2D2","1821F336D9EA49FE815252461275C2D2","30aa87c8-c083-48d0-8e85-6974edf2d91b","e9cc2542-c7dc-4d8f-b94f-d088ad8989d1","{""part"":""2"",""participantId"":""1821F336D9EA49FE815252461275C2D2"",""assignmentId"":""30aa87c8-c083-48d0-8e85-6974edf2d91b"",""projectId"":""e9cc2542-c7dc-4d8f-b94f-d088ad8989d1""}","https://test12345.live/?part=2&participantId=1821F336D9EA49FE815252461275C2D2&assignmentId=30aa87c8-c083-48d0-8e85-6974edf2d91b&projectId=e9cc2542-c7dc-4d8f-b94f-d088ad8989d1","1821F336D9EA49FE815252461275C2D2-2025-05-16-18-47-46","","10132","","[""<span style=\""color: red; font-size: 24px\""> NOW RECORDING</span><p>Please say out loud all the images you saw in part 1 of the experiment, as many as you can remember. The images can be said in any order.</p>""]","","2","kitchen_operations_semantic"
"","","","","","image-button-response","27","268168","0.0-25.0-0.0","1821F336D9EA49FE815252461275C2D2","1821F336D9EA49FE815252461275C2D2","30aa87c8-c083-48d0-8e85-6974edf2d91b","e9cc2542-c7dc-4d8f-b94f-d088ad8989d1","{""part"":""2"",""participantId"":""1821F336D9EA49FE815252461275C2D2"",""assignmentId"":""30aa87c8-c083-48d0-8e85-6974edf2d91b"",""projectId"":""e9cc2542-c7dc-4d8f-b94f-d088ad8989d1""}","https://test12345.live/?part=2&participantId=1821F336D9EA49FE815252461275C2D2&assignmentId=30aa87c8-c083-48d0-8e85-6974edf2d91b&projectId=e9cc2542-c7dc-4d8f-b94f-d088ad8989d1","1821F336D9EA49FE815252461275C2D2-2025-05-16-18-47-46","","null","","images/schematic_sequence/restaurant_scheme/restaurant_scheme_0.png","null","",""
"","","","","","html-audio-response","28","282427","0.0-26.0","1821F336D9EA49FE815252461275C2D2","1821F336D9EA49FE815252461275C2D2","30aa87c8-c083-48d0-8e85-6974edf2d91b","e9cc2542-c7dc-4d8f-b94f-d088ad8989d1","{""part"":""2"",""participantId"":""1821F336D9EA49FE815252461275C2D2"",""assignmentId"":""30aa87c8-c083-48d0-8e85-6974edf2d91b"",""projectId"":""e9cc2542-c7dc-4d8f-b94f-d088ad8989d1""}","https://test12345.live/?part=2&participantId=1821F336D9EA49FE815252461275C2D2&assignmentId=30aa87c8-c083-48d0-8e85-6974edf2d91b&projectId=e9cc2542-c7dc-4d8f-b94f-d088ad8989d1","1821F336D9EA49FE815252461275C2D2-2025-05-16-18-47-46","","13732","","[""<span style=\""color: red; font-size: 24px\""> NOW RECORDING</span><p>Please say out loud all the images you saw in part 1 of the experiment, as many as you can remember. The images can be said in any order.</p>""]","","2","restaurant_scheme"
"","","","","","image-button-response","29","288431","0.0-27.0-0.0","1821F336D9EA49FE815252461275C2D2","1821F336D9EA49FE815252461275C2D2","30aa87c8-c083-48d0-8e85-6974edf2d91b","e9cc2542-c7dc-4d8f-b94f-d088ad8989d1","{""part"":""2"",""participantId"":""1821F336D9EA49FE815252461275C2D2"",""assignmentId"":""30aa87c8-c083-48d0-8e85-6974edf2d91b"",""projectId"":""e9cc2542-c7dc-4d8f-b94f-d088ad8989d1""}","https://test12345.live/?part=2&participantId=1821F336D9EA49FE815252461275C2D2&assignmentId=30aa87c8-c083-48d0-8e85-6974edf2d91b&projectId=e9cc2542-c7dc-4d8f-b94f-d088ad8989d1","1821F336D9EA49FE815252461275C2D2-2025-05-16-18-47-46","","null","","images/causal_sequence/the_performance_causal/the_performance_causal_0.png","null","",""
"","","","","","html-audio-response","30","312960","0.0-28.0","1821F336D9EA49FE815252461275C2D2","1821F336D9EA49FE815252461275C2D2","30aa87c8-c083-48d0-8e85-6974edf2d91b","e9cc2542-c7dc-4d8f-b94f-d088ad8989d1","{""part"":""2"",""participantId"":""1821F336D9EA49FE815252461275C2D2"",""assignmentId"":""30aa87c8-c083-48d0-8e85-6974edf2d91b"",""projectId"":""e9cc2542-c7dc-4d8f-b94f-d088ad8989d1""}","https://test12345.live/?part=2&participantId=1821F336D9EA49FE815252461275C2D2&assignmentId=30aa87c8-c083-48d0-8e85-6974edf2d91b&projectId=e9cc2542-c7dc-4d8f-b94f-d088ad8989d1","1821F336D9EA49FE815252461275C2D2-2025-05-16-18-47-46","","23756","","[""<span style=\""color: red; font-size: 24px\""> NOW RECORDING</span><p>Please say out loud all the images you saw in part 1 of the experiment, as many as you can remember. The images can be said in any order.</p>""]","","2","the_performance_causal"
"","","","","","image-button-response","31","318967","0.0-29.0-0.0","1821F336D9EA49FE815252461275C2D2","1821F336D9EA49FE815252461275C2D2","30aa87c8-c083-48d0-8e85-6974edf2d91b","e9cc2542-c7dc-4d8f-b94f-d088ad8989d1","{""part"":""2"",""participantId"":""1821F336D9EA49FE815252461275C2D2"",""assignmentId"":""30aa87c8-c083-48d0-8e85-6974edf2d91b"",""projectId"":""e9cc2542-c7dc-4d8f-b94f-d088ad8989d1""}","https://test12345.live/?part=2&participantId=1821F336D9EA49FE815252461275C2D2&assignmentId=30aa87c8-c083-48d0-8e85-6974edf2d91b&projectId=e9cc2542-c7dc-4d8f-b94f-d088ad8989d1","1821F336D9EA49FE815252461275C2D2-2025-05-16-18-47-46","","null","","images/schematic_sequence/supermarket_scheme/supermarket_scheme_0.png","null","",""
"","","","","","html-audio-response","32","330143","0.0-30.0","1821F336D9EA49FE815252461275C2D2","1821F336D9EA49FE815252461275C2D2","30aa87c8-c083-48d0-8e85-6974edf2d91b","e9cc2542-c7dc-4d8f-b94f-d088ad8989d1","{""part"":""2"",""participantId"":""1821F336D9EA49FE815252461275C2D2"",""assignmentId"":""30aa87c8-c083-48d0-8e85-6974edf2d91b"",""projectId"":""e9cc2542-c7dc-4d8f-b94f-d088ad8989d1""}","https://test12345.live/?part=2&participantId=1821F336D9EA49FE815252461275C2D2&assignmentId=30aa87c8-c083-48d0-8e85-6974edf2d91b&projectId=e9cc2542-c7dc-4d8f-b94f-d088ad8989d1","1821F336D9EA49FE815252461275C2D2-2025-05-16-18-47-46","","10716","","[""<span style=\""color: red; font-size: 24px\""> NOW RECORDING</span><p>Please say out loud all the images you saw in part 1 of the experiment, as many as you can remember. The images can be said in any order.</p>""]","","2","supermarket_scheme"
"","","","","","image-button-response","33","336152","0.0-31.0-0.0","1821F336D9EA49FE815252461275C2D2","1821F336D9EA49FE815252461275C2D2","30aa87c8-c083-48d0-8e85-6974edf2d91b","e9cc2542-c7dc-4d8f-b94f-d088ad8989d1","{""part"":""2"",""participantId"":""1821F336D9EA49FE815252461275C2D2"",""assignmentId"":""30aa87c8-c083-48d0-8e85-6974edf2d91b"",""projectId"":""e9cc2542-c7dc-4d8f-b94f-d088ad8989d1""}","https://test12345.live/?part=2&participantId=1821F336D9EA49FE815252461275C2D2&assignmentId=30aa87c8-c083-48d0-8e85-6974edf2d91b&projectId=e9cc2542-c7dc-4d8f-b94f-d088ad8989d1","1821F336D9EA49FE815252461275C2D2-2025-05-16-18-47-46","","null","","images/semantic_sequence/exploring_nature_semantic/exploring_nature_semantic_0.png","null","",""
"","","","","","html-audio-response","34","345142","0.0-32.0","1821F336D9EA49FE815252461275C2D2","1821F336D9EA49FE815252461275C2D2","30aa87c8-c083-48d0-8e85-6974edf2d91b","e9cc2542-c7dc-4d8f-b94f-d088ad8989d1","{""part"":""2"",""participantId"":""1821F336D9EA49FE815252461275C2D2"",""assignmentId"":""30aa87c8-c083-48d0-8e85-6974edf2d91b"",""projectId"":""e9cc2542-c7dc-4d8f-b94f-d088ad8989d1""}","https://test12345.live/?part=2&participantId=1821F336D9EA49FE815252461275C2D2&assignmentId=30aa87c8-c083-48d0-8e85-6974edf2d91b&projectId=e9cc2542-c7dc-4d8f-b94f-d088ad8989d1","1821F336D9EA49FE815252461275C2D2-2025-05-16-18-47-46","","8493","","[""<span style=\""color: red; font-size: 24px\""> NOW RECORDING</span><p>Please say out loud all the images you saw in part 1 of the experiment, as many as you can remember. The images can be said in any order.</p>""]","","2","exploring_nature_semantic"
"","","","","","image-button-response","35","351151","0.0-33.0-0.0","1821F336D9EA49FE815252461275C2D2","1821F336D9EA49FE815252461275C2D2","30aa87c8-c083-48d0-8e85-6974edf2d91b","e9cc2542-c7dc-4d8f-b94f-d088ad8989d1","{""part"":""2"",""participantId"":""1821F336D9EA49FE815252461275C2D2"",""assignmentId"":""30aa87c8-c083-48d0-8e85-6974edf2d91b"",""projectId"":""e9cc2542-c7dc-4d8f-b94f-d088ad8989d1""}","https://test12345.live/?part=2&participantId=1821F336D9EA49FE815252461275C2D2&assignmentId=30aa87c8-c083-48d0-8e85-6974edf2d91b&projectId=e9cc2542-c7dc-4d8f-b94f-d088ad8989d1","1821F336D9EA49FE815252461275C2D2-2025-05-16-18-47-46","","null","","images/semantic_sequence/using_technology_semantic/using_technology_semantic_0.png","null","",""
"","","","","","html-audio-response","36","361310","0.0-34.0","1821F336D9EA49FE815252461275C2D2","1821F336D9EA49FE815252461275C2D2","30aa87c8-c083-48d0-8e85-6974edf2d91b","e9cc2542-c7dc-4d8f-b94f-d088ad8989d1","{""part"":""2"",""participantId"":""1821F336D9EA49FE815252461275C2D2"",""assignmentId"":""30aa87c8-c083-48d0-8e85-6974edf2d91b"",""projectId"":""e9cc2542-c7dc-4d8f-b94f-d088ad8989d1""}","https://test12345.live/?part=2&participantId=1821F336D9EA49FE815252461275C2D2&assignmentId=30aa87c8-c083-48d0-8e85-6974edf2d91b&projectId=e9cc2542-c7dc-4d8f-b94f-d088ad8989d1","1821F336D9EA49FE815252461275C2D2-2025-05-16-18-47-46","","9685","","[""<span style=\""color: red; font-size: 24px\""> NOW RECORDING</span><p>Please say out loud all the images you saw in part 1 of the experiment, as many as you can remember. The images can be said in any order.</p>""]","","2","using_technology_semantic"
"","","","","","image-button-response","37","367320","0.0-35.0-0.0","1821F336D9EA49FE815252461275C2D2","1821F336D9EA49FE815252461275C2D2","30aa87c8-c083-48d0-8e85-6974edf2d91b","e9cc2542-c7dc-4d8f-b94f-d088ad8989d1","{""part"":""2"",""participantId"":""1821F336D9EA49FE815252461275C2D2"",""assignmentId"":""30aa87c8-c083-48d0-8e85-6974edf2d91b"",""projectId"":""e9cc2542-c7dc-4d8f-b94f-d088ad8989d1""}","https://test12345.live/?part=2&participantId=1821F336D9EA49FE815252461275C2D2&assignmentId=30aa87c8-c083-48d0-8e85-6974edf2d91b&projectId=e9cc2542-c7dc-4d8f-b94f-d088ad8989d1","1821F336D9EA49FE815252461275C2D2-2025-05-16-18-47-46","","null","","images/schematic_sequence/flight_scheme/flight_scheme_0.png","null","",""
"","","","","","html-audio-response","38","380360","0.0-36.0","1821F336D9EA49FE815252461275C2D2","1821F336D9EA49FE815252461275C2D2","30aa87c8-c083-48d0-8e85-6974edf2d91b","e9cc2542-c7dc-4d8f-b94f-d088ad8989d1","{""part"":""2"",""participantId"":""1821F336D9EA49FE815252461275C2D2"",""assignmentId"":""30aa87c8-c083-48d0-8e85-6974edf2d91b"",""projectId"":""e9cc2542-c7dc-4d8f-b94f-d088ad8989d1""}","https://test12345.live/?part=2&participantId=1821F336D9EA49FE815252461275C2D2&assignmentId=30aa87c8-c083-48d0-8e85-6974edf2d91b&projectId=e9cc2542-c7dc-4d8f-b94f-d088ad8989d1","1821F336D9EA49FE815252461275C2D2-2025-05-16-18-47-46","","12529","","[""<span style=\""color: red; font-size: 24px\""> NOW RECORDING</span><p>Please say out loud all the images you saw in part 1 of the experiment, as many as you can remember. The images can be said in any order.</p>""]","","6","flight_scheme"
"","","","","","image-button-response","39","386368","0.0-37.0-0.0","1821F336D9EA49FE815252461275C2D2","1821F336D9EA49FE815252461275C2D2","30aa87c8-c083-48d0-8e85-6974edf2d91b","e9cc2542-c7dc-4d8f-b94f-d088ad8989d1","{""part"":""2"",""participantId"":""1821F336D9EA49FE815252461275C2D2"",""assignmentId"":""30aa87c8-c083-48d0-8e85-6974edf2d91b"",""projectId"":""e9cc2542-c7dc-4d8f-b94f-d088ad8989d1""}","https://test12345.live/?part=2&participantId=1821F336D9EA49FE815252461275C2D2&assignmentId=30aa87c8-c083-48d0-8e85-6974edf2d91b&projectId=e9cc2542-c7dc-4d8f-b94f-d088ad8989d1","1821F336D9EA49FE815252461275C2D2-2025-05-16-18-47-46","","null","","images/semantic_sequence/self_care_activities_semantic/self_care_activities_semantic_0.png","null","",""
"","","","","","html-audio-response","40","395476","0.0-38.0","1821F336D9EA49FE815252461275C2D2","1821F336D9EA49FE815252461275C2D2","30aa87c8-c083-48d0-8e85-6974edf2d91b","e9cc2542-c7dc-4d8f-b94f-d088ad8989d1","{""part"":""2"",""participantId"":""1821F336D9EA49FE815252461275C2D2"",""assignmentId"":""30aa87c8-c083-48d0-8e85-6974edf2d91b"",""projectId"":""e9cc2542-c7dc-4d8f-b94f-d088ad8989d1""}","https://test12345.live/?part=2&participantId=1821F336D9EA49FE815252461275C2D2&assignmentId=30aa87c8-c083-48d0-8e85-6974edf2d91b&projectId=e9cc2542-c7dc-4d8f-b94f-d088ad8989d1","1821F336D9EA49FE815252461275C2D2-2025-05-16-18-47-46","","8599","","[""<span style=\""color: red; font-size: 24px\""> NOW RECORDING</span><p>Please say out loud all the images you saw in part 1 of the experiment, as many as you can remember. The images can be said in any order.</p>""]","","2","self_care_activities_semantic"
"","","","","","image-button-response","41","401482","0.0-39.0-0.0","1821F336D9EA49FE815252461275C2D2","1821F336D9EA49FE815252461275C2D2","30aa87c8-c083-48d0-8e85-6974edf2d91b","e9cc2542-c7dc-4d8f-b94f-d088ad8989d1","{""part"":""2"",""participantId"":""1821F336D9EA49FE815252461275C2D2"",""assignmentId"":""30aa87c8-c083-48d0-8e85-6974edf2d91b"",""projectId"":""e9cc2542-c7dc-4d8f-b94f-d088ad8989d1""}","https://test12345.live/?part=2&participantId=1821F336D9EA49FE815252461275C2D2&assignmentId=30aa87c8-c083-48d0-8e85-6974edf2d91b&projectId=e9cc2542-c7dc-4d8f-b94f-d088ad8989d1","1821F336D9EA49FE815252461275C2D2-2025-05-16-18-47-46","","null","","images/schematic_sequence/hotel_scheme/hotel_scheme_0.png","null","",""
"","","","","","html-audio-response","42","408726","0.0-40.0","1821F336D9EA49FE815252461275C2D2","1821F336D9EA49FE815252461275C2D2","30aa87c8-c083-48d0-8e85-6974edf2d91b","e9cc2542-c7dc-4d8f-b94f-d088ad8989d1","{""part"":""2"",""participantId"":""1821F336D9EA49FE815252461275C2D2"",""assignmentId"":""30aa87c8-c083-48d0-8e85-6974edf2d91b"",""projectId"":""e9cc2542-c7dc-4d8f-b94f-d088ad8989d1""}","https://test12345.live/?part=2&participantId=1821F336D9EA49FE815252461275C2D2&assignmentId=30aa87c8-c083-48d0-8e85-6974edf2d91b&projectId=e9cc2542-c7dc-4d8f-b94f-d088ad8989d1","1821F336D9EA49FE815252461275C2D2-2025-05-16-18-47-46","","6645","","[""<span style=\""color: red; font-size: 24px\""> NOW RECORDING</span><p>Please say out loud all the images you saw in part 1 of the experiment, as many as you can remember. The images can be said in any order.</p>""]","","2","hotel_scheme"
"","","","","","image-button-response","43","414733","0.0-41.0-0.0","1821F336D9EA49FE815252461275C2D2","1821F336D9EA49FE815252461275C2D2","30aa87c8-c083-48d0-8e85-6974edf2d91b","e9cc2542-c7dc-4d8f-b94f-d088ad8989d1","{""part"":""2"",""participantId"":""1821F336D9EA49FE815252461275C2D2"",""assignmentId"":""30aa87c8-c083-48d0-8e85-6974edf2d91b"",""projectId"":""e9cc2542-c7dc-4d8f-b94f-d088ad8989d1""}","https://test12345.live/?part=2&participantId=1821F336D9EA49FE815252461275C2D2&assignmentId=30aa87c8-c083-48d0-8e85-6974edf2d91b&projectId=e9cc2542-c7dc-4d8f-b94f-d088ad8989d1","1821F336D9EA49FE815252461275C2D2-2025-05-16-18-47-46","","null","","images/semantic_sequence/housework_semantic/housework_semantic_0.png","null","",""
"","","","","","html-audio-response","44","422610","0.0-42.0","1821F336D9EA49FE815252461275C2D2","1821F336D9EA49FE815252461275C2D2","30aa87c8-c083-48d0-8e85-6974edf2d91b","e9cc2542-c7dc-4d8f-b94f-d088ad8989d1","{""part"":""2"",""participantId"":""1821F336D9EA49FE815252461275C2D2"",""assignmentId"":""30aa87c8-c083-48d0-8e85-6974edf2d91b"",""projectId"":""e9cc2542-c7dc-4d8f-b94f-d088ad8989d1""}","https://test12345.live/?part=2&participantId=1821F336D9EA49FE815252461275C2D2&assignmentId=30aa87c8-c083-48d0-8e85-6974edf2d91b&projectId=e9cc2542-c7dc-4d8f-b94f-d088ad8989d1","1821F336D9EA49FE815252461275C2D2-2025-05-16-18-47-46","","7113","","[""<span style=\""color: red; font-size: 24px\""> NOW RECORDING</span><p>Please say out loud all the images you saw in part 1 of the experiment, as many as you can remember. The images can be said in any order.</p>""]","","2","housework_semantic"
"","","","","","image-button-response","45","428617","0.0-43.0-0.0","1821F336D9EA49FE815252461275C2D2","1821F336D9EA49FE815252461275C2D2","30aa87c8-c083-48d0-8e85-6974edf2d91b","e9cc2542-c7dc-4d8f-b94f-d088ad8989d1","{""part"":""2"",""participantId"":""1821F336D9EA49FE815252461275C2D2"",""assignmentId"":""30aa87c8-c083-48d0-8e85-6974edf2d91b"",""projectId"":""e9cc2542-c7dc-4d8f-b94f-d088ad8989d1""}","https://test12345.live/?part=2&participantId=1821F336D9EA49FE815252461275C2D2&assignmentId=30aa87c8-c083-48d0-8e85-6974edf2d91b&projectId=e9cc2542-c7dc-4d8f-b94f-d088ad8989d1","1821F336D9EA49FE815252461275C2D2-2025-05-16-18-47-46","","null","","images/causal_sequence/saving_a_cat_causal/saving_a_cat_causal_0.png","null","",""
"","","","","","html-audio-response","46","446875","0.0-44.0","1821F336D9EA49FE815252461275C2D2","1821F336D9EA49FE815252461275C2D2","30aa87c8-c083-48d0-8e85-6974edf2d91b","e9cc2542-c7dc-4d8f-b94f-d088ad8989d1","{""part"":""2"",""participantId"":""1821F336D9EA49FE815252461275C2D2"",""assignmentId"":""30aa87c8-c083-48d0-8e85-6974edf2d91b"",""projectId"":""e9cc2542-c7dc-4d8f-b94f-d088ad8989d1""}","https://test12345.live/?part=2&participantId=1821F336D9EA49FE815252461275C2D2&assignmentId=30aa87c8-c083-48d0-8e85-6974edf2d91b&projectId=e9cc2542-c7dc-4d8f-b94f-d088ad8989d1","1821F336D9EA49FE815252461275C2D2-2025-05-16-18-47-46","","17782","","[""<span style=\""color: red; font-size: 24px\""> NOW RECORDING</span><p>Please say out loud all the images you saw in part 1 of the experiment, as many as you can remember. The images can be said in any order.</p>""]","","2","saving_a_cat_causal"
"","","","","","image-button-response","47","452883","0.0-45.0-0.0","1821F336D9EA49FE815252461275C2D2","1821F336D9EA49FE815252461275C2D2","30aa87c8-c083-48d0-8e85-6974edf2d91b","e9cc2542-c7dc-4d8f-b94f-d088ad8989d1","{""part"":""2"",""participantId"":""1821F336D9EA49FE815252461275C2D2"",""assignmentId"":""30aa87c8-c083-48d0-8e85-6974edf2d91b"",""projectId"":""e9cc2542-c7dc-4d8f-b94f-d088ad8989d1""}","https://test12345.live/?part=2&participantId=1821F336D9EA49FE815252461275C2D2&assignmentId=30aa87c8-c083-48d0-8e85-6974edf2d91b&projectId=e9cc2542-c7dc-4d8f-b94f-d088ad8989d1","1821F336D9EA49FE815252461275C2D2-2025-05-16-18-47-46","","null","","images/semantic_sequence/maintaining_a_car_semantic/maintaining_a_car_semantic_0.png","null","",""
"","","","","","html-audio-response","48","466842","0.0-46.0","1821F336D9EA49FE815252461275C2D2","1821F336D9EA49FE815252461275C2D2","30aa87c8-c083-48d0-8e85-6974edf2d91b","e9cc2542-c7dc-4d8f-b94f-d088ad8989d1","{""part"":""2"",""participantId"":""1821F336D9EA49FE815252461275C2D2"",""assignmentId"":""30aa87c8-c083-48d0-8e85-6974edf2d91b"",""projectId"":""e9cc2542-c7dc-4d8f-b94f-d088ad8989d1""}","https://test12345.live/?part=2&participantId=1821F336D9EA49FE815252461275C2D2&assignmentId=30aa87c8-c083-48d0-8e85-6974edf2d91b&projectId=e9cc2542-c7dc-4d8f-b94f-d088ad8989d1","1821F336D9EA49FE815252461275C2D2-2025-05-16-18-47-46","","10329","","[""<span style=\""color: red; font-size: 24px\""> NOW RECORDING</span><p>Please say out loud all the images you saw in part 1 of the experiment, as many as you can remember. The images can be said in any order.</p>""]","","2","maintaining_a_car_semantic"
"","","","","","image-button-response","49","472851","0.0-47.0-0.0","1821F336D9EA49FE815252461275C2D2","1821F336D9EA49FE815252461275C2D2","30aa87c8-c083-48d0-8e85-6974edf2d91b","e9cc2542-c7dc-4d8f-b94f-d088ad8989d1","{""part"":""2"",""participantId"":""1821F336D9EA49FE815252461275C2D2"",""assignmentId"":""30aa87c8-c083-48d0-8e85-6974edf2d91b"",""projectId"":""e9cc2542-c7dc-4d8f-b94f-d088ad8989d1""}","https://test12345.live/?part=2&participantId=1821F336D9EA49FE815252461275C2D2&assignmentId=30aa87c8-c083-48d0-8e85-6974edf2d91b&projectId=e9cc2542-c7dc-4d8f-b94f-d088ad8989d1","1821F336D9EA49FE815252461275C2D2-2025-05-16-18-47-46","","null","","images/semantic_sequence/creative_activities_semantic/creative_activities_semantic_0.png","null","",""
"","","","","","html-audio-response","50","477042","0.0-48.0","1821F336D9EA49FE815252461275C2D2","1821F336D9EA49FE815252461275C2D2","30aa87c8-c083-48d0-8e85-6974edf2d91b","e9cc2542-c7dc-4d8f-b94f-d088ad8989d1","{""part"":""2"",""participantId"":""1821F336D9EA49FE815252461275C2D2"",""assignmentId"":""30aa87c8-c083-48d0-8e85-6974edf2d91b"",""projectId"":""e9cc2542-c7dc-4d8f-b94f-d088ad8989d1""}","https://test12345.live/?part=2&participantId=1821F336D9EA49FE815252461275C2D2&assignmentId=30aa87c8-c083-48d0-8e85-6974edf2d91b&projectId=e9cc2542-c7dc-4d8f-b94f-d088ad8989d1","1821F336D9EA49FE815252461275C2D2-2025-05-16-18-47-46","","3759","","[""<span style=\""color: red; font-size: 24px\""> NOW RECORDING</span><p>Please say out loud all the images you saw in part 1 of the experiment, as many as you can remember. The images can be said in any order.</p>""]","","2","creative_activities_semantic"
"","","","","","image-button-response","51","483046","0.0-49.0-0.0","1821F336D9EA49FE815252461275C2D2","1821F336D9EA49FE815252461275C2D2","30aa87c8-c083-48d0-8e85-6974edf2d91b","e9cc2542-c7dc-4d8f-b94f-d088ad8989d1","{""part"":""2"",""participantId"":""1821F336D9EA49FE815252461275C2D2"",""assignmentId"":""30aa87c8-c083-48d0-8e85-6974edf2d91b"",""projectId"":""e9cc2542-c7dc-4d8f-b94f-d088ad8989d1""}","https://test12345.live/?part=2&participantId=1821F336D9EA49FE815252461275C2D2&assignmentId=30aa87c8-c083-48d0-8e85-6974edf2d91b&projectId=e9cc2542-c7dc-4d8f-b94f-d088ad8989d1","1821F336D9EA49FE815252461275C2D2-2025-05-16-18-47-46","","null","","images/semantic_sequence/cat_care_semantic/cat_care_semantic_0.png","null","",""
"","","","","","html-audio-response","52","492041","0.0-50.0","1821F336D9EA49FE815252461275C2D2","1821F336D9EA49FE815252461275C2D2","30aa87c8-c083-48d0-8e85-6974edf2d91b","e9cc2542-c7dc-4d8f-b94f-d088ad8989d1","{""part"":""2"",""participantId"":""1821F336D9EA49FE815252461275C2D2"",""assignmentId"":""30aa87c8-c083-48d0-8e85-6974edf2d91b"",""projectId"":""e9cc2542-c7dc-4d8f-b94f-d088ad8989d1""}","https://test12345.live/?part=2&participantId=1821F336D9EA49FE815252461275C2D2&assignmentId=30aa87c8-c083-48d0-8e85-6974edf2d91b&projectId=e9cc2542-c7dc-4d8f-b94f-d088ad8989d1","1821F336D9EA49FE815252461275C2D2-2025-05-16-18-47-46","","8336","","[""<span style=\""color: red; font-size: 24px\""> NOW RECORDING</span><p>Please say out loud all the images you saw in part 1 of the experiment, as many as you can remember. The images can be said in any order.</p>""]","","2","cat_care_semantic"
"","","","","","image-button-response","53","498045","0.0-51.0-0.0","1821F336D9EA49FE815252461275C2D2","1821F336D9EA49FE815252461275C2D2","30aa87c8-c083-48d0-8e85-6974edf2d91b","e9cc2542-c7dc-4d8f-b94f-d088ad8989d1","{""part"":""2"",""participantId"":""1821F336D9EA49FE815252461275C2D2"",""assignmentId"":""30aa87c8-c083-48d0-8e85-6974edf2d91b"",""projectId"":""e9cc2542-c7dc-4d8f-b94f-d088ad8989d1""}","https://test12345.live/?part=2&participantId=1821F336D9EA49FE815252461275C2D2&assignmentId=30aa87c8-c083-48d0-8e85-6974edf2d91b&projectId=e9cc2542-c7dc-4d8f-b94f-d088ad8989d1","1821F336D9EA49FE815252461275C2D2-2025-05-16-18-47-46","","null","","images/semantic_sequence/redecorating_semantic/redecorating_semantic_0.png","null","",""
"","","","","","html-audio-response","54","505907","0.0-52.0","1821F336D9EA49FE815252461275C2D2","1821F336D9EA49FE815252461275C2D2","30aa87c8-c083-48d0-8e85-6974edf2d91b","e9cc2542-c7dc-4d8f-b94f-d088ad8989d1","{""part"":""2"",""participantId"":""1821F336D9EA49FE815252461275C2D2"",""assignmentId"":""30aa87c8-c083-48d0-8e85-6974edf2d91b"",""projectId"":""e9cc2542-c7dc-4d8f-b94f-d088ad8989d1""}","https://test12345.live/?part=2&participantId=1821F336D9EA49FE815252461275C2D2&assignmentId=30aa87c8-c083-48d0-8e85-6974edf2d91b&projectId=e9cc2542-c7dc-4d8f-b94f-d088ad8989d1","1821F336D9EA49FE815252461275C2D2-2025-05-16-18-47-46","","3903","","[""<span style=\""color: red; font-size: 24px\""> NOW RECORDING</span><p>Please say out loud all the images you saw in part 1 of the experiment, as many as you can remember. The images can be said in any order.</p>""]","","2","redecorating_semantic"
"","","","","","image-button-response","55","511915","0.0-53.0-0.0","1821F336D9EA49FE815252461275C2D2","1821F336D9EA49FE815252461275C2D2","30aa87c8-c083-48d0-8e85-6974edf2d91b","e9cc2542-c7dc-4d8f-b94f-d088ad8989d1","{""part"":""2"",""participantId"":""1821F336D9EA49FE815252461275C2D2"",""assignmentId"":""30aa87c8-c083-48d0-8e85-6974edf2d91b"",""projectId"":""e9cc2542-c7dc-4d8f-b94f-d088ad8989d1""}","https://test12345.live/?part=2&participantId=1821F336D9EA49FE815252461275C2D2&assignmentId=30aa87c8-c083-48d0-8e85-6974edf2d91b&projectId=e9cc2542-c7dc-4d8f-b94f-d088ad8989d1","1821F336D9EA49FE815252461275C2D2-2025-05-16-18-47-46","","null","","images/schematic_sequence/dinner_party_scheme/dinner_party_scheme_0.png","null","",""
"","","","","","html-audio-response","56","524357","0.0-54.0","1821F336D9EA49FE815252461275C2D2","1821F336D9EA49FE815252461275C2D2","30aa87c8-c083-48d0-8e85-6974edf2d91b","e9cc2542-c7dc-4d8f-b94f-d088ad8989d1","{""part"":""2"",""participantId"":""1821F336D9EA49FE815252461275C2D2"",""assignmentId"":""30aa87c8-c083-48d0-8e85-6974edf2d91b"",""projectId"":""e9cc2542-c7dc-4d8f-b94f-d088ad8989d1""}","https://test12345.live/?part=2&participantId=1821F336D9EA49FE815252461275C2D2&assignmentId=30aa87c8-c083-48d0-8e85-6974edf2d91b&projectId=e9cc2542-c7dc-4d8f-b94f-d088ad8989d1","1821F336D9EA49FE815252461275C2D2-2025-05-16-18-47-46","","11966","","[""<span style=\""color: red; font-size: 24px\""> NOW RECORDING</span><p>Please say out loud all the images you saw in part 1 of the experiment, as many as you can remember. The images can be said in any order.</p>""]","","2","dinner_party_scheme"
"","","","","","image-button-response","57","530364","0.0-55.0-0.0","1821F336D9EA49FE815252461275C2D2","1821F336D9EA49FE815252461275C2D2","30aa87c8-c083-48d0-8e85-6974edf2d91b","e9cc2542-c7dc-4d8f-b94f-d088ad8989d1","{""part"":""2"",""participantId"":""1821F336D9EA49FE815252461275C2D2"",""assignmentId"":""30aa87c8-c083-48d0-8e85-6974edf2d91b"",""projectId"":""e9cc2542-c7dc-4d8f-b94f-d088ad8989d1""}","https://test12345.live/?part=2&participantId=1821F336D9EA49FE815252461275C2D2&assignmentId=30aa87c8-c083-48d0-8e85-6974edf2d91b&projectId=e9cc2542-c7dc-4d8f-b94f-d088ad8989d1","1821F336D9EA49FE815252461275C2D2-2025-05-16-18-47-46","","null","","images/causal_sequence/dog_causal/dog_causal_0.png","null","",""
"","","","","","html-audio-response","58","536924","0.0-56.0","1821F336D9EA49FE815252461275C2D2","1821F336D9EA49FE815252461275C2D2","30aa87c8-c083-48d0-8e85-6974edf2d91b","e9cc2542-c7dc-4d8f-b94f-d088ad8989d1","{""part"":""2"",""participantId"":""1821F336D9EA49FE815252461275C2D2"",""assignmentId"":""30aa87c8-c083-48d0-8e85-6974edf2d91b"",""projectId"":""e9cc2542-c7dc-4d8f-b94f-d088ad8989d1""}","https://test12345.live/?part=2&participantId=1821F336D9EA49FE815252461275C2D2&assignmentId=30aa87c8-c083-48d0-8e85-6974edf2d91b&projectId=e9cc2542-c7dc-4d8f-b94f-d088ad8989d1","1821F336D9EA49FE815252461275C2D2-2025-05-16-18-47-46","","4566","","[""<span style=\""color: red; font-size: 24px\""> NOW RECORDING</span><p>Please say out loud all the images you saw in part 1 of the experiment, as many as you can remember. The images can be said in any order.</p>""]","","2","dog_causal"
"","","","","","survey-text","59","542292","0.0-57.0","1821F336D9EA49FE815252461275C2D2","1821F336D9EA49FE815252461275C2D2","30aa87c8-c083-48d0-8e85-6974edf2d91b","e9cc2542-c7dc-4d8f-b94f-d088ad8989d1","{""part"":""2"",""participantId"":""1821F336D9EA49FE815252461275C2D2"",""assignmentId"":""30aa87c8-c083-48d0-8e85-6974edf2d91b"",""projectId"":""e9cc2542-c7dc-4d8f-b94f-d088ad8989d1""}","https://test12345.live/?part=2&participantId=1821F336D9EA49FE815252461275C2D2&assignmentId=30aa87c8-c083-48d0-8e85-6974edf2d91b&projectId=e9cc2542-c7dc-4d8f-b94f-d088ad8989d1","1821F336D9EA49FE815252461275C2D2-2025-05-16-18-47-46","","5362","","","{""Q0"":""MALE"",""Q1"":""23""}","",""
"","","","","","instructions","60","550457","0.0-58.0","1821F336D9EA49FE815252461275C2D2","1821F336D9EA49FE815252461275C2D2","30aa87c8-c083-48d0-8e85-6974edf2d91b","e9cc2542-c7dc-4d8f-b94f-d088ad8989d1","{""part"":""2"",""participantId"":""1821F336D9EA49FE815252461275C2D2"",""assignmentId"":""30aa87c8-c083-48d0-8e85-6974edf2d91b"",""projectId"":""e9cc2542-c7dc-4d8f-b94f-d088ad8989d1""}","https://test12345.live/?part=2&participantId=1821F336D9EA49FE815252461275C2D2&assignmentId=30aa87c8-c083-48d0-8e85-6974edf2d91b&projectId=e9cc2542-c7dc-4d8f-b94f-d088ad8989d1","1821F336D9EA49FE815252461275C2D2-2025-05-16-18-47-46","[{""page_index"":0,""viewing_time"":8164}]","8164","","","","",""
"","","","","","survey-text","61","551591","0.0-59.0","1821F336D9EA49FE815252461275C2D2","1821F336D9EA49FE815252461275C2D2","30aa87c8-c083-48d0-8e85-6974edf2d91b","e9cc2542-c7dc-4d8f-b94f-d088ad8989d1","{""part"":""2"",""participantId"":""1821F336D9EA49FE815252461275C2D2"",""assignmentId"":""30aa87c8-c083-48d0-8e85-6974edf2d91b"",""projectId"":""e9cc2542-c7dc-4d8f-b94f-d088ad8989d1""}","https://test12345.live/?part=2&participantId=1821F336D9EA49FE815252461275C2D2&assignmentId=30aa87c8-c083-48d0-8e85-6974edf2d91b&projectId=e9cc2542-c7dc-4d8f-b94f-d088ad8989d1","1821F336D9EA49FE815252461275C2D2-2025-05-16-18-47-46","","1131","","","{""Q0"":""AJFHBG896""}","",""
