"success","timeout","failed_images","failed_audio","failed_video","trial_type","trial_index","time_elapsed","internal_node_id","subject","subject_id","study_id","session_id","urlvar","current_url","audio_id","view_history","rt","device_id","stimulus","response","estimated_stimulus_onset","seq_name"
"true","false","[]","[]","[]","preload","0","23093","0.0-0.0","1A0AB02A14DD4D9494A29DB6E46A78A5","1A0AB02A14DD4D9494A29DB6E46A78A5","0198bf02-8e63-7b4d-bb71-80e5234f6a43","0198beef-981a-7243-9790-051e10551090","{""num_scrambled_semantic"":""8"",""num_scrambled_causal"":""4"",""num_scrambled_schematic"":""4"",""participantId"":""1A0AB02A14DD4D9494A29DB6E46A78A5"",""assignmentId"":""0198bf02-8e63-7b4d-bb71-80e5234f6a43"",""projectId"":""0198beef-981a-7243-9790-051e10551090""}","https://test12345.live/?num_scrambled_semantic=8&num_scrambled_causal=4&num_scrambled_schematic=4&participantId=1A0AB02A14DD4D9494A29DB6E46A78A5&assignmentId=0198bf02-8e63-7b4d-bb71-80e5234f6a43&projectId=0198beef-981a-7243-9790-051e10551090","1A0AB02A14DD4D9494A29DB6E46A78A5-2025-08-18-21-19-33","","","","","","",""
"","","","","","instructions","1","74842","0.0-1.0","1A0AB02A14DD4D9494A29DB6E46A78A5","1A0AB02A14DD4D9494A29DB6E46A78A5","0198bf02-8e63-7b4d-bb71-80e5234f6a43","0198beef-981a-7243-9790-051e10551090","{""num_scrambled_semantic"":""8"",""num_scrambled_causal"":""4"",""num_scrambled_schematic"":""4"",""participantId"":""1A0AB02A14DD4D9494A29DB6E46A78A5"",""assignmentId"":""0198bf02-8e63-7b4d-bb71-80e5234f6a43"",""projectId"":""0198beef-981a-7243-9790-051e10551090""}","https://test12345.live/?num_scrambled_semantic=8&num_scrambled_causal=4&num_scrambled_schematic=4&participantId=1A0AB02A14DD4D9494A29DB6E46A78A5&assignmentId=0198bf02-8e63-7b4d-bb71-80e5234f6a43&projectId=0198beef-981a-7243-9790-051e10551090","1A0AB02A14DD4D9494A29DB6E46A78A5-2025-08-18-21-19-33","[{""page_index"":0,""viewing_time"":51748}]","51748","","","","",""
"","","","","","instructions","2","79691","0.0-2.0","1A0AB02A14DD4D9494A29DB6E46A78A5","1A0AB02A14DD4D9494A29DB6E46A78A5","0198bf02-8e63-7b4d-bb71-80e5234f6a43","0198beef-981a-7243-9790-051e10551090","{""num_scrambled_semantic"":""8"",""num_scrambled_causal"":""4"",""num_scrambled_schematic"":""4"",""participantId"":""1A0AB02A14DD4D9494A29DB6E46A78A5"",""assignmentId"":""0198bf02-8e63-7b4d-bb71-80e5234f6a43"",""projectId"":""0198beef-981a-7243-9790-051e10551090""}","https://test12345.live/?num_scrambled_semantic=8&num_scrambled_causal=4&num_scrambled_schematic=4&participantId=1A0AB02A14DD4D9494A29DB6E46A78A5&assignmentId=0198bf02-8e63-7b4d-bb71-80e5234f6a43&projectId=0198beef-981a-7243-9790-051e10551090","1A0AB02A14DD4D9494A29DB6E46A78A5-2025-08-18-21-19-33","[{""page_index"":0,""viewing_time"":4846}]","4847","","","","",""
"true","","","","","fullscreen","3","81954","0.0-3.0","1A0AB02A14DD4D9494A29DB6E46A78A5","1A0AB02A14DD4D9494A29DB6E46A78A5","0198bf02-8e63-7b4d-bb71-80e5234f6a43","0198beef-981a-7243-9790-051e10551090","{""num_scrambled_semantic"":""8"",""num_scrambled_causal"":""4"",""num_scrambled_schematic"":""4"",""participantId"":""1A0AB02A14DD4D9494A29DB6E46A78A5"",""assignmentId"":""0198bf02-8e63-7b4d-bb71-80e5234f6a43"",""projectId"":""0198beef-981a-7243-9790-051e10551090""}","https://test12345.live/?num_scrambled_semantic=8&num_scrambled_causal=4&num_scrambled_schematic=4&participantId=1A0AB02A14DD4D9494A29DB6E46A78A5&assignmentId=0198bf02-8e63-7b4d-bb71-80e5234f6a43&projectId=0198beef-981a-7243-9790-051e10551090","1A0AB02A14DD4D9494A29DB6E46A78A5-2025-08-18-21-19-33","","1231","","","","",""
"","","","","","initialize-microphone","4","88614","0.0-4.0-0.0","1A0AB02A14DD4D9494A29DB6E46A78A5","1A0AB02A14DD4D9494A29DB6E46A78A5","0198bf02-8e63-7b4d-bb71-80e5234f6a43","0198beef-981a-7243-9790-051e10551090","{""num_scrambled_semantic"":""8"",""num_scrambled_causal"":""4"",""num_scrambled_schematic"":""4"",""participantId"":""1A0AB02A14DD4D9494A29DB6E46A78A5"",""assignmentId"":""0198bf02-8e63-7b4d-bb71-80e5234f6a43"",""projectId"":""0198beef-981a-7243-9790-051e10551090""}","https://test12345.live/?num_scrambled_semantic=8&num_scrambled_causal=4&num_scrambled_schematic=4&participantId=1A0AB02A14DD4D9494A29DB6E46A78A5&assignmentId=0198bf02-8e63-7b4d-bb71-80e5234f6a43&projectId=0198beef-981a-7243-9790-051e10551090","1A0AB02A14DD4D9494A29DB6E46A78A5-2025-08-18-21-19-33","","","ePKEKbmxqKapUltlU4DsHb/Mqp+HRXY8DcUdRKsWnVw=","","","",""
"","","","","","html-audio-response","5","96566","0.0-4.0-1.0","1A0AB02A14DD4D9494A29DB6E46A78A5","1A0AB02A14DD4D9494A29DB6E46A78A5","0198bf02-8e63-7b4d-bb71-80e5234f6a43","0198beef-981a-7243-9790-051e10551090","{""num_scrambled_semantic"":""8"",""num_scrambled_causal"":""4"",""num_scrambled_schematic"":""4"",""participantId"":""1A0AB02A14DD4D9494A29DB6E46A78A5"",""assignmentId"":""0198bf02-8e63-7b4d-bb71-80e5234f6a43"",""projectId"":""0198beef-981a-7243-9790-051e10551090""}","https://test12345.live/?num_scrambled_semantic=8&num_scrambled_causal=4&num_scrambled_schematic=4&participantId=1A0AB02A14DD4D9494A29DB6E46A78A5&assignmentId=0198bf02-8e63-7b4d-bb71-80e5234f6a43&projectId=0198beef-981a-7243-9790-051e10551090","1A0AB02A14DD4D9494A29DB6E46A78A5-2025-08-18-21-19-33","","2757","","<span style=""color: red; font-size: 24px""> NOW RECORDING</span>
        <p>Please test Microphone</p>","","2",""
"","","","","","html-button-response","6","97747","0.0-4.0-2.0","1A0AB02A14DD4D9494A29DB6E46A78A5","1A0AB02A14DD4D9494A29DB6E46A78A5","0198bf02-8e63-7b4d-bb71-80e5234f6a43","0198beef-981a-7243-9790-051e10551090","{""num_scrambled_semantic"":""8"",""num_scrambled_causal"":""4"",""num_scrambled_schematic"":""4"",""participantId"":""1A0AB02A14DD4D9494A29DB6E46A78A5"",""assignmentId"":""0198bf02-8e63-7b4d-bb71-80e5234f6a43"",""projectId"":""0198beef-981a-7243-9790-051e10551090""}","https://test12345.live/?num_scrambled_semantic=8&num_scrambled_causal=4&num_scrambled_schematic=4&participantId=1A0AB02A14DD4D9494A29DB6E46A78A5&assignmentId=0198bf02-8e63-7b4d-bb71-80e5234f6a43&projectId=0198beef-981a-7243-9790-051e10551090","1A0AB02A14DD4D9494A29DB6E46A78A5-2025-08-18-21-19-33","","1180","","<p style=""font-size:48px; color:red;"">Is Microphone OK?</p>","1","",""
"","","","","","instructions","7","110866","0.0-5.0","1A0AB02A14DD4D9494A29DB6E46A78A5","1A0AB02A14DD4D9494A29DB6E46A78A5","0198bf02-8e63-7b4d-bb71-80e5234f6a43","0198beef-981a-7243-9790-051e10551090","{""num_scrambled_semantic"":""8"",""num_scrambled_causal"":""4"",""num_scrambled_schematic"":""4"",""participantId"":""1A0AB02A14DD4D9494A29DB6E46A78A5"",""assignmentId"":""0198bf02-8e63-7b4d-bb71-80e5234f6a43"",""projectId"":""0198beef-981a-7243-9790-051e10551090""}","https://test12345.live/?num_scrambled_semantic=8&num_scrambled_causal=4&num_scrambled_schematic=4&participantId=1A0AB02A14DD4D9494A29DB6E46A78A5&assignmentId=0198bf02-8e63-7b4d-bb71-80e5234f6a43&projectId=0198beef-981a-7243-9790-051e10551090","1A0AB02A14DD4D9494A29DB6E46A78A5-2025-08-18-21-19-33","[{""page_index"":0,""viewing_time"":1479},{""page_index"":1,""viewing_time"":4351},{""page_index"":2,""viewing_time"":7288}]","13118","","","","",""
"","","","","","image-button-response","8","116909","0.0-6.0-0.0","1A0AB02A14DD4D9494A29DB6E46A78A5","1A0AB02A14DD4D9494A29DB6E46A78A5","0198bf02-8e63-7b4d-bb71-80e5234f6a43","0198beef-981a-7243-9790-051e10551090","{""num_scrambled_semantic"":""8"",""num_scrambled_causal"":""4"",""num_scrambled_schematic"":""4"",""participantId"":""1A0AB02A14DD4D9494A29DB6E46A78A5"",""assignmentId"":""0198bf02-8e63-7b4d-bb71-80e5234f6a43"",""projectId"":""0198beef-981a-7243-9790-051e10551090""}","https://test12345.live/?num_scrambled_semantic=8&num_scrambled_causal=4&num_scrambled_schematic=4&participantId=1A0AB02A14DD4D9494A29DB6E46A78A5&assignmentId=0198bf02-8e63-7b4d-bb71-80e5234f6a43&projectId=0198beef-981a-7243-9790-051e10551090","1A0AB02A14DD4D9494A29DB6E46A78A5-2025-08-18-21-19-33","","null","","images/instructions/movie_0.png","null","",""
"","","","","","html-audio-response","9","145275","0.0-7.0","1A0AB02A14DD4D9494A29DB6E46A78A5","1A0AB02A14DD4D9494A29DB6E46A78A5","0198bf02-8e63-7b4d-bb71-80e5234f6a43","0198beef-981a-7243-9790-051e10551090","{""num_scrambled_semantic"":""8"",""num_scrambled_causal"":""4"",""num_scrambled_schematic"":""4"",""participantId"":""1A0AB02A14DD4D9494A29DB6E46A78A5"",""assignmentId"":""0198bf02-8e63-7b4d-bb71-80e5234f6a43"",""projectId"":""0198beef-981a-7243-9790-051e10551090""}","https://test12345.live/?num_scrambled_semantic=8&num_scrambled_causal=4&num_scrambled_schematic=4&participantId=1A0AB02A14DD4D9494A29DB6E46A78A5&assignmentId=0198bf02-8e63-7b4d-bb71-80e5234f6a43&projectId=0198beef-981a-7243-9790-051e10551090","1A0AB02A14DD4D9494A29DB6E46A78A5-2025-08-18-21-19-33","","26440","","[""<span style=\""color: red; font-size: 24px\""> NOW RECORDING</span><p>Please say out loud all the images you saw in part 1 of the experiment, as many as you can remember. The images can be said in any order.</p>""]","","2",""
"","","","","","instructions","10","146739","0.0-8.0","1A0AB02A14DD4D9494A29DB6E46A78A5","1A0AB02A14DD4D9494A29DB6E46A78A5","0198bf02-8e63-7b4d-bb71-80e5234f6a43","0198beef-981a-7243-9790-051e10551090","{""num_scrambled_semantic"":""8"",""num_scrambled_causal"":""4"",""num_scrambled_schematic"":""4"",""participantId"":""1A0AB02A14DD4D9494A29DB6E46A78A5"",""assignmentId"":""0198bf02-8e63-7b4d-bb71-80e5234f6a43"",""projectId"":""0198beef-981a-7243-9790-051e10551090""}","https://test12345.live/?num_scrambled_semantic=8&num_scrambled_causal=4&num_scrambled_schematic=4&participantId=1A0AB02A14DD4D9494A29DB6E46A78A5&assignmentId=0198bf02-8e63-7b4d-bb71-80e5234f6a43&projectId=0198beef-981a-7243-9790-051e10551090","1A0AB02A14DD4D9494A29DB6E46A78A5-2025-08-18-21-19-33","[{""page_index"":0,""viewing_time"":1460}]","1460","","","","",""
"","","","","","image-button-response","11","152749","0.0-9.0-0.0","1A0AB02A14DD4D9494A29DB6E46A78A5","1A0AB02A14DD4D9494A29DB6E46A78A5","0198bf02-8e63-7b4d-bb71-80e5234f6a43","0198beef-981a-7243-9790-051e10551090","{""num_scrambled_semantic"":""8"",""num_scrambled_causal"":""4"",""num_scrambled_schematic"":""4"",""participantId"":""1A0AB02A14DD4D9494A29DB6E46A78A5"",""assignmentId"":""0198bf02-8e63-7b4d-bb71-80e5234f6a43"",""projectId"":""0198beef-981a-7243-9790-051e10551090""}","https://test12345.live/?num_scrambled_semantic=8&num_scrambled_causal=4&num_scrambled_schematic=4&participantId=1A0AB02A14DD4D9494A29DB6E46A78A5&assignmentId=0198bf02-8e63-7b4d-bb71-80e5234f6a43&projectId=0198beef-981a-7243-9790-051e10551090","1A0AB02A14DD4D9494A29DB6E46A78A5-2025-08-18-21-19-33","","null","","images/causal_sequence/coin_causal/coin_causal_0.png","null","",""
"","","","","","html-audio-response","12","190419","0.0-10.0","1A0AB02A14DD4D9494A29DB6E46A78A5","1A0AB02A14DD4D9494A29DB6E46A78A5","0198bf02-8e63-7b4d-bb71-80e5234f6a43","0198beef-981a-7243-9790-051e10551090","{""num_scrambled_semantic"":""8"",""num_scrambled_causal"":""4"",""num_scrambled_schematic"":""4"",""participantId"":""1A0AB02A14DD4D9494A29DB6E46A78A5"",""assignmentId"":""0198bf02-8e63-7b4d-bb71-80e5234f6a43"",""projectId"":""0198beef-981a-7243-9790-051e10551090""}","https://test12345.live/?num_scrambled_semantic=8&num_scrambled_causal=4&num_scrambled_schematic=4&participantId=1A0AB02A14DD4D9494A29DB6E46A78A5&assignmentId=0198bf02-8e63-7b4d-bb71-80e5234f6a43&projectId=0198beef-981a-7243-9790-051e10551090","1A0AB02A14DD4D9494A29DB6E46A78A5-2025-08-18-21-19-33","","36374","","[""<span style=\""color: red; font-size: 24px\""> NOW RECORDING</span><p>Please say out loud all the images you saw in part 1 of the experiment, as many as you can remember. The images can be said in any order.</p>""]","","0","coin_causal"
"","","","","","image-button-response","13","196436","0.0-11.0-0.0","1A0AB02A14DD4D9494A29DB6E46A78A5","1A0AB02A14DD4D9494A29DB6E46A78A5","0198bf02-8e63-7b4d-bb71-80e5234f6a43","0198beef-981a-7243-9790-051e10551090","{""num_scrambled_semantic"":""8"",""num_scrambled_causal"":""4"",""num_scrambled_schematic"":""4"",""participantId"":""1A0AB02A14DD4D9494A29DB6E46A78A5"",""assignmentId"":""0198bf02-8e63-7b4d-bb71-80e5234f6a43"",""projectId"":""0198beef-981a-7243-9790-051e10551090""}","https://test12345.live/?num_scrambled_semantic=8&num_scrambled_causal=4&num_scrambled_schematic=4&participantId=1A0AB02A14DD4D9494A29DB6E46A78A5&assignmentId=0198bf02-8e63-7b4d-bb71-80e5234f6a43&projectId=0198beef-981a-7243-9790-051e10551090","1A0AB02A14DD4D9494A29DB6E46A78A5-2025-08-18-21-19-33","","null","","images/semantic_sequence/creative_activities_semantic/creative_activities_semantic_0.png","null","",""
"","","","","","html-audio-response","14","231810","0.0-12.0","1A0AB02A14DD4D9494A29DB6E46A78A5","1A0AB02A14DD4D9494A29DB6E46A78A5","0198bf02-8e63-7b4d-bb71-80e5234f6a43","0198beef-981a-7243-9790-051e10551090","{""num_scrambled_semantic"":""8"",""num_scrambled_causal"":""4"",""num_scrambled_schematic"":""4"",""participantId"":""1A0AB02A14DD4D9494A29DB6E46A78A5"",""assignmentId"":""0198bf02-8e63-7b4d-bb71-80e5234f6a43"",""projectId"":""0198beef-981a-7243-9790-051e10551090""}","https://test12345.live/?num_scrambled_semantic=8&num_scrambled_causal=4&num_scrambled_schematic=4&participantId=1A0AB02A14DD4D9494A29DB6E46A78A5&assignmentId=0198bf02-8e63-7b4d-bb71-80e5234f6a43&projectId=0198beef-981a-7243-9790-051e10551090","1A0AB02A14DD4D9494A29DB6E46A78A5-2025-08-18-21-19-33","","34352","","[""<span style=\""color: red; font-size: 24px\""> NOW RECORDING</span><p>Please say out loud all the images you saw in part 1 of the experiment, as many as you can remember. The images can be said in any order.</p>""]","","1","creative_activities_semantic"
"","","","","","image-button-response","15","237839","0.0-13.0-0.0","1A0AB02A14DD4D9494A29DB6E46A78A5","1A0AB02A14DD4D9494A29DB6E46A78A5","0198bf02-8e63-7b4d-bb71-80e5234f6a43","0198beef-981a-7243-9790-051e10551090","{""num_scrambled_semantic"":""8"",""num_scrambled_causal"":""4"",""num_scrambled_schematic"":""4"",""participantId"":""1A0AB02A14DD4D9494A29DB6E46A78A5"",""assignmentId"":""0198bf02-8e63-7b4d-bb71-80e5234f6a43"",""projectId"":""0198beef-981a-7243-9790-051e10551090""}","https://test12345.live/?num_scrambled_semantic=8&num_scrambled_causal=4&num_scrambled_schematic=4&participantId=1A0AB02A14DD4D9494A29DB6E46A78A5&assignmentId=0198bf02-8e63-7b4d-bb71-80e5234f6a43&projectId=0198beef-981a-7243-9790-051e10551090","1A0AB02A14DD4D9494A29DB6E46A78A5-2025-08-18-21-19-33","","null","","images/causal_sequence/museum_causal/museum_causal_0.png","null","",""
"","","","","","html-audio-response","16","266700","0.0-14.0","1A0AB02A14DD4D9494A29DB6E46A78A5","1A0AB02A14DD4D9494A29DB6E46A78A5","0198bf02-8e63-7b4d-bb71-80e5234f6a43","0198beef-981a-7243-9790-051e10551090","{""num_scrambled_semantic"":""8"",""num_scrambled_causal"":""4"",""num_scrambled_schematic"":""4"",""participantId"":""1A0AB02A14DD4D9494A29DB6E46A78A5"",""assignmentId"":""0198bf02-8e63-7b4d-bb71-80e5234f6a43"",""projectId"":""0198beef-981a-7243-9790-051e10551090""}","https://test12345.live/?num_scrambled_semantic=8&num_scrambled_causal=4&num_scrambled_schematic=4&participantId=1A0AB02A14DD4D9494A29DB6E46A78A5&assignmentId=0198bf02-8e63-7b4d-bb71-80e5234f6a43&projectId=0198beef-981a-7243-9790-051e10551090","1A0AB02A14DD4D9494A29DB6E46A78A5-2025-08-18-21-19-33","","27594","","[""<span style=\""color: red; font-size: 24px\""> NOW RECORDING</span><p>Please say out loud all the images you saw in part 1 of the experiment, as many as you can remember. The images can be said in any order.</p>""]","","1","museum_causal"
"","","","","","image-button-response","17","272718","0.0-15.0-0.0","1A0AB02A14DD4D9494A29DB6E46A78A5","1A0AB02A14DD4D9494A29DB6E46A78A5","0198bf02-8e63-7b4d-bb71-80e5234f6a43","0198beef-981a-7243-9790-051e10551090","{""num_scrambled_semantic"":""8"",""num_scrambled_causal"":""4"",""num_scrambled_schematic"":""4"",""participantId"":""1A0AB02A14DD4D9494A29DB6E46A78A5"",""assignmentId"":""0198bf02-8e63-7b4d-bb71-80e5234f6a43"",""projectId"":""0198beef-981a-7243-9790-051e10551090""}","https://test12345.live/?num_scrambled_semantic=8&num_scrambled_causal=4&num_scrambled_schematic=4&participantId=1A0AB02A14DD4D9494A29DB6E46A78A5&assignmentId=0198bf02-8e63-7b4d-bb71-80e5234f6a43&projectId=0198beef-981a-7243-9790-051e10551090","1A0AB02A14DD4D9494A29DB6E46A78A5-2025-08-18-21-19-33","","null","","images/causal_sequence/package_causal/package_causal_0.png","null","",""
"","","","","","html-audio-response","18","307115","0.0-16.0","1A0AB02A14DD4D9494A29DB6E46A78A5","1A0AB02A14DD4D9494A29DB6E46A78A5","0198bf02-8e63-7b4d-bb71-80e5234f6a43","0198beef-981a-7243-9790-051e10551090","{""num_scrambled_semantic"":""8"",""num_scrambled_causal"":""4"",""num_scrambled_schematic"":""4"",""participantId"":""1A0AB02A14DD4D9494A29DB6E46A78A5"",""assignmentId"":""0198bf02-8e63-7b4d-bb71-80e5234f6a43"",""projectId"":""0198beef-981a-7243-9790-051e10551090""}","https://test12345.live/?num_scrambled_semantic=8&num_scrambled_causal=4&num_scrambled_schematic=4&participantId=1A0AB02A14DD4D9494A29DB6E46A78A5&assignmentId=0198bf02-8e63-7b4d-bb71-80e5234f6a43&projectId=0198beef-981a-7243-9790-051e10551090","1A0AB02A14DD4D9494A29DB6E46A78A5-2025-08-18-21-19-33","","33554","","[""<span style=\""color: red; font-size: 24px\""> NOW RECORDING</span><p>Please say out loud all the images you saw in part 1 of the experiment, as many as you can remember. The images can be said in any order.</p>""]","","0","package_causal"
"","","","","","image-button-response","19","313134","0.0-17.0-0.0","1A0AB02A14DD4D9494A29DB6E46A78A5","1A0AB02A14DD4D9494A29DB6E46A78A5","0198bf02-8e63-7b4d-bb71-80e5234f6a43","0198beef-981a-7243-9790-051e10551090","{""num_scrambled_semantic"":""8"",""num_scrambled_causal"":""4"",""num_scrambled_schematic"":""4"",""participantId"":""1A0AB02A14DD4D9494A29DB6E46A78A5"",""assignmentId"":""0198bf02-8e63-7b4d-bb71-80e5234f6a43"",""projectId"":""0198beef-981a-7243-9790-051e10551090""}","https://test12345.live/?num_scrambled_semantic=8&num_scrambled_causal=4&num_scrambled_schematic=4&participantId=1A0AB02A14DD4D9494A29DB6E46A78A5&assignmentId=0198bf02-8e63-7b4d-bb71-80e5234f6a43&projectId=0198beef-981a-7243-9790-051e10551090","1A0AB02A14DD4D9494A29DB6E46A78A5-2025-08-18-21-19-33","","null","","images/semantic_sequence/housework_semantic/housework_semantic_0.png","null","",""
"","","","","","html-audio-response","20","342515","0.0-18.0","1A0AB02A14DD4D9494A29DB6E46A78A5","1A0AB02A14DD4D9494A29DB6E46A78A5","0198bf02-8e63-7b4d-bb71-80e5234f6a43","0198beef-981a-7243-9790-051e10551090","{""num_scrambled_semantic"":""8"",""num_scrambled_causal"":""4"",""num_scrambled_schematic"":""4"",""participantId"":""1A0AB02A14DD4D9494A29DB6E46A78A5"",""assignmentId"":""0198bf02-8e63-7b4d-bb71-80e5234f6a43"",""projectId"":""0198beef-981a-7243-9790-051e10551090""}","https://test12345.live/?num_scrambled_semantic=8&num_scrambled_causal=4&num_scrambled_schematic=4&participantId=1A0AB02A14DD4D9494A29DB6E46A78A5&assignmentId=0198bf02-8e63-7b4d-bb71-80e5234f6a43&projectId=0198beef-981a-7243-9790-051e10551090","1A0AB02A14DD4D9494A29DB6E46A78A5-2025-08-18-21-19-33","","28400","","[""<span style=\""color: red; font-size: 24px\""> NOW RECORDING</span><p>Please say out loud all the images you saw in part 1 of the experiment, as many as you can remember. The images can be said in any order.</p>""]","","1","housework_semantic"
"","","","","","image-button-response","21","348537","0.0-19.0-0.0","1A0AB02A14DD4D9494A29DB6E46A78A5","1A0AB02A14DD4D9494A29DB6E46A78A5","0198bf02-8e63-7b4d-bb71-80e5234f6a43","0198beef-981a-7243-9790-051e10551090","{""num_scrambled_semantic"":""8"",""num_scrambled_causal"":""4"",""num_scrambled_schematic"":""4"",""participantId"":""1A0AB02A14DD4D9494A29DB6E46A78A5"",""assignmentId"":""0198bf02-8e63-7b4d-bb71-80e5234f6a43"",""projectId"":""0198beef-981a-7243-9790-051e10551090""}","https://test12345.live/?num_scrambled_semantic=8&num_scrambled_causal=4&num_scrambled_schematic=4&participantId=1A0AB02A14DD4D9494A29DB6E46A78A5&assignmentId=0198bf02-8e63-7b4d-bb71-80e5234f6a43&projectId=0198beef-981a-7243-9790-051e10551090","1A0AB02A14DD4D9494A29DB6E46A78A5-2025-08-18-21-19-33","","null","","images/semantic_sequence/physical_activity_semantic/physical_activity_semantic_0.png","null","",""
"","","","","","html-audio-response","22","377979","0.0-20.0","1A0AB02A14DD4D9494A29DB6E46A78A5","1A0AB02A14DD4D9494A29DB6E46A78A5","0198bf02-8e63-7b4d-bb71-80e5234f6a43","0198beef-981a-7243-9790-051e10551090","{""num_scrambled_semantic"":""8"",""num_scrambled_causal"":""4"",""num_scrambled_schematic"":""4"",""participantId"":""1A0AB02A14DD4D9494A29DB6E46A78A5"",""assignmentId"":""0198bf02-8e63-7b4d-bb71-80e5234f6a43"",""projectId"":""0198beef-981a-7243-9790-051e10551090""}","https://test12345.live/?num_scrambled_semantic=8&num_scrambled_causal=4&num_scrambled_schematic=4&participantId=1A0AB02A14DD4D9494A29DB6E46A78A5&assignmentId=0198bf02-8e63-7b4d-bb71-80e5234f6a43&projectId=0198beef-981a-7243-9790-051e10551090","1A0AB02A14DD4D9494A29DB6E46A78A5-2025-08-18-21-19-33","","28223","","[""<span style=\""color: red; font-size: 24px\""> NOW RECORDING</span><p>Please say out loud all the images you saw in part 1 of the experiment, as many as you can remember. The images can be said in any order.</p>""]","","0","physical_activity_semantic"
"","","","","","image-button-response","23","384000","0.0-21.0-0.0","1A0AB02A14DD4D9494A29DB6E46A78A5","1A0AB02A14DD4D9494A29DB6E46A78A5","0198bf02-8e63-7b4d-bb71-80e5234f6a43","0198beef-981a-7243-9790-051e10551090","{""num_scrambled_semantic"":""8"",""num_scrambled_causal"":""4"",""num_scrambled_schematic"":""4"",""participantId"":""1A0AB02A14DD4D9494A29DB6E46A78A5"",""assignmentId"":""0198bf02-8e63-7b4d-bb71-80e5234f6a43"",""projectId"":""0198beef-981a-7243-9790-051e10551090""}","https://test12345.live/?num_scrambled_semantic=8&num_scrambled_causal=4&num_scrambled_schematic=4&participantId=1A0AB02A14DD4D9494A29DB6E46A78A5&assignmentId=0198bf02-8e63-7b4d-bb71-80e5234f6a43&projectId=0198beef-981a-7243-9790-051e10551090","1A0AB02A14DD4D9494A29DB6E46A78A5-2025-08-18-21-19-33","","null","","images/causal_sequence/dog_causal/dog_causal_0.png","null","",""
"","","","","","html-audio-response","24","430683","0.0-22.0","1A0AB02A14DD4D9494A29DB6E46A78A5","1A0AB02A14DD4D9494A29DB6E46A78A5","0198bf02-8e63-7b4d-bb71-80e5234f6a43","0198beef-981a-7243-9790-051e10551090","{""num_scrambled_semantic"":""8"",""num_scrambled_causal"":""4"",""num_scrambled_schematic"":""4"",""participantId"":""1A0AB02A14DD4D9494A29DB6E46A78A5"",""assignmentId"":""0198bf02-8e63-7b4d-bb71-80e5234f6a43"",""projectId"":""0198beef-981a-7243-9790-051e10551090""}","https://test12345.live/?num_scrambled_semantic=8&num_scrambled_causal=4&num_scrambled_schematic=4&participantId=1A0AB02A14DD4D9494A29DB6E46A78A5&assignmentId=0198bf02-8e63-7b4d-bb71-80e5234f6a43&projectId=0198beef-981a-7243-9790-051e10551090","1A0AB02A14DD4D9494A29DB6E46A78A5-2025-08-18-21-19-33","","45408","","[""<span style=\""color: red; font-size: 24px\""> NOW RECORDING</span><p>Please say out loud all the images you saw in part 1 of the experiment, as many as you can remember. The images can be said in any order.</p>""]","","1","dog_causal"
"","","","","","image-button-response","25","436699","0.0-23.0-0.0","1A0AB02A14DD4D9494A29DB6E46A78A5","1A0AB02A14DD4D9494A29DB6E46A78A5","0198bf02-8e63-7b4d-bb71-80e5234f6a43","0198beef-981a-7243-9790-051e10551090","{""num_scrambled_semantic"":""8"",""num_scrambled_causal"":""4"",""num_scrambled_schematic"":""4"",""participantId"":""1A0AB02A14DD4D9494A29DB6E46A78A5"",""assignmentId"":""0198bf02-8e63-7b4d-bb71-80e5234f6a43"",""projectId"":""0198beef-981a-7243-9790-051e10551090""}","https://test12345.live/?num_scrambled_semantic=8&num_scrambled_causal=4&num_scrambled_schematic=4&participantId=1A0AB02A14DD4D9494A29DB6E46A78A5&assignmentId=0198bf02-8e63-7b4d-bb71-80e5234f6a43&projectId=0198beef-981a-7243-9790-051e10551090","1A0AB02A14DD4D9494A29DB6E46A78A5-2025-08-18-21-19-33","","null","","images/semantic_sequence/redecorating_semantic/redecorating_semantic_0.png","null","",""
"","","","","","html-audio-response","26","470371","0.0-24.0","1A0AB02A14DD4D9494A29DB6E46A78A5","1A0AB02A14DD4D9494A29DB6E46A78A5","0198bf02-8e63-7b4d-bb71-80e5234f6a43","0198beef-981a-7243-9790-051e10551090","{""num_scrambled_semantic"":""8"",""num_scrambled_causal"":""4"",""num_scrambled_schematic"":""4"",""participantId"":""1A0AB02A14DD4D9494A29DB6E46A78A5"",""assignmentId"":""0198bf02-8e63-7b4d-bb71-80e5234f6a43"",""projectId"":""0198beef-981a-7243-9790-051e10551090""}","https://test12345.live/?num_scrambled_semantic=8&num_scrambled_causal=4&num_scrambled_schematic=4&participantId=1A0AB02A14DD4D9494A29DB6E46A78A5&assignmentId=0198bf02-8e63-7b4d-bb71-80e5234f6a43&projectId=0198beef-981a-7243-9790-051e10551090","1A0AB02A14DD4D9494A29DB6E46A78A5-2025-08-18-21-19-33","","32527","","[""<span style=\""color: red; font-size: 24px\""> NOW RECORDING</span><p>Please say out loud all the images you saw in part 1 of the experiment, as many as you can remember. The images can be said in any order.</p>""]","","0","redecorating_semantic"
"","","","","","image-button-response","27","476384","0.0-25.0-0.0","1A0AB02A14DD4D9494A29DB6E46A78A5","1A0AB02A14DD4D9494A29DB6E46A78A5","0198bf02-8e63-7b4d-bb71-80e5234f6a43","0198beef-981a-7243-9790-051e10551090","{""num_scrambled_semantic"":""8"",""num_scrambled_causal"":""4"",""num_scrambled_schematic"":""4"",""participantId"":""1A0AB02A14DD4D9494A29DB6E46A78A5"",""assignmentId"":""0198bf02-8e63-7b4d-bb71-80e5234f6a43"",""projectId"":""0198beef-981a-7243-9790-051e10551090""}","https://test12345.live/?num_scrambled_semantic=8&num_scrambled_causal=4&num_scrambled_schematic=4&participantId=1A0AB02A14DD4D9494A29DB6E46A78A5&assignmentId=0198bf02-8e63-7b4d-bb71-80e5234f6a43&projectId=0198beef-981a-7243-9790-051e10551090","1A0AB02A14DD4D9494A29DB6E46A78A5-2025-08-18-21-19-33","","null","","images/semantic_sequence/cat_care_semantic/cat_care_semantic_0.png","null","",""
"","","","","","html-audio-response","28","517290","0.0-26.0","1A0AB02A14DD4D9494A29DB6E46A78A5","1A0AB02A14DD4D9494A29DB6E46A78A5","0198bf02-8e63-7b4d-bb71-80e5234f6a43","0198beef-981a-7243-9790-051e10551090","{""num_scrambled_semantic"":""8"",""num_scrambled_causal"":""4"",""num_scrambled_schematic"":""4"",""participantId"":""1A0AB02A14DD4D9494A29DB6E46A78A5"",""assignmentId"":""0198bf02-8e63-7b4d-bb71-80e5234f6a43"",""projectId"":""0198beef-981a-7243-9790-051e10551090""}","https://test12345.live/?num_scrambled_semantic=8&num_scrambled_causal=4&num_scrambled_schematic=4&participantId=1A0AB02A14DD4D9494A29DB6E46A78A5&assignmentId=0198bf02-8e63-7b4d-bb71-80e5234f6a43&projectId=0198beef-981a-7243-9790-051e10551090","1A0AB02A14DD4D9494A29DB6E46A78A5-2025-08-18-21-19-33","","39610","","[""<span style=\""color: red; font-size: 24px\""> NOW RECORDING</span><p>Please say out loud all the images you saw in part 1 of the experiment, as many as you can remember. The images can be said in any order.</p>""]","","1","cat_care_semantic"
"","","","","","image-button-response","29","523315","0.0-27.0-0.0","1A0AB02A14DD4D9494A29DB6E46A78A5","1A0AB02A14DD4D9494A29DB6E46A78A5","0198bf02-8e63-7b4d-bb71-80e5234f6a43","0198beef-981a-7243-9790-051e10551090","{""num_scrambled_semantic"":""8"",""num_scrambled_causal"":""4"",""num_scrambled_schematic"":""4"",""participantId"":""1A0AB02A14DD4D9494A29DB6E46A78A5"",""assignmentId"":""0198bf02-8e63-7b4d-bb71-80e5234f6a43"",""projectId"":""0198beef-981a-7243-9790-051e10551090""}","https://test12345.live/?num_scrambled_semantic=8&num_scrambled_causal=4&num_scrambled_schematic=4&participantId=1A0AB02A14DD4D9494A29DB6E46A78A5&assignmentId=0198bf02-8e63-7b4d-bb71-80e5234f6a43&projectId=0198beef-981a-7243-9790-051e10551090","1A0AB02A14DD4D9494A29DB6E46A78A5-2025-08-18-21-19-33","","null","","images/semantic_sequence/using_technology_semantic/using_technology_semantic_0.png","null","",""
"","","","","","html-audio-response","30","551450","0.0-28.0","1A0AB02A14DD4D9494A29DB6E46A78A5","1A0AB02A14DD4D9494A29DB6E46A78A5","0198bf02-8e63-7b4d-bb71-80e5234f6a43","0198beef-981a-7243-9790-051e10551090","{""num_scrambled_semantic"":""8"",""num_scrambled_causal"":""4"",""num_scrambled_schematic"":""4"",""participantId"":""1A0AB02A14DD4D9494A29DB6E46A78A5"",""assignmentId"":""0198bf02-8e63-7b4d-bb71-80e5234f6a43"",""projectId"":""0198beef-981a-7243-9790-051e10551090""}","https://test12345.live/?num_scrambled_semantic=8&num_scrambled_causal=4&num_scrambled_schematic=4&participantId=1A0AB02A14DD4D9494A29DB6E46A78A5&assignmentId=0198bf02-8e63-7b4d-bb71-80e5234f6a43&projectId=0198beef-981a-7243-9790-051e10551090","1A0AB02A14DD4D9494A29DB6E46A78A5-2025-08-18-21-19-33","","27066","","[""<span style=\""color: red; font-size: 24px\""> NOW RECORDING</span><p>Please say out loud all the images you saw in part 1 of the experiment, as many as you can remember. The images can be said in any order.</p>""]","","1","using_technology_semantic"
"","","","","","image-button-response","31","557465","0.0-29.0-0.0","1A0AB02A14DD4D9494A29DB6E46A78A5","1A0AB02A14DD4D9494A29DB6E46A78A5","0198bf02-8e63-7b4d-bb71-80e5234f6a43","0198beef-981a-7243-9790-051e10551090","{""num_scrambled_semantic"":""8"",""num_scrambled_causal"":""4"",""num_scrambled_schematic"":""4"",""participantId"":""1A0AB02A14DD4D9494A29DB6E46A78A5"",""assignmentId"":""0198bf02-8e63-7b4d-bb71-80e5234f6a43"",""projectId"":""0198beef-981a-7243-9790-051e10551090""}","https://test12345.live/?num_scrambled_semantic=8&num_scrambled_causal=4&num_scrambled_schematic=4&participantId=1A0AB02A14DD4D9494A29DB6E46A78A5&assignmentId=0198bf02-8e63-7b4d-bb71-80e5234f6a43&projectId=0198beef-981a-7243-9790-051e10551090","1A0AB02A14DD4D9494A29DB6E46A78A5-2025-08-18-21-19-33","","null","","images/semantic_sequence/maintaining_a_car_semantic/maintaining_a_car_semantic_0.png","null","",""
"","","","","","html-audio-response","32","584435","0.0-30.0","1A0AB02A14DD4D9494A29DB6E46A78A5","1A0AB02A14DD4D9494A29DB6E46A78A5","0198bf02-8e63-7b4d-bb71-80e5234f6a43","0198beef-981a-7243-9790-051e10551090","{""num_scrambled_semantic"":""8"",""num_scrambled_causal"":""4"",""num_scrambled_schematic"":""4"",""participantId"":""1A0AB02A14DD4D9494A29DB6E46A78A5"",""assignmentId"":""0198bf02-8e63-7b4d-bb71-80e5234f6a43"",""projectId"":""0198beef-981a-7243-9790-051e10551090""}","https://test12345.live/?num_scrambled_semantic=8&num_scrambled_causal=4&num_scrambled_schematic=4&participantId=1A0AB02A14DD4D9494A29DB6E46A78A5&assignmentId=0198bf02-8e63-7b4d-bb71-80e5234f6a43&projectId=0198beef-981a-7243-9790-051e10551090","1A0AB02A14DD4D9494A29DB6E46A78A5-2025-08-18-21-19-33","","25879","","[""<span style=\""color: red; font-size: 24px\""> NOW RECORDING</span><p>Please say out loud all the images you saw in part 1 of the experiment, as many as you can remember. The images can be said in any order.</p>""]","","0","maintaining_a_car_semantic"
"","","","","","image-button-response","33","590452","0.0-31.0-0.0","1A0AB02A14DD4D9494A29DB6E46A78A5","1A0AB02A14DD4D9494A29DB6E46A78A5","0198bf02-8e63-7b4d-bb71-80e5234f6a43","0198beef-981a-7243-9790-051e10551090","{""num_scrambled_semantic"":""8"",""num_scrambled_causal"":""4"",""num_scrambled_schematic"":""4"",""participantId"":""1A0AB02A14DD4D9494A29DB6E46A78A5"",""assignmentId"":""0198bf02-8e63-7b4d-bb71-80e5234f6a43"",""projectId"":""0198beef-981a-7243-9790-051e10551090""}","https://test12345.live/?num_scrambled_semantic=8&num_scrambled_causal=4&num_scrambled_schematic=4&participantId=1A0AB02A14DD4D9494A29DB6E46A78A5&assignmentId=0198bf02-8e63-7b4d-bb71-80e5234f6a43&projectId=0198beef-981a-7243-9790-051e10551090","1A0AB02A14DD4D9494A29DB6E46A78A5-2025-08-18-21-19-33","","null","","images/causal_sequence/the_performance_causal/the_performance_causal_0.png","null","",""
"","","","","","html-audio-response","34","637443","0.0-32.0","1A0AB02A14DD4D9494A29DB6E46A78A5","1A0AB02A14DD4D9494A29DB6E46A78A5","0198bf02-8e63-7b4d-bb71-80e5234f6a43","0198beef-981a-7243-9790-051e10551090","{""num_scrambled_semantic"":""8"",""num_scrambled_causal"":""4"",""num_scrambled_schematic"":""4"",""participantId"":""1A0AB02A14DD4D9494A29DB6E46A78A5"",""assignmentId"":""0198bf02-8e63-7b4d-bb71-80e5234f6a43"",""projectId"":""0198beef-981a-7243-9790-051e10551090""}","https://test12345.live/?num_scrambled_semantic=8&num_scrambled_causal=4&num_scrambled_schematic=4&participantId=1A0AB02A14DD4D9494A29DB6E46A78A5&assignmentId=0198bf02-8e63-7b4d-bb71-80e5234f6a43&projectId=0198beef-981a-7243-9790-051e10551090","1A0AB02A14DD4D9494A29DB6E46A78A5-2025-08-18-21-19-33","","45626","","[""<span style=\""color: red; font-size: 24px\""> NOW RECORDING</span><p>Please say out loud all the images you saw in part 1 of the experiment, as many as you can remember. The images can be said in any order.</p>""]","","0","the_performance_causal"
"","","","","","image-button-response","35","643455","0.0-33.0-0.0","1A0AB02A14DD4D9494A29DB6E46A78A5","1A0AB02A14DD4D9494A29DB6E46A78A5","0198bf02-8e63-7b4d-bb71-80e5234f6a43","0198beef-981a-7243-9790-051e10551090","{""num_scrambled_semantic"":""8"",""num_scrambled_causal"":""4"",""num_scrambled_schematic"":""4"",""participantId"":""1A0AB02A14DD4D9494A29DB6E46A78A5"",""assignmentId"":""0198bf02-8e63-7b4d-bb71-80e5234f6a43"",""projectId"":""0198beef-981a-7243-9790-051e10551090""}","https://test12345.live/?num_scrambled_semantic=8&num_scrambled_causal=4&num_scrambled_schematic=4&participantId=1A0AB02A14DD4D9494A29DB6E46A78A5&assignmentId=0198bf02-8e63-7b4d-bb71-80e5234f6a43&projectId=0198beef-981a-7243-9790-051e10551090","1A0AB02A14DD4D9494A29DB6E46A78A5-2025-08-18-21-19-33","","null","","images/causal_sequence/saving_a_cat_causal/saving_a_cat_causal_0.png","null","",""
"","","","","","html-audio-response","36","695114","0.0-34.0","1A0AB02A14DD4D9494A29DB6E46A78A5","1A0AB02A14DD4D9494A29DB6E46A78A5","0198bf02-8e63-7b4d-bb71-80e5234f6a43","0198beef-981a-7243-9790-051e10551090","{""num_scrambled_semantic"":""8"",""num_scrambled_causal"":""4"",""num_scrambled_schematic"":""4"",""participantId"":""1A0AB02A14DD4D9494A29DB6E46A78A5"",""assignmentId"":""0198bf02-8e63-7b4d-bb71-80e5234f6a43"",""projectId"":""0198beef-981a-7243-9790-051e10551090""}","https://test12345.live/?num_scrambled_semantic=8&num_scrambled_causal=4&num_scrambled_schematic=4&participantId=1A0AB02A14DD4D9494A29DB6E46A78A5&assignmentId=0198bf02-8e63-7b4d-bb71-80e5234f6a43&projectId=0198beef-981a-7243-9790-051e10551090","1A0AB02A14DD4D9494A29DB6E46A78A5-2025-08-18-21-19-33","","50476","","[""<span style=\""color: red; font-size: 24px\""> NOW RECORDING</span><p>Please say out loud all the images you saw in part 1 of the experiment, as many as you can remember. The images can be said in any order.</p>""]","","1","saving_a_cat_causal"
"","","","","","survey-text","37","701830","0.0-35.0","1A0AB02A14DD4D9494A29DB6E46A78A5","1A0AB02A14DD4D9494A29DB6E46A78A5","0198bf02-8e63-7b4d-bb71-80e5234f6a43","0198beef-981a-7243-9790-051e10551090","{""num_scrambled_semantic"":""8"",""num_scrambled_causal"":""4"",""num_scrambled_schematic"":""4"",""participantId"":""1A0AB02A14DD4D9494A29DB6E46A78A5"",""assignmentId"":""0198bf02-8e63-7b4d-bb71-80e5234f6a43"",""projectId"":""0198beef-981a-7243-9790-051e10551090""}","https://test12345.live/?num_scrambled_semantic=8&num_scrambled_causal=4&num_scrambled_schematic=4&participantId=1A0AB02A14DD4D9494A29DB6E46A78A5&assignmentId=0198bf02-8e63-7b4d-bb71-80e5234f6a43&projectId=0198beef-981a-7243-9790-051e10551090","1A0AB02A14DD4D9494A29DB6E46A78A5-2025-08-18-21-19-33","","6671","","","{""Q0"":""MALE"",""Q1"":""28""}","",""
"","","","","","instructions","38","707554","0.0-36.0","1A0AB02A14DD4D9494A29DB6E46A78A5","1A0AB02A14DD4D9494A29DB6E46A78A5","0198bf02-8e63-7b4d-bb71-80e5234f6a43","0198beef-981a-7243-9790-051e10551090","{""num_scrambled_semantic"":""8"",""num_scrambled_causal"":""4"",""num_scrambled_schematic"":""4"",""participantId"":""1A0AB02A14DD4D9494A29DB6E46A78A5"",""assignmentId"":""0198bf02-8e63-7b4d-bb71-80e5234f6a43"",""projectId"":""0198beef-981a-7243-9790-051e10551090""}","https://test12345.live/?num_scrambled_semantic=8&num_scrambled_causal=4&num_scrambled_schematic=4&participantId=1A0AB02A14DD4D9494A29DB6E46A78A5&assignmentId=0198bf02-8e63-7b4d-bb71-80e5234f6a43&projectId=0198beef-981a-7243-9790-051e10551090","1A0AB02A14DD4D9494A29DB6E46A78A5-2025-08-18-21-19-33","[{""page_index"":0,""viewing_time"":5723}]","5724","","","","",""
"","","","","","survey-text","39","710306","0.0-37.0","1A0AB02A14DD4D9494A29DB6E46A78A5","1A0AB02A14DD4D9494A29DB6E46A78A5","0198bf02-8e63-7b4d-bb71-80e5234f6a43","0198beef-981a-7243-9790-051e10551090","{""num_scrambled_semantic"":""8"",""num_scrambled_causal"":""4"",""num_scrambled_schematic"":""4"",""participantId"":""1A0AB02A14DD4D9494A29DB6E46A78A5"",""assignmentId"":""0198bf02-8e63-7b4d-bb71-80e5234f6a43"",""projectId"":""0198beef-981a-7243-9790-051e10551090""}","https://test12345.live/?num_scrambled_semantic=8&num_scrambled_causal=4&num_scrambled_schematic=4&participantId=1A0AB02A14DD4D9494A29DB6E46A78A5&assignmentId=0198bf02-8e63-7b4d-bb71-80e5234f6a43&projectId=0198beef-981a-7243-9790-051e10551090","1A0AB02A14DD4D9494A29DB6E46A78A5-2025-08-18-21-19-33","","2751","","","{""Q0"":""AJFHBG896""}","",""
