"success","timeout","failed_images","failed_audio","failed_video","trial_type","trial_index","time_elapsed","internal_node_id","subject","subject_id","study_id","session_id","urlvar","current_url","audio_id","view_history","rt","device_id","stimulus","response","estimated_stimulus_onset","seq_name"
"true","false","[]","[]","[]","preload","0","55046","0.0-0.0","1ED68823D3214CDBB80039EC4F099D48","1ED68823D3214CDBB80039EC4F099D48","8f834c55-e9ed-463f-9820-8d3be583ae66","9596d7a2-d401-47b1-aedd-70105f5f2f42","{""part"":""2"",""participantId"":""1ED68823D3214CDBB80039EC4F099D48"",""assignmentId"":""8f834c55-e9ed-463f-9820-8d3be583ae66"",""projectId"":""9596d7a2-d401-47b1-aedd-70105f5f2f42""}","https://test12345.live/?part=2&participantId=1ED68823D3214CDBB80039EC4F099D48&assignmentId=8f834c55-e9ed-463f-9820-8d3be583ae66&projectId=9596d7a2-d401-47b1-aedd-70105f5f2f42","1ED68823D3214CDBB80039EC4F099D48-2025-05-28-17-59-41","","","","","","",""
"","","","","","instructions","1","62733","0.0-1.0","1ED68823D3214CDBB80039EC4F099D48","1ED68823D3214CDBB80039EC4F099D48","8f834c55-e9ed-463f-9820-8d3be583ae66","9596d7a2-d401-47b1-aedd-70105f5f2f42","{""part"":""2"",""participantId"":""1ED68823D3214CDBB80039EC4F099D48"",""assignmentId"":""8f834c55-e9ed-463f-9820-8d3be583ae66"",""projectId"":""9596d7a2-d401-47b1-aedd-70105f5f2f42""}","https://test12345.live/?part=2&participantId=1ED68823D3214CDBB80039EC4F099D48&assignmentId=8f834c55-e9ed-463f-9820-8d3be583ae66&projectId=9596d7a2-d401-47b1-aedd-70105f5f2f42","1ED68823D3214CDBB80039EC4F099D48-2025-05-28-17-59-41","[{""page_index"":0,""viewing_time"":7686}]","7687","","","","",""
"","","","","","instructions","2","73063","0.0-2.0","1ED68823D3214CDBB80039EC4F099D48","1ED68823D3214CDBB80039EC4F099D48","8f834c55-e9ed-463f-9820-8d3be583ae66","9596d7a2-d401-47b1-aedd-70105f5f2f42","{""part"":""2"",""participantId"":""1ED68823D3214CDBB80039EC4F099D48"",""assignmentId"":""8f834c55-e9ed-463f-9820-8d3be583ae66"",""projectId"":""9596d7a2-d401-47b1-aedd-70105f5f2f42""}","https://test12345.live/?part=2&participantId=1ED68823D3214CDBB80039EC4F099D48&assignmentId=8f834c55-e9ed-463f-9820-8d3be583ae66&projectId=9596d7a2-d401-47b1-aedd-70105f5f2f42","1ED68823D3214CDBB80039EC4F099D48-2025-05-28-17-59-41","[{""page_index"":0,""viewing_time"":10329}]","10330","","","","",""
"true","","","","","fullscreen","3","75598","0.0-3.0","1ED68823D3214CDBB80039EC4F099D48","1ED68823D3214CDBB80039EC4F099D48","8f834c55-e9ed-463f-9820-8d3be583ae66","9596d7a2-d401-47b1-aedd-70105f5f2f42","{""part"":""2"",""participantId"":""1ED68823D3214CDBB80039EC4F099D48"",""assignmentId"":""8f834c55-e9ed-463f-9820-8d3be583ae66"",""projectId"":""9596d7a2-d401-47b1-aedd-70105f5f2f42""}","https://test12345.live/?part=2&participantId=1ED68823D3214CDBB80039EC4F099D48&assignmentId=8f834c55-e9ed-463f-9820-8d3be583ae66&projectId=9596d7a2-d401-47b1-aedd-70105f5f2f42","1ED68823D3214CDBB80039EC4F099D48-2025-05-28-17-59-41","","1531","","","","",""
"","","","","","initialize-microphone","4","79312","0.0-4.0-0.0","1ED68823D3214CDBB80039EC4F099D48","1ED68823D3214CDBB80039EC4F099D48","8f834c55-e9ed-463f-9820-8d3be583ae66","9596d7a2-d401-47b1-aedd-70105f5f2f42","{""part"":""2"",""participantId"":""1ED68823D3214CDBB80039EC4F099D48"",""assignmentId"":""8f834c55-e9ed-463f-9820-8d3be583ae66"",""projectId"":""9596d7a2-d401-47b1-aedd-70105f5f2f42""}","https://test12345.live/?part=2&participantId=1ED68823D3214CDBB80039EC4F099D48&assignmentId=8f834c55-e9ed-463f-9820-8d3be583ae66&projectId=9596d7a2-d401-47b1-aedd-70105f5f2f42","1ED68823D3214CDBB80039EC4F099D48-2025-05-28-17-59-41","","","4eb33d0424bcec02a05a389f441bce52146e2b74a42acc6d74202041557650dc","","","",""
"","","","","","html-audio-response","5","95275","0.0-4.0-1.0","1ED68823D3214CDBB80039EC4F099D48","1ED68823D3214CDBB80039EC4F099D48","8f834c55-e9ed-463f-9820-8d3be583ae66","9596d7a2-d401-47b1-aedd-70105f5f2f42","{""part"":""2"",""participantId"":""1ED68823D3214CDBB80039EC4F099D48"",""assignmentId"":""8f834c55-e9ed-463f-9820-8d3be583ae66"",""projectId"":""9596d7a2-d401-47b1-aedd-70105f5f2f42""}","https://test12345.live/?part=2&participantId=1ED68823D3214CDBB80039EC4F099D48&assignmentId=8f834c55-e9ed-463f-9820-8d3be583ae66&projectId=9596d7a2-d401-47b1-aedd-70105f5f2f42","1ED68823D3214CDBB80039EC4F099D48-2025-05-28-17-59-41","","2091","","<span style=""color: red; font-size: 24px""> NOW RECORDING</span>
        <p>Please test Microphone</p>","","7",""
"","","","","","html-button-response","6","96362","0.0-4.0-2.0","1ED68823D3214CDBB80039EC4F099D48","1ED68823D3214CDBB80039EC4F099D48","8f834c55-e9ed-463f-9820-8d3be583ae66","9596d7a2-d401-47b1-aedd-70105f5f2f42","{""part"":""2"",""participantId"":""1ED68823D3214CDBB80039EC4F099D48"",""assignmentId"":""8f834c55-e9ed-463f-9820-8d3be583ae66"",""projectId"":""9596d7a2-d401-47b1-aedd-70105f5f2f42""}","https://test12345.live/?part=2&participantId=1ED68823D3214CDBB80039EC4F099D48&assignmentId=8f834c55-e9ed-463f-9820-8d3be583ae66&projectId=9596d7a2-d401-47b1-aedd-70105f5f2f42","1ED68823D3214CDBB80039EC4F099D48-2025-05-28-17-59-41","","1085","","<p style=""font-size:48px; color:red;"">Is Microphone OK?</p>","1","",""
"","","","","","instructions","7","116540","0.0-5.0","1ED68823D3214CDBB80039EC4F099D48","1ED68823D3214CDBB80039EC4F099D48","8f834c55-e9ed-463f-9820-8d3be583ae66","9596d7a2-d401-47b1-aedd-70105f5f2f42","{""part"":""2"",""participantId"":""1ED68823D3214CDBB80039EC4F099D48"",""assignmentId"":""8f834c55-e9ed-463f-9820-8d3be583ae66"",""projectId"":""9596d7a2-d401-47b1-aedd-70105f5f2f42""}","https://test12345.live/?part=2&participantId=1ED68823D3214CDBB80039EC4F099D48&assignmentId=8f834c55-e9ed-463f-9820-8d3be583ae66&projectId=9596d7a2-d401-47b1-aedd-70105f5f2f42","1ED68823D3214CDBB80039EC4F099D48-2025-05-28-17-59-41","[{""page_index"":0,""viewing_time"":1537},{""page_index"":1,""viewing_time"":5368},{""page_index"":2,""viewing_time"":13272}]","20177","","","","",""
"","","","","","image-button-response","8","122549","0.0-6.0-0.0","1ED68823D3214CDBB80039EC4F099D48","1ED68823D3214CDBB80039EC4F099D48","8f834c55-e9ed-463f-9820-8d3be583ae66","9596d7a2-d401-47b1-aedd-70105f5f2f42","{""part"":""2"",""participantId"":""1ED68823D3214CDBB80039EC4F099D48"",""assignmentId"":""8f834c55-e9ed-463f-9820-8d3be583ae66"",""projectId"":""9596d7a2-d401-47b1-aedd-70105f5f2f42""}","https://test12345.live/?part=2&participantId=1ED68823D3214CDBB80039EC4F099D48&assignmentId=8f834c55-e9ed-463f-9820-8d3be583ae66&projectId=9596d7a2-d401-47b1-aedd-70105f5f2f42","1ED68823D3214CDBB80039EC4F099D48-2025-05-28-17-59-41","","null","","images/instructions/movie_0.png","null","",""
"","","","","","html-audio-response","9","127963","0.0-7.0","1ED68823D3214CDBB80039EC4F099D48","1ED68823D3214CDBB80039EC4F099D48","8f834c55-e9ed-463f-9820-8d3be583ae66","9596d7a2-d401-47b1-aedd-70105f5f2f42","{""part"":""2"",""participantId"":""1ED68823D3214CDBB80039EC4F099D48"",""assignmentId"":""8f834c55-e9ed-463f-9820-8d3be583ae66"",""projectId"":""9596d7a2-d401-47b1-aedd-70105f5f2f42""}","https://test12345.live/?part=2&participantId=1ED68823D3214CDBB80039EC4F099D48&assignmentId=8f834c55-e9ed-463f-9820-8d3be583ae66&projectId=9596d7a2-d401-47b1-aedd-70105f5f2f42","1ED68823D3214CDBB80039EC4F099D48-2025-05-28-17-59-41","","3945","","[""<span style=\""color: red; font-size: 24px\""> NOW RECORDING</span><p>Please say out loud all the images you saw in part 1 of the experiment, in the exact order you saw them. Try to recall as many images as you can, but remember: getting the order right is more important than the number of images you recall.</p>""]","","2",""
"","","","","","instructions","10","129017","0.0-8.0","1ED68823D3214CDBB80039EC4F099D48","1ED68823D3214CDBB80039EC4F099D48","8f834c55-e9ed-463f-9820-8d3be583ae66","9596d7a2-d401-47b1-aedd-70105f5f2f42","{""part"":""2"",""participantId"":""1ED68823D3214CDBB80039EC4F099D48"",""assignmentId"":""8f834c55-e9ed-463f-9820-8d3be583ae66"",""projectId"":""9596d7a2-d401-47b1-aedd-70105f5f2f42""}","https://test12345.live/?part=2&participantId=1ED68823D3214CDBB80039EC4F099D48&assignmentId=8f834c55-e9ed-463f-9820-8d3be583ae66&projectId=9596d7a2-d401-47b1-aedd-70105f5f2f42","1ED68823D3214CDBB80039EC4F099D48-2025-05-28-17-59-41","[{""page_index"":0,""viewing_time"":1052}]","1052","","","","",""
"","","","","","image-button-response","11","135024","0.0-9.0-0.0","1ED68823D3214CDBB80039EC4F099D48","1ED68823D3214CDBB80039EC4F099D48","8f834c55-e9ed-463f-9820-8d3be583ae66","9596d7a2-d401-47b1-aedd-70105f5f2f42","{""part"":""2"",""participantId"":""1ED68823D3214CDBB80039EC4F099D48"",""assignmentId"":""8f834c55-e9ed-463f-9820-8d3be583ae66"",""projectId"":""9596d7a2-d401-47b1-aedd-70105f5f2f42""}","https://test12345.live/?part=2&participantId=1ED68823D3214CDBB80039EC4F099D48&assignmentId=8f834c55-e9ed-463f-9820-8d3be583ae66&projectId=9596d7a2-d401-47b1-aedd-70105f5f2f42","1ED68823D3214CDBB80039EC4F099D48-2025-05-28-17-59-41","","null","","images/causal_sequence/coin_causal/coin_causal_0.png","null","",""
"","","","","","html-audio-response","12","178556","0.0-10.0","1ED68823D3214CDBB80039EC4F099D48","1ED68823D3214CDBB80039EC4F099D48","8f834c55-e9ed-463f-9820-8d3be583ae66","9596d7a2-d401-47b1-aedd-70105f5f2f42","{""part"":""2"",""participantId"":""1ED68823D3214CDBB80039EC4F099D48"",""assignmentId"":""8f834c55-e9ed-463f-9820-8d3be583ae66"",""projectId"":""9596d7a2-d401-47b1-aedd-70105f5f2f42""}","https://test12345.live/?part=2&participantId=1ED68823D3214CDBB80039EC4F099D48&assignmentId=8f834c55-e9ed-463f-9820-8d3be583ae66&projectId=9596d7a2-d401-47b1-aedd-70105f5f2f42","1ED68823D3214CDBB80039EC4F099D48-2025-05-28-17-59-41","","42561","","[""<span style=\""color: red; font-size: 24px\""> NOW RECORDING</span><p>Please say out loud all the images you saw in part 1 of the experiment, in the exact order you saw them. Try to recall as many images as you can, but remember: getting the order right is more important than the number of images you recall. </p>""]","","2","coin_causal"
"","","","","","image-button-response","13","184565","0.0-11.0-0.0","1ED68823D3214CDBB80039EC4F099D48","1ED68823D3214CDBB80039EC4F099D48","8f834c55-e9ed-463f-9820-8d3be583ae66","9596d7a2-d401-47b1-aedd-70105f5f2f42","{""part"":""2"",""participantId"":""1ED68823D3214CDBB80039EC4F099D48"",""assignmentId"":""8f834c55-e9ed-463f-9820-8d3be583ae66"",""projectId"":""9596d7a2-d401-47b1-aedd-70105f5f2f42""}","https://test12345.live/?part=2&participantId=1ED68823D3214CDBB80039EC4F099D48&assignmentId=8f834c55-e9ed-463f-9820-8d3be583ae66&projectId=9596d7a2-d401-47b1-aedd-70105f5f2f42","1ED68823D3214CDBB80039EC4F099D48-2025-05-28-17-59-41","","null","","images/causal_sequence/the_performance_causal/the_performance_causal_0.png","null","",""
"","","","","","html-audio-response","14","204570","0.0-12.0","1ED68823D3214CDBB80039EC4F099D48","1ED68823D3214CDBB80039EC4F099D48","8f834c55-e9ed-463f-9820-8d3be583ae66","9596d7a2-d401-47b1-aedd-70105f5f2f42","{""part"":""2"",""participantId"":""1ED68823D3214CDBB80039EC4F099D48"",""assignmentId"":""8f834c55-e9ed-463f-9820-8d3be583ae66"",""projectId"":""9596d7a2-d401-47b1-aedd-70105f5f2f42""}","https://test12345.live/?part=2&participantId=1ED68823D3214CDBB80039EC4F099D48&assignmentId=8f834c55-e9ed-463f-9820-8d3be583ae66&projectId=9596d7a2-d401-47b1-aedd-70105f5f2f42","1ED68823D3214CDBB80039EC4F099D48-2025-05-28-17-59-41","","18954","","[""<span style=\""color: red; font-size: 24px\""> NOW RECORDING</span><p>Please say out loud all the images you saw in part 1 of the experiment, in the exact order you saw them. Try to recall as many images as you can, but remember: getting the order right is more important than the number of images you recall. </p>""]","","2","the_performance_causal"
"","","","","","image-button-response","15","210579","0.0-13.0-0.0","1ED68823D3214CDBB80039EC4F099D48","1ED68823D3214CDBB80039EC4F099D48","8f834c55-e9ed-463f-9820-8d3be583ae66","9596d7a2-d401-47b1-aedd-70105f5f2f42","{""part"":""2"",""participantId"":""1ED68823D3214CDBB80039EC4F099D48"",""assignmentId"":""8f834c55-e9ed-463f-9820-8d3be583ae66"",""projectId"":""9596d7a2-d401-47b1-aedd-70105f5f2f42""}","https://test12345.live/?part=2&participantId=1ED68823D3214CDBB80039EC4F099D48&assignmentId=8f834c55-e9ed-463f-9820-8d3be583ae66&projectId=9596d7a2-d401-47b1-aedd-70105f5f2f42","1ED68823D3214CDBB80039EC4F099D48-2025-05-28-17-59-41","","null","","images/semantic_sequence/kitchen_operations_semantic/kitchen_operations_semantic_0.png","null","",""
"","","","","","html-audio-response","16","221317","0.0-14.0","1ED68823D3214CDBB80039EC4F099D48","1ED68823D3214CDBB80039EC4F099D48","8f834c55-e9ed-463f-9820-8d3be583ae66","9596d7a2-d401-47b1-aedd-70105f5f2f42","{""part"":""2"",""participantId"":""1ED68823D3214CDBB80039EC4F099D48"",""assignmentId"":""8f834c55-e9ed-463f-9820-8d3be583ae66"",""projectId"":""9596d7a2-d401-47b1-aedd-70105f5f2f42""}","https://test12345.live/?part=2&participantId=1ED68823D3214CDBB80039EC4F099D48&assignmentId=8f834c55-e9ed-463f-9820-8d3be583ae66&projectId=9596d7a2-d401-47b1-aedd-70105f5f2f42","1ED68823D3214CDBB80039EC4F099D48-2025-05-28-17-59-41","","9359","","[""<span style=\""color: red; font-size: 24px\""> NOW RECORDING</span><p>Please say out loud all the images you saw in part 1 of the experiment, in the exact order you saw them. Try to recall as many images as you can, but remember: getting the order right is more important than the number of images you recall. </p>""]","","2","kitchen_operations_semantic"
"","","","","","image-button-response","17","227326","0.0-15.0-0.0","1ED68823D3214CDBB80039EC4F099D48","1ED68823D3214CDBB80039EC4F099D48","8f834c55-e9ed-463f-9820-8d3be583ae66","9596d7a2-d401-47b1-aedd-70105f5f2f42","{""part"":""2"",""participantId"":""1ED68823D3214CDBB80039EC4F099D48"",""assignmentId"":""8f834c55-e9ed-463f-9820-8d3be583ae66"",""projectId"":""9596d7a2-d401-47b1-aedd-70105f5f2f42""}","https://test12345.live/?part=2&participantId=1ED68823D3214CDBB80039EC4F099D48&assignmentId=8f834c55-e9ed-463f-9820-8d3be583ae66&projectId=9596d7a2-d401-47b1-aedd-70105f5f2f42","1ED68823D3214CDBB80039EC4F099D48-2025-05-28-17-59-41","","null","","images/semantic_sequence/housework_semantic/housework_semantic_0.png","null","",""
"","","","","","html-audio-response","18","250446","0.0-16.0","1ED68823D3214CDBB80039EC4F099D48","1ED68823D3214CDBB80039EC4F099D48","8f834c55-e9ed-463f-9820-8d3be583ae66","9596d7a2-d401-47b1-aedd-70105f5f2f42","{""part"":""2"",""participantId"":""1ED68823D3214CDBB80039EC4F099D48"",""assignmentId"":""8f834c55-e9ed-463f-9820-8d3be583ae66"",""projectId"":""9596d7a2-d401-47b1-aedd-70105f5f2f42""}","https://test12345.live/?part=2&participantId=1ED68823D3214CDBB80039EC4F099D48&assignmentId=8f834c55-e9ed-463f-9820-8d3be583ae66&projectId=9596d7a2-d401-47b1-aedd-70105f5f2f42","1ED68823D3214CDBB80039EC4F099D48-2025-05-28-17-59-41","","17591","","[""<span style=\""color: red; font-size: 24px\""> NOW RECORDING</span><p>Please say out loud all the images you saw in part 1 of the experiment, in the exact order you saw them. Try to recall as many images as you can, but remember: getting the order right is more important than the number of images you recall. </p>""]","","2","housework_semantic"
"","","","","","image-button-response","19","256457","0.0-17.0-0.0","1ED68823D3214CDBB80039EC4F099D48","1ED68823D3214CDBB80039EC4F099D48","8f834c55-e9ed-463f-9820-8d3be583ae66","9596d7a2-d401-47b1-aedd-70105f5f2f42","{""part"":""2"",""participantId"":""1ED68823D3214CDBB80039EC4F099D48"",""assignmentId"":""8f834c55-e9ed-463f-9820-8d3be583ae66"",""projectId"":""9596d7a2-d401-47b1-aedd-70105f5f2f42""}","https://test12345.live/?part=2&participantId=1ED68823D3214CDBB80039EC4F099D48&assignmentId=8f834c55-e9ed-463f-9820-8d3be583ae66&projectId=9596d7a2-d401-47b1-aedd-70105f5f2f42","1ED68823D3214CDBB80039EC4F099D48-2025-05-28-17-59-41","","null","","images/semantic_sequence/market_semantic/market_semantic_0.png","null","",""
"","","","","","html-audio-response","20","278038","0.0-18.0","1ED68823D3214CDBB80039EC4F099D48","1ED68823D3214CDBB80039EC4F099D48","8f834c55-e9ed-463f-9820-8d3be583ae66","9596d7a2-d401-47b1-aedd-70105f5f2f42","{""part"":""2"",""participantId"":""1ED68823D3214CDBB80039EC4F099D48"",""assignmentId"":""8f834c55-e9ed-463f-9820-8d3be583ae66"",""projectId"":""9596d7a2-d401-47b1-aedd-70105f5f2f42""}","https://test12345.live/?part=2&participantId=1ED68823D3214CDBB80039EC4F099D48&assignmentId=8f834c55-e9ed-463f-9820-8d3be583ae66&projectId=9596d7a2-d401-47b1-aedd-70105f5f2f42","1ED68823D3214CDBB80039EC4F099D48-2025-05-28-17-59-41","","20574","","[""<span style=\""color: red; font-size: 24px\""> NOW RECORDING</span><p>Please say out loud all the images you saw in part 1 of the experiment, in the exact order you saw them. Try to recall as many images as you can, but remember: getting the order right is more important than the number of images you recall. </p>""]","","2","market_semantic"
"","","","","","image-button-response","21","284048","0.0-19.0-0.0","1ED68823D3214CDBB80039EC4F099D48","1ED68823D3214CDBB80039EC4F099D48","8f834c55-e9ed-463f-9820-8d3be583ae66","9596d7a2-d401-47b1-aedd-70105f5f2f42","{""part"":""2"",""participantId"":""1ED68823D3214CDBB80039EC4F099D48"",""assignmentId"":""8f834c55-e9ed-463f-9820-8d3be583ae66"",""projectId"":""9596d7a2-d401-47b1-aedd-70105f5f2f42""}","https://test12345.live/?part=2&participantId=1ED68823D3214CDBB80039EC4F099D48&assignmentId=8f834c55-e9ed-463f-9820-8d3be583ae66&projectId=9596d7a2-d401-47b1-aedd-70105f5f2f42","1ED68823D3214CDBB80039EC4F099D48-2025-05-28-17-59-41","","null","","images/semantic_sequence/physical_activity_semantic/physical_activity_semantic_0.png","null","",""
"","","","","","html-audio-response","22","296025","0.0-20.0","1ED68823D3214CDBB80039EC4F099D48","1ED68823D3214CDBB80039EC4F099D48","8f834c55-e9ed-463f-9820-8d3be583ae66","9596d7a2-d401-47b1-aedd-70105f5f2f42","{""part"":""2"",""participantId"":""1ED68823D3214CDBB80039EC4F099D48"",""assignmentId"":""8f834c55-e9ed-463f-9820-8d3be583ae66"",""projectId"":""9596d7a2-d401-47b1-aedd-70105f5f2f42""}","https://test12345.live/?part=2&participantId=1ED68823D3214CDBB80039EC4F099D48&assignmentId=8f834c55-e9ed-463f-9820-8d3be583ae66&projectId=9596d7a2-d401-47b1-aedd-70105f5f2f42","1ED68823D3214CDBB80039EC4F099D48-2025-05-28-17-59-41","","11125","","[""<span style=\""color: red; font-size: 24px\""> NOW RECORDING</span><p>Please say out loud all the images you saw in part 1 of the experiment, in the exact order you saw them. Try to recall as many images as you can, but remember: getting the order right is more important than the number of images you recall. </p>""]","","2","physical_activity_semantic"
"","","","","","image-button-response","23","302032","0.0-21.0-0.0","1ED68823D3214CDBB80039EC4F099D48","1ED68823D3214CDBB80039EC4F099D48","8f834c55-e9ed-463f-9820-8d3be583ae66","9596d7a2-d401-47b1-aedd-70105f5f2f42","{""part"":""2"",""participantId"":""1ED68823D3214CDBB80039EC4F099D48"",""assignmentId"":""8f834c55-e9ed-463f-9820-8d3be583ae66"",""projectId"":""9596d7a2-d401-47b1-aedd-70105f5f2f42""}","https://test12345.live/?part=2&participantId=1ED68823D3214CDBB80039EC4F099D48&assignmentId=8f834c55-e9ed-463f-9820-8d3be583ae66&projectId=9596d7a2-d401-47b1-aedd-70105f5f2f42","1ED68823D3214CDBB80039EC4F099D48-2025-05-28-17-59-41","","null","","images/semantic_sequence/self_care_activities_semantic/self_care_activities_semantic_0.png","null","",""
"","","","","","html-audio-response","24","332613","0.0-22.0","1ED68823D3214CDBB80039EC4F099D48","1ED68823D3214CDBB80039EC4F099D48","8f834c55-e9ed-463f-9820-8d3be583ae66","9596d7a2-d401-47b1-aedd-70105f5f2f42","{""part"":""2"",""participantId"":""1ED68823D3214CDBB80039EC4F099D48"",""assignmentId"":""8f834c55-e9ed-463f-9820-8d3be583ae66"",""projectId"":""9596d7a2-d401-47b1-aedd-70105f5f2f42""}","https://test12345.live/?part=2&participantId=1ED68823D3214CDBB80039EC4F099D48&assignmentId=8f834c55-e9ed-463f-9820-8d3be583ae66&projectId=9596d7a2-d401-47b1-aedd-70105f5f2f42","1ED68823D3214CDBB80039EC4F099D48-2025-05-28-17-59-41","","28897","","[""<span style=\""color: red; font-size: 24px\""> NOW RECORDING</span><p>Please say out loud all the images you saw in part 1 of the experiment, in the exact order you saw them. Try to recall as many images as you can, but remember: getting the order right is more important than the number of images you recall. </p>""]","","2","self_care_activities_semantic"
"","","","","","image-button-response","25","338621","0.0-23.0-0.0","1ED68823D3214CDBB80039EC4F099D48","1ED68823D3214CDBB80039EC4F099D48","8f834c55-e9ed-463f-9820-8d3be583ae66","9596d7a2-d401-47b1-aedd-70105f5f2f42","{""part"":""2"",""participantId"":""1ED68823D3214CDBB80039EC4F099D48"",""assignmentId"":""8f834c55-e9ed-463f-9820-8d3be583ae66"",""projectId"":""9596d7a2-d401-47b1-aedd-70105f5f2f42""}","https://test12345.live/?part=2&participantId=1ED68823D3214CDBB80039EC4F099D48&assignmentId=8f834c55-e9ed-463f-9820-8d3be583ae66&projectId=9596d7a2-d401-47b1-aedd-70105f5f2f42","1ED68823D3214CDBB80039EC4F099D48-2025-05-28-17-59-41","","null","","images/semantic_sequence/visiting_cities_semantic/visiting_cities_semantic_0.png","null","",""
"","","","","","html-audio-response","26","365715","0.0-24.0","1ED68823D3214CDBB80039EC4F099D48","1ED68823D3214CDBB80039EC4F099D48","8f834c55-e9ed-463f-9820-8d3be583ae66","9596d7a2-d401-47b1-aedd-70105f5f2f42","{""part"":""2"",""participantId"":""1ED68823D3214CDBB80039EC4F099D48"",""assignmentId"":""8f834c55-e9ed-463f-9820-8d3be583ae66"",""projectId"":""9596d7a2-d401-47b1-aedd-70105f5f2f42""}","https://test12345.live/?part=2&participantId=1ED68823D3214CDBB80039EC4F099D48&assignmentId=8f834c55-e9ed-463f-9820-8d3be583ae66&projectId=9596d7a2-d401-47b1-aedd-70105f5f2f42","1ED68823D3214CDBB80039EC4F099D48-2025-05-28-17-59-41","","26510","","[""<span style=\""color: red; font-size: 24px\""> NOW RECORDING</span><p>Please say out loud all the images you saw in part 1 of the experiment, in the exact order you saw them. Try to recall as many images as you can, but remember: getting the order right is more important than the number of images you recall. </p>""]","","2","visiting_cities_semantic"
"","","","","","image-button-response","27","371726","0.0-25.0-0.0","1ED68823D3214CDBB80039EC4F099D48","1ED68823D3214CDBB80039EC4F099D48","8f834c55-e9ed-463f-9820-8d3be583ae66","9596d7a2-d401-47b1-aedd-70105f5f2f42","{""part"":""2"",""participantId"":""1ED68823D3214CDBB80039EC4F099D48"",""assignmentId"":""8f834c55-e9ed-463f-9820-8d3be583ae66"",""projectId"":""9596d7a2-d401-47b1-aedd-70105f5f2f42""}","https://test12345.live/?part=2&participantId=1ED68823D3214CDBB80039EC4F099D48&assignmentId=8f834c55-e9ed-463f-9820-8d3be583ae66&projectId=9596d7a2-d401-47b1-aedd-70105f5f2f42","1ED68823D3214CDBB80039EC4F099D48-2025-05-28-17-59-41","","null","","images/semantic_sequence/exploring_nature_semantic/exploring_nature_semantic_0.png","null","",""
"","","","","","html-audio-response","28","388094","0.0-26.0","1ED68823D3214CDBB80039EC4F099D48","1ED68823D3214CDBB80039EC4F099D48","8f834c55-e9ed-463f-9820-8d3be583ae66","9596d7a2-d401-47b1-aedd-70105f5f2f42","{""part"":""2"",""participantId"":""1ED68823D3214CDBB80039EC4F099D48"",""assignmentId"":""8f834c55-e9ed-463f-9820-8d3be583ae66"",""projectId"":""9596d7a2-d401-47b1-aedd-70105f5f2f42""}","https://test12345.live/?part=2&participantId=1ED68823D3214CDBB80039EC4F099D48&assignmentId=8f834c55-e9ed-463f-9820-8d3be583ae66&projectId=9596d7a2-d401-47b1-aedd-70105f5f2f42","1ED68823D3214CDBB80039EC4F099D48-2025-05-28-17-59-41","","14550","","[""<span style=\""color: red; font-size: 24px\""> NOW RECORDING</span><p>Please say out loud all the images you saw in part 1 of the experiment, in the exact order you saw them. Try to recall as many images as you can, but remember: getting the order right is more important than the number of images you recall. </p>""]","","3","exploring_nature_semantic"
"","","","","","image-button-response","29","394101","0.0-27.0-0.0","1ED68823D3214CDBB80039EC4F099D48","1ED68823D3214CDBB80039EC4F099D48","8f834c55-e9ed-463f-9820-8d3be583ae66","9596d7a2-d401-47b1-aedd-70105f5f2f42","{""part"":""2"",""participantId"":""1ED68823D3214CDBB80039EC4F099D48"",""assignmentId"":""8f834c55-e9ed-463f-9820-8d3be583ae66"",""projectId"":""9596d7a2-d401-47b1-aedd-70105f5f2f42""}","https://test12345.live/?part=2&participantId=1ED68823D3214CDBB80039EC4F099D48&assignmentId=8f834c55-e9ed-463f-9820-8d3be583ae66&projectId=9596d7a2-d401-47b1-aedd-70105f5f2f42","1ED68823D3214CDBB80039EC4F099D48-2025-05-28-17-59-41","","null","","images/schematic_sequence/hotel_scheme/hotel_scheme_0.png","null","",""
"","","","","","html-audio-response","30","413980","0.0-28.0","1ED68823D3214CDBB80039EC4F099D48","1ED68823D3214CDBB80039EC4F099D48","8f834c55-e9ed-463f-9820-8d3be583ae66","9596d7a2-d401-47b1-aedd-70105f5f2f42","{""part"":""2"",""participantId"":""1ED68823D3214CDBB80039EC4F099D48"",""assignmentId"":""8f834c55-e9ed-463f-9820-8d3be583ae66"",""projectId"":""9596d7a2-d401-47b1-aedd-70105f5f2f42""}","https://test12345.live/?part=2&participantId=1ED68823D3214CDBB80039EC4F099D48&assignmentId=8f834c55-e9ed-463f-9820-8d3be583ae66&projectId=9596d7a2-d401-47b1-aedd-70105f5f2f42","1ED68823D3214CDBB80039EC4F099D48-2025-05-28-17-59-41","","18924","","[""<span style=\""color: red; font-size: 24px\""> NOW RECORDING</span><p>Please say out loud all the images you saw in part 1 of the experiment, in the exact order you saw them. Try to recall as many images as you can, but remember: getting the order right is more important than the number of images you recall. </p>""]","","2","hotel_scheme"
"","","","","","image-button-response","31","419988","0.0-29.0-0.0","1ED68823D3214CDBB80039EC4F099D48","1ED68823D3214CDBB80039EC4F099D48","8f834c55-e9ed-463f-9820-8d3be583ae66","9596d7a2-d401-47b1-aedd-70105f5f2f42","{""part"":""2"",""participantId"":""1ED68823D3214CDBB80039EC4F099D48"",""assignmentId"":""8f834c55-e9ed-463f-9820-8d3be583ae66"",""projectId"":""9596d7a2-d401-47b1-aedd-70105f5f2f42""}","https://test12345.live/?part=2&participantId=1ED68823D3214CDBB80039EC4F099D48&assignmentId=8f834c55-e9ed-463f-9820-8d3be583ae66&projectId=9596d7a2-d401-47b1-aedd-70105f5f2f42","1ED68823D3214CDBB80039EC4F099D48-2025-05-28-17-59-41","","null","","images/schematic_sequence/dinner_party_scheme/dinner_party_scheme_0.png","null","",""
"","","","","","html-audio-response","32","447989","0.0-30.0","1ED68823D3214CDBB80039EC4F099D48","1ED68823D3214CDBB80039EC4F099D48","8f834c55-e9ed-463f-9820-8d3be583ae66","9596d7a2-d401-47b1-aedd-70105f5f2f42","{""part"":""2"",""participantId"":""1ED68823D3214CDBB80039EC4F099D48"",""assignmentId"":""8f834c55-e9ed-463f-9820-8d3be583ae66"",""projectId"":""9596d7a2-d401-47b1-aedd-70105f5f2f42""}","https://test12345.live/?part=2&participantId=1ED68823D3214CDBB80039EC4F099D48&assignmentId=8f834c55-e9ed-463f-9820-8d3be583ae66&projectId=9596d7a2-d401-47b1-aedd-70105f5f2f42","1ED68823D3214CDBB80039EC4F099D48-2025-05-28-17-59-41","","24041","","[""<span style=\""color: red; font-size: 24px\""> NOW RECORDING</span><p>Please say out loud all the images you saw in part 1 of the experiment, in the exact order you saw them. Try to recall as many images as you can, but remember: getting the order right is more important than the number of images you recall. </p>""]","","1","dinner_party_scheme"
"","","","","","image-button-response","33","453998","0.0-31.0-0.0","1ED68823D3214CDBB80039EC4F099D48","1ED68823D3214CDBB80039EC4F099D48","8f834c55-e9ed-463f-9820-8d3be583ae66","9596d7a2-d401-47b1-aedd-70105f5f2f42","{""part"":""2"",""participantId"":""1ED68823D3214CDBB80039EC4F099D48"",""assignmentId"":""8f834c55-e9ed-463f-9820-8d3be583ae66"",""projectId"":""9596d7a2-d401-47b1-aedd-70105f5f2f42""}","https://test12345.live/?part=2&participantId=1ED68823D3214CDBB80039EC4F099D48&assignmentId=8f834c55-e9ed-463f-9820-8d3be583ae66&projectId=9596d7a2-d401-47b1-aedd-70105f5f2f42","1ED68823D3214CDBB80039EC4F099D48-2025-05-28-17-59-41","","null","","images/semantic_sequence/redecorating_semantic/redecorating_semantic_0.png","null","",""
"","","","","","html-audio-response","34","465219","0.0-32.0","1ED68823D3214CDBB80039EC4F099D48","1ED68823D3214CDBB80039EC4F099D48","8f834c55-e9ed-463f-9820-8d3be583ae66","9596d7a2-d401-47b1-aedd-70105f5f2f42","{""part"":""2"",""participantId"":""1ED68823D3214CDBB80039EC4F099D48"",""assignmentId"":""8f834c55-e9ed-463f-9820-8d3be583ae66"",""projectId"":""9596d7a2-d401-47b1-aedd-70105f5f2f42""}","https://test12345.live/?part=2&participantId=1ED68823D3214CDBB80039EC4F099D48&assignmentId=8f834c55-e9ed-463f-9820-8d3be583ae66&projectId=9596d7a2-d401-47b1-aedd-70105f5f2f42","1ED68823D3214CDBB80039EC4F099D48-2025-05-28-17-59-41","","10605","","[""<span style=\""color: red; font-size: 24px\""> NOW RECORDING</span><p>Please say out loud all the images you saw in part 1 of the experiment, in the exact order you saw them. Try to recall as many images as you can, but remember: getting the order right is more important than the number of images you recall. </p>""]","","2","redecorating_semantic"
"","","","","","image-button-response","35","471226","0.0-33.0-0.0","1ED68823D3214CDBB80039EC4F099D48","1ED68823D3214CDBB80039EC4F099D48","8f834c55-e9ed-463f-9820-8d3be583ae66","9596d7a2-d401-47b1-aedd-70105f5f2f42","{""part"":""2"",""participantId"":""1ED68823D3214CDBB80039EC4F099D48"",""assignmentId"":""8f834c55-e9ed-463f-9820-8d3be583ae66"",""projectId"":""9596d7a2-d401-47b1-aedd-70105f5f2f42""}","https://test12345.live/?part=2&participantId=1ED68823D3214CDBB80039EC4F099D48&assignmentId=8f834c55-e9ed-463f-9820-8d3be583ae66&projectId=9596d7a2-d401-47b1-aedd-70105f5f2f42","1ED68823D3214CDBB80039EC4F099D48-2025-05-28-17-59-41","","null","","images/schematic_sequence/supermarket_scheme/supermarket_scheme_0.png","null","",""
"","","","","","html-audio-response","36","494992","0.0-34.0","1ED68823D3214CDBB80039EC4F099D48","1ED68823D3214CDBB80039EC4F099D48","8f834c55-e9ed-463f-9820-8d3be583ae66","9596d7a2-d401-47b1-aedd-70105f5f2f42","{""part"":""2"",""participantId"":""1ED68823D3214CDBB80039EC4F099D48"",""assignmentId"":""8f834c55-e9ed-463f-9820-8d3be583ae66"",""projectId"":""9596d7a2-d401-47b1-aedd-70105f5f2f42""}","https://test12345.live/?part=2&participantId=1ED68823D3214CDBB80039EC4F099D48&assignmentId=8f834c55-e9ed-463f-9820-8d3be583ae66&projectId=9596d7a2-d401-47b1-aedd-70105f5f2f42","1ED68823D3214CDBB80039EC4F099D48-2025-05-28-17-59-41","","23182","","[""<span style=\""color: red; font-size: 24px\""> NOW RECORDING</span><p>Please say out loud all the images you saw in part 1 of the experiment, in the exact order you saw them. Try to recall as many images as you can, but remember: getting the order right is more important than the number of images you recall. </p>""]","","2","supermarket_scheme"
"","","","","","instructions","37","497176","0.0-35.0","1ED68823D3214CDBB80039EC4F099D48","1ED68823D3214CDBB80039EC4F099D48","8f834c55-e9ed-463f-9820-8d3be583ae66","9596d7a2-d401-47b1-aedd-70105f5f2f42","{""part"":""2"",""participantId"":""1ED68823D3214CDBB80039EC4F099D48"",""assignmentId"":""8f834c55-e9ed-463f-9820-8d3be583ae66"",""projectId"":""9596d7a2-d401-47b1-aedd-70105f5f2f42""}","https://test12345.live/?part=2&participantId=1ED68823D3214CDBB80039EC4F099D48&assignmentId=8f834c55-e9ed-463f-9820-8d3be583ae66&projectId=9596d7a2-d401-47b1-aedd-70105f5f2f42","1ED68823D3214CDBB80039EC4F099D48-2025-05-28-17-59-41","[{""page_index"":0,""viewing_time"":2180}]","2180","","","","",""
"","","","","","image-button-response","38","503182","0.0-36.0-0.0","1ED68823D3214CDBB80039EC4F099D48","1ED68823D3214CDBB80039EC4F099D48","8f834c55-e9ed-463f-9820-8d3be583ae66","9596d7a2-d401-47b1-aedd-70105f5f2f42","{""part"":""2"",""participantId"":""1ED68823D3214CDBB80039EC4F099D48"",""assignmentId"":""8f834c55-e9ed-463f-9820-8d3be583ae66"",""projectId"":""9596d7a2-d401-47b1-aedd-70105f5f2f42""}","https://test12345.live/?part=2&participantId=1ED68823D3214CDBB80039EC4F099D48&assignmentId=8f834c55-e9ed-463f-9820-8d3be583ae66&projectId=9596d7a2-d401-47b1-aedd-70105f5f2f42","1ED68823D3214CDBB80039EC4F099D48-2025-05-28-17-59-41","","null","","images/schematic_sequence/interview_scheme/interview_scheme_0.png","null","",""
"","","","","","html-audio-response","39","520834","0.0-37.0","1ED68823D3214CDBB80039EC4F099D48","1ED68823D3214CDBB80039EC4F099D48","8f834c55-e9ed-463f-9820-8d3be583ae66","9596d7a2-d401-47b1-aedd-70105f5f2f42","{""part"":""2"",""participantId"":""1ED68823D3214CDBB80039EC4F099D48"",""assignmentId"":""8f834c55-e9ed-463f-9820-8d3be583ae66"",""projectId"":""9596d7a2-d401-47b1-aedd-70105f5f2f42""}","https://test12345.live/?part=2&participantId=1ED68823D3214CDBB80039EC4F099D48&assignmentId=8f834c55-e9ed-463f-9820-8d3be583ae66&projectId=9596d7a2-d401-47b1-aedd-70105f5f2f42","1ED68823D3214CDBB80039EC4F099D48-2025-05-28-17-59-41","","17086","","[""<span style=\""color: red; font-size: 24px\""> NOW RECORDING</span><p>Please say out loud all the images you saw in part 1 of the experiment, in the exact order you saw them. Try to recall as many images as you can, but remember: getting the order right is more important than the number of images you recall. </p>""]","","2","interview_scheme"
"","","","","","image-button-response","40","526839","0.0-38.0-0.0","1ED68823D3214CDBB80039EC4F099D48","1ED68823D3214CDBB80039EC4F099D48","8f834c55-e9ed-463f-9820-8d3be583ae66","9596d7a2-d401-47b1-aedd-70105f5f2f42","{""part"":""2"",""participantId"":""1ED68823D3214CDBB80039EC4F099D48"",""assignmentId"":""8f834c55-e9ed-463f-9820-8d3be583ae66"",""projectId"":""9596d7a2-d401-47b1-aedd-70105f5f2f42""}","https://test12345.live/?part=2&participantId=1ED68823D3214CDBB80039EC4F099D48&assignmentId=8f834c55-e9ed-463f-9820-8d3be583ae66&projectId=9596d7a2-d401-47b1-aedd-70105f5f2f42","1ED68823D3214CDBB80039EC4F099D48-2025-05-28-17-59-41","","null","","images/semantic_sequence/maintaining_a_car_semantic/maintaining_a_car_semantic_0.png","null","",""
"","","","","","html-audio-response","41","545386","0.0-39.0","1ED68823D3214CDBB80039EC4F099D48","1ED68823D3214CDBB80039EC4F099D48","8f834c55-e9ed-463f-9820-8d3be583ae66","9596d7a2-d401-47b1-aedd-70105f5f2f42","{""part"":""2"",""participantId"":""1ED68823D3214CDBB80039EC4F099D48"",""assignmentId"":""8f834c55-e9ed-463f-9820-8d3be583ae66"",""projectId"":""9596d7a2-d401-47b1-aedd-70105f5f2f42""}","https://test12345.live/?part=2&participantId=1ED68823D3214CDBB80039EC4F099D48&assignmentId=8f834c55-e9ed-463f-9820-8d3be583ae66&projectId=9596d7a2-d401-47b1-aedd-70105f5f2f42","1ED68823D3214CDBB80039EC4F099D48-2025-05-28-17-59-41","","17332","","[""<span style=\""color: red; font-size: 24px\""> NOW RECORDING</span><p>Please say out loud all the images you saw in part 1 of the experiment, in the exact order you saw them. Try to recall as many images as you can, but remember: getting the order right is more important than the number of images you recall. </p>""]","","1","maintaining_a_car_semantic"
"","","","","","image-button-response","42","551391","0.0-40.0-0.0","1ED68823D3214CDBB80039EC4F099D48","1ED68823D3214CDBB80039EC4F099D48","8f834c55-e9ed-463f-9820-8d3be583ae66","9596d7a2-d401-47b1-aedd-70105f5f2f42","{""part"":""2"",""participantId"":""1ED68823D3214CDBB80039EC4F099D48"",""assignmentId"":""8f834c55-e9ed-463f-9820-8d3be583ae66"",""projectId"":""9596d7a2-d401-47b1-aedd-70105f5f2f42""}","https://test12345.live/?part=2&participantId=1ED68823D3214CDBB80039EC4F099D48&assignmentId=8f834c55-e9ed-463f-9820-8d3be583ae66&projectId=9596d7a2-d401-47b1-aedd-70105f5f2f42","1ED68823D3214CDBB80039EC4F099D48-2025-05-28-17-59-41","","null","","images/semantic_sequence/using_technology_semantic/using_technology_semantic_0.png","null","",""
"","","","","","html-audio-response","43","572511","0.0-41.0","1ED68823D3214CDBB80039EC4F099D48","1ED68823D3214CDBB80039EC4F099D48","8f834c55-e9ed-463f-9820-8d3be583ae66","9596d7a2-d401-47b1-aedd-70105f5f2f42","{""part"":""2"",""participantId"":""1ED68823D3214CDBB80039EC4F099D48"",""assignmentId"":""8f834c55-e9ed-463f-9820-8d3be583ae66"",""projectId"":""9596d7a2-d401-47b1-aedd-70105f5f2f42""}","https://test12345.live/?part=2&participantId=1ED68823D3214CDBB80039EC4F099D48&assignmentId=8f834c55-e9ed-463f-9820-8d3be583ae66&projectId=9596d7a2-d401-47b1-aedd-70105f5f2f42","1ED68823D3214CDBB80039EC4F099D48-2025-05-28-17-59-41","","20506","","[""<span style=\""color: red; font-size: 24px\""> NOW RECORDING</span><p>Please say out loud all the images you saw in part 1 of the experiment, in the exact order you saw them. Try to recall as many images as you can, but remember: getting the order right is more important than the number of images you recall. </p>""]","","1","using_technology_semantic"
"","","","","","image-button-response","44","578522","0.0-42.0-0.0","1ED68823D3214CDBB80039EC4F099D48","1ED68823D3214CDBB80039EC4F099D48","8f834c55-e9ed-463f-9820-8d3be583ae66","9596d7a2-d401-47b1-aedd-70105f5f2f42","{""part"":""2"",""participantId"":""1ED68823D3214CDBB80039EC4F099D48"",""assignmentId"":""8f834c55-e9ed-463f-9820-8d3be583ae66"",""projectId"":""9596d7a2-d401-47b1-aedd-70105f5f2f42""}","https://test12345.live/?part=2&participantId=1ED68823D3214CDBB80039EC4F099D48&assignmentId=8f834c55-e9ed-463f-9820-8d3be583ae66&projectId=9596d7a2-d401-47b1-aedd-70105f5f2f42","1ED68823D3214CDBB80039EC4F099D48-2025-05-28-17-59-41","","null","","images/causal_sequence/saving_a_cat_causal/saving_a_cat_causal_0.png","null","",""
"","","","","","html-audio-response","45","597037","0.0-43.0","1ED68823D3214CDBB80039EC4F099D48","1ED68823D3214CDBB80039EC4F099D48","8f834c55-e9ed-463f-9820-8d3be583ae66","9596d7a2-d401-47b1-aedd-70105f5f2f42","{""part"":""2"",""participantId"":""1ED68823D3214CDBB80039EC4F099D48"",""assignmentId"":""8f834c55-e9ed-463f-9820-8d3be583ae66"",""projectId"":""9596d7a2-d401-47b1-aedd-70105f5f2f42""}","https://test12345.live/?part=2&participantId=1ED68823D3214CDBB80039EC4F099D48&assignmentId=8f834c55-e9ed-463f-9820-8d3be583ae66&projectId=9596d7a2-d401-47b1-aedd-70105f5f2f42","1ED68823D3214CDBB80039EC4F099D48-2025-05-28-17-59-41","","17975","","[""<span style=\""color: red; font-size: 24px\""> NOW RECORDING</span><p>Please say out loud all the images you saw in part 1 of the experiment, in the exact order you saw them. Try to recall as many images as you can, but remember: getting the order right is more important than the number of images you recall. </p>""]","","2","saving_a_cat_causal"
"","","","","","image-button-response","46","603046","0.0-44.0-0.0","1ED68823D3214CDBB80039EC4F099D48","1ED68823D3214CDBB80039EC4F099D48","8f834c55-e9ed-463f-9820-8d3be583ae66","9596d7a2-d401-47b1-aedd-70105f5f2f42","{""part"":""2"",""participantId"":""1ED68823D3214CDBB80039EC4F099D48"",""assignmentId"":""8f834c55-e9ed-463f-9820-8d3be583ae66"",""projectId"":""9596d7a2-d401-47b1-aedd-70105f5f2f42""}","https://test12345.live/?part=2&participantId=1ED68823D3214CDBB80039EC4F099D48&assignmentId=8f834c55-e9ed-463f-9820-8d3be583ae66&projectId=9596d7a2-d401-47b1-aedd-70105f5f2f42","1ED68823D3214CDBB80039EC4F099D48-2025-05-28-17-59-41","","null","","images/causal_sequence/package_causal/package_causal_0.png","null","",""
"","","","","","html-audio-response","47","641431","0.0-45.0","1ED68823D3214CDBB80039EC4F099D48","1ED68823D3214CDBB80039EC4F099D48","8f834c55-e9ed-463f-9820-8d3be583ae66","9596d7a2-d401-47b1-aedd-70105f5f2f42","{""part"":""2"",""participantId"":""1ED68823D3214CDBB80039EC4F099D48"",""assignmentId"":""8f834c55-e9ed-463f-9820-8d3be583ae66"",""projectId"":""9596d7a2-d401-47b1-aedd-70105f5f2f42""}","https://test12345.live/?part=2&participantId=1ED68823D3214CDBB80039EC4F099D48&assignmentId=8f834c55-e9ed-463f-9820-8d3be583ae66&projectId=9596d7a2-d401-47b1-aedd-70105f5f2f42","1ED68823D3214CDBB80039EC4F099D48-2025-05-28-17-59-41","","37569","","[""<span style=\""color: red; font-size: 24px\""> NOW RECORDING</span><p>Please say out loud all the images you saw in part 1 of the experiment, in the exact order you saw them. Try to recall as many images as you can, but remember: getting the order right is more important than the number of images you recall. </p>""]","","1","package_causal"
"","","","","","image-button-response","48","647438","0.0-46.0-0.0","1ED68823D3214CDBB80039EC4F099D48","1ED68823D3214CDBB80039EC4F099D48","8f834c55-e9ed-463f-9820-8d3be583ae66","9596d7a2-d401-47b1-aedd-70105f5f2f42","{""part"":""2"",""participantId"":""1ED68823D3214CDBB80039EC4F099D48"",""assignmentId"":""8f834c55-e9ed-463f-9820-8d3be583ae66"",""projectId"":""9596d7a2-d401-47b1-aedd-70105f5f2f42""}","https://test12345.live/?part=2&participantId=1ED68823D3214CDBB80039EC4F099D48&assignmentId=8f834c55-e9ed-463f-9820-8d3be583ae66&projectId=9596d7a2-d401-47b1-aedd-70105f5f2f42","1ED68823D3214CDBB80039EC4F099D48-2025-05-28-17-59-41","","null","","images/semantic_sequence/cat_care_semantic/cat_care_semantic_0.png","null","",""
"","","","","","html-audio-response","49","664357","0.0-47.0","1ED68823D3214CDBB80039EC4F099D48","1ED68823D3214CDBB80039EC4F099D48","8f834c55-e9ed-463f-9820-8d3be583ae66","9596d7a2-d401-47b1-aedd-70105f5f2f42","{""part"":""2"",""participantId"":""1ED68823D3214CDBB80039EC4F099D48"",""assignmentId"":""8f834c55-e9ed-463f-9820-8d3be583ae66"",""projectId"":""9596d7a2-d401-47b1-aedd-70105f5f2f42""}","https://test12345.live/?part=2&participantId=1ED68823D3214CDBB80039EC4F099D48&assignmentId=8f834c55-e9ed-463f-9820-8d3be583ae66&projectId=9596d7a2-d401-47b1-aedd-70105f5f2f42","1ED68823D3214CDBB80039EC4F099D48-2025-05-28-17-59-41","","16267","","[""<span style=\""color: red; font-size: 24px\""> NOW RECORDING</span><p>Please say out loud all the images you saw in part 1 of the experiment, in the exact order you saw them. Try to recall as many images as you can, but remember: getting the order right is more important than the number of images you recall. </p>""]","","2","cat_care_semantic"
"","","","","","image-button-response","50","670364","0.0-48.0-0.0","1ED68823D3214CDBB80039EC4F099D48","1ED68823D3214CDBB80039EC4F099D48","8f834c55-e9ed-463f-9820-8d3be583ae66","9596d7a2-d401-47b1-aedd-70105f5f2f42","{""part"":""2"",""participantId"":""1ED68823D3214CDBB80039EC4F099D48"",""assignmentId"":""8f834c55-e9ed-463f-9820-8d3be583ae66"",""projectId"":""9596d7a2-d401-47b1-aedd-70105f5f2f42""}","https://test12345.live/?part=2&participantId=1ED68823D3214CDBB80039EC4F099D48&assignmentId=8f834c55-e9ed-463f-9820-8d3be583ae66&projectId=9596d7a2-d401-47b1-aedd-70105f5f2f42","1ED68823D3214CDBB80039EC4F099D48-2025-05-28-17-59-41","","null","","images/schematic_sequence/restaurant_scheme/restaurant_scheme_0.png","null","",""
"","","","","","html-audio-response","51","682259","0.0-49.0","1ED68823D3214CDBB80039EC4F099D48","1ED68823D3214CDBB80039EC4F099D48","8f834c55-e9ed-463f-9820-8d3be583ae66","9596d7a2-d401-47b1-aedd-70105f5f2f42","{""part"":""2"",""participantId"":""1ED68823D3214CDBB80039EC4F099D48"",""assignmentId"":""8f834c55-e9ed-463f-9820-8d3be583ae66"",""projectId"":""9596d7a2-d401-47b1-aedd-70105f5f2f42""}","https://test12345.live/?part=2&participantId=1ED68823D3214CDBB80039EC4F099D48&assignmentId=8f834c55-e9ed-463f-9820-8d3be583ae66&projectId=9596d7a2-d401-47b1-aedd-70105f5f2f42","1ED68823D3214CDBB80039EC4F099D48-2025-05-28-17-59-41","","10865","","[""<span style=\""color: red; font-size: 24px\""> NOW RECORDING</span><p>Please say out loud all the images you saw in part 1 of the experiment, in the exact order you saw them. Try to recall as many images as you can, but remember: getting the order right is more important than the number of images you recall. </p>""]","","2","restaurant_scheme"
"","","","","","image-button-response","52","688267","0.0-50.0-0.0","1ED68823D3214CDBB80039EC4F099D48","1ED68823D3214CDBB80039EC4F099D48","8f834c55-e9ed-463f-9820-8d3be583ae66","9596d7a2-d401-47b1-aedd-70105f5f2f42","{""part"":""2"",""participantId"":""1ED68823D3214CDBB80039EC4F099D48"",""assignmentId"":""8f834c55-e9ed-463f-9820-8d3be583ae66"",""projectId"":""9596d7a2-d401-47b1-aedd-70105f5f2f42""}","https://test12345.live/?part=2&participantId=1ED68823D3214CDBB80039EC4F099D48&assignmentId=8f834c55-e9ed-463f-9820-8d3be583ae66&projectId=9596d7a2-d401-47b1-aedd-70105f5f2f42","1ED68823D3214CDBB80039EC4F099D48-2025-05-28-17-59-41","","null","","images/causal_sequence/dog_causal/dog_causal_0.png","null","",""
"","","","","","html-audio-response","53","716171","0.0-51.0","1ED68823D3214CDBB80039EC4F099D48","1ED68823D3214CDBB80039EC4F099D48","8f834c55-e9ed-463f-9820-8d3be583ae66","9596d7a2-d401-47b1-aedd-70105f5f2f42","{""part"":""2"",""participantId"":""1ED68823D3214CDBB80039EC4F099D48"",""assignmentId"":""8f834c55-e9ed-463f-9820-8d3be583ae66"",""projectId"":""9596d7a2-d401-47b1-aedd-70105f5f2f42""}","https://test12345.live/?part=2&participantId=1ED68823D3214CDBB80039EC4F099D48&assignmentId=8f834c55-e9ed-463f-9820-8d3be583ae66&projectId=9596d7a2-d401-47b1-aedd-70105f5f2f42","1ED68823D3214CDBB80039EC4F099D48-2025-05-28-17-59-41","","27207","","[""<span style=\""color: red; font-size: 24px\""> NOW RECORDING</span><p>Please say out loud all the images you saw in part 1 of the experiment, in the exact order you saw them. Try to recall as many images as you can, but remember: getting the order right is more important than the number of images you recall. </p>""]","","2","dog_causal"
"","","","","","image-button-response","54","722182","0.0-52.0-0.0","1ED68823D3214CDBB80039EC4F099D48","1ED68823D3214CDBB80039EC4F099D48","8f834c55-e9ed-463f-9820-8d3be583ae66","9596d7a2-d401-47b1-aedd-70105f5f2f42","{""part"":""2"",""participantId"":""1ED68823D3214CDBB80039EC4F099D48"",""assignmentId"":""8f834c55-e9ed-463f-9820-8d3be583ae66"",""projectId"":""9596d7a2-d401-47b1-aedd-70105f5f2f42""}","https://test12345.live/?part=2&participantId=1ED68823D3214CDBB80039EC4F099D48&assignmentId=8f834c55-e9ed-463f-9820-8d3be583ae66&projectId=9596d7a2-d401-47b1-aedd-70105f5f2f42","1ED68823D3214CDBB80039EC4F099D48-2025-05-28-17-59-41","","null","","images/causal_sequence/museum_causal/museum_causal_0.png","null","",""
"","","","","","html-audio-response","55","755126","0.0-53.0","1ED68823D3214CDBB80039EC4F099D48","1ED68823D3214CDBB80039EC4F099D48","8f834c55-e9ed-463f-9820-8d3be583ae66","9596d7a2-d401-47b1-aedd-70105f5f2f42","{""part"":""2"",""participantId"":""1ED68823D3214CDBB80039EC4F099D48"",""assignmentId"":""8f834c55-e9ed-463f-9820-8d3be583ae66"",""projectId"":""9596d7a2-d401-47b1-aedd-70105f5f2f42""}","https://test12345.live/?part=2&participantId=1ED68823D3214CDBB80039EC4F099D48&assignmentId=8f834c55-e9ed-463f-9820-8d3be583ae66&projectId=9596d7a2-d401-47b1-aedd-70105f5f2f42","1ED68823D3214CDBB80039EC4F099D48-2025-05-28-17-59-41","","32448","","[""<span style=\""color: red; font-size: 24px\""> NOW RECORDING</span><p>Please say out loud all the images you saw in part 1 of the experiment, in the exact order you saw them. Try to recall as many images as you can, but remember: getting the order right is more important than the number of images you recall. </p>""]","","1","museum_causal"
"","","","","","image-button-response","56","761138","0.0-54.0-0.0","1ED68823D3214CDBB80039EC4F099D48","1ED68823D3214CDBB80039EC4F099D48","8f834c55-e9ed-463f-9820-8d3be583ae66","9596d7a2-d401-47b1-aedd-70105f5f2f42","{""part"":""2"",""participantId"":""1ED68823D3214CDBB80039EC4F099D48"",""assignmentId"":""8f834c55-e9ed-463f-9820-8d3be583ae66"",""projectId"":""9596d7a2-d401-47b1-aedd-70105f5f2f42""}","https://test12345.live/?part=2&participantId=1ED68823D3214CDBB80039EC4F099D48&assignmentId=8f834c55-e9ed-463f-9820-8d3be583ae66&projectId=9596d7a2-d401-47b1-aedd-70105f5f2f42","1ED68823D3214CDBB80039EC4F099D48-2025-05-28-17-59-41","","null","","images/semantic_sequence/creative_activities_semantic/creative_activities_semantic_0.png","null","",""
"","","","","","html-audio-response","57","777645","0.0-55.0","1ED68823D3214CDBB80039EC4F099D48","1ED68823D3214CDBB80039EC4F099D48","8f834c55-e9ed-463f-9820-8d3be583ae66","9596d7a2-d401-47b1-aedd-70105f5f2f42","{""part"":""2"",""participantId"":""1ED68823D3214CDBB80039EC4F099D48"",""assignmentId"":""8f834c55-e9ed-463f-9820-8d3be583ae66"",""projectId"":""9596d7a2-d401-47b1-aedd-70105f5f2f42""}","https://test12345.live/?part=2&participantId=1ED68823D3214CDBB80039EC4F099D48&assignmentId=8f834c55-e9ed-463f-9820-8d3be583ae66&projectId=9596d7a2-d401-47b1-aedd-70105f5f2f42","1ED68823D3214CDBB80039EC4F099D48-2025-05-28-17-59-41","","15984","","[""<span style=\""color: red; font-size: 24px\""> NOW RECORDING</span><p>Please say out loud all the images you saw in part 1 of the experiment, in the exact order you saw them. Try to recall as many images as you can, but remember: getting the order right is more important than the number of images you recall. </p>""]","","2","creative_activities_semantic"
"","","","","","image-button-response","58","783654","0.0-56.0-0.0","1ED68823D3214CDBB80039EC4F099D48","1ED68823D3214CDBB80039EC4F099D48","8f834c55-e9ed-463f-9820-8d3be583ae66","9596d7a2-d401-47b1-aedd-70105f5f2f42","{""part"":""2"",""participantId"":""1ED68823D3214CDBB80039EC4F099D48"",""assignmentId"":""8f834c55-e9ed-463f-9820-8d3be583ae66"",""projectId"":""9596d7a2-d401-47b1-aedd-70105f5f2f42""}","https://test12345.live/?part=2&participantId=1ED68823D3214CDBB80039EC4F099D48&assignmentId=8f834c55-e9ed-463f-9820-8d3be583ae66&projectId=9596d7a2-d401-47b1-aedd-70105f5f2f42","1ED68823D3214CDBB80039EC4F099D48-2025-05-28-17-59-41","","null","","images/schematic_sequence/flight_scheme/flight_scheme_0.png","null","",""
"","","","","","html-audio-response","59","803833","0.0-57.0","1ED68823D3214CDBB80039EC4F099D48","1ED68823D3214CDBB80039EC4F099D48","8f834c55-e9ed-463f-9820-8d3be583ae66","9596d7a2-d401-47b1-aedd-70105f5f2f42","{""part"":""2"",""participantId"":""1ED68823D3214CDBB80039EC4F099D48"",""assignmentId"":""8f834c55-e9ed-463f-9820-8d3be583ae66"",""projectId"":""9596d7a2-d401-47b1-aedd-70105f5f2f42""}","https://test12345.live/?part=2&participantId=1ED68823D3214CDBB80039EC4F099D48&assignmentId=8f834c55-e9ed-463f-9820-8d3be583ae66&projectId=9596d7a2-d401-47b1-aedd-70105f5f2f42","1ED68823D3214CDBB80039EC4F099D48-2025-05-28-17-59-41","","19653","","[""<span style=\""color: red; font-size: 24px\""> NOW RECORDING</span><p>Please say out loud all the images you saw in part 1 of the experiment, in the exact order you saw them. Try to recall as many images as you can, but remember: getting the order right is more important than the number of images you recall. </p>""]","","2","flight_scheme"
"","","","","","survey-text","60","812928","0.0-58.0","1ED68823D3214CDBB80039EC4F099D48","1ED68823D3214CDBB80039EC4F099D48","8f834c55-e9ed-463f-9820-8d3be583ae66","9596d7a2-d401-47b1-aedd-70105f5f2f42","{""part"":""2"",""participantId"":""1ED68823D3214CDBB80039EC4F099D48"",""assignmentId"":""8f834c55-e9ed-463f-9820-8d3be583ae66"",""projectId"":""9596d7a2-d401-47b1-aedd-70105f5f2f42""}","https://test12345.live/?part=2&participantId=1ED68823D3214CDBB80039EC4F099D48&assignmentId=8f834c55-e9ed-463f-9820-8d3be583ae66&projectId=9596d7a2-d401-47b1-aedd-70105f5f2f42","1ED68823D3214CDBB80039EC4F099D48-2025-05-28-17-59-41","","9086","","","{""Q0"":""MALE"",""Q1"":""20""}","",""
"","","","","","instructions","61","870941","0.0-59.0","1ED68823D3214CDBB80039EC4F099D48","1ED68823D3214CDBB80039EC4F099D48","8f834c55-e9ed-463f-9820-8d3be583ae66","9596d7a2-d401-47b1-aedd-70105f5f2f42","{""part"":""2"",""participantId"":""1ED68823D3214CDBB80039EC4F099D48"",""assignmentId"":""8f834c55-e9ed-463f-9820-8d3be583ae66"",""projectId"":""9596d7a2-d401-47b1-aedd-70105f5f2f42""}","https://test12345.live/?part=2&participantId=1ED68823D3214CDBB80039EC4F099D48&assignmentId=8f834c55-e9ed-463f-9820-8d3be583ae66&projectId=9596d7a2-d401-47b1-aedd-70105f5f2f42","1ED68823D3214CDBB80039EC4F099D48-2025-05-28-17-59-41","[{""page_index"":0,""viewing_time"":58012}]","58012","","","","",""
"","","","","","survey-text","62","873071","0.0-60.0","1ED68823D3214CDBB80039EC4F099D48","1ED68823D3214CDBB80039EC4F099D48","8f834c55-e9ed-463f-9820-8d3be583ae66","9596d7a2-d401-47b1-aedd-70105f5f2f42","{""part"":""2"",""participantId"":""1ED68823D3214CDBB80039EC4F099D48"",""assignmentId"":""8f834c55-e9ed-463f-9820-8d3be583ae66"",""projectId"":""9596d7a2-d401-47b1-aedd-70105f5f2f42""}","https://test12345.live/?part=2&participantId=1ED68823D3214CDBB80039EC4F099D48&assignmentId=8f834c55-e9ed-463f-9820-8d3be583ae66&projectId=9596d7a2-d401-47b1-aedd-70105f5f2f42","1ED68823D3214CDBB80039EC4F099D48-2025-05-28-17-59-41","","2127","","","{""Q0"":""AJFHBG896""}","",""
