"success","timeout","failed_images","failed_audio","failed_video","trial_type","trial_index","time_elapsed","internal_node_id","subject","subject_id","study_id","session_id","urlvar","current_url","audio_id","view_history","rt","device_id","stimulus","response","estimated_stimulus_onset","seq_name"
"true","false","[]","[]","[]","preload","0","2724","0.0-0.0","23E67C9D42D94C8C9EFE0C5C4F68E25E","23E67C9D42D94C8C9EFE0C5C4F68E25E","bfa1035b-fc53-4993-8876-f61f55f8e01d","2dd913a0-fd4c-43f1-b4f3-f0d48537bce8","{""part"":""2"",""participantId"":""23E67C9D42D94C8C9EFE0C5C4F68E25E"",""assignmentId"":""bfa1035b-fc53-4993-8876-f61f55f8e01d"",""projectId"":""2dd913a0-fd4c-43f1-b4f3-f0d48537bce8""}","https://test12345.live/?part=2&participantId=23E67C9D42D94C8C9EFE0C5C4F68E25E&assignmentId=bfa1035b-fc53-4993-8876-f61f55f8e01d&projectId=2dd913a0-fd4c-43f1-b4f3-f0d48537bce8","23E67C9D42D94C8C9EFE0C5C4F68E25E-2025-05-15-20-40-38","","","","","","",""
"","","","","","instructions","1","116601","0.0-1.0","23E67C9D42D94C8C9EFE0C5C4F68E25E","23E67C9D42D94C8C9EFE0C5C4F68E25E","bfa1035b-fc53-4993-8876-f61f55f8e01d","2dd913a0-fd4c-43f1-b4f3-f0d48537bce8","{""part"":""2"",""participantId"":""23E67C9D42D94C8C9EFE0C5C4F68E25E"",""assignmentId"":""bfa1035b-fc53-4993-8876-f61f55f8e01d"",""projectId"":""2dd913a0-fd4c-43f1-b4f3-f0d48537bce8""}","https://test12345.live/?part=2&participantId=23E67C9D42D94C8C9EFE0C5C4F68E25E&assignmentId=bfa1035b-fc53-4993-8876-f61f55f8e01d&projectId=2dd913a0-fd4c-43f1-b4f3-f0d48537bce8","23E67C9D42D94C8C9EFE0C5C4F68E25E-2025-05-15-20-40-38","[{""page_index"":0,""viewing_time"":113875}]","113875","","","","",""
"","","","","","instructions","2","150856","0.0-2.0","23E67C9D42D94C8C9EFE0C5C4F68E25E","23E67C9D42D94C8C9EFE0C5C4F68E25E","bfa1035b-fc53-4993-8876-f61f55f8e01d","2dd913a0-fd4c-43f1-b4f3-f0d48537bce8","{""part"":""2"",""participantId"":""23E67C9D42D94C8C9EFE0C5C4F68E25E"",""assignmentId"":""bfa1035b-fc53-4993-8876-f61f55f8e01d"",""projectId"":""2dd913a0-fd4c-43f1-b4f3-f0d48537bce8""}","https://test12345.live/?part=2&participantId=23E67C9D42D94C8C9EFE0C5C4F68E25E&assignmentId=bfa1035b-fc53-4993-8876-f61f55f8e01d&projectId=2dd913a0-fd4c-43f1-b4f3-f0d48537bce8","23E67C9D42D94C8C9EFE0C5C4F68E25E-2025-05-15-20-40-38","[{""page_index"":0,""viewing_time"":34252}]","34252","","","","",""
"true","","","","","fullscreen","3","155243","0.0-3.0","23E67C9D42D94C8C9EFE0C5C4F68E25E","23E67C9D42D94C8C9EFE0C5C4F68E25E","bfa1035b-fc53-4993-8876-f61f55f8e01d","2dd913a0-fd4c-43f1-b4f3-f0d48537bce8","{""part"":""2"",""participantId"":""23E67C9D42D94C8C9EFE0C5C4F68E25E"",""assignmentId"":""bfa1035b-fc53-4993-8876-f61f55f8e01d"",""projectId"":""2dd913a0-fd4c-43f1-b4f3-f0d48537bce8""}","https://test12345.live/?part=2&participantId=23E67C9D42D94C8C9EFE0C5C4F68E25E&assignmentId=bfa1035b-fc53-4993-8876-f61f55f8e01d&projectId=2dd913a0-fd4c-43f1-b4f3-f0d48537bce8","23E67C9D42D94C8C9EFE0C5C4F68E25E-2025-05-15-20-40-38","","3374","","","","",""
"","","","","","initialize-microphone","4","164706","0.0-4.0-0.0","23E67C9D42D94C8C9EFE0C5C4F68E25E","23E67C9D42D94C8C9EFE0C5C4F68E25E","bfa1035b-fc53-4993-8876-f61f55f8e01d","2dd913a0-fd4c-43f1-b4f3-f0d48537bce8","{""part"":""2"",""participantId"":""23E67C9D42D94C8C9EFE0C5C4F68E25E"",""assignmentId"":""bfa1035b-fc53-4993-8876-f61f55f8e01d"",""projectId"":""2dd913a0-fd4c-43f1-b4f3-f0d48537bce8""}","https://test12345.live/?part=2&participantId=23E67C9D42D94C8C9EFE0C5C4F68E25E&assignmentId=bfa1035b-fc53-4993-8876-f61f55f8e01d&projectId=2dd913a0-fd4c-43f1-b4f3-f0d48537bce8","23E67C9D42D94C8C9EFE0C5C4F68E25E-2025-05-15-20-40-38","","","pFFyUxRJ776N6DIb1dp2J6Y0N7VdcW9OS7epJNYhCas=","","","",""
"","","","","","html-audio-response","5","433615","0.0-4.0-1.0","23E67C9D42D94C8C9EFE0C5C4F68E25E","23E67C9D42D94C8C9EFE0C5C4F68E25E","bfa1035b-fc53-4993-8876-f61f55f8e01d","2dd913a0-fd4c-43f1-b4f3-f0d48537bce8","{""part"":""2"",""participantId"":""23E67C9D42D94C8C9EFE0C5C4F68E25E"",""assignmentId"":""bfa1035b-fc53-4993-8876-f61f55f8e01d"",""projectId"":""2dd913a0-fd4c-43f1-b4f3-f0d48537bce8""}","https://test12345.live/?part=2&participantId=23E67C9D42D94C8C9EFE0C5C4F68E25E&assignmentId=bfa1035b-fc53-4993-8876-f61f55f8e01d&projectId=2dd913a0-fd4c-43f1-b4f3-f0d48537bce8","23E67C9D42D94C8C9EFE0C5C4F68E25E-2025-05-15-20-40-38","","4280","","<span style=""color: red; font-size: 24px""> NOW RECORDING</span>
        <p>Please test Microphone</p>","","2",""
"","","","","","html-button-response","6","436468","0.0-4.0-2.0","23E67C9D42D94C8C9EFE0C5C4F68E25E","23E67C9D42D94C8C9EFE0C5C4F68E25E","bfa1035b-fc53-4993-8876-f61f55f8e01d","2dd913a0-fd4c-43f1-b4f3-f0d48537bce8","{""part"":""2"",""participantId"":""23E67C9D42D94C8C9EFE0C5C4F68E25E"",""assignmentId"":""bfa1035b-fc53-4993-8876-f61f55f8e01d"",""projectId"":""2dd913a0-fd4c-43f1-b4f3-f0d48537bce8""}","https://test12345.live/?part=2&participantId=23E67C9D42D94C8C9EFE0C5C4F68E25E&assignmentId=bfa1035b-fc53-4993-8876-f61f55f8e01d&projectId=2dd913a0-fd4c-43f1-b4f3-f0d48537bce8","23E67C9D42D94C8C9EFE0C5C4F68E25E-2025-05-15-20-40-38","","2849","","<p style=""font-size:48px; color:red;"">Is Microphone OK?</p>","1","",""
"","","","","","instructions","7","448653","0.0-5.0","23E67C9D42D94C8C9EFE0C5C4F68E25E","23E67C9D42D94C8C9EFE0C5C4F68E25E","bfa1035b-fc53-4993-8876-f61f55f8e01d","2dd913a0-fd4c-43f1-b4f3-f0d48537bce8","{""part"":""2"",""participantId"":""23E67C9D42D94C8C9EFE0C5C4F68E25E"",""assignmentId"":""bfa1035b-fc53-4993-8876-f61f55f8e01d"",""projectId"":""2dd913a0-fd4c-43f1-b4f3-f0d48537bce8""}","https://test12345.live/?part=2&participantId=23E67C9D42D94C8C9EFE0C5C4F68E25E&assignmentId=bfa1035b-fc53-4993-8876-f61f55f8e01d&projectId=2dd913a0-fd4c-43f1-b4f3-f0d48537bce8","23E67C9D42D94C8C9EFE0C5C4F68E25E-2025-05-15-20-40-38","[{""page_index"":0,""viewing_time"":1312},{""page_index"":1,""viewing_time"":4756},{""page_index"":2,""viewing_time"":6114}]","12182","","","","",""
"","","","","","image-button-response","8","454655","0.0-6.0-0.0","23E67C9D42D94C8C9EFE0C5C4F68E25E","23E67C9D42D94C8C9EFE0C5C4F68E25E","bfa1035b-fc53-4993-8876-f61f55f8e01d","2dd913a0-fd4c-43f1-b4f3-f0d48537bce8","{""part"":""2"",""participantId"":""23E67C9D42D94C8C9EFE0C5C4F68E25E"",""assignmentId"":""bfa1035b-fc53-4993-8876-f61f55f8e01d"",""projectId"":""2dd913a0-fd4c-43f1-b4f3-f0d48537bce8""}","https://test12345.live/?part=2&participantId=23E67C9D42D94C8C9EFE0C5C4F68E25E&assignmentId=bfa1035b-fc53-4993-8876-f61f55f8e01d&projectId=2dd913a0-fd4c-43f1-b4f3-f0d48537bce8","23E67C9D42D94C8C9EFE0C5C4F68E25E-2025-05-15-20-40-38","","null","","images/instructions/movie_0.png","null","",""
"","","","","","html-audio-response","9","539339","0.0-7.0","23E67C9D42D94C8C9EFE0C5C4F68E25E","23E67C9D42D94C8C9EFE0C5C4F68E25E","bfa1035b-fc53-4993-8876-f61f55f8e01d","2dd913a0-fd4c-43f1-b4f3-f0d48537bce8","{""part"":""2"",""participantId"":""23E67C9D42D94C8C9EFE0C5C4F68E25E"",""assignmentId"":""bfa1035b-fc53-4993-8876-f61f55f8e01d"",""projectId"":""2dd913a0-fd4c-43f1-b4f3-f0d48537bce8""}","https://test12345.live/?part=2&participantId=23E67C9D42D94C8C9EFE0C5C4F68E25E&assignmentId=bfa1035b-fc53-4993-8876-f61f55f8e01d&projectId=2dd913a0-fd4c-43f1-b4f3-f0d48537bce8","23E67C9D42D94C8C9EFE0C5C4F68E25E-2025-05-15-20-40-38","","5696","","[""<span style=\""color: red; font-size: 24px\""> NOW RECORDING</span><p>Please say out loud all the images you saw in part 1 of the experiment, as many as you can remember. The images can be said in any order.</p>""]","","3",""
"","","","","","instructions","10","542757","0.0-8.0","23E67C9D42D94C8C9EFE0C5C4F68E25E","23E67C9D42D94C8C9EFE0C5C4F68E25E","bfa1035b-fc53-4993-8876-f61f55f8e01d","2dd913a0-fd4c-43f1-b4f3-f0d48537bce8","{""part"":""2"",""participantId"":""23E67C9D42D94C8C9EFE0C5C4F68E25E"",""assignmentId"":""bfa1035b-fc53-4993-8876-f61f55f8e01d"",""projectId"":""2dd913a0-fd4c-43f1-b4f3-f0d48537bce8""}","https://test12345.live/?part=2&participantId=23E67C9D42D94C8C9EFE0C5C4F68E25E&assignmentId=bfa1035b-fc53-4993-8876-f61f55f8e01d&projectId=2dd913a0-fd4c-43f1-b4f3-f0d48537bce8","23E67C9D42D94C8C9EFE0C5C4F68E25E-2025-05-15-20-40-38","[{""page_index"":0,""viewing_time"":3412}]","3413","","","","",""
"","","","","","image-button-response","11","548759","0.0-9.0-0.0","23E67C9D42D94C8C9EFE0C5C4F68E25E","23E67C9D42D94C8C9EFE0C5C4F68E25E","bfa1035b-fc53-4993-8876-f61f55f8e01d","2dd913a0-fd4c-43f1-b4f3-f0d48537bce8","{""part"":""2"",""participantId"":""23E67C9D42D94C8C9EFE0C5C4F68E25E"",""assignmentId"":""bfa1035b-fc53-4993-8876-f61f55f8e01d"",""projectId"":""2dd913a0-fd4c-43f1-b4f3-f0d48537bce8""}","https://test12345.live/?part=2&participantId=23E67C9D42D94C8C9EFE0C5C4F68E25E&assignmentId=bfa1035b-fc53-4993-8876-f61f55f8e01d&projectId=2dd913a0-fd4c-43f1-b4f3-f0d48537bce8","23E67C9D42D94C8C9EFE0C5C4F68E25E-2025-05-15-20-40-38","","null","","images/semantic_sequence/physical_activity_semantic/physical_activity_semantic_0.png","null","",""
"","","","","","html-audio-response","12","562760","0.0-10.0","23E67C9D42D94C8C9EFE0C5C4F68E25E","23E67C9D42D94C8C9EFE0C5C4F68E25E","bfa1035b-fc53-4993-8876-f61f55f8e01d","2dd913a0-fd4c-43f1-b4f3-f0d48537bce8","{""part"":""2"",""participantId"":""23E67C9D42D94C8C9EFE0C5C4F68E25E"",""assignmentId"":""bfa1035b-fc53-4993-8876-f61f55f8e01d"",""projectId"":""2dd913a0-fd4c-43f1-b4f3-f0d48537bce8""}","https://test12345.live/?part=2&participantId=23E67C9D42D94C8C9EFE0C5C4F68E25E&assignmentId=bfa1035b-fc53-4993-8876-f61f55f8e01d&projectId=2dd913a0-fd4c-43f1-b4f3-f0d48537bce8","23E67C9D42D94C8C9EFE0C5C4F68E25E-2025-05-15-20-40-38","","2212","","[""<span style=\""color: red; font-size: 24px\""> NOW RECORDING</span><p>Please say out loud all the images you saw in part 1 of the experiment, as many as you can remember. The images can be said in any order.</p>""]","","6","physical_activity_semantic"
"","","","","","image-button-response","13","568764","0.0-11.0-0.0","23E67C9D42D94C8C9EFE0C5C4F68E25E","23E67C9D42D94C8C9EFE0C5C4F68E25E","bfa1035b-fc53-4993-8876-f61f55f8e01d","2dd913a0-fd4c-43f1-b4f3-f0d48537bce8","{""part"":""2"",""participantId"":""23E67C9D42D94C8C9EFE0C5C4F68E25E"",""assignmentId"":""bfa1035b-fc53-4993-8876-f61f55f8e01d"",""projectId"":""2dd913a0-fd4c-43f1-b4f3-f0d48537bce8""}","https://test12345.live/?part=2&participantId=23E67C9D42D94C8C9EFE0C5C4F68E25E&assignmentId=bfa1035b-fc53-4993-8876-f61f55f8e01d&projectId=2dd913a0-fd4c-43f1-b4f3-f0d48537bce8","23E67C9D42D94C8C9EFE0C5C4F68E25E-2025-05-15-20-40-38","","null","","images/semantic_sequence/kitchen_operations_semantic/kitchen_operations_semantic_0.png","null","",""
"","","","","","html-audio-response","14","614399","0.0-12.0","23E67C9D42D94C8C9EFE0C5C4F68E25E","23E67C9D42D94C8C9EFE0C5C4F68E25E","bfa1035b-fc53-4993-8876-f61f55f8e01d","2dd913a0-fd4c-43f1-b4f3-f0d48537bce8","{""part"":""2"",""participantId"":""23E67C9D42D94C8C9EFE0C5C4F68E25E"",""assignmentId"":""bfa1035b-fc53-4993-8876-f61f55f8e01d"",""projectId"":""2dd913a0-fd4c-43f1-b4f3-f0d48537bce8""}","https://test12345.live/?part=2&participantId=23E67C9D42D94C8C9EFE0C5C4F68E25E&assignmentId=bfa1035b-fc53-4993-8876-f61f55f8e01d&projectId=2dd913a0-fd4c-43f1-b4f3-f0d48537bce8","23E67C9D42D94C8C9EFE0C5C4F68E25E-2025-05-15-20-40-38","","1729","","[""<span style=\""color: red; font-size: 24px\""> NOW RECORDING</span><p>Please say out loud all the images you saw in part 1 of the experiment, as many as you can remember. The images can be said in any order.</p>""]","","5","kitchen_operations_semantic"
"","","","","","image-button-response","15","620402","0.0-13.0-0.0","23E67C9D42D94C8C9EFE0C5C4F68E25E","23E67C9D42D94C8C9EFE0C5C4F68E25E","bfa1035b-fc53-4993-8876-f61f55f8e01d","2dd913a0-fd4c-43f1-b4f3-f0d48537bce8","{""part"":""2"",""participantId"":""23E67C9D42D94C8C9EFE0C5C4F68E25E"",""assignmentId"":""bfa1035b-fc53-4993-8876-f61f55f8e01d"",""projectId"":""2dd913a0-fd4c-43f1-b4f3-f0d48537bce8""}","https://test12345.live/?part=2&participantId=23E67C9D42D94C8C9EFE0C5C4F68E25E&assignmentId=bfa1035b-fc53-4993-8876-f61f55f8e01d&projectId=2dd913a0-fd4c-43f1-b4f3-f0d48537bce8","23E67C9D42D94C8C9EFE0C5C4F68E25E-2025-05-15-20-40-38","","null","","images/semantic_sequence/visiting_cities_semantic/visiting_cities_semantic_0.png","null","",""
"","","","","","html-audio-response","16","775506","0.0-14.0","23E67C9D42D94C8C9EFE0C5C4F68E25E","23E67C9D42D94C8C9EFE0C5C4F68E25E","bfa1035b-fc53-4993-8876-f61f55f8e01d","2dd913a0-fd4c-43f1-b4f3-f0d48537bce8","{""part"":""2"",""participantId"":""23E67C9D42D94C8C9EFE0C5C4F68E25E"",""assignmentId"":""bfa1035b-fc53-4993-8876-f61f55f8e01d"",""projectId"":""2dd913a0-fd4c-43f1-b4f3-f0d48537bce8""}","https://test12345.live/?part=2&participantId=23E67C9D42D94C8C9EFE0C5C4F68E25E&assignmentId=bfa1035b-fc53-4993-8876-f61f55f8e01d&projectId=2dd913a0-fd4c-43f1-b4f3-f0d48537bce8","23E67C9D42D94C8C9EFE0C5C4F68E25E-2025-05-15-20-40-38","","10209","","[""<span style=\""color: red; font-size: 24px\""> NOW RECORDING</span><p>Please say out loud all the images you saw in part 1 of the experiment, as many as you can remember. The images can be said in any order.</p>""]","","2","visiting_cities_semantic"
"","","","","","image-button-response","17","781510","0.0-15.0-0.0","23E67C9D42D94C8C9EFE0C5C4F68E25E","23E67C9D42D94C8C9EFE0C5C4F68E25E","bfa1035b-fc53-4993-8876-f61f55f8e01d","2dd913a0-fd4c-43f1-b4f3-f0d48537bce8","{""part"":""2"",""participantId"":""23E67C9D42D94C8C9EFE0C5C4F68E25E"",""assignmentId"":""bfa1035b-fc53-4993-8876-f61f55f8e01d"",""projectId"":""2dd913a0-fd4c-43f1-b4f3-f0d48537bce8""}","https://test12345.live/?part=2&participantId=23E67C9D42D94C8C9EFE0C5C4F68E25E&assignmentId=bfa1035b-fc53-4993-8876-f61f55f8e01d&projectId=2dd913a0-fd4c-43f1-b4f3-f0d48537bce8","23E67C9D42D94C8C9EFE0C5C4F68E25E-2025-05-15-20-40-38","","null","","images/causal_sequence/package_causal/package_causal_0.png","null","",""
"","","","","","html-audio-response","18","802191","0.0-16.0","23E67C9D42D94C8C9EFE0C5C4F68E25E","23E67C9D42D94C8C9EFE0C5C4F68E25E","bfa1035b-fc53-4993-8876-f61f55f8e01d","2dd913a0-fd4c-43f1-b4f3-f0d48537bce8","{""part"":""2"",""participantId"":""23E67C9D42D94C8C9EFE0C5C4F68E25E"",""assignmentId"":""bfa1035b-fc53-4993-8876-f61f55f8e01d"",""projectId"":""2dd913a0-fd4c-43f1-b4f3-f0d48537bce8""}","https://test12345.live/?part=2&participantId=23E67C9D42D94C8C9EFE0C5C4F68E25E&assignmentId=bfa1035b-fc53-4993-8876-f61f55f8e01d&projectId=2dd913a0-fd4c-43f1-b4f3-f0d48537bce8","23E67C9D42D94C8C9EFE0C5C4F68E25E-2025-05-15-20-40-38","","9821","","[""<span style=\""color: red; font-size: 24px\""> NOW RECORDING</span><p>Please say out loud all the images you saw in part 1 of the experiment, as many as you can remember. The images can be said in any order.</p>""]","","12","package_causal"
"","","","","","image-button-response","19","808196","0.0-17.0-0.0","23E67C9D42D94C8C9EFE0C5C4F68E25E","23E67C9D42D94C8C9EFE0C5C4F68E25E","bfa1035b-fc53-4993-8876-f61f55f8e01d","2dd913a0-fd4c-43f1-b4f3-f0d48537bce8","{""part"":""2"",""participantId"":""23E67C9D42D94C8C9EFE0C5C4F68E25E"",""assignmentId"":""bfa1035b-fc53-4993-8876-f61f55f8e01d"",""projectId"":""2dd913a0-fd4c-43f1-b4f3-f0d48537bce8""}","https://test12345.live/?part=2&participantId=23E67C9D42D94C8C9EFE0C5C4F68E25E&assignmentId=bfa1035b-fc53-4993-8876-f61f55f8e01d&projectId=2dd913a0-fd4c-43f1-b4f3-f0d48537bce8","23E67C9D42D94C8C9EFE0C5C4F68E25E-2025-05-15-20-40-38","","null","","images/semantic_sequence/maintaining_a_car_semantic/maintaining_a_car_semantic_0.png","null","",""
"","","","","","html-audio-response","20","827446","0.0-18.0","23E67C9D42D94C8C9EFE0C5C4F68E25E","23E67C9D42D94C8C9EFE0C5C4F68E25E","bfa1035b-fc53-4993-8876-f61f55f8e01d","2dd913a0-fd4c-43f1-b4f3-f0d48537bce8","{""part"":""2"",""participantId"":""23E67C9D42D94C8C9EFE0C5C4F68E25E"",""assignmentId"":""bfa1035b-fc53-4993-8876-f61f55f8e01d"",""projectId"":""2dd913a0-fd4c-43f1-b4f3-f0d48537bce8""}","https://test12345.live/?part=2&participantId=23E67C9D42D94C8C9EFE0C5C4F68E25E&assignmentId=bfa1035b-fc53-4993-8876-f61f55f8e01d&projectId=2dd913a0-fd4c-43f1-b4f3-f0d48537bce8","23E67C9D42D94C8C9EFE0C5C4F68E25E-2025-05-15-20-40-38","","7125","","[""<span style=\""color: red; font-size: 24px\""> NOW RECORDING</span><p>Please say out loud all the images you saw in part 1 of the experiment, as many as you can remember. The images can be said in any order.</p>""]","","3","maintaining_a_car_semantic"
"","","","","","image-button-response","21","833452","0.0-19.0-0.0","23E67C9D42D94C8C9EFE0C5C4F68E25E","23E67C9D42D94C8C9EFE0C5C4F68E25E","bfa1035b-fc53-4993-8876-f61f55f8e01d","2dd913a0-fd4c-43f1-b4f3-f0d48537bce8","{""part"":""2"",""participantId"":""23E67C9D42D94C8C9EFE0C5C4F68E25E"",""assignmentId"":""bfa1035b-fc53-4993-8876-f61f55f8e01d"",""projectId"":""2dd913a0-fd4c-43f1-b4f3-f0d48537bce8""}","https://test12345.live/?part=2&participantId=23E67C9D42D94C8C9EFE0C5C4F68E25E&assignmentId=bfa1035b-fc53-4993-8876-f61f55f8e01d&projectId=2dd913a0-fd4c-43f1-b4f3-f0d48537bce8","23E67C9D42D94C8C9EFE0C5C4F68E25E-2025-05-15-20-40-38","","null","","images/schematic_sequence/restaurant_scheme/restaurant_scheme_0.png","null","",""
"","","","","","html-audio-response","22","914159","0.0-20.0","23E67C9D42D94C8C9EFE0C5C4F68E25E","23E67C9D42D94C8C9EFE0C5C4F68E25E","bfa1035b-fc53-4993-8876-f61f55f8e01d","2dd913a0-fd4c-43f1-b4f3-f0d48537bce8","{""part"":""2"",""participantId"":""23E67C9D42D94C8C9EFE0C5C4F68E25E"",""assignmentId"":""bfa1035b-fc53-4993-8876-f61f55f8e01d"",""projectId"":""2dd913a0-fd4c-43f1-b4f3-f0d48537bce8""}","https://test12345.live/?part=2&participantId=23E67C9D42D94C8C9EFE0C5C4F68E25E&assignmentId=bfa1035b-fc53-4993-8876-f61f55f8e01d&projectId=2dd913a0-fd4c-43f1-b4f3-f0d48537bce8","23E67C9D42D94C8C9EFE0C5C4F68E25E-2025-05-15-20-40-38","","10313","","[""<span style=\""color: red; font-size: 24px\""> NOW RECORDING</span><p>Please say out loud all the images you saw in part 1 of the experiment, as many as you can remember. The images can be said in any order.</p>""]","","2","restaurant_scheme"
"","","","","","image-button-response","23","920163","0.0-21.0-0.0","23E67C9D42D94C8C9EFE0C5C4F68E25E","23E67C9D42D94C8C9EFE0C5C4F68E25E","bfa1035b-fc53-4993-8876-f61f55f8e01d","2dd913a0-fd4c-43f1-b4f3-f0d48537bce8","{""part"":""2"",""participantId"":""23E67C9D42D94C8C9EFE0C5C4F68E25E"",""assignmentId"":""bfa1035b-fc53-4993-8876-f61f55f8e01d"",""projectId"":""2dd913a0-fd4c-43f1-b4f3-f0d48537bce8""}","https://test12345.live/?part=2&participantId=23E67C9D42D94C8C9EFE0C5C4F68E25E&assignmentId=bfa1035b-fc53-4993-8876-f61f55f8e01d&projectId=2dd913a0-fd4c-43f1-b4f3-f0d48537bce8","23E67C9D42D94C8C9EFE0C5C4F68E25E-2025-05-15-20-40-38","","null","","images/schematic_sequence/interview_scheme/interview_scheme_0.png","null","",""
"","","","","","html-audio-response","24","954025","0.0-22.0","23E67C9D42D94C8C9EFE0C5C4F68E25E","23E67C9D42D94C8C9EFE0C5C4F68E25E","bfa1035b-fc53-4993-8876-f61f55f8e01d","2dd913a0-fd4c-43f1-b4f3-f0d48537bce8","{""part"":""2"",""participantId"":""23E67C9D42D94C8C9EFE0C5C4F68E25E"",""assignmentId"":""bfa1035b-fc53-4993-8876-f61f55f8e01d"",""projectId"":""2dd913a0-fd4c-43f1-b4f3-f0d48537bce8""}","https://test12345.live/?part=2&participantId=23E67C9D42D94C8C9EFE0C5C4F68E25E&assignmentId=bfa1035b-fc53-4993-8876-f61f55f8e01d&projectId=2dd913a0-fd4c-43f1-b4f3-f0d48537bce8","23E67C9D42D94C8C9EFE0C5C4F68E25E-2025-05-15-20-40-38","","8444","","[""<span style=\""color: red; font-size: 24px\""> NOW RECORDING</span><p>Please say out loud all the images you saw in part 1 of the experiment, as many as you can remember. The images can be said in any order.</p>""]","","2","interview_scheme"
"","","","","","image-button-response","25","960028","0.0-23.0-0.0","23E67C9D42D94C8C9EFE0C5C4F68E25E","23E67C9D42D94C8C9EFE0C5C4F68E25E","bfa1035b-fc53-4993-8876-f61f55f8e01d","2dd913a0-fd4c-43f1-b4f3-f0d48537bce8","{""part"":""2"",""participantId"":""23E67C9D42D94C8C9EFE0C5C4F68E25E"",""assignmentId"":""bfa1035b-fc53-4993-8876-f61f55f8e01d"",""projectId"":""2dd913a0-fd4c-43f1-b4f3-f0d48537bce8""}","https://test12345.live/?part=2&participantId=23E67C9D42D94C8C9EFE0C5C4F68E25E&assignmentId=bfa1035b-fc53-4993-8876-f61f55f8e01d&projectId=2dd913a0-fd4c-43f1-b4f3-f0d48537bce8","23E67C9D42D94C8C9EFE0C5C4F68E25E-2025-05-15-20-40-38","","null","","images/causal_sequence/dog_causal/dog_causal_0.png","null","",""
"","","","","","html-audio-response","26","1025182","0.0-24.0","23E67C9D42D94C8C9EFE0C5C4F68E25E","23E67C9D42D94C8C9EFE0C5C4F68E25E","bfa1035b-fc53-4993-8876-f61f55f8e01d","2dd913a0-fd4c-43f1-b4f3-f0d48537bce8","{""part"":""2"",""participantId"":""23E67C9D42D94C8C9EFE0C5C4F68E25E"",""assignmentId"":""bfa1035b-fc53-4993-8876-f61f55f8e01d"",""projectId"":""2dd913a0-fd4c-43f1-b4f3-f0d48537bce8""}","https://test12345.live/?part=2&participantId=23E67C9D42D94C8C9EFE0C5C4F68E25E&assignmentId=bfa1035b-fc53-4993-8876-f61f55f8e01d&projectId=2dd913a0-fd4c-43f1-b4f3-f0d48537bce8","23E67C9D42D94C8C9EFE0C5C4F68E25E-2025-05-15-20-40-38","","16710","","[""<span style=\""color: red; font-size: 24px\""> NOW RECORDING</span><p>Please say out loud all the images you saw in part 1 of the experiment, as many as you can remember. The images can be said in any order.</p>""]","","2","dog_causal"
"","","","","","image-button-response","27","1031187","0.0-25.0-0.0","23E67C9D42D94C8C9EFE0C5C4F68E25E","23E67C9D42D94C8C9EFE0C5C4F68E25E","bfa1035b-fc53-4993-8876-f61f55f8e01d","2dd913a0-fd4c-43f1-b4f3-f0d48537bce8","{""part"":""2"",""participantId"":""23E67C9D42D94C8C9EFE0C5C4F68E25E"",""assignmentId"":""bfa1035b-fc53-4993-8876-f61f55f8e01d"",""projectId"":""2dd913a0-fd4c-43f1-b4f3-f0d48537bce8""}","https://test12345.live/?part=2&participantId=23E67C9D42D94C8C9EFE0C5C4F68E25E&assignmentId=bfa1035b-fc53-4993-8876-f61f55f8e01d&projectId=2dd913a0-fd4c-43f1-b4f3-f0d48537bce8","23E67C9D42D94C8C9EFE0C5C4F68E25E-2025-05-15-20-40-38","","null","","images/semantic_sequence/redecorating_semantic/redecorating_semantic_0.png","null","",""
"","","","","","html-audio-response","28","1089314","0.0-26.0","23E67C9D42D94C8C9EFE0C5C4F68E25E","23E67C9D42D94C8C9EFE0C5C4F68E25E","bfa1035b-fc53-4993-8876-f61f55f8e01d","2dd913a0-fd4c-43f1-b4f3-f0d48537bce8","{""part"":""2"",""participantId"":""23E67C9D42D94C8C9EFE0C5C4F68E25E"",""assignmentId"":""bfa1035b-fc53-4993-8876-f61f55f8e01d"",""projectId"":""2dd913a0-fd4c-43f1-b4f3-f0d48537bce8""}","https://test12345.live/?part=2&participantId=23E67C9D42D94C8C9EFE0C5C4F68E25E&assignmentId=bfa1035b-fc53-4993-8876-f61f55f8e01d&projectId=2dd913a0-fd4c-43f1-b4f3-f0d48537bce8","23E67C9D42D94C8C9EFE0C5C4F68E25E-2025-05-15-20-40-38","","5590","","[""<span style=\""color: red; font-size: 24px\""> NOW RECORDING</span><p>Please say out loud all the images you saw in part 1 of the experiment, as many as you can remember. The images can be said in any order.</p>""]","","2","redecorating_semantic"
"","","","","","image-button-response","29","1095320","0.0-27.0-0.0","23E67C9D42D94C8C9EFE0C5C4F68E25E","23E67C9D42D94C8C9EFE0C5C4F68E25E","bfa1035b-fc53-4993-8876-f61f55f8e01d","2dd913a0-fd4c-43f1-b4f3-f0d48537bce8","{""part"":""2"",""participantId"":""23E67C9D42D94C8C9EFE0C5C4F68E25E"",""assignmentId"":""bfa1035b-fc53-4993-8876-f61f55f8e01d"",""projectId"":""2dd913a0-fd4c-43f1-b4f3-f0d48537bce8""}","https://test12345.live/?part=2&participantId=23E67C9D42D94C8C9EFE0C5C4F68E25E&assignmentId=bfa1035b-fc53-4993-8876-f61f55f8e01d&projectId=2dd913a0-fd4c-43f1-b4f3-f0d48537bce8","23E67C9D42D94C8C9EFE0C5C4F68E25E-2025-05-15-20-40-38","","null","","images/causal_sequence/coin_causal/coin_causal_0.png","null","",""
"","","","","","html-audio-response","30","1135648","0.0-28.0","23E67C9D42D94C8C9EFE0C5C4F68E25E","23E67C9D42D94C8C9EFE0C5C4F68E25E","bfa1035b-fc53-4993-8876-f61f55f8e01d","2dd913a0-fd4c-43f1-b4f3-f0d48537bce8","{""part"":""2"",""participantId"":""23E67C9D42D94C8C9EFE0C5C4F68E25E"",""assignmentId"":""bfa1035b-fc53-4993-8876-f61f55f8e01d"",""projectId"":""2dd913a0-fd4c-43f1-b4f3-f0d48537bce8""}","https://test12345.live/?part=2&participantId=23E67C9D42D94C8C9EFE0C5C4F68E25E&assignmentId=bfa1035b-fc53-4993-8876-f61f55f8e01d&projectId=2dd913a0-fd4c-43f1-b4f3-f0d48537bce8","23E67C9D42D94C8C9EFE0C5C4F68E25E-2025-05-15-20-40-38","","8584","","[""<span style=\""color: red; font-size: 24px\""> NOW RECORDING</span><p>Please say out loud all the images you saw in part 1 of the experiment, as many as you can remember. The images can be said in any order.</p>""]","","1","coin_causal"
"","","","","","image-button-response","31","1141652","0.0-29.0-0.0","23E67C9D42D94C8C9EFE0C5C4F68E25E","23E67C9D42D94C8C9EFE0C5C4F68E25E","bfa1035b-fc53-4993-8876-f61f55f8e01d","2dd913a0-fd4c-43f1-b4f3-f0d48537bce8","{""part"":""2"",""participantId"":""23E67C9D42D94C8C9EFE0C5C4F68E25E"",""assignmentId"":""bfa1035b-fc53-4993-8876-f61f55f8e01d"",""projectId"":""2dd913a0-fd4c-43f1-b4f3-f0d48537bce8""}","https://test12345.live/?part=2&participantId=23E67C9D42D94C8C9EFE0C5C4F68E25E&assignmentId=bfa1035b-fc53-4993-8876-f61f55f8e01d&projectId=2dd913a0-fd4c-43f1-b4f3-f0d48537bce8","23E67C9D42D94C8C9EFE0C5C4F68E25E-2025-05-15-20-40-38","","null","","images/semantic_sequence/exploring_nature_semantic/exploring_nature_semantic_0.png","null","",""
"","","","","","html-audio-response","32","1167614","0.0-30.0","23E67C9D42D94C8C9EFE0C5C4F68E25E","23E67C9D42D94C8C9EFE0C5C4F68E25E","bfa1035b-fc53-4993-8876-f61f55f8e01d","2dd913a0-fd4c-43f1-b4f3-f0d48537bce8","{""part"":""2"",""participantId"":""23E67C9D42D94C8C9EFE0C5C4F68E25E"",""assignmentId"":""bfa1035b-fc53-4993-8876-f61f55f8e01d"",""projectId"":""2dd913a0-fd4c-43f1-b4f3-f0d48537bce8""}","https://test12345.live/?part=2&participantId=23E67C9D42D94C8C9EFE0C5C4F68E25E&assignmentId=bfa1035b-fc53-4993-8876-f61f55f8e01d&projectId=2dd913a0-fd4c-43f1-b4f3-f0d48537bce8","23E67C9D42D94C8C9EFE0C5C4F68E25E-2025-05-15-20-40-38","","7216","","[""<span style=\""color: red; font-size: 24px\""> NOW RECORDING</span><p>Please say out loud all the images you saw in part 1 of the experiment, as many as you can remember. The images can be said in any order.</p>""]","","1","exploring_nature_semantic"
"","","","","","image-button-response","33","1173620","0.0-31.0-0.0","23E67C9D42D94C8C9EFE0C5C4F68E25E","23E67C9D42D94C8C9EFE0C5C4F68E25E","bfa1035b-fc53-4993-8876-f61f55f8e01d","2dd913a0-fd4c-43f1-b4f3-f0d48537bce8","{""part"":""2"",""participantId"":""23E67C9D42D94C8C9EFE0C5C4F68E25E"",""assignmentId"":""bfa1035b-fc53-4993-8876-f61f55f8e01d"",""projectId"":""2dd913a0-fd4c-43f1-b4f3-f0d48537bce8""}","https://test12345.live/?part=2&participantId=23E67C9D42D94C8C9EFE0C5C4F68E25E&assignmentId=bfa1035b-fc53-4993-8876-f61f55f8e01d&projectId=2dd913a0-fd4c-43f1-b4f3-f0d48537bce8","23E67C9D42D94C8C9EFE0C5C4F68E25E-2025-05-15-20-40-38","","null","","images/semantic_sequence/market_semantic/market_semantic_0.png","null","",""
"","","","","","html-audio-response","34","1206144","0.0-32.0","23E67C9D42D94C8C9EFE0C5C4F68E25E","23E67C9D42D94C8C9EFE0C5C4F68E25E","bfa1035b-fc53-4993-8876-f61f55f8e01d","2dd913a0-fd4c-43f1-b4f3-f0d48537bce8","{""part"":""2"",""participantId"":""23E67C9D42D94C8C9EFE0C5C4F68E25E"",""assignmentId"":""bfa1035b-fc53-4993-8876-f61f55f8e01d"",""projectId"":""2dd913a0-fd4c-43f1-b4f3-f0d48537bce8""}","https://test12345.live/?part=2&participantId=23E67C9D42D94C8C9EFE0C5C4F68E25E&assignmentId=bfa1035b-fc53-4993-8876-f61f55f8e01d&projectId=2dd913a0-fd4c-43f1-b4f3-f0d48537bce8","23E67C9D42D94C8C9EFE0C5C4F68E25E-2025-05-15-20-40-38","","8667","","[""<span style=\""color: red; font-size: 24px\""> NOW RECORDING</span><p>Please say out loud all the images you saw in part 1 of the experiment, as many as you can remember. The images can be said in any order.</p>""]","","1","market_semantic"
"","","","","","image-button-response","35","1212147","0.0-33.0-0.0","23E67C9D42D94C8C9EFE0C5C4F68E25E","23E67C9D42D94C8C9EFE0C5C4F68E25E","bfa1035b-fc53-4993-8876-f61f55f8e01d","2dd913a0-fd4c-43f1-b4f3-f0d48537bce8","{""part"":""2"",""participantId"":""23E67C9D42D94C8C9EFE0C5C4F68E25E"",""assignmentId"":""bfa1035b-fc53-4993-8876-f61f55f8e01d"",""projectId"":""2dd913a0-fd4c-43f1-b4f3-f0d48537bce8""}","https://test12345.live/?part=2&participantId=23E67C9D42D94C8C9EFE0C5C4F68E25E&assignmentId=bfa1035b-fc53-4993-8876-f61f55f8e01d&projectId=2dd913a0-fd4c-43f1-b4f3-f0d48537bce8","23E67C9D42D94C8C9EFE0C5C4F68E25E-2025-05-15-20-40-38","","null","","images/semantic_sequence/cat_care_semantic/cat_care_semantic_0.png","null","",""
"","","","","","html-audio-response","36","1232346","0.0-34.0","23E67C9D42D94C8C9EFE0C5C4F68E25E","23E67C9D42D94C8C9EFE0C5C4F68E25E","bfa1035b-fc53-4993-8876-f61f55f8e01d","2dd913a0-fd4c-43f1-b4f3-f0d48537bce8","{""part"":""2"",""participantId"":""23E67C9D42D94C8C9EFE0C5C4F68E25E"",""assignmentId"":""bfa1035b-fc53-4993-8876-f61f55f8e01d"",""projectId"":""2dd913a0-fd4c-43f1-b4f3-f0d48537bce8""}","https://test12345.live/?part=2&participantId=23E67C9D42D94C8C9EFE0C5C4F68E25E&assignmentId=bfa1035b-fc53-4993-8876-f61f55f8e01d&projectId=2dd913a0-fd4c-43f1-b4f3-f0d48537bce8","23E67C9D42D94C8C9EFE0C5C4F68E25E-2025-05-15-20-40-38","","9496","","[""<span style=\""color: red; font-size: 24px\""> NOW RECORDING</span><p>Please say out loud all the images you saw in part 1 of the experiment, as many as you can remember. The images can be said in any order.</p>""]","","14","cat_care_semantic"
"","","","","","image-button-response","37","1238350","0.0-35.0-0.0","23E67C9D42D94C8C9EFE0C5C4F68E25E","23E67C9D42D94C8C9EFE0C5C4F68E25E","bfa1035b-fc53-4993-8876-f61f55f8e01d","2dd913a0-fd4c-43f1-b4f3-f0d48537bce8","{""part"":""2"",""participantId"":""23E67C9D42D94C8C9EFE0C5C4F68E25E"",""assignmentId"":""bfa1035b-fc53-4993-8876-f61f55f8e01d"",""projectId"":""2dd913a0-fd4c-43f1-b4f3-f0d48537bce8""}","https://test12345.live/?part=2&participantId=23E67C9D42D94C8C9EFE0C5C4F68E25E&assignmentId=bfa1035b-fc53-4993-8876-f61f55f8e01d&projectId=2dd913a0-fd4c-43f1-b4f3-f0d48537bce8","23E67C9D42D94C8C9EFE0C5C4F68E25E-2025-05-15-20-40-38","","null","","images/schematic_sequence/flight_scheme/flight_scheme_0.png","null","",""
"","","","","","html-audio-response","38","1259700","0.0-36.0","23E67C9D42D94C8C9EFE0C5C4F68E25E","23E67C9D42D94C8C9EFE0C5C4F68E25E","bfa1035b-fc53-4993-8876-f61f55f8e01d","2dd913a0-fd4c-43f1-b4f3-f0d48537bce8","{""part"":""2"",""participantId"":""23E67C9D42D94C8C9EFE0C5C4F68E25E"",""assignmentId"":""bfa1035b-fc53-4993-8876-f61f55f8e01d"",""projectId"":""2dd913a0-fd4c-43f1-b4f3-f0d48537bce8""}","https://test12345.live/?part=2&participantId=23E67C9D42D94C8C9EFE0C5C4F68E25E&assignmentId=bfa1035b-fc53-4993-8876-f61f55f8e01d&projectId=2dd913a0-fd4c-43f1-b4f3-f0d48537bce8","23E67C9D42D94C8C9EFE0C5C4F68E25E-2025-05-15-20-40-38","","4732","","[""<span style=\""color: red; font-size: 24px\""> NOW RECORDING</span><p>Please say out loud all the images you saw in part 1 of the experiment, as many as you can remember. The images can be said in any order.</p>""]","","2","flight_scheme"
"","","","","","image-button-response","39","1265702","0.0-37.0-0.0","23E67C9D42D94C8C9EFE0C5C4F68E25E","23E67C9D42D94C8C9EFE0C5C4F68E25E","bfa1035b-fc53-4993-8876-f61f55f8e01d","2dd913a0-fd4c-43f1-b4f3-f0d48537bce8","{""part"":""2"",""participantId"":""23E67C9D42D94C8C9EFE0C5C4F68E25E"",""assignmentId"":""bfa1035b-fc53-4993-8876-f61f55f8e01d"",""projectId"":""2dd913a0-fd4c-43f1-b4f3-f0d48537bce8""}","https://test12345.live/?part=2&participantId=23E67C9D42D94C8C9EFE0C5C4F68E25E&assignmentId=bfa1035b-fc53-4993-8876-f61f55f8e01d&projectId=2dd913a0-fd4c-43f1-b4f3-f0d48537bce8","23E67C9D42D94C8C9EFE0C5C4F68E25E-2025-05-15-20-40-38","","null","","images/causal_sequence/the_performance_causal/the_performance_causal_0.png","null","",""
"","","","","","html-audio-response","40","1284326","0.0-38.0","23E67C9D42D94C8C9EFE0C5C4F68E25E","23E67C9D42D94C8C9EFE0C5C4F68E25E","bfa1035b-fc53-4993-8876-f61f55f8e01d","2dd913a0-fd4c-43f1-b4f3-f0d48537bce8","{""part"":""2"",""participantId"":""23E67C9D42D94C8C9EFE0C5C4F68E25E"",""assignmentId"":""bfa1035b-fc53-4993-8876-f61f55f8e01d"",""projectId"":""2dd913a0-fd4c-43f1-b4f3-f0d48537bce8""}","https://test12345.live/?part=2&participantId=23E67C9D42D94C8C9EFE0C5C4F68E25E&assignmentId=bfa1035b-fc53-4993-8876-f61f55f8e01d&projectId=2dd913a0-fd4c-43f1-b4f3-f0d48537bce8","23E67C9D42D94C8C9EFE0C5C4F68E25E-2025-05-15-20-40-38","","4933","","[""<span style=\""color: red; font-size: 24px\""> NOW RECORDING</span><p>Please say out loud all the images you saw in part 1 of the experiment, as many as you can remember. The images can be said in any order.</p>""]","","5","the_performance_causal"
"","","","","","image-button-response","41","1290331","0.0-39.0-0.0","23E67C9D42D94C8C9EFE0C5C4F68E25E","23E67C9D42D94C8C9EFE0C5C4F68E25E","bfa1035b-fc53-4993-8876-f61f55f8e01d","2dd913a0-fd4c-43f1-b4f3-f0d48537bce8","{""part"":""2"",""participantId"":""23E67C9D42D94C8C9EFE0C5C4F68E25E"",""assignmentId"":""bfa1035b-fc53-4993-8876-f61f55f8e01d"",""projectId"":""2dd913a0-fd4c-43f1-b4f3-f0d48537bce8""}","https://test12345.live/?part=2&participantId=23E67C9D42D94C8C9EFE0C5C4F68E25E&assignmentId=bfa1035b-fc53-4993-8876-f61f55f8e01d&projectId=2dd913a0-fd4c-43f1-b4f3-f0d48537bce8","23E67C9D42D94C8C9EFE0C5C4F68E25E-2025-05-15-20-40-38","","null","","images/causal_sequence/saving_a_cat_causal/saving_a_cat_causal_0.png","null","",""
"","","","","","html-audio-response","42","1353072","0.0-40.0","23E67C9D42D94C8C9EFE0C5C4F68E25E","23E67C9D42D94C8C9EFE0C5C4F68E25E","bfa1035b-fc53-4993-8876-f61f55f8e01d","2dd913a0-fd4c-43f1-b4f3-f0d48537bce8","{""part"":""2"",""participantId"":""23E67C9D42D94C8C9EFE0C5C4F68E25E"",""assignmentId"":""bfa1035b-fc53-4993-8876-f61f55f8e01d"",""projectId"":""2dd913a0-fd4c-43f1-b4f3-f0d48537bce8""}","https://test12345.live/?part=2&participantId=23E67C9D42D94C8C9EFE0C5C4F68E25E&assignmentId=bfa1035b-fc53-4993-8876-f61f55f8e01d&projectId=2dd913a0-fd4c-43f1-b4f3-f0d48537bce8","23E67C9D42D94C8C9EFE0C5C4F68E25E-2025-05-15-20-40-38","","15524","","[""<span style=\""color: red; font-size: 24px\""> NOW RECORDING</span><p>Please say out loud all the images you saw in part 1 of the experiment, as many as you can remember. The images can be said in any order.</p>""]","","2","saving_a_cat_causal"
"","","","","","image-button-response","43","1359078","0.0-41.0-0.0","23E67C9D42D94C8C9EFE0C5C4F68E25E","23E67C9D42D94C8C9EFE0C5C4F68E25E","bfa1035b-fc53-4993-8876-f61f55f8e01d","2dd913a0-fd4c-43f1-b4f3-f0d48537bce8","{""part"":""2"",""participantId"":""23E67C9D42D94C8C9EFE0C5C4F68E25E"",""assignmentId"":""bfa1035b-fc53-4993-8876-f61f55f8e01d"",""projectId"":""2dd913a0-fd4c-43f1-b4f3-f0d48537bce8""}","https://test12345.live/?part=2&participantId=23E67C9D42D94C8C9EFE0C5C4F68E25E&assignmentId=bfa1035b-fc53-4993-8876-f61f55f8e01d&projectId=2dd913a0-fd4c-43f1-b4f3-f0d48537bce8","23E67C9D42D94C8C9EFE0C5C4F68E25E-2025-05-15-20-40-38","","null","","images/semantic_sequence/self_care_activities_semantic/self_care_activities_semantic_0.png","null","",""
"","","","","","html-audio-response","44","1375101","0.0-42.0","23E67C9D42D94C8C9EFE0C5C4F68E25E","23E67C9D42D94C8C9EFE0C5C4F68E25E","bfa1035b-fc53-4993-8876-f61f55f8e01d","2dd913a0-fd4c-43f1-b4f3-f0d48537bce8","{""part"":""2"",""participantId"":""23E67C9D42D94C8C9EFE0C5C4F68E25E"",""assignmentId"":""bfa1035b-fc53-4993-8876-f61f55f8e01d"",""projectId"":""2dd913a0-fd4c-43f1-b4f3-f0d48537bce8""}","https://test12345.live/?part=2&participantId=23E67C9D42D94C8C9EFE0C5C4F68E25E&assignmentId=bfa1035b-fc53-4993-8876-f61f55f8e01d&projectId=2dd913a0-fd4c-43f1-b4f3-f0d48537bce8","23E67C9D42D94C8C9EFE0C5C4F68E25E-2025-05-15-20-40-38","","7465","","[""<span style=\""color: red; font-size: 24px\""> NOW RECORDING</span><p>Please say out loud all the images you saw in part 1 of the experiment, as many as you can remember. The images can be said in any order.</p>""]","","7","self_care_activities_semantic"
"","","","","","image-button-response","45","1381103","0.0-43.0-0.0","23E67C9D42D94C8C9EFE0C5C4F68E25E","23E67C9D42D94C8C9EFE0C5C4F68E25E","bfa1035b-fc53-4993-8876-f61f55f8e01d","2dd913a0-fd4c-43f1-b4f3-f0d48537bce8","{""part"":""2"",""participantId"":""23E67C9D42D94C8C9EFE0C5C4F68E25E"",""assignmentId"":""bfa1035b-fc53-4993-8876-f61f55f8e01d"",""projectId"":""2dd913a0-fd4c-43f1-b4f3-f0d48537bce8""}","https://test12345.live/?part=2&participantId=23E67C9D42D94C8C9EFE0C5C4F68E25E&assignmentId=bfa1035b-fc53-4993-8876-f61f55f8e01d&projectId=2dd913a0-fd4c-43f1-b4f3-f0d48537bce8","23E67C9D42D94C8C9EFE0C5C4F68E25E-2025-05-15-20-40-38","","null","","images/semantic_sequence/housework_semantic/housework_semantic_0.png","null","",""
"","","","","","html-audio-response","46","1391762","0.0-44.0","23E67C9D42D94C8C9EFE0C5C4F68E25E","23E67C9D42D94C8C9EFE0C5C4F68E25E","bfa1035b-fc53-4993-8876-f61f55f8e01d","2dd913a0-fd4c-43f1-b4f3-f0d48537bce8","{""part"":""2"",""participantId"":""23E67C9D42D94C8C9EFE0C5C4F68E25E"",""assignmentId"":""bfa1035b-fc53-4993-8876-f61f55f8e01d"",""projectId"":""2dd913a0-fd4c-43f1-b4f3-f0d48537bce8""}","https://test12345.live/?part=2&participantId=23E67C9D42D94C8C9EFE0C5C4F68E25E&assignmentId=bfa1035b-fc53-4993-8876-f61f55f8e01d&projectId=2dd913a0-fd4c-43f1-b4f3-f0d48537bce8","23E67C9D42D94C8C9EFE0C5C4F68E25E-2025-05-15-20-40-38","","4918","","[""<span style=\""color: red; font-size: 24px\""> NOW RECORDING</span><p>Please say out loud all the images you saw in part 1 of the experiment, as many as you can remember. The images can be said in any order.</p>""]","","12","housework_semantic"
"","","","","","image-button-response","47","1397765","0.0-45.0-0.0","23E67C9D42D94C8C9EFE0C5C4F68E25E","23E67C9D42D94C8C9EFE0C5C4F68E25E","bfa1035b-fc53-4993-8876-f61f55f8e01d","2dd913a0-fd4c-43f1-b4f3-f0d48537bce8","{""part"":""2"",""participantId"":""23E67C9D42D94C8C9EFE0C5C4F68E25E"",""assignmentId"":""bfa1035b-fc53-4993-8876-f61f55f8e01d"",""projectId"":""2dd913a0-fd4c-43f1-b4f3-f0d48537bce8""}","https://test12345.live/?part=2&participantId=23E67C9D42D94C8C9EFE0C5C4F68E25E&assignmentId=bfa1035b-fc53-4993-8876-f61f55f8e01d&projectId=2dd913a0-fd4c-43f1-b4f3-f0d48537bce8","23E67C9D42D94C8C9EFE0C5C4F68E25E-2025-05-15-20-40-38","","null","","images/semantic_sequence/using_technology_semantic/using_technology_semantic_0.png","null","",""
"","","","","","html-audio-response","48","1418088","0.0-46.0","23E67C9D42D94C8C9EFE0C5C4F68E25E","23E67C9D42D94C8C9EFE0C5C4F68E25E","bfa1035b-fc53-4993-8876-f61f55f8e01d","2dd913a0-fd4c-43f1-b4f3-f0d48537bce8","{""part"":""2"",""participantId"":""23E67C9D42D94C8C9EFE0C5C4F68E25E"",""assignmentId"":""bfa1035b-fc53-4993-8876-f61f55f8e01d"",""projectId"":""2dd913a0-fd4c-43f1-b4f3-f0d48537bce8""}","https://test12345.live/?part=2&participantId=23E67C9D42D94C8C9EFE0C5C4F68E25E&assignmentId=bfa1035b-fc53-4993-8876-f61f55f8e01d&projectId=2dd913a0-fd4c-43f1-b4f3-f0d48537bce8","23E67C9D42D94C8C9EFE0C5C4F68E25E-2025-05-15-20-40-38","","9421","","[""<span style=\""color: red; font-size: 24px\""> NOW RECORDING</span><p>Please say out loud all the images you saw in part 1 of the experiment, as many as you can remember. The images can be said in any order.</p>""]","","15","using_technology_semantic"
"","","","","","image-button-response","49","1424095","0.0-47.0-0.0","23E67C9D42D94C8C9EFE0C5C4F68E25E","23E67C9D42D94C8C9EFE0C5C4F68E25E","bfa1035b-fc53-4993-8876-f61f55f8e01d","2dd913a0-fd4c-43f1-b4f3-f0d48537bce8","{""part"":""2"",""participantId"":""23E67C9D42D94C8C9EFE0C5C4F68E25E"",""assignmentId"":""bfa1035b-fc53-4993-8876-f61f55f8e01d"",""projectId"":""2dd913a0-fd4c-43f1-b4f3-f0d48537bce8""}","https://test12345.live/?part=2&participantId=23E67C9D42D94C8C9EFE0C5C4F68E25E&assignmentId=bfa1035b-fc53-4993-8876-f61f55f8e01d&projectId=2dd913a0-fd4c-43f1-b4f3-f0d48537bce8","23E67C9D42D94C8C9EFE0C5C4F68E25E-2025-05-15-20-40-38","","null","","images/causal_sequence/museum_causal/museum_causal_0.png","null","",""
"","","","","","html-audio-response","50","1437687","0.0-48.0","23E67C9D42D94C8C9EFE0C5C4F68E25E","23E67C9D42D94C8C9EFE0C5C4F68E25E","bfa1035b-fc53-4993-8876-f61f55f8e01d","2dd913a0-fd4c-43f1-b4f3-f0d48537bce8","{""part"":""2"",""participantId"":""23E67C9D42D94C8C9EFE0C5C4F68E25E"",""assignmentId"":""bfa1035b-fc53-4993-8876-f61f55f8e01d"",""projectId"":""2dd913a0-fd4c-43f1-b4f3-f0d48537bce8""}","https://test12345.live/?part=2&participantId=23E67C9D42D94C8C9EFE0C5C4F68E25E&assignmentId=bfa1035b-fc53-4993-8876-f61f55f8e01d&projectId=2dd913a0-fd4c-43f1-b4f3-f0d48537bce8","23E67C9D42D94C8C9EFE0C5C4F68E25E-2025-05-15-20-40-38","","6167","","[""<span style=\""color: red; font-size: 24px\""> NOW RECORDING</span><p>Please say out loud all the images you saw in part 1 of the experiment, as many as you can remember. The images can be said in any order.</p>""]","","9","museum_causal"
"","","","","","image-button-response","51","1443691","0.0-49.0-0.0","23E67C9D42D94C8C9EFE0C5C4F68E25E","23E67C9D42D94C8C9EFE0C5C4F68E25E","bfa1035b-fc53-4993-8876-f61f55f8e01d","2dd913a0-fd4c-43f1-b4f3-f0d48537bce8","{""part"":""2"",""participantId"":""23E67C9D42D94C8C9EFE0C5C4F68E25E"",""assignmentId"":""bfa1035b-fc53-4993-8876-f61f55f8e01d"",""projectId"":""2dd913a0-fd4c-43f1-b4f3-f0d48537bce8""}","https://test12345.live/?part=2&participantId=23E67C9D42D94C8C9EFE0C5C4F68E25E&assignmentId=bfa1035b-fc53-4993-8876-f61f55f8e01d&projectId=2dd913a0-fd4c-43f1-b4f3-f0d48537bce8","23E67C9D42D94C8C9EFE0C5C4F68E25E-2025-05-15-20-40-38","","null","","images/schematic_sequence/supermarket_scheme/supermarket_scheme_0.png","null","",""
"","","","","","html-audio-response","52","1448087","0.0-50.0","23E67C9D42D94C8C9EFE0C5C4F68E25E","23E67C9D42D94C8C9EFE0C5C4F68E25E","bfa1035b-fc53-4993-8876-f61f55f8e01d","2dd913a0-fd4c-43f1-b4f3-f0d48537bce8","{""part"":""2"",""participantId"":""23E67C9D42D94C8C9EFE0C5C4F68E25E"",""assignmentId"":""bfa1035b-fc53-4993-8876-f61f55f8e01d"",""projectId"":""2dd913a0-fd4c-43f1-b4f3-f0d48537bce8""}","https://test12345.live/?part=2&participantId=23E67C9D42D94C8C9EFE0C5C4F68E25E&assignmentId=bfa1035b-fc53-4993-8876-f61f55f8e01d&projectId=2dd913a0-fd4c-43f1-b4f3-f0d48537bce8","23E67C9D42D94C8C9EFE0C5C4F68E25E-2025-05-15-20-40-38","","1294","","[""<span style=\""color: red; font-size: 24px\""> NOW RECORDING</span><p>Please say out loud all the images you saw in part 1 of the experiment, as many as you can remember. The images can be said in any order.</p>""]","","17","supermarket_scheme"
"","","","","","image-button-response","53","1454090","0.0-51.0-0.0","23E67C9D42D94C8C9EFE0C5C4F68E25E","23E67C9D42D94C8C9EFE0C5C4F68E25E","bfa1035b-fc53-4993-8876-f61f55f8e01d","2dd913a0-fd4c-43f1-b4f3-f0d48537bce8","{""part"":""2"",""participantId"":""23E67C9D42D94C8C9EFE0C5C4F68E25E"",""assignmentId"":""bfa1035b-fc53-4993-8876-f61f55f8e01d"",""projectId"":""2dd913a0-fd4c-43f1-b4f3-f0d48537bce8""}","https://test12345.live/?part=2&participantId=23E67C9D42D94C8C9EFE0C5C4F68E25E&assignmentId=bfa1035b-fc53-4993-8876-f61f55f8e01d&projectId=2dd913a0-fd4c-43f1-b4f3-f0d48537bce8","23E67C9D42D94C8C9EFE0C5C4F68E25E-2025-05-15-20-40-38","","null","","images/schematic_sequence/dinner_party_scheme/dinner_party_scheme_0.png","null","",""
"","","","","","html-audio-response","54","1477586","0.0-52.0","23E67C9D42D94C8C9EFE0C5C4F68E25E","23E67C9D42D94C8C9EFE0C5C4F68E25E","bfa1035b-fc53-4993-8876-f61f55f8e01d","2dd913a0-fd4c-43f1-b4f3-f0d48537bce8","{""part"":""2"",""participantId"":""23E67C9D42D94C8C9EFE0C5C4F68E25E"",""assignmentId"":""bfa1035b-fc53-4993-8876-f61f55f8e01d"",""projectId"":""2dd913a0-fd4c-43f1-b4f3-f0d48537bce8""}","https://test12345.live/?part=2&participantId=23E67C9D42D94C8C9EFE0C5C4F68E25E&assignmentId=bfa1035b-fc53-4993-8876-f61f55f8e01d&projectId=2dd913a0-fd4c-43f1-b4f3-f0d48537bce8","23E67C9D42D94C8C9EFE0C5C4F68E25E-2025-05-15-20-40-38","","4535","","[""<span style=\""color: red; font-size: 24px\""> NOW RECORDING</span><p>Please say out loud all the images you saw in part 1 of the experiment, as many as you can remember. The images can be said in any order.</p>""]","","3","dinner_party_scheme"
"","","","","","image-button-response","55","1483594","0.0-53.0-0.0","23E67C9D42D94C8C9EFE0C5C4F68E25E","23E67C9D42D94C8C9EFE0C5C4F68E25E","bfa1035b-fc53-4993-8876-f61f55f8e01d","2dd913a0-fd4c-43f1-b4f3-f0d48537bce8","{""part"":""2"",""participantId"":""23E67C9D42D94C8C9EFE0C5C4F68E25E"",""assignmentId"":""bfa1035b-fc53-4993-8876-f61f55f8e01d"",""projectId"":""2dd913a0-fd4c-43f1-b4f3-f0d48537bce8""}","https://test12345.live/?part=2&participantId=23E67C9D42D94C8C9EFE0C5C4F68E25E&assignmentId=bfa1035b-fc53-4993-8876-f61f55f8e01d&projectId=2dd913a0-fd4c-43f1-b4f3-f0d48537bce8","23E67C9D42D94C8C9EFE0C5C4F68E25E-2025-05-15-20-40-38","","null","","images/schematic_sequence/hotel_scheme/hotel_scheme_0.png","null","",""
"","","","","","html-audio-response","56","1499750","0.0-54.0","23E67C9D42D94C8C9EFE0C5C4F68E25E","23E67C9D42D94C8C9EFE0C5C4F68E25E","bfa1035b-fc53-4993-8876-f61f55f8e01d","2dd913a0-fd4c-43f1-b4f3-f0d48537bce8","{""part"":""2"",""participantId"":""23E67C9D42D94C8C9EFE0C5C4F68E25E"",""assignmentId"":""bfa1035b-fc53-4993-8876-f61f55f8e01d"",""projectId"":""2dd913a0-fd4c-43f1-b4f3-f0d48537bce8""}","https://test12345.live/?part=2&participantId=23E67C9D42D94C8C9EFE0C5C4F68E25E&assignmentId=bfa1035b-fc53-4993-8876-f61f55f8e01d&projectId=2dd913a0-fd4c-43f1-b4f3-f0d48537bce8","23E67C9D42D94C8C9EFE0C5C4F68E25E-2025-05-15-20-40-38","","8283","","[""<span style=\""color: red; font-size: 24px\""> NOW RECORDING</span><p>Please say out loud all the images you saw in part 1 of the experiment, as many as you can remember. The images can be said in any order.</p>""]","","2","hotel_scheme"
"","","","","","image-button-response","57","1505759","0.0-55.0-0.0","23E67C9D42D94C8C9EFE0C5C4F68E25E","23E67C9D42D94C8C9EFE0C5C4F68E25E","bfa1035b-fc53-4993-8876-f61f55f8e01d","2dd913a0-fd4c-43f1-b4f3-f0d48537bce8","{""part"":""2"",""participantId"":""23E67C9D42D94C8C9EFE0C5C4F68E25E"",""assignmentId"":""bfa1035b-fc53-4993-8876-f61f55f8e01d"",""projectId"":""2dd913a0-fd4c-43f1-b4f3-f0d48537bce8""}","https://test12345.live/?part=2&participantId=23E67C9D42D94C8C9EFE0C5C4F68E25E&assignmentId=bfa1035b-fc53-4993-8876-f61f55f8e01d&projectId=2dd913a0-fd4c-43f1-b4f3-f0d48537bce8","23E67C9D42D94C8C9EFE0C5C4F68E25E-2025-05-15-20-40-38","","null","","images/semantic_sequence/creative_activities_semantic/creative_activities_semantic_0.png","null","",""
"","","","","","html-audio-response","58","1530160","0.0-56.0","23E67C9D42D94C8C9EFE0C5C4F68E25E","23E67C9D42D94C8C9EFE0C5C4F68E25E","bfa1035b-fc53-4993-8876-f61f55f8e01d","2dd913a0-fd4c-43f1-b4f3-f0d48537bce8","{""part"":""2"",""participantId"":""23E67C9D42D94C8C9EFE0C5C4F68E25E"",""assignmentId"":""bfa1035b-fc53-4993-8876-f61f55f8e01d"",""projectId"":""2dd913a0-fd4c-43f1-b4f3-f0d48537bce8""}","https://test12345.live/?part=2&participantId=23E67C9D42D94C8C9EFE0C5C4F68E25E&assignmentId=bfa1035b-fc53-4993-8876-f61f55f8e01d&projectId=2dd913a0-fd4c-43f1-b4f3-f0d48537bce8","23E67C9D42D94C8C9EFE0C5C4F68E25E-2025-05-15-20-40-38","","8807","","[""<span style=\""color: red; font-size: 24px\""> NOW RECORDING</span><p>Please say out loud all the images you saw in part 1 of the experiment, as many as you can remember. The images can be said in any order.</p>""]","","3","creative_activities_semantic"
"","","","","","survey-text","59","1541488","0.0-57.0","23E67C9D42D94C8C9EFE0C5C4F68E25E","23E67C9D42D94C8C9EFE0C5C4F68E25E","bfa1035b-fc53-4993-8876-f61f55f8e01d","2dd913a0-fd4c-43f1-b4f3-f0d48537bce8","{""part"":""2"",""participantId"":""23E67C9D42D94C8C9EFE0C5C4F68E25E"",""assignmentId"":""bfa1035b-fc53-4993-8876-f61f55f8e01d"",""projectId"":""2dd913a0-fd4c-43f1-b4f3-f0d48537bce8""}","https://test12345.live/?part=2&participantId=23E67C9D42D94C8C9EFE0C5C4F68E25E&assignmentId=bfa1035b-fc53-4993-8876-f61f55f8e01d&projectId=2dd913a0-fd4c-43f1-b4f3-f0d48537bce8","23E67C9D42D94C8C9EFE0C5C4F68E25E-2025-05-15-20-40-38","","11316","","","{""Q0"":""male"",""Q1"":""18""}","",""
"","","","","","instructions","60","1547028","0.0-58.0","23E67C9D42D94C8C9EFE0C5C4F68E25E","23E67C9D42D94C8C9EFE0C5C4F68E25E","bfa1035b-fc53-4993-8876-f61f55f8e01d","2dd913a0-fd4c-43f1-b4f3-f0d48537bce8","{""part"":""2"",""participantId"":""23E67C9D42D94C8C9EFE0C5C4F68E25E"",""assignmentId"":""bfa1035b-fc53-4993-8876-f61f55f8e01d"",""projectId"":""2dd913a0-fd4c-43f1-b4f3-f0d48537bce8""}","https://test12345.live/?part=2&participantId=23E67C9D42D94C8C9EFE0C5C4F68E25E&assignmentId=bfa1035b-fc53-4993-8876-f61f55f8e01d&projectId=2dd913a0-fd4c-43f1-b4f3-f0d48537bce8","23E67C9D42D94C8C9EFE0C5C4F68E25E-2025-05-15-20-40-38","[{""page_index"":0,""viewing_time"":5539}]","5539","","","","",""
"","","","","","survey-text","61","1549620","0.0-59.0","23E67C9D42D94C8C9EFE0C5C4F68E25E","23E67C9D42D94C8C9EFE0C5C4F68E25E","bfa1035b-fc53-4993-8876-f61f55f8e01d","2dd913a0-fd4c-43f1-b4f3-f0d48537bce8","{""part"":""2"",""participantId"":""23E67C9D42D94C8C9EFE0C5C4F68E25E"",""assignmentId"":""bfa1035b-fc53-4993-8876-f61f55f8e01d"",""projectId"":""2dd913a0-fd4c-43f1-b4f3-f0d48537bce8""}","https://test12345.live/?part=2&participantId=23E67C9D42D94C8C9EFE0C5C4F68E25E&assignmentId=bfa1035b-fc53-4993-8876-f61f55f8e01d&projectId=2dd913a0-fd4c-43f1-b4f3-f0d48537bce8","23E67C9D42D94C8C9EFE0C5C4F68E25E-2025-05-15-20-40-38","","2587","","","{""Q0"":""AJFHBG896""}","",""
