"success","timeout","failed_images","failed_audio","failed_video","trial_type","trial_index","time_elapsed","internal_node_id","subject","subject_id","study_id","session_id","urlvar","current_url","audio_id","view_history","rt","device_id","stimulus","response","estimated_stimulus_onset","seq_name"
"true","false","[]","[]","[]","preload","0","430","0.0-0.0","25932BD4FF4B44E9A0CDA99DEDBB233D","25932BD4FF4B44E9A0CDA99DEDBB233D","868269f7-4bc1-45d4-b9cc-2d594a095cba","920300cb-ef92-407e-8025-8071213f24fb","{""part"":""2"",""participantId"":""25932BD4FF4B44E9A0CDA99DEDBB233D"",""assignmentId"":""868269f7-4bc1-45d4-b9cc-2d594a095cba"",""projectId"":""920300cb-ef92-407e-8025-8071213f24fb""}","https://test12345.live/?part=2&participantId=25932BD4FF4B44E9A0CDA99DEDBB233D&assignmentId=868269f7-4bc1-45d4-b9cc-2d594a095cba&projectId=920300cb-ef92-407e-8025-8071213f24fb","25932BD4FF4B44E9A0CDA99DEDBB233D-2025-05-23-18-44-48","","","","","","",""
"","","","","","instructions","1","24668","0.0-1.0","25932BD4FF4B44E9A0CDA99DEDBB233D","25932BD4FF4B44E9A0CDA99DEDBB233D","868269f7-4bc1-45d4-b9cc-2d594a095cba","920300cb-ef92-407e-8025-8071213f24fb","{""part"":""2"",""participantId"":""25932BD4FF4B44E9A0CDA99DEDBB233D"",""assignmentId"":""868269f7-4bc1-45d4-b9cc-2d594a095cba"",""projectId"":""920300cb-ef92-407e-8025-8071213f24fb""}","https://test12345.live/?part=2&participantId=25932BD4FF4B44E9A0CDA99DEDBB233D&assignmentId=868269f7-4bc1-45d4-b9cc-2d594a095cba&projectId=920300cb-ef92-407e-8025-8071213f24fb","25932BD4FF4B44E9A0CDA99DEDBB233D-2025-05-23-18-44-48","[{""page_index"":0,""viewing_time"":24237}]","24237","","","","",""
"","","","","","instructions","2","39338","0.0-2.0","25932BD4FF4B44E9A0CDA99DEDBB233D","25932BD4FF4B44E9A0CDA99DEDBB233D","868269f7-4bc1-45d4-b9cc-2d594a095cba","920300cb-ef92-407e-8025-8071213f24fb","{""part"":""2"",""participantId"":""25932BD4FF4B44E9A0CDA99DEDBB233D"",""assignmentId"":""868269f7-4bc1-45d4-b9cc-2d594a095cba"",""projectId"":""920300cb-ef92-407e-8025-8071213f24fb""}","https://test12345.live/?part=2&participantId=25932BD4FF4B44E9A0CDA99DEDBB233D&assignmentId=868269f7-4bc1-45d4-b9cc-2d594a095cba&projectId=920300cb-ef92-407e-8025-8071213f24fb","25932BD4FF4B44E9A0CDA99DEDBB233D-2025-05-23-18-44-48","[{""page_index"":0,""viewing_time"":14669}]","14670","","","","",""
"true","","","","","fullscreen","3","44627","0.0-3.0","25932BD4FF4B44E9A0CDA99DEDBB233D","25932BD4FF4B44E9A0CDA99DEDBB233D","868269f7-4bc1-45d4-b9cc-2d594a095cba","920300cb-ef92-407e-8025-8071213f24fb","{""part"":""2"",""participantId"":""25932BD4FF4B44E9A0CDA99DEDBB233D"",""assignmentId"":""868269f7-4bc1-45d4-b9cc-2d594a095cba"",""projectId"":""920300cb-ef92-407e-8025-8071213f24fb""}","https://test12345.live/?part=2&participantId=25932BD4FF4B44E9A0CDA99DEDBB233D&assignmentId=868269f7-4bc1-45d4-b9cc-2d594a095cba&projectId=920300cb-ef92-407e-8025-8071213f24fb","25932BD4FF4B44E9A0CDA99DEDBB233D-2025-05-23-18-44-48","","4283","","","","",""
"","","","","","initialize-microphone","4","48342","0.0-4.0-0.0","25932BD4FF4B44E9A0CDA99DEDBB233D","25932BD4FF4B44E9A0CDA99DEDBB233D","868269f7-4bc1-45d4-b9cc-2d594a095cba","920300cb-ef92-407e-8025-8071213f24fb","{""part"":""2"",""participantId"":""25932BD4FF4B44E9A0CDA99DEDBB233D"",""assignmentId"":""868269f7-4bc1-45d4-b9cc-2d594a095cba"",""projectId"":""920300cb-ef92-407e-8025-8071213f24fb""}","https://test12345.live/?part=2&participantId=25932BD4FF4B44E9A0CDA99DEDBB233D&assignmentId=868269f7-4bc1-45d4-b9cc-2d594a095cba&projectId=920300cb-ef92-407e-8025-8071213f24fb","25932BD4FF4B44E9A0CDA99DEDBB233D-2025-05-23-18-44-48","","","c8a7f3aaae944779c036a0265289831148bdafd47e109e943b11f48ca02272fa","","","",""
"","","","","","html-audio-response","5","54312","0.0-4.0-1.0","25932BD4FF4B44E9A0CDA99DEDBB233D","25932BD4FF4B44E9A0CDA99DEDBB233D","868269f7-4bc1-45d4-b9cc-2d594a095cba","920300cb-ef92-407e-8025-8071213f24fb","{""part"":""2"",""participantId"":""25932BD4FF4B44E9A0CDA99DEDBB233D"",""assignmentId"":""868269f7-4bc1-45d4-b9cc-2d594a095cba"",""projectId"":""920300cb-ef92-407e-8025-8071213f24fb""}","https://test12345.live/?part=2&participantId=25932BD4FF4B44E9A0CDA99DEDBB233D&assignmentId=868269f7-4bc1-45d4-b9cc-2d594a095cba&projectId=920300cb-ef92-407e-8025-8071213f24fb","25932BD4FF4B44E9A0CDA99DEDBB233D-2025-05-23-18-44-48","","1725","","<span style=""color: red; font-size: 24px""> NOW RECORDING</span>
        <p>Please test Microphone</p>","","2",""
"","","","","","html-button-response","6","55719","0.0-4.0-2.0","25932BD4FF4B44E9A0CDA99DEDBB233D","25932BD4FF4B44E9A0CDA99DEDBB233D","868269f7-4bc1-45d4-b9cc-2d594a095cba","920300cb-ef92-407e-8025-8071213f24fb","{""part"":""2"",""participantId"":""25932BD4FF4B44E9A0CDA99DEDBB233D"",""assignmentId"":""868269f7-4bc1-45d4-b9cc-2d594a095cba"",""projectId"":""920300cb-ef92-407e-8025-8071213f24fb""}","https://test12345.live/?part=2&participantId=25932BD4FF4B44E9A0CDA99DEDBB233D&assignmentId=868269f7-4bc1-45d4-b9cc-2d594a095cba&projectId=920300cb-ef92-407e-8025-8071213f24fb","25932BD4FF4B44E9A0CDA99DEDBB233D-2025-05-23-18-44-48","","1406","","<p style=""font-size:48px; color:red;"">Is Microphone OK?</p>","1","",""
"","","","","","instructions","7","67919","0.0-5.0","25932BD4FF4B44E9A0CDA99DEDBB233D","25932BD4FF4B44E9A0CDA99DEDBB233D","868269f7-4bc1-45d4-b9cc-2d594a095cba","920300cb-ef92-407e-8025-8071213f24fb","{""part"":""2"",""participantId"":""25932BD4FF4B44E9A0CDA99DEDBB233D"",""assignmentId"":""868269f7-4bc1-45d4-b9cc-2d594a095cba"",""projectId"":""920300cb-ef92-407e-8025-8071213f24fb""}","https://test12345.live/?part=2&participantId=25932BD4FF4B44E9A0CDA99DEDBB233D&assignmentId=868269f7-4bc1-45d4-b9cc-2d594a095cba&projectId=920300cb-ef92-407e-8025-8071213f24fb","25932BD4FF4B44E9A0CDA99DEDBB233D-2025-05-23-18-44-48","[{""page_index"":0,""viewing_time"":851},{""page_index"":1,""viewing_time"":4218},{""page_index"":2,""viewing_time"":7130}]","12199","","","","",""
"","","","","","image-button-response","8","73926","0.0-6.0-0.0","25932BD4FF4B44E9A0CDA99DEDBB233D","25932BD4FF4B44E9A0CDA99DEDBB233D","868269f7-4bc1-45d4-b9cc-2d594a095cba","920300cb-ef92-407e-8025-8071213f24fb","{""part"":""2"",""participantId"":""25932BD4FF4B44E9A0CDA99DEDBB233D"",""assignmentId"":""868269f7-4bc1-45d4-b9cc-2d594a095cba"",""projectId"":""920300cb-ef92-407e-8025-8071213f24fb""}","https://test12345.live/?part=2&participantId=25932BD4FF4B44E9A0CDA99DEDBB233D&assignmentId=868269f7-4bc1-45d4-b9cc-2d594a095cba&projectId=920300cb-ef92-407e-8025-8071213f24fb","25932BD4FF4B44E9A0CDA99DEDBB233D-2025-05-23-18-44-48","","null","","images/instructions/movie_0.png","null","",""
"","","","","","html-audio-response","9","96274","0.0-7.0","25932BD4FF4B44E9A0CDA99DEDBB233D","25932BD4FF4B44E9A0CDA99DEDBB233D","868269f7-4bc1-45d4-b9cc-2d594a095cba","920300cb-ef92-407e-8025-8071213f24fb","{""part"":""2"",""participantId"":""25932BD4FF4B44E9A0CDA99DEDBB233D"",""assignmentId"":""868269f7-4bc1-45d4-b9cc-2d594a095cba"",""projectId"":""920300cb-ef92-407e-8025-8071213f24fb""}","https://test12345.live/?part=2&participantId=25932BD4FF4B44E9A0CDA99DEDBB233D&assignmentId=868269f7-4bc1-45d4-b9cc-2d594a095cba&projectId=920300cb-ef92-407e-8025-8071213f24fb","25932BD4FF4B44E9A0CDA99DEDBB233D-2025-05-23-18-44-48","","21313","","[""<span style=\""color: red; font-size: 24px\""> NOW RECORDING</span><p>Please say out loud all the images you saw in part 1 of the experiment, in the exact order you saw them. Try to recall as many images as you can, but remember: getting the order right is more important than the number of images you recall.</p>""]","","1",""
"","","","","","instructions","10","97984","0.0-8.0","25932BD4FF4B44E9A0CDA99DEDBB233D","25932BD4FF4B44E9A0CDA99DEDBB233D","868269f7-4bc1-45d4-b9cc-2d594a095cba","920300cb-ef92-407e-8025-8071213f24fb","{""part"":""2"",""participantId"":""25932BD4FF4B44E9A0CDA99DEDBB233D"",""assignmentId"":""868269f7-4bc1-45d4-b9cc-2d594a095cba"",""projectId"":""920300cb-ef92-407e-8025-8071213f24fb""}","https://test12345.live/?part=2&participantId=25932BD4FF4B44E9A0CDA99DEDBB233D&assignmentId=868269f7-4bc1-45d4-b9cc-2d594a095cba&projectId=920300cb-ef92-407e-8025-8071213f24fb","25932BD4FF4B44E9A0CDA99DEDBB233D-2025-05-23-18-44-48","[{""page_index"":0,""viewing_time"":1707}]","1707","","","","",""
"","","","","","image-button-response","11","104000","0.0-9.0-0.0","25932BD4FF4B44E9A0CDA99DEDBB233D","25932BD4FF4B44E9A0CDA99DEDBB233D","868269f7-4bc1-45d4-b9cc-2d594a095cba","920300cb-ef92-407e-8025-8071213f24fb","{""part"":""2"",""participantId"":""25932BD4FF4B44E9A0CDA99DEDBB233D"",""assignmentId"":""868269f7-4bc1-45d4-b9cc-2d594a095cba"",""projectId"":""920300cb-ef92-407e-8025-8071213f24fb""}","https://test12345.live/?part=2&participantId=25932BD4FF4B44E9A0CDA99DEDBB233D&assignmentId=868269f7-4bc1-45d4-b9cc-2d594a095cba&projectId=920300cb-ef92-407e-8025-8071213f24fb","25932BD4FF4B44E9A0CDA99DEDBB233D-2025-05-23-18-44-48","","null","","images/semantic_sequence/creative_activities_semantic/creative_activities_semantic_0.png","null","",""
"","","","","","html-audio-response","12","126534","0.0-10.0","25932BD4FF4B44E9A0CDA99DEDBB233D","25932BD4FF4B44E9A0CDA99DEDBB233D","868269f7-4bc1-45d4-b9cc-2d594a095cba","920300cb-ef92-407e-8025-8071213f24fb","{""part"":""2"",""participantId"":""25932BD4FF4B44E9A0CDA99DEDBB233D"",""assignmentId"":""868269f7-4bc1-45d4-b9cc-2d594a095cba"",""projectId"":""920300cb-ef92-407e-8025-8071213f24fb""}","https://test12345.live/?part=2&participantId=25932BD4FF4B44E9A0CDA99DEDBB233D&assignmentId=868269f7-4bc1-45d4-b9cc-2d594a095cba&projectId=920300cb-ef92-407e-8025-8071213f24fb","25932BD4FF4B44E9A0CDA99DEDBB233D-2025-05-23-18-44-48","","21548","","[""<span style=\""color: red; font-size: 24px\""> NOW RECORDING</span><p>Please say out loud all the images you saw in part 1 of the experiment, in the exact order you saw them. Try to recall as many images as you can, but remember: getting the order right is more important than the number of images you recall. </p>""]","","1","creative_activities_semantic"
"","","","","","image-button-response","13","132551","0.0-11.0-0.0","25932BD4FF4B44E9A0CDA99DEDBB233D","25932BD4FF4B44E9A0CDA99DEDBB233D","868269f7-4bc1-45d4-b9cc-2d594a095cba","920300cb-ef92-407e-8025-8071213f24fb","{""part"":""2"",""participantId"":""25932BD4FF4B44E9A0CDA99DEDBB233D"",""assignmentId"":""868269f7-4bc1-45d4-b9cc-2d594a095cba"",""projectId"":""920300cb-ef92-407e-8025-8071213f24fb""}","https://test12345.live/?part=2&participantId=25932BD4FF4B44E9A0CDA99DEDBB233D&assignmentId=868269f7-4bc1-45d4-b9cc-2d594a095cba&projectId=920300cb-ef92-407e-8025-8071213f24fb","25932BD4FF4B44E9A0CDA99DEDBB233D-2025-05-23-18-44-48","","null","","images/semantic_sequence/market_semantic/market_semantic_0.png","null","",""
"","","","","","html-audio-response","14","157274","0.0-12.0","25932BD4FF4B44E9A0CDA99DEDBB233D","25932BD4FF4B44E9A0CDA99DEDBB233D","868269f7-4bc1-45d4-b9cc-2d594a095cba","920300cb-ef92-407e-8025-8071213f24fb","{""part"":""2"",""participantId"":""25932BD4FF4B44E9A0CDA99DEDBB233D"",""assignmentId"":""868269f7-4bc1-45d4-b9cc-2d594a095cba"",""projectId"":""920300cb-ef92-407e-8025-8071213f24fb""}","https://test12345.live/?part=2&participantId=25932BD4FF4B44E9A0CDA99DEDBB233D&assignmentId=868269f7-4bc1-45d4-b9cc-2d594a095cba&projectId=920300cb-ef92-407e-8025-8071213f24fb","25932BD4FF4B44E9A0CDA99DEDBB233D-2025-05-23-18-44-48","","23796","","[""<span style=\""color: red; font-size: 24px\""> NOW RECORDING</span><p>Please say out loud all the images you saw in part 1 of the experiment, in the exact order you saw them. Try to recall as many images as you can, but remember: getting the order right is more important than the number of images you recall. </p>""]","","1","market_semantic"
"","","","","","image-button-response","15","163282","0.0-13.0-0.0","25932BD4FF4B44E9A0CDA99DEDBB233D","25932BD4FF4B44E9A0CDA99DEDBB233D","868269f7-4bc1-45d4-b9cc-2d594a095cba","920300cb-ef92-407e-8025-8071213f24fb","{""part"":""2"",""participantId"":""25932BD4FF4B44E9A0CDA99DEDBB233D"",""assignmentId"":""868269f7-4bc1-45d4-b9cc-2d594a095cba"",""projectId"":""920300cb-ef92-407e-8025-8071213f24fb""}","https://test12345.live/?part=2&participantId=25932BD4FF4B44E9A0CDA99DEDBB233D&assignmentId=868269f7-4bc1-45d4-b9cc-2d594a095cba&projectId=920300cb-ef92-407e-8025-8071213f24fb","25932BD4FF4B44E9A0CDA99DEDBB233D-2025-05-23-18-44-48","","null","","images/semantic_sequence/exploring_nature_semantic/exploring_nature_semantic_0.png","null","",""
"","","","","","html-audio-response","16","186366","0.0-14.0","25932BD4FF4B44E9A0CDA99DEDBB233D","25932BD4FF4B44E9A0CDA99DEDBB233D","868269f7-4bc1-45d4-b9cc-2d594a095cba","920300cb-ef92-407e-8025-8071213f24fb","{""part"":""2"",""participantId"":""25932BD4FF4B44E9A0CDA99DEDBB233D"",""assignmentId"":""868269f7-4bc1-45d4-b9cc-2d594a095cba"",""projectId"":""920300cb-ef92-407e-8025-8071213f24fb""}","https://test12345.live/?part=2&participantId=25932BD4FF4B44E9A0CDA99DEDBB233D&assignmentId=868269f7-4bc1-45d4-b9cc-2d594a095cba&projectId=920300cb-ef92-407e-8025-8071213f24fb","25932BD4FF4B44E9A0CDA99DEDBB233D-2025-05-23-18-44-48","","17528","","[""<span style=\""color: red; font-size: 24px\""> NOW RECORDING</span><p>Please say out loud all the images you saw in part 1 of the experiment, in the exact order you saw them. Try to recall as many images as you can, but remember: getting the order right is more important than the number of images you recall. </p>""]","","1","exploring_nature_semantic"
"","","","","","image-button-response","17","192380","0.0-15.0-0.0","25932BD4FF4B44E9A0CDA99DEDBB233D","25932BD4FF4B44E9A0CDA99DEDBB233D","868269f7-4bc1-45d4-b9cc-2d594a095cba","920300cb-ef92-407e-8025-8071213f24fb","{""part"":""2"",""participantId"":""25932BD4FF4B44E9A0CDA99DEDBB233D"",""assignmentId"":""868269f7-4bc1-45d4-b9cc-2d594a095cba"",""projectId"":""920300cb-ef92-407e-8025-8071213f24fb""}","https://test12345.live/?part=2&participantId=25932BD4FF4B44E9A0CDA99DEDBB233D&assignmentId=868269f7-4bc1-45d4-b9cc-2d594a095cba&projectId=920300cb-ef92-407e-8025-8071213f24fb","25932BD4FF4B44E9A0CDA99DEDBB233D-2025-05-23-18-44-48","","null","","images/semantic_sequence/self_care_activities_semantic/self_care_activities_semantic_0.png","null","",""
"","","","","","html-audio-response","18","218614","0.0-16.0","25932BD4FF4B44E9A0CDA99DEDBB233D","25932BD4FF4B44E9A0CDA99DEDBB233D","868269f7-4bc1-45d4-b9cc-2d594a095cba","920300cb-ef92-407e-8025-8071213f24fb","{""part"":""2"",""participantId"":""25932BD4FF4B44E9A0CDA99DEDBB233D"",""assignmentId"":""868269f7-4bc1-45d4-b9cc-2d594a095cba"",""projectId"":""920300cb-ef92-407e-8025-8071213f24fb""}","https://test12345.live/?part=2&participantId=25932BD4FF4B44E9A0CDA99DEDBB233D&assignmentId=868269f7-4bc1-45d4-b9cc-2d594a095cba&projectId=920300cb-ef92-407e-8025-8071213f24fb","25932BD4FF4B44E9A0CDA99DEDBB233D-2025-05-23-18-44-48","","24574","","[""<span style=\""color: red; font-size: 24px\""> NOW RECORDING</span><p>Please say out loud all the images you saw in part 1 of the experiment, in the exact order you saw them. Try to recall as many images as you can, but remember: getting the order right is more important than the number of images you recall. </p>""]","","1","self_care_activities_semantic"
"","","","","","image-button-response","19","224633","0.0-17.0-0.0","25932BD4FF4B44E9A0CDA99DEDBB233D","25932BD4FF4B44E9A0CDA99DEDBB233D","868269f7-4bc1-45d4-b9cc-2d594a095cba","920300cb-ef92-407e-8025-8071213f24fb","{""part"":""2"",""participantId"":""25932BD4FF4B44E9A0CDA99DEDBB233D"",""assignmentId"":""868269f7-4bc1-45d4-b9cc-2d594a095cba"",""projectId"":""920300cb-ef92-407e-8025-8071213f24fb""}","https://test12345.live/?part=2&participantId=25932BD4FF4B44E9A0CDA99DEDBB233D&assignmentId=868269f7-4bc1-45d4-b9cc-2d594a095cba&projectId=920300cb-ef92-407e-8025-8071213f24fb","25932BD4FF4B44E9A0CDA99DEDBB233D-2025-05-23-18-44-48","","null","","images/semantic_sequence/visiting_cities_semantic/visiting_cities_semantic_0.png","null","",""
"","","","","","html-audio-response","20","248429","0.0-18.0","25932BD4FF4B44E9A0CDA99DEDBB233D","25932BD4FF4B44E9A0CDA99DEDBB233D","868269f7-4bc1-45d4-b9cc-2d594a095cba","920300cb-ef92-407e-8025-8071213f24fb","{""part"":""2"",""participantId"":""25932BD4FF4B44E9A0CDA99DEDBB233D"",""assignmentId"":""868269f7-4bc1-45d4-b9cc-2d594a095cba"",""projectId"":""920300cb-ef92-407e-8025-8071213f24fb""}","https://test12345.live/?part=2&participantId=25932BD4FF4B44E9A0CDA99DEDBB233D&assignmentId=868269f7-4bc1-45d4-b9cc-2d594a095cba&projectId=920300cb-ef92-407e-8025-8071213f24fb","25932BD4FF4B44E9A0CDA99DEDBB233D-2025-05-23-18-44-48","","22619","","[""<span style=\""color: red; font-size: 24px\""> NOW RECORDING</span><p>Please say out loud all the images you saw in part 1 of the experiment, in the exact order you saw them. Try to recall as many images as you can, but remember: getting the order right is more important than the number of images you recall. </p>""]","","1","visiting_cities_semantic"
"","","","","","image-button-response","21","254433","0.0-19.0-0.0","25932BD4FF4B44E9A0CDA99DEDBB233D","25932BD4FF4B44E9A0CDA99DEDBB233D","868269f7-4bc1-45d4-b9cc-2d594a095cba","920300cb-ef92-407e-8025-8071213f24fb","{""part"":""2"",""participantId"":""25932BD4FF4B44E9A0CDA99DEDBB233D"",""assignmentId"":""868269f7-4bc1-45d4-b9cc-2d594a095cba"",""projectId"":""920300cb-ef92-407e-8025-8071213f24fb""}","https://test12345.live/?part=2&participantId=25932BD4FF4B44E9A0CDA99DEDBB233D&assignmentId=868269f7-4bc1-45d4-b9cc-2d594a095cba&projectId=920300cb-ef92-407e-8025-8071213f24fb","25932BD4FF4B44E9A0CDA99DEDBB233D-2025-05-23-18-44-48","","null","","images/schematic_sequence/hotel_scheme/hotel_scheme_0.png","null","",""
"","","","","","html-audio-response","22","283969","0.0-20.0","25932BD4FF4B44E9A0CDA99DEDBB233D","25932BD4FF4B44E9A0CDA99DEDBB233D","868269f7-4bc1-45d4-b9cc-2d594a095cba","920300cb-ef92-407e-8025-8071213f24fb","{""part"":""2"",""participantId"":""25932BD4FF4B44E9A0CDA99DEDBB233D"",""assignmentId"":""868269f7-4bc1-45d4-b9cc-2d594a095cba"",""projectId"":""920300cb-ef92-407e-8025-8071213f24fb""}","https://test12345.live/?part=2&participantId=25932BD4FF4B44E9A0CDA99DEDBB233D&assignmentId=868269f7-4bc1-45d4-b9cc-2d594a095cba&projectId=920300cb-ef92-407e-8025-8071213f24fb","25932BD4FF4B44E9A0CDA99DEDBB233D-2025-05-23-18-44-48","","28702","","[""<span style=\""color: red; font-size: 24px\""> NOW RECORDING</span><p>Please say out loud all the images you saw in part 1 of the experiment, in the exact order you saw them. Try to recall as many images as you can, but remember: getting the order right is more important than the number of images you recall. </p>""]","","1","hotel_scheme"
"","","","","","image-button-response","23","289976","0.0-21.0-0.0","25932BD4FF4B44E9A0CDA99DEDBB233D","25932BD4FF4B44E9A0CDA99DEDBB233D","868269f7-4bc1-45d4-b9cc-2d594a095cba","920300cb-ef92-407e-8025-8071213f24fb","{""part"":""2"",""participantId"":""25932BD4FF4B44E9A0CDA99DEDBB233D"",""assignmentId"":""868269f7-4bc1-45d4-b9cc-2d594a095cba"",""projectId"":""920300cb-ef92-407e-8025-8071213f24fb""}","https://test12345.live/?part=2&participantId=25932BD4FF4B44E9A0CDA99DEDBB233D&assignmentId=868269f7-4bc1-45d4-b9cc-2d594a095cba&projectId=920300cb-ef92-407e-8025-8071213f24fb","25932BD4FF4B44E9A0CDA99DEDBB233D-2025-05-23-18-44-48","","null","","images/semantic_sequence/redecorating_semantic/redecorating_semantic_0.png","null","",""
"","","","","","html-audio-response","24","309917","0.0-22.0","25932BD4FF4B44E9A0CDA99DEDBB233D","25932BD4FF4B44E9A0CDA99DEDBB233D","868269f7-4bc1-45d4-b9cc-2d594a095cba","920300cb-ef92-407e-8025-8071213f24fb","{""part"":""2"",""participantId"":""25932BD4FF4B44E9A0CDA99DEDBB233D"",""assignmentId"":""868269f7-4bc1-45d4-b9cc-2d594a095cba"",""projectId"":""920300cb-ef92-407e-8025-8071213f24fb""}","https://test12345.live/?part=2&participantId=25932BD4FF4B44E9A0CDA99DEDBB233D&assignmentId=868269f7-4bc1-45d4-b9cc-2d594a095cba&projectId=920300cb-ef92-407e-8025-8071213f24fb","25932BD4FF4B44E9A0CDA99DEDBB233D-2025-05-23-18-44-48","","19236","","[""<span style=\""color: red; font-size: 24px\""> NOW RECORDING</span><p>Please say out loud all the images you saw in part 1 of the experiment, in the exact order you saw them. Try to recall as many images as you can, but remember: getting the order right is more important than the number of images you recall. </p>""]","","1","redecorating_semantic"
"","","","","","image-button-response","25","315931","0.0-23.0-0.0","25932BD4FF4B44E9A0CDA99DEDBB233D","25932BD4FF4B44E9A0CDA99DEDBB233D","868269f7-4bc1-45d4-b9cc-2d594a095cba","920300cb-ef92-407e-8025-8071213f24fb","{""part"":""2"",""participantId"":""25932BD4FF4B44E9A0CDA99DEDBB233D"",""assignmentId"":""868269f7-4bc1-45d4-b9cc-2d594a095cba"",""projectId"":""920300cb-ef92-407e-8025-8071213f24fb""}","https://test12345.live/?part=2&participantId=25932BD4FF4B44E9A0CDA99DEDBB233D&assignmentId=868269f7-4bc1-45d4-b9cc-2d594a095cba&projectId=920300cb-ef92-407e-8025-8071213f24fb","25932BD4FF4B44E9A0CDA99DEDBB233D-2025-05-23-18-44-48","","null","","images/causal_sequence/saving_a_cat_causal/saving_a_cat_causal_0.png","null","",""
"","","","","","html-audio-response","26","345272","0.0-24.0","25932BD4FF4B44E9A0CDA99DEDBB233D","25932BD4FF4B44E9A0CDA99DEDBB233D","868269f7-4bc1-45d4-b9cc-2d594a095cba","920300cb-ef92-407e-8025-8071213f24fb","{""part"":""2"",""participantId"":""25932BD4FF4B44E9A0CDA99DEDBB233D"",""assignmentId"":""868269f7-4bc1-45d4-b9cc-2d594a095cba"",""projectId"":""920300cb-ef92-407e-8025-8071213f24fb""}","https://test12345.live/?part=2&participantId=25932BD4FF4B44E9A0CDA99DEDBB233D&assignmentId=868269f7-4bc1-45d4-b9cc-2d594a095cba&projectId=920300cb-ef92-407e-8025-8071213f24fb","25932BD4FF4B44E9A0CDA99DEDBB233D-2025-05-23-18-44-48","","28871","","[""<span style=\""color: red; font-size: 24px\""> NOW RECORDING</span><p>Please say out loud all the images you saw in part 1 of the experiment, in the exact order you saw them. Try to recall as many images as you can, but remember: getting the order right is more important than the number of images you recall. </p>""]","","1","saving_a_cat_causal"
"","","","","","image-button-response","27","351285","0.0-25.0-0.0","25932BD4FF4B44E9A0CDA99DEDBB233D","25932BD4FF4B44E9A0CDA99DEDBB233D","868269f7-4bc1-45d4-b9cc-2d594a095cba","920300cb-ef92-407e-8025-8071213f24fb","{""part"":""2"",""participantId"":""25932BD4FF4B44E9A0CDA99DEDBB233D"",""assignmentId"":""868269f7-4bc1-45d4-b9cc-2d594a095cba"",""projectId"":""920300cb-ef92-407e-8025-8071213f24fb""}","https://test12345.live/?part=2&participantId=25932BD4FF4B44E9A0CDA99DEDBB233D&assignmentId=868269f7-4bc1-45d4-b9cc-2d594a095cba&projectId=920300cb-ef92-407e-8025-8071213f24fb","25932BD4FF4B44E9A0CDA99DEDBB233D-2025-05-23-18-44-48","","null","","images/semantic_sequence/housework_semantic/housework_semantic_0.png","null","",""
"","","","","","html-audio-response","28","367602","0.0-26.0","25932BD4FF4B44E9A0CDA99DEDBB233D","25932BD4FF4B44E9A0CDA99DEDBB233D","868269f7-4bc1-45d4-b9cc-2d594a095cba","920300cb-ef92-407e-8025-8071213f24fb","{""part"":""2"",""participantId"":""25932BD4FF4B44E9A0CDA99DEDBB233D"",""assignmentId"":""868269f7-4bc1-45d4-b9cc-2d594a095cba"",""projectId"":""920300cb-ef92-407e-8025-8071213f24fb""}","https://test12345.live/?part=2&participantId=25932BD4FF4B44E9A0CDA99DEDBB233D&assignmentId=868269f7-4bc1-45d4-b9cc-2d594a095cba&projectId=920300cb-ef92-407e-8025-8071213f24fb","25932BD4FF4B44E9A0CDA99DEDBB233D-2025-05-23-18-44-48","","15201","","[""<span style=\""color: red; font-size: 24px\""> NOW RECORDING</span><p>Please say out loud all the images you saw in part 1 of the experiment, in the exact order you saw them. Try to recall as many images as you can, but remember: getting the order right is more important than the number of images you recall. </p>""]","","4","housework_semantic"
"","","","","","image-button-response","29","373618","0.0-27.0-0.0","25932BD4FF4B44E9A0CDA99DEDBB233D","25932BD4FF4B44E9A0CDA99DEDBB233D","868269f7-4bc1-45d4-b9cc-2d594a095cba","920300cb-ef92-407e-8025-8071213f24fb","{""part"":""2"",""participantId"":""25932BD4FF4B44E9A0CDA99DEDBB233D"",""assignmentId"":""868269f7-4bc1-45d4-b9cc-2d594a095cba"",""projectId"":""920300cb-ef92-407e-8025-8071213f24fb""}","https://test12345.live/?part=2&participantId=25932BD4FF4B44E9A0CDA99DEDBB233D&assignmentId=868269f7-4bc1-45d4-b9cc-2d594a095cba&projectId=920300cb-ef92-407e-8025-8071213f24fb","25932BD4FF4B44E9A0CDA99DEDBB233D-2025-05-23-18-44-48","","null","","images/semantic_sequence/maintaining_a_car_semantic/maintaining_a_car_semantic_0.png","null","",""
"","","","","","html-audio-response","30","397025","0.0-28.0","25932BD4FF4B44E9A0CDA99DEDBB233D","25932BD4FF4B44E9A0CDA99DEDBB233D","868269f7-4bc1-45d4-b9cc-2d594a095cba","920300cb-ef92-407e-8025-8071213f24fb","{""part"":""2"",""participantId"":""25932BD4FF4B44E9A0CDA99DEDBB233D"",""assignmentId"":""868269f7-4bc1-45d4-b9cc-2d594a095cba"",""projectId"":""920300cb-ef92-407e-8025-8071213f24fb""}","https://test12345.live/?part=2&participantId=25932BD4FF4B44E9A0CDA99DEDBB233D&assignmentId=868269f7-4bc1-45d4-b9cc-2d594a095cba&projectId=920300cb-ef92-407e-8025-8071213f24fb","25932BD4FF4B44E9A0CDA99DEDBB233D-2025-05-23-18-44-48","","22749","","[""<span style=\""color: red; font-size: 24px\""> NOW RECORDING</span><p>Please say out loud all the images you saw in part 1 of the experiment, in the exact order you saw them. Try to recall as many images as you can, but remember: getting the order right is more important than the number of images you recall. </p>""]","","1","maintaining_a_car_semantic"
"","","","","","image-button-response","31","403036","0.0-29.0-0.0","25932BD4FF4B44E9A0CDA99DEDBB233D","25932BD4FF4B44E9A0CDA99DEDBB233D","868269f7-4bc1-45d4-b9cc-2d594a095cba","920300cb-ef92-407e-8025-8071213f24fb","{""part"":""2"",""participantId"":""25932BD4FF4B44E9A0CDA99DEDBB233D"",""assignmentId"":""868269f7-4bc1-45d4-b9cc-2d594a095cba"",""projectId"":""920300cb-ef92-407e-8025-8071213f24fb""}","https://test12345.live/?part=2&participantId=25932BD4FF4B44E9A0CDA99DEDBB233D&assignmentId=868269f7-4bc1-45d4-b9cc-2d594a095cba&projectId=920300cb-ef92-407e-8025-8071213f24fb","25932BD4FF4B44E9A0CDA99DEDBB233D-2025-05-23-18-44-48","","null","","images/causal_sequence/dog_causal/dog_causal_0.png","null","",""
"","","","","","html-audio-response","32","429203","0.0-30.0","25932BD4FF4B44E9A0CDA99DEDBB233D","25932BD4FF4B44E9A0CDA99DEDBB233D","868269f7-4bc1-45d4-b9cc-2d594a095cba","920300cb-ef92-407e-8025-8071213f24fb","{""part"":""2"",""participantId"":""25932BD4FF4B44E9A0CDA99DEDBB233D"",""assignmentId"":""868269f7-4bc1-45d4-b9cc-2d594a095cba"",""projectId"":""920300cb-ef92-407e-8025-8071213f24fb""}","https://test12345.live/?part=2&participantId=25932BD4FF4B44E9A0CDA99DEDBB233D&assignmentId=868269f7-4bc1-45d4-b9cc-2d594a095cba&projectId=920300cb-ef92-407e-8025-8071213f24fb","25932BD4FF4B44E9A0CDA99DEDBB233D-2025-05-23-18-44-48","","25560","","[""<span style=\""color: red; font-size: 24px\""> NOW RECORDING</span><p>Please say out loud all the images you saw in part 1 of the experiment, in the exact order you saw them. Try to recall as many images as you can, but remember: getting the order right is more important than the number of images you recall. </p>""]","","1","dog_causal"
"","","","","","image-button-response","33","435215","0.0-31.0-0.0","25932BD4FF4B44E9A0CDA99DEDBB233D","25932BD4FF4B44E9A0CDA99DEDBB233D","868269f7-4bc1-45d4-b9cc-2d594a095cba","920300cb-ef92-407e-8025-8071213f24fb","{""part"":""2"",""participantId"":""25932BD4FF4B44E9A0CDA99DEDBB233D"",""assignmentId"":""868269f7-4bc1-45d4-b9cc-2d594a095cba"",""projectId"":""920300cb-ef92-407e-8025-8071213f24fb""}","https://test12345.live/?part=2&participantId=25932BD4FF4B44E9A0CDA99DEDBB233D&assignmentId=868269f7-4bc1-45d4-b9cc-2d594a095cba&projectId=920300cb-ef92-407e-8025-8071213f24fb","25932BD4FF4B44E9A0CDA99DEDBB233D-2025-05-23-18-44-48","","null","","images/semantic_sequence/physical_activity_semantic/physical_activity_semantic_0.png","null","",""
"","","","","","html-audio-response","34","449520","0.0-32.0","25932BD4FF4B44E9A0CDA99DEDBB233D","25932BD4FF4B44E9A0CDA99DEDBB233D","868269f7-4bc1-45d4-b9cc-2d594a095cba","920300cb-ef92-407e-8025-8071213f24fb","{""part"":""2"",""participantId"":""25932BD4FF4B44E9A0CDA99DEDBB233D"",""assignmentId"":""868269f7-4bc1-45d4-b9cc-2d594a095cba"",""projectId"":""920300cb-ef92-407e-8025-8071213f24fb""}","https://test12345.live/?part=2&participantId=25932BD4FF4B44E9A0CDA99DEDBB233D&assignmentId=868269f7-4bc1-45d4-b9cc-2d594a095cba&projectId=920300cb-ef92-407e-8025-8071213f24fb","25932BD4FF4B44E9A0CDA99DEDBB233D-2025-05-23-18-44-48","","12868","","[""<span style=\""color: red; font-size: 24px\""> NOW RECORDING</span><p>Please say out loud all the images you saw in part 1 of the experiment, in the exact order you saw them. Try to recall as many images as you can, but remember: getting the order right is more important than the number of images you recall. </p>""]","","1","physical_activity_semantic"
"","","","","","image-button-response","35","455535","0.0-33.0-0.0","25932BD4FF4B44E9A0CDA99DEDBB233D","25932BD4FF4B44E9A0CDA99DEDBB233D","868269f7-4bc1-45d4-b9cc-2d594a095cba","920300cb-ef92-407e-8025-8071213f24fb","{""part"":""2"",""participantId"":""25932BD4FF4B44E9A0CDA99DEDBB233D"",""assignmentId"":""868269f7-4bc1-45d4-b9cc-2d594a095cba"",""projectId"":""920300cb-ef92-407e-8025-8071213f24fb""}","https://test12345.live/?part=2&participantId=25932BD4FF4B44E9A0CDA99DEDBB233D&assignmentId=868269f7-4bc1-45d4-b9cc-2d594a095cba&projectId=920300cb-ef92-407e-8025-8071213f24fb","25932BD4FF4B44E9A0CDA99DEDBB233D-2025-05-23-18-44-48","","null","","images/semantic_sequence/kitchen_operations_semantic/kitchen_operations_semantic_0.png","null","",""
"","","","","","html-audio-response","36","479946","0.0-34.0","25932BD4FF4B44E9A0CDA99DEDBB233D","25932BD4FF4B44E9A0CDA99DEDBB233D","868269f7-4bc1-45d4-b9cc-2d594a095cba","920300cb-ef92-407e-8025-8071213f24fb","{""part"":""2"",""participantId"":""25932BD4FF4B44E9A0CDA99DEDBB233D"",""assignmentId"":""868269f7-4bc1-45d4-b9cc-2d594a095cba"",""projectId"":""920300cb-ef92-407e-8025-8071213f24fb""}","https://test12345.live/?part=2&participantId=25932BD4FF4B44E9A0CDA99DEDBB233D&assignmentId=868269f7-4bc1-45d4-b9cc-2d594a095cba&projectId=920300cb-ef92-407e-8025-8071213f24fb","25932BD4FF4B44E9A0CDA99DEDBB233D-2025-05-23-18-44-48","","21954","","[""<span style=\""color: red; font-size: 24px\""> NOW RECORDING</span><p>Please say out loud all the images you saw in part 1 of the experiment, in the exact order you saw them. Try to recall as many images as you can, but remember: getting the order right is more important than the number of images you recall. </p>""]","","1","kitchen_operations_semantic"
"","","","","","image-button-response","37","485959","0.0-35.0-0.0","25932BD4FF4B44E9A0CDA99DEDBB233D","25932BD4FF4B44E9A0CDA99DEDBB233D","868269f7-4bc1-45d4-b9cc-2d594a095cba","920300cb-ef92-407e-8025-8071213f24fb","{""part"":""2"",""participantId"":""25932BD4FF4B44E9A0CDA99DEDBB233D"",""assignmentId"":""868269f7-4bc1-45d4-b9cc-2d594a095cba"",""projectId"":""920300cb-ef92-407e-8025-8071213f24fb""}","https://test12345.live/?part=2&participantId=25932BD4FF4B44E9A0CDA99DEDBB233D&assignmentId=868269f7-4bc1-45d4-b9cc-2d594a095cba&projectId=920300cb-ef92-407e-8025-8071213f24fb","25932BD4FF4B44E9A0CDA99DEDBB233D-2025-05-23-18-44-48","","null","","images/causal_sequence/museum_causal/museum_causal_0.png","null","",""
"","","","","","html-audio-response","38","517139","0.0-36.0","25932BD4FF4B44E9A0CDA99DEDBB233D","25932BD4FF4B44E9A0CDA99DEDBB233D","868269f7-4bc1-45d4-b9cc-2d594a095cba","920300cb-ef92-407e-8025-8071213f24fb","{""part"":""2"",""participantId"":""25932BD4FF4B44E9A0CDA99DEDBB233D"",""assignmentId"":""868269f7-4bc1-45d4-b9cc-2d594a095cba"",""projectId"":""920300cb-ef92-407e-8025-8071213f24fb""}","https://test12345.live/?part=2&participantId=25932BD4FF4B44E9A0CDA99DEDBB233D&assignmentId=868269f7-4bc1-45d4-b9cc-2d594a095cba&projectId=920300cb-ef92-407e-8025-8071213f24fb","25932BD4FF4B44E9A0CDA99DEDBB233D-2025-05-23-18-44-48","","30116","","[""<span style=\""color: red; font-size: 24px\""> NOW RECORDING</span><p>Please say out loud all the images you saw in part 1 of the experiment, in the exact order you saw them. Try to recall as many images as you can, but remember: getting the order right is more important than the number of images you recall. </p>""]","","1","museum_causal"
"","","","","","image-button-response","39","523152","0.0-37.0-0.0","25932BD4FF4B44E9A0CDA99DEDBB233D","25932BD4FF4B44E9A0CDA99DEDBB233D","868269f7-4bc1-45d4-b9cc-2d594a095cba","920300cb-ef92-407e-8025-8071213f24fb","{""part"":""2"",""participantId"":""25932BD4FF4B44E9A0CDA99DEDBB233D"",""assignmentId"":""868269f7-4bc1-45d4-b9cc-2d594a095cba"",""projectId"":""920300cb-ef92-407e-8025-8071213f24fb""}","https://test12345.live/?part=2&participantId=25932BD4FF4B44E9A0CDA99DEDBB233D&assignmentId=868269f7-4bc1-45d4-b9cc-2d594a095cba&projectId=920300cb-ef92-407e-8025-8071213f24fb","25932BD4FF4B44E9A0CDA99DEDBB233D-2025-05-23-18-44-48","","null","","images/semantic_sequence/using_technology_semantic/using_technology_semantic_0.png","null","",""
"","","","","","html-audio-response","40","549603","0.0-38.0","25932BD4FF4B44E9A0CDA99DEDBB233D","25932BD4FF4B44E9A0CDA99DEDBB233D","868269f7-4bc1-45d4-b9cc-2d594a095cba","920300cb-ef92-407e-8025-8071213f24fb","{""part"":""2"",""participantId"":""25932BD4FF4B44E9A0CDA99DEDBB233D"",""assignmentId"":""868269f7-4bc1-45d4-b9cc-2d594a095cba"",""projectId"":""920300cb-ef92-407e-8025-8071213f24fb""}","https://test12345.live/?part=2&participantId=25932BD4FF4B44E9A0CDA99DEDBB233D&assignmentId=868269f7-4bc1-45d4-b9cc-2d594a095cba&projectId=920300cb-ef92-407e-8025-8071213f24fb","25932BD4FF4B44E9A0CDA99DEDBB233D-2025-05-23-18-44-48","","19817","","[""<span style=\""color: red; font-size: 24px\""> NOW RECORDING</span><p>Please say out loud all the images you saw in part 1 of the experiment, in the exact order you saw them. Try to recall as many images as you can, but remember: getting the order right is more important than the number of images you recall. </p>""]","","1","using_technology_semantic"
"","","","","","image-button-response","41","555614","0.0-39.0-0.0","25932BD4FF4B44E9A0CDA99DEDBB233D","25932BD4FF4B44E9A0CDA99DEDBB233D","868269f7-4bc1-45d4-b9cc-2d594a095cba","920300cb-ef92-407e-8025-8071213f24fb","{""part"":""2"",""participantId"":""25932BD4FF4B44E9A0CDA99DEDBB233D"",""assignmentId"":""868269f7-4bc1-45d4-b9cc-2d594a095cba"",""projectId"":""920300cb-ef92-407e-8025-8071213f24fb""}","https://test12345.live/?part=2&participantId=25932BD4FF4B44E9A0CDA99DEDBB233D&assignmentId=868269f7-4bc1-45d4-b9cc-2d594a095cba&projectId=920300cb-ef92-407e-8025-8071213f24fb","25932BD4FF4B44E9A0CDA99DEDBB233D-2025-05-23-18-44-48","","null","","images/schematic_sequence/dinner_party_scheme/dinner_party_scheme_0.png","null","",""
"","","","","","html-audio-response","42","578965","0.0-40.0","25932BD4FF4B44E9A0CDA99DEDBB233D","25932BD4FF4B44E9A0CDA99DEDBB233D","868269f7-4bc1-45d4-b9cc-2d594a095cba","920300cb-ef92-407e-8025-8071213f24fb","{""part"":""2"",""participantId"":""25932BD4FF4B44E9A0CDA99DEDBB233D"",""assignmentId"":""868269f7-4bc1-45d4-b9cc-2d594a095cba"",""projectId"":""920300cb-ef92-407e-8025-8071213f24fb""}","https://test12345.live/?part=2&participantId=25932BD4FF4B44E9A0CDA99DEDBB233D&assignmentId=868269f7-4bc1-45d4-b9cc-2d594a095cba&projectId=920300cb-ef92-407e-8025-8071213f24fb","25932BD4FF4B44E9A0CDA99DEDBB233D-2025-05-23-18-44-48","","22067","","[""<span style=\""color: red; font-size: 24px\""> NOW RECORDING</span><p>Please say out loud all the images you saw in part 1 of the experiment, in the exact order you saw them. Try to recall as many images as you can, but remember: getting the order right is more important than the number of images you recall. </p>""]","","1","dinner_party_scheme"
"","","","","","image-button-response","43","584974","0.0-41.0-0.0","25932BD4FF4B44E9A0CDA99DEDBB233D","25932BD4FF4B44E9A0CDA99DEDBB233D","868269f7-4bc1-45d4-b9cc-2d594a095cba","920300cb-ef92-407e-8025-8071213f24fb","{""part"":""2"",""participantId"":""25932BD4FF4B44E9A0CDA99DEDBB233D"",""assignmentId"":""868269f7-4bc1-45d4-b9cc-2d594a095cba"",""projectId"":""920300cb-ef92-407e-8025-8071213f24fb""}","https://test12345.live/?part=2&participantId=25932BD4FF4B44E9A0CDA99DEDBB233D&assignmentId=868269f7-4bc1-45d4-b9cc-2d594a095cba&projectId=920300cb-ef92-407e-8025-8071213f24fb","25932BD4FF4B44E9A0CDA99DEDBB233D-2025-05-23-18-44-48","","null","","images/schematic_sequence/restaurant_scheme/restaurant_scheme_0.png","null","",""
"","","","","","html-audio-response","44","605068","0.0-42.0","25932BD4FF4B44E9A0CDA99DEDBB233D","25932BD4FF4B44E9A0CDA99DEDBB233D","868269f7-4bc1-45d4-b9cc-2d594a095cba","920300cb-ef92-407e-8025-8071213f24fb","{""part"":""2"",""participantId"":""25932BD4FF4B44E9A0CDA99DEDBB233D"",""assignmentId"":""868269f7-4bc1-45d4-b9cc-2d594a095cba"",""projectId"":""920300cb-ef92-407e-8025-8071213f24fb""}","https://test12345.live/?part=2&participantId=25932BD4FF4B44E9A0CDA99DEDBB233D&assignmentId=868269f7-4bc1-45d4-b9cc-2d594a095cba&projectId=920300cb-ef92-407e-8025-8071213f24fb","25932BD4FF4B44E9A0CDA99DEDBB233D-2025-05-23-18-44-48","","19207","","[""<span style=\""color: red; font-size: 24px\""> NOW RECORDING</span><p>Please say out loud all the images you saw in part 1 of the experiment, in the exact order you saw them. Try to recall as many images as you can, but remember: getting the order right is more important than the number of images you recall. </p>""]","","1","restaurant_scheme"
"","","","","","image-button-response","45","611076","0.0-43.0-0.0","25932BD4FF4B44E9A0CDA99DEDBB233D","25932BD4FF4B44E9A0CDA99DEDBB233D","868269f7-4bc1-45d4-b9cc-2d594a095cba","920300cb-ef92-407e-8025-8071213f24fb","{""part"":""2"",""participantId"":""25932BD4FF4B44E9A0CDA99DEDBB233D"",""assignmentId"":""868269f7-4bc1-45d4-b9cc-2d594a095cba"",""projectId"":""920300cb-ef92-407e-8025-8071213f24fb""}","https://test12345.live/?part=2&participantId=25932BD4FF4B44E9A0CDA99DEDBB233D&assignmentId=868269f7-4bc1-45d4-b9cc-2d594a095cba&projectId=920300cb-ef92-407e-8025-8071213f24fb","25932BD4FF4B44E9A0CDA99DEDBB233D-2025-05-23-18-44-48","","null","","images/schematic_sequence/interview_scheme/interview_scheme_0.png","null","",""
"","","","","","html-audio-response","46","670198","0.0-44.0","25932BD4FF4B44E9A0CDA99DEDBB233D","25932BD4FF4B44E9A0CDA99DEDBB233D","868269f7-4bc1-45d4-b9cc-2d594a095cba","920300cb-ef92-407e-8025-8071213f24fb","{""part"":""2"",""participantId"":""25932BD4FF4B44E9A0CDA99DEDBB233D"",""assignmentId"":""868269f7-4bc1-45d4-b9cc-2d594a095cba"",""projectId"":""920300cb-ef92-407e-8025-8071213f24fb""}","https://test12345.live/?part=2&participantId=25932BD4FF4B44E9A0CDA99DEDBB233D&assignmentId=868269f7-4bc1-45d4-b9cc-2d594a095cba&projectId=920300cb-ef92-407e-8025-8071213f24fb","25932BD4FF4B44E9A0CDA99DEDBB233D-2025-05-23-18-44-48","","24051","","[""<span style=\""color: red; font-size: 24px\""> NOW RECORDING</span><p>Please say out loud all the images you saw in part 1 of the experiment, in the exact order you saw them. Try to recall as many images as you can, but remember: getting the order right is more important than the number of images you recall. </p>""]","","1","interview_scheme"
"","","","","","image-button-response","47","676210","0.0-45.0-0.0","25932BD4FF4B44E9A0CDA99DEDBB233D","25932BD4FF4B44E9A0CDA99DEDBB233D","868269f7-4bc1-45d4-b9cc-2d594a095cba","920300cb-ef92-407e-8025-8071213f24fb","{""part"":""2"",""participantId"":""25932BD4FF4B44E9A0CDA99DEDBB233D"",""assignmentId"":""868269f7-4bc1-45d4-b9cc-2d594a095cba"",""projectId"":""920300cb-ef92-407e-8025-8071213f24fb""}","https://test12345.live/?part=2&participantId=25932BD4FF4B44E9A0CDA99DEDBB233D&assignmentId=868269f7-4bc1-45d4-b9cc-2d594a095cba&projectId=920300cb-ef92-407e-8025-8071213f24fb","25932BD4FF4B44E9A0CDA99DEDBB233D-2025-05-23-18-44-48","","null","","images/causal_sequence/coin_causal/coin_causal_0.png","null","",""
"","","","","","html-audio-response","48","701576","0.0-46.0","25932BD4FF4B44E9A0CDA99DEDBB233D","25932BD4FF4B44E9A0CDA99DEDBB233D","868269f7-4bc1-45d4-b9cc-2d594a095cba","920300cb-ef92-407e-8025-8071213f24fb","{""part"":""2"",""participantId"":""25932BD4FF4B44E9A0CDA99DEDBB233D"",""assignmentId"":""868269f7-4bc1-45d4-b9cc-2d594a095cba"",""projectId"":""920300cb-ef92-407e-8025-8071213f24fb""}","https://test12345.live/?part=2&participantId=25932BD4FF4B44E9A0CDA99DEDBB233D&assignmentId=868269f7-4bc1-45d4-b9cc-2d594a095cba&projectId=920300cb-ef92-407e-8025-8071213f24fb","25932BD4FF4B44E9A0CDA99DEDBB233D-2025-05-23-18-44-48","","24512","","[""<span style=\""color: red; font-size: 24px\""> NOW RECORDING</span><p>Please say out loud all the images you saw in part 1 of the experiment, in the exact order you saw them. Try to recall as many images as you can, but remember: getting the order right is more important than the number of images you recall. </p>""]","","1","coin_causal"
"","","","","","image-button-response","49","707593","0.0-47.0-0.0","25932BD4FF4B44E9A0CDA99DEDBB233D","25932BD4FF4B44E9A0CDA99DEDBB233D","868269f7-4bc1-45d4-b9cc-2d594a095cba","920300cb-ef92-407e-8025-8071213f24fb","{""part"":""2"",""participantId"":""25932BD4FF4B44E9A0CDA99DEDBB233D"",""assignmentId"":""868269f7-4bc1-45d4-b9cc-2d594a095cba"",""projectId"":""920300cb-ef92-407e-8025-8071213f24fb""}","https://test12345.live/?part=2&participantId=25932BD4FF4B44E9A0CDA99DEDBB233D&assignmentId=868269f7-4bc1-45d4-b9cc-2d594a095cba&projectId=920300cb-ef92-407e-8025-8071213f24fb","25932BD4FF4B44E9A0CDA99DEDBB233D-2025-05-23-18-44-48","","null","","images/causal_sequence/package_causal/package_causal_0.png","null","",""
"","","","","","html-audio-response","50","735524","0.0-48.0","25932BD4FF4B44E9A0CDA99DEDBB233D","25932BD4FF4B44E9A0CDA99DEDBB233D","868269f7-4bc1-45d4-b9cc-2d594a095cba","920300cb-ef92-407e-8025-8071213f24fb","{""part"":""2"",""participantId"":""25932BD4FF4B44E9A0CDA99DEDBB233D"",""assignmentId"":""868269f7-4bc1-45d4-b9cc-2d594a095cba"",""projectId"":""920300cb-ef92-407e-8025-8071213f24fb""}","https://test12345.live/?part=2&participantId=25932BD4FF4B44E9A0CDA99DEDBB233D&assignmentId=868269f7-4bc1-45d4-b9cc-2d594a095cba&projectId=920300cb-ef92-407e-8025-8071213f24fb","25932BD4FF4B44E9A0CDA99DEDBB233D-2025-05-23-18-44-48","","26222","","[""<span style=\""color: red; font-size: 24px\""> NOW RECORDING</span><p>Please say out loud all the images you saw in part 1 of the experiment, in the exact order you saw them. Try to recall as many images as you can, but remember: getting the order right is more important than the number of images you recall. </p>""]","","1","package_causal"
"","","","","","image-button-response","51","741531","0.0-49.0-0.0","25932BD4FF4B44E9A0CDA99DEDBB233D","25932BD4FF4B44E9A0CDA99DEDBB233D","868269f7-4bc1-45d4-b9cc-2d594a095cba","920300cb-ef92-407e-8025-8071213f24fb","{""part"":""2"",""participantId"":""25932BD4FF4B44E9A0CDA99DEDBB233D"",""assignmentId"":""868269f7-4bc1-45d4-b9cc-2d594a095cba"",""projectId"":""920300cb-ef92-407e-8025-8071213f24fb""}","https://test12345.live/?part=2&participantId=25932BD4FF4B44E9A0CDA99DEDBB233D&assignmentId=868269f7-4bc1-45d4-b9cc-2d594a095cba&projectId=920300cb-ef92-407e-8025-8071213f24fb","25932BD4FF4B44E9A0CDA99DEDBB233D-2025-05-23-18-44-48","","null","","images/semantic_sequence/cat_care_semantic/cat_care_semantic_0.png","null","",""
"","","","","","html-audio-response","52","767565","0.0-50.0","25932BD4FF4B44E9A0CDA99DEDBB233D","25932BD4FF4B44E9A0CDA99DEDBB233D","868269f7-4bc1-45d4-b9cc-2d594a095cba","920300cb-ef92-407e-8025-8071213f24fb","{""part"":""2"",""participantId"":""25932BD4FF4B44E9A0CDA99DEDBB233D"",""assignmentId"":""868269f7-4bc1-45d4-b9cc-2d594a095cba"",""projectId"":""920300cb-ef92-407e-8025-8071213f24fb""}","https://test12345.live/?part=2&participantId=25932BD4FF4B44E9A0CDA99DEDBB233D&assignmentId=868269f7-4bc1-45d4-b9cc-2d594a095cba&projectId=920300cb-ef92-407e-8025-8071213f24fb","25932BD4FF4B44E9A0CDA99DEDBB233D-2025-05-23-18-44-48","","23808","","[""<span style=\""color: red; font-size: 24px\""> NOW RECORDING</span><p>Please say out loud all the images you saw in part 1 of the experiment, in the exact order you saw them. Try to recall as many images as you can, but remember: getting the order right is more important than the number of images you recall. </p>""]","","1","cat_care_semantic"
"","","","","","image-button-response","53","773576","0.0-51.0-0.0","25932BD4FF4B44E9A0CDA99DEDBB233D","25932BD4FF4B44E9A0CDA99DEDBB233D","868269f7-4bc1-45d4-b9cc-2d594a095cba","920300cb-ef92-407e-8025-8071213f24fb","{""part"":""2"",""participantId"":""25932BD4FF4B44E9A0CDA99DEDBB233D"",""assignmentId"":""868269f7-4bc1-45d4-b9cc-2d594a095cba"",""projectId"":""920300cb-ef92-407e-8025-8071213f24fb""}","https://test12345.live/?part=2&participantId=25932BD4FF4B44E9A0CDA99DEDBB233D&assignmentId=868269f7-4bc1-45d4-b9cc-2d594a095cba&projectId=920300cb-ef92-407e-8025-8071213f24fb","25932BD4FF4B44E9A0CDA99DEDBB233D-2025-05-23-18-44-48","","null","","images/causal_sequence/the_performance_causal/the_performance_causal_0.png","null","",""
"","","","","","html-audio-response","54","797355","0.0-52.0","25932BD4FF4B44E9A0CDA99DEDBB233D","25932BD4FF4B44E9A0CDA99DEDBB233D","868269f7-4bc1-45d4-b9cc-2d594a095cba","920300cb-ef92-407e-8025-8071213f24fb","{""part"":""2"",""participantId"":""25932BD4FF4B44E9A0CDA99DEDBB233D"",""assignmentId"":""868269f7-4bc1-45d4-b9cc-2d594a095cba"",""projectId"":""920300cb-ef92-407e-8025-8071213f24fb""}","https://test12345.live/?part=2&participantId=25932BD4FF4B44E9A0CDA99DEDBB233D&assignmentId=868269f7-4bc1-45d4-b9cc-2d594a095cba&projectId=920300cb-ef92-407e-8025-8071213f24fb","25932BD4FF4B44E9A0CDA99DEDBB233D-2025-05-23-18-44-48","","22729","","[""<span style=\""color: red; font-size: 24px\""> NOW RECORDING</span><p>Please say out loud all the images you saw in part 1 of the experiment, in the exact order you saw them. Try to recall as many images as you can, but remember: getting the order right is more important than the number of images you recall. </p>""]","","1","the_performance_causal"
"","","","","","image-button-response","55","803363","0.0-53.0-0.0","25932BD4FF4B44E9A0CDA99DEDBB233D","25932BD4FF4B44E9A0CDA99DEDBB233D","868269f7-4bc1-45d4-b9cc-2d594a095cba","920300cb-ef92-407e-8025-8071213f24fb","{""part"":""2"",""participantId"":""25932BD4FF4B44E9A0CDA99DEDBB233D"",""assignmentId"":""868269f7-4bc1-45d4-b9cc-2d594a095cba"",""projectId"":""920300cb-ef92-407e-8025-8071213f24fb""}","https://test12345.live/?part=2&participantId=25932BD4FF4B44E9A0CDA99DEDBB233D&assignmentId=868269f7-4bc1-45d4-b9cc-2d594a095cba&projectId=920300cb-ef92-407e-8025-8071213f24fb","25932BD4FF4B44E9A0CDA99DEDBB233D-2025-05-23-18-44-48","","null","","images/schematic_sequence/flight_scheme/flight_scheme_0.png","null","",""
"","","","","","html-audio-response","56","826818","0.0-54.0","25932BD4FF4B44E9A0CDA99DEDBB233D","25932BD4FF4B44E9A0CDA99DEDBB233D","868269f7-4bc1-45d4-b9cc-2d594a095cba","920300cb-ef92-407e-8025-8071213f24fb","{""part"":""2"",""participantId"":""25932BD4FF4B44E9A0CDA99DEDBB233D"",""assignmentId"":""868269f7-4bc1-45d4-b9cc-2d594a095cba"",""projectId"":""920300cb-ef92-407e-8025-8071213f24fb""}","https://test12345.live/?part=2&participantId=25932BD4FF4B44E9A0CDA99DEDBB233D&assignmentId=868269f7-4bc1-45d4-b9cc-2d594a095cba&projectId=920300cb-ef92-407e-8025-8071213f24fb","25932BD4FF4B44E9A0CDA99DEDBB233D-2025-05-23-18-44-48","","22314","","[""<span style=\""color: red; font-size: 24px\""> NOW RECORDING</span><p>Please say out loud all the images you saw in part 1 of the experiment, in the exact order you saw them. Try to recall as many images as you can, but remember: getting the order right is more important than the number of images you recall. </p>""]","","1","flight_scheme"
"","","","","","image-button-response","57","832836","0.0-55.0-0.0","25932BD4FF4B44E9A0CDA99DEDBB233D","25932BD4FF4B44E9A0CDA99DEDBB233D","868269f7-4bc1-45d4-b9cc-2d594a095cba","920300cb-ef92-407e-8025-8071213f24fb","{""part"":""2"",""participantId"":""25932BD4FF4B44E9A0CDA99DEDBB233D"",""assignmentId"":""868269f7-4bc1-45d4-b9cc-2d594a095cba"",""projectId"":""920300cb-ef92-407e-8025-8071213f24fb""}","https://test12345.live/?part=2&participantId=25932BD4FF4B44E9A0CDA99DEDBB233D&assignmentId=868269f7-4bc1-45d4-b9cc-2d594a095cba&projectId=920300cb-ef92-407e-8025-8071213f24fb","25932BD4FF4B44E9A0CDA99DEDBB233D-2025-05-23-18-44-48","","null","","images/schematic_sequence/supermarket_scheme/supermarket_scheme_0.png","null","",""
"","","","","","html-audio-response","58","849355","0.0-56.0","25932BD4FF4B44E9A0CDA99DEDBB233D","25932BD4FF4B44E9A0CDA99DEDBB233D","868269f7-4bc1-45d4-b9cc-2d594a095cba","920300cb-ef92-407e-8025-8071213f24fb","{""part"":""2"",""participantId"":""25932BD4FF4B44E9A0CDA99DEDBB233D"",""assignmentId"":""868269f7-4bc1-45d4-b9cc-2d594a095cba"",""projectId"":""920300cb-ef92-407e-8025-8071213f24fb""}","https://test12345.live/?part=2&participantId=25932BD4FF4B44E9A0CDA99DEDBB233D&assignmentId=868269f7-4bc1-45d4-b9cc-2d594a095cba&projectId=920300cb-ef92-407e-8025-8071213f24fb","25932BD4FF4B44E9A0CDA99DEDBB233D-2025-05-23-18-44-48","","15375","","[""<span style=\""color: red; font-size: 24px\""> NOW RECORDING</span><p>Please say out loud all the images you saw in part 1 of the experiment, in the exact order you saw them. Try to recall as many images as you can, but remember: getting the order right is more important than the number of images you recall. </p>""]","","1","supermarket_scheme"
"","","","","","survey-text","59","857742","0.0-57.0","25932BD4FF4B44E9A0CDA99DEDBB233D","25932BD4FF4B44E9A0CDA99DEDBB233D","868269f7-4bc1-45d4-b9cc-2d594a095cba","920300cb-ef92-407e-8025-8071213f24fb","{""part"":""2"",""participantId"":""25932BD4FF4B44E9A0CDA99DEDBB233D"",""assignmentId"":""868269f7-4bc1-45d4-b9cc-2d594a095cba"",""projectId"":""920300cb-ef92-407e-8025-8071213f24fb""}","https://test12345.live/?part=2&participantId=25932BD4FF4B44E9A0CDA99DEDBB233D&assignmentId=868269f7-4bc1-45d4-b9cc-2d594a095cba&projectId=920300cb-ef92-407e-8025-8071213f24fb","25932BD4FF4B44E9A0CDA99DEDBB233D-2025-05-23-18-44-48","","8366","","","{""Q0"":""MALE"",""Q1"":""20""}","",""
"","","","","","instructions","60","861200","0.0-58.0","25932BD4FF4B44E9A0CDA99DEDBB233D","25932BD4FF4B44E9A0CDA99DEDBB233D","868269f7-4bc1-45d4-b9cc-2d594a095cba","920300cb-ef92-407e-8025-8071213f24fb","{""part"":""2"",""participantId"":""25932BD4FF4B44E9A0CDA99DEDBB233D"",""assignmentId"":""868269f7-4bc1-45d4-b9cc-2d594a095cba"",""projectId"":""920300cb-ef92-407e-8025-8071213f24fb""}","https://test12345.live/?part=2&participantId=25932BD4FF4B44E9A0CDA99DEDBB233D&assignmentId=868269f7-4bc1-45d4-b9cc-2d594a095cba&projectId=920300cb-ef92-407e-8025-8071213f24fb","25932BD4FF4B44E9A0CDA99DEDBB233D-2025-05-23-18-44-48","[{""page_index"":0,""viewing_time"":3458}]","3458","","","","",""
"","","","","","survey-text","61","863531","0.0-59.0","25932BD4FF4B44E9A0CDA99DEDBB233D","25932BD4FF4B44E9A0CDA99DEDBB233D","868269f7-4bc1-45d4-b9cc-2d594a095cba","920300cb-ef92-407e-8025-8071213f24fb","{""part"":""2"",""participantId"":""25932BD4FF4B44E9A0CDA99DEDBB233D"",""assignmentId"":""868269f7-4bc1-45d4-b9cc-2d594a095cba"",""projectId"":""920300cb-ef92-407e-8025-8071213f24fb""}","https://test12345.live/?part=2&participantId=25932BD4FF4B44E9A0CDA99DEDBB233D&assignmentId=868269f7-4bc1-45d4-b9cc-2d594a095cba&projectId=920300cb-ef92-407e-8025-8071213f24fb","25932BD4FF4B44E9A0CDA99DEDBB233D-2025-05-23-18-44-48","","2325","","","{""Q0"":""AJFHBG896""}","",""
