"success","timeout","failed_images","failed_audio","failed_video","trial_type","trial_index","time_elapsed","internal_node_id","subject","subject_id","study_id","session_id","urlvar","current_url","audio_id","view_history","rt","device_id","stimulus","response","estimated_stimulus_onset","seq_name"
"true","false","[]","[]","[]","preload","0","1219","0.0-0.0","294C5AD37DFB4BDF93BB75FBAFE3F5C9","294C5AD37DFB4BDF93BB75FBAFE3F5C9","4387b333-5c4f-412e-818d-d9bff3e9b8ed","a647230e-5c99-4b66-bf2f-966bf482667d","{""part"":""2"",""participantId"":""294C5AD37DFB4BDF93BB75FBAFE3F5C9"",""assignmentId"":""4387b333-5c4f-412e-818d-d9bff3e9b8ed"",""projectId"":""a647230e-5c99-4b66-bf2f-966bf482667d""}","https://test12345.live/?part=2&participantId=294C5AD37DFB4BDF93BB75FBAFE3F5C9&assignmentId=4387b333-5c4f-412e-818d-d9bff3e9b8ed&projectId=a647230e-5c99-4b66-bf2f-966bf482667d","294C5AD37DFB4BDF93BB75FBAFE3F5C9-2025-05-16-15-43-33","","","","","","",""
"","","","","","instructions","1","12902","0.0-1.0","294C5AD37DFB4BDF93BB75FBAFE3F5C9","294C5AD37DFB4BDF93BB75FBAFE3F5C9","4387b333-5c4f-412e-818d-d9bff3e9b8ed","a647230e-5c99-4b66-bf2f-966bf482667d","{""part"":""2"",""participantId"":""294C5AD37DFB4BDF93BB75FBAFE3F5C9"",""assignmentId"":""4387b333-5c4f-412e-818d-d9bff3e9b8ed"",""projectId"":""a647230e-5c99-4b66-bf2f-966bf482667d""}","https://test12345.live/?part=2&participantId=294C5AD37DFB4BDF93BB75FBAFE3F5C9&assignmentId=4387b333-5c4f-412e-818d-d9bff3e9b8ed&projectId=a647230e-5c99-4b66-bf2f-966bf482667d","294C5AD37DFB4BDF93BB75FBAFE3F5C9-2025-05-16-15-43-33","[{""page_index"":0,""viewing_time"":11682}]","11682","","","","",""
"","","","","","instructions","2","21856","0.0-2.0","294C5AD37DFB4BDF93BB75FBAFE3F5C9","294C5AD37DFB4BDF93BB75FBAFE3F5C9","4387b333-5c4f-412e-818d-d9bff3e9b8ed","a647230e-5c99-4b66-bf2f-966bf482667d","{""part"":""2"",""participantId"":""294C5AD37DFB4BDF93BB75FBAFE3F5C9"",""assignmentId"":""4387b333-5c4f-412e-818d-d9bff3e9b8ed"",""projectId"":""a647230e-5c99-4b66-bf2f-966bf482667d""}","https://test12345.live/?part=2&participantId=294C5AD37DFB4BDF93BB75FBAFE3F5C9&assignmentId=4387b333-5c4f-412e-818d-d9bff3e9b8ed&projectId=a647230e-5c99-4b66-bf2f-966bf482667d","294C5AD37DFB4BDF93BB75FBAFE3F5C9-2025-05-16-15-43-33","[{""page_index"":0,""viewing_time"":8953}]","8953","","","","",""
"true","","","","","fullscreen","3","28231","0.0-3.0","294C5AD37DFB4BDF93BB75FBAFE3F5C9","294C5AD37DFB4BDF93BB75FBAFE3F5C9","4387b333-5c4f-412e-818d-d9bff3e9b8ed","a647230e-5c99-4b66-bf2f-966bf482667d","{""part"":""2"",""participantId"":""294C5AD37DFB4BDF93BB75FBAFE3F5C9"",""assignmentId"":""4387b333-5c4f-412e-818d-d9bff3e9b8ed"",""projectId"":""a647230e-5c99-4b66-bf2f-966bf482667d""}","https://test12345.live/?part=2&participantId=294C5AD37DFB4BDF93BB75FBAFE3F5C9&assignmentId=4387b333-5c4f-412e-818d-d9bff3e9b8ed&projectId=a647230e-5c99-4b66-bf2f-966bf482667d","294C5AD37DFB4BDF93BB75FBAFE3F5C9-2025-05-16-15-43-33","","5368","","","","",""
"","","","","","initialize-microphone","4","33021","0.0-4.0-0.0","294C5AD37DFB4BDF93BB75FBAFE3F5C9","294C5AD37DFB4BDF93BB75FBAFE3F5C9","4387b333-5c4f-412e-818d-d9bff3e9b8ed","a647230e-5c99-4b66-bf2f-966bf482667d","{""part"":""2"",""participantId"":""294C5AD37DFB4BDF93BB75FBAFE3F5C9"",""assignmentId"":""4387b333-5c4f-412e-818d-d9bff3e9b8ed"",""projectId"":""a647230e-5c99-4b66-bf2f-966bf482667d""}","https://test12345.live/?part=2&participantId=294C5AD37DFB4BDF93BB75FBAFE3F5C9&assignmentId=4387b333-5c4f-412e-818d-d9bff3e9b8ed&projectId=a647230e-5c99-4b66-bf2f-966bf482667d","294C5AD37DFB4BDF93BB75FBAFE3F5C9-2025-05-16-15-43-33","","","c25afa7873dec50b5488a54cae55823abfefaa9d7fca7c9e346f7aec7409b3b5","","","",""
"","","","","","html-audio-response","5","52917","0.0-4.0-1.0","294C5AD37DFB4BDF93BB75FBAFE3F5C9","294C5AD37DFB4BDF93BB75FBAFE3F5C9","4387b333-5c4f-412e-818d-d9bff3e9b8ed","a647230e-5c99-4b66-bf2f-966bf482667d","{""part"":""2"",""participantId"":""294C5AD37DFB4BDF93BB75FBAFE3F5C9"",""assignmentId"":""4387b333-5c4f-412e-818d-d9bff3e9b8ed"",""projectId"":""a647230e-5c99-4b66-bf2f-966bf482667d""}","https://test12345.live/?part=2&participantId=294C5AD37DFB4BDF93BB75FBAFE3F5C9&assignmentId=4387b333-5c4f-412e-818d-d9bff3e9b8ed&projectId=a647230e-5c99-4b66-bf2f-966bf482667d","294C5AD37DFB4BDF93BB75FBAFE3F5C9-2025-05-16-15-43-33","","5101","","<span style=""color: red; font-size: 24px""> NOW RECORDING</span>
        <p>Please test Microphone</p>","","2",""
"","","","","","html-button-response","6","54495","0.0-4.0-2.0","294C5AD37DFB4BDF93BB75FBAFE3F5C9","294C5AD37DFB4BDF93BB75FBAFE3F5C9","4387b333-5c4f-412e-818d-d9bff3e9b8ed","a647230e-5c99-4b66-bf2f-966bf482667d","{""part"":""2"",""participantId"":""294C5AD37DFB4BDF93BB75FBAFE3F5C9"",""assignmentId"":""4387b333-5c4f-412e-818d-d9bff3e9b8ed"",""projectId"":""a647230e-5c99-4b66-bf2f-966bf482667d""}","https://test12345.live/?part=2&participantId=294C5AD37DFB4BDF93BB75FBAFE3F5C9&assignmentId=4387b333-5c4f-412e-818d-d9bff3e9b8ed&projectId=a647230e-5c99-4b66-bf2f-966bf482667d","294C5AD37DFB4BDF93BB75FBAFE3F5C9-2025-05-16-15-43-33","","1575","","<p style=""font-size:48px; color:red;"">Is Microphone OK?</p>","1","",""
"","","","","","instructions","7","79234","0.0-5.0","294C5AD37DFB4BDF93BB75FBAFE3F5C9","294C5AD37DFB4BDF93BB75FBAFE3F5C9","4387b333-5c4f-412e-818d-d9bff3e9b8ed","a647230e-5c99-4b66-bf2f-966bf482667d","{""part"":""2"",""participantId"":""294C5AD37DFB4BDF93BB75FBAFE3F5C9"",""assignmentId"":""4387b333-5c4f-412e-818d-d9bff3e9b8ed"",""projectId"":""a647230e-5c99-4b66-bf2f-966bf482667d""}","https://test12345.live/?part=2&participantId=294C5AD37DFB4BDF93BB75FBAFE3F5C9&assignmentId=4387b333-5c4f-412e-818d-d9bff3e9b8ed&projectId=a647230e-5c99-4b66-bf2f-966bf482667d","294C5AD37DFB4BDF93BB75FBAFE3F5C9-2025-05-16-15-43-33","[{""page_index"":0,""viewing_time"":1697},{""page_index"":1,""viewing_time"":6429},{""page_index"":2,""viewing_time"":16611}]","24737","","","","",""
"","","","","","image-button-response","8","85242","0.0-6.0-0.0","294C5AD37DFB4BDF93BB75FBAFE3F5C9","294C5AD37DFB4BDF93BB75FBAFE3F5C9","4387b333-5c4f-412e-818d-d9bff3e9b8ed","a647230e-5c99-4b66-bf2f-966bf482667d","{""part"":""2"",""participantId"":""294C5AD37DFB4BDF93BB75FBAFE3F5C9"",""assignmentId"":""4387b333-5c4f-412e-818d-d9bff3e9b8ed"",""projectId"":""a647230e-5c99-4b66-bf2f-966bf482667d""}","https://test12345.live/?part=2&participantId=294C5AD37DFB4BDF93BB75FBAFE3F5C9&assignmentId=4387b333-5c4f-412e-818d-d9bff3e9b8ed&projectId=a647230e-5c99-4b66-bf2f-966bf482667d","294C5AD37DFB4BDF93BB75FBAFE3F5C9-2025-05-16-15-43-33","","null","","images/instructions/movie_0.png","null","",""
"","","","","","html-audio-response","9","125613","0.0-7.0","294C5AD37DFB4BDF93BB75FBAFE3F5C9","294C5AD37DFB4BDF93BB75FBAFE3F5C9","4387b333-5c4f-412e-818d-d9bff3e9b8ed","a647230e-5c99-4b66-bf2f-966bf482667d","{""part"":""2"",""participantId"":""294C5AD37DFB4BDF93BB75FBAFE3F5C9"",""assignmentId"":""4387b333-5c4f-412e-818d-d9bff3e9b8ed"",""projectId"":""a647230e-5c99-4b66-bf2f-966bf482667d""}","https://test12345.live/?part=2&participantId=294C5AD37DFB4BDF93BB75FBAFE3F5C9&assignmentId=4387b333-5c4f-412e-818d-d9bff3e9b8ed&projectId=a647230e-5c99-4b66-bf2f-966bf482667d","294C5AD37DFB4BDF93BB75FBAFE3F5C9-2025-05-16-15-43-33","","10927","","[""<span style=\""color: red; font-size: 24px\""> NOW RECORDING</span><p>Please say out loud all the images you saw in part 1 of the experiment, as many as you can remember. The images can be said in any order.</p>""]","","2",""
"","","","","","instructions","10","127503","0.0-8.0","294C5AD37DFB4BDF93BB75FBAFE3F5C9","294C5AD37DFB4BDF93BB75FBAFE3F5C9","4387b333-5c4f-412e-818d-d9bff3e9b8ed","a647230e-5c99-4b66-bf2f-966bf482667d","{""part"":""2"",""participantId"":""294C5AD37DFB4BDF93BB75FBAFE3F5C9"",""assignmentId"":""4387b333-5c4f-412e-818d-d9bff3e9b8ed"",""projectId"":""a647230e-5c99-4b66-bf2f-966bf482667d""}","https://test12345.live/?part=2&participantId=294C5AD37DFB4BDF93BB75FBAFE3F5C9&assignmentId=4387b333-5c4f-412e-818d-d9bff3e9b8ed&projectId=a647230e-5c99-4b66-bf2f-966bf482667d","294C5AD37DFB4BDF93BB75FBAFE3F5C9-2025-05-16-15-43-33","[{""page_index"":0,""viewing_time"":1882}]","1882","","","","",""
"","","","","","image-button-response","11","133508","0.0-9.0-0.0","294C5AD37DFB4BDF93BB75FBAFE3F5C9","294C5AD37DFB4BDF93BB75FBAFE3F5C9","4387b333-5c4f-412e-818d-d9bff3e9b8ed","a647230e-5c99-4b66-bf2f-966bf482667d","{""part"":""2"",""participantId"":""294C5AD37DFB4BDF93BB75FBAFE3F5C9"",""assignmentId"":""4387b333-5c4f-412e-818d-d9bff3e9b8ed"",""projectId"":""a647230e-5c99-4b66-bf2f-966bf482667d""}","https://test12345.live/?part=2&participantId=294C5AD37DFB4BDF93BB75FBAFE3F5C9&assignmentId=4387b333-5c4f-412e-818d-d9bff3e9b8ed&projectId=a647230e-5c99-4b66-bf2f-966bf482667d","294C5AD37DFB4BDF93BB75FBAFE3F5C9-2025-05-16-15-43-33","","null","","images/semantic_sequence/maintaining_a_car_semantic/maintaining_a_car_semantic_0.png","null","",""
"","","","","","html-audio-response","12","237184","0.0-10.0","294C5AD37DFB4BDF93BB75FBAFE3F5C9","294C5AD37DFB4BDF93BB75FBAFE3F5C9","4387b333-5c4f-412e-818d-d9bff3e9b8ed","a647230e-5c99-4b66-bf2f-966bf482667d","{""part"":""2"",""participantId"":""294C5AD37DFB4BDF93BB75FBAFE3F5C9"",""assignmentId"":""4387b333-5c4f-412e-818d-d9bff3e9b8ed"",""projectId"":""a647230e-5c99-4b66-bf2f-966bf482667d""}","https://test12345.live/?part=2&participantId=294C5AD37DFB4BDF93BB75FBAFE3F5C9&assignmentId=4387b333-5c4f-412e-818d-d9bff3e9b8ed&projectId=a647230e-5c99-4b66-bf2f-966bf482667d","294C5AD37DFB4BDF93BB75FBAFE3F5C9-2025-05-16-15-43-33","","14703","","[""<span style=\""color: red; font-size: 24px\""> NOW RECORDING</span><p>Please say out loud all the images you saw in part 1 of the experiment, as many as you can remember. The images can be said in any order.</p>""]","","2","maintaining_a_car_semantic"
"","","","","","image-button-response","13","243197","0.0-11.0-0.0","294C5AD37DFB4BDF93BB75FBAFE3F5C9","294C5AD37DFB4BDF93BB75FBAFE3F5C9","4387b333-5c4f-412e-818d-d9bff3e9b8ed","a647230e-5c99-4b66-bf2f-966bf482667d","{""part"":""2"",""participantId"":""294C5AD37DFB4BDF93BB75FBAFE3F5C9"",""assignmentId"":""4387b333-5c4f-412e-818d-d9bff3e9b8ed"",""projectId"":""a647230e-5c99-4b66-bf2f-966bf482667d""}","https://test12345.live/?part=2&participantId=294C5AD37DFB4BDF93BB75FBAFE3F5C9&assignmentId=4387b333-5c4f-412e-818d-d9bff3e9b8ed&projectId=a647230e-5c99-4b66-bf2f-966bf482667d","294C5AD37DFB4BDF93BB75FBAFE3F5C9-2025-05-16-15-43-33","","null","","images/semantic_sequence/using_technology_semantic/using_technology_semantic_0.png","null","",""
"","","","","","html-audio-response","14","270742","0.0-12.0","294C5AD37DFB4BDF93BB75FBAFE3F5C9","294C5AD37DFB4BDF93BB75FBAFE3F5C9","4387b333-5c4f-412e-818d-d9bff3e9b8ed","a647230e-5c99-4b66-bf2f-966bf482667d","{""part"":""2"",""participantId"":""294C5AD37DFB4BDF93BB75FBAFE3F5C9"",""assignmentId"":""4387b333-5c4f-412e-818d-d9bff3e9b8ed"",""projectId"":""a647230e-5c99-4b66-bf2f-966bf482667d""}","https://test12345.live/?part=2&participantId=294C5AD37DFB4BDF93BB75FBAFE3F5C9&assignmentId=4387b333-5c4f-412e-818d-d9bff3e9b8ed&projectId=a647230e-5c99-4b66-bf2f-966bf482667d","294C5AD37DFB4BDF93BB75FBAFE3F5C9-2025-05-16-15-43-33","","11912","","[""<span style=\""color: red; font-size: 24px\""> NOW RECORDING</span><p>Please say out loud all the images you saw in part 1 of the experiment, as many as you can remember. The images can be said in any order.</p>""]","","2","using_technology_semantic"
"","","","","","image-button-response","15","276752","0.0-13.0-0.0","294C5AD37DFB4BDF93BB75FBAFE3F5C9","294C5AD37DFB4BDF93BB75FBAFE3F5C9","4387b333-5c4f-412e-818d-d9bff3e9b8ed","a647230e-5c99-4b66-bf2f-966bf482667d","{""part"":""2"",""participantId"":""294C5AD37DFB4BDF93BB75FBAFE3F5C9"",""assignmentId"":""4387b333-5c4f-412e-818d-d9bff3e9b8ed"",""projectId"":""a647230e-5c99-4b66-bf2f-966bf482667d""}","https://test12345.live/?part=2&participantId=294C5AD37DFB4BDF93BB75FBAFE3F5C9&assignmentId=4387b333-5c4f-412e-818d-d9bff3e9b8ed&projectId=a647230e-5c99-4b66-bf2f-966bf482667d","294C5AD37DFB4BDF93BB75FBAFE3F5C9-2025-05-16-15-43-33","","null","","images/causal_sequence/saving_a_cat_causal/saving_a_cat_causal_0.png","null","",""
"","","","","","html-audio-response","16","318970","0.0-14.0","294C5AD37DFB4BDF93BB75FBAFE3F5C9","294C5AD37DFB4BDF93BB75FBAFE3F5C9","4387b333-5c4f-412e-818d-d9bff3e9b8ed","a647230e-5c99-4b66-bf2f-966bf482667d","{""part"":""2"",""participantId"":""294C5AD37DFB4BDF93BB75FBAFE3F5C9"",""assignmentId"":""4387b333-5c4f-412e-818d-d9bff3e9b8ed"",""projectId"":""a647230e-5c99-4b66-bf2f-966bf482667d""}","https://test12345.live/?part=2&participantId=294C5AD37DFB4BDF93BB75FBAFE3F5C9&assignmentId=4387b333-5c4f-412e-818d-d9bff3e9b8ed&projectId=a647230e-5c99-4b66-bf2f-966bf482667d","294C5AD37DFB4BDF93BB75FBAFE3F5C9-2025-05-16-15-43-33","","20352","","[""<span style=\""color: red; font-size: 24px\""> NOW RECORDING</span><p>Please say out loud all the images you saw in part 1 of the experiment, as many as you can remember. The images can be said in any order.</p>""]","","14","saving_a_cat_causal"
"","","","","","image-button-response","17","324981","0.0-15.0-0.0","294C5AD37DFB4BDF93BB75FBAFE3F5C9","294C5AD37DFB4BDF93BB75FBAFE3F5C9","4387b333-5c4f-412e-818d-d9bff3e9b8ed","a647230e-5c99-4b66-bf2f-966bf482667d","{""part"":""2"",""participantId"":""294C5AD37DFB4BDF93BB75FBAFE3F5C9"",""assignmentId"":""4387b333-5c4f-412e-818d-d9bff3e9b8ed"",""projectId"":""a647230e-5c99-4b66-bf2f-966bf482667d""}","https://test12345.live/?part=2&participantId=294C5AD37DFB4BDF93BB75FBAFE3F5C9&assignmentId=4387b333-5c4f-412e-818d-d9bff3e9b8ed&projectId=a647230e-5c99-4b66-bf2f-966bf482667d","294C5AD37DFB4BDF93BB75FBAFE3F5C9-2025-05-16-15-43-33","","null","","images/semantic_sequence/visiting_cities_semantic/visiting_cities_semantic_0.png","null","",""
"","","","","","html-audio-response","18","354793","0.0-16.0","294C5AD37DFB4BDF93BB75FBAFE3F5C9","294C5AD37DFB4BDF93BB75FBAFE3F5C9","4387b333-5c4f-412e-818d-d9bff3e9b8ed","a647230e-5c99-4b66-bf2f-966bf482667d","{""part"":""2"",""participantId"":""294C5AD37DFB4BDF93BB75FBAFE3F5C9"",""assignmentId"":""4387b333-5c4f-412e-818d-d9bff3e9b8ed"",""projectId"":""a647230e-5c99-4b66-bf2f-966bf482667d""}","https://test12345.live/?part=2&participantId=294C5AD37DFB4BDF93BB75FBAFE3F5C9&assignmentId=4387b333-5c4f-412e-818d-d9bff3e9b8ed&projectId=a647230e-5c99-4b66-bf2f-966bf482667d","294C5AD37DFB4BDF93BB75FBAFE3F5C9-2025-05-16-15-43-33","","13729","","[""<span style=\""color: red; font-size: 24px\""> NOW RECORDING</span><p>Please say out loud all the images you saw in part 1 of the experiment, as many as you can remember. The images can be said in any order.</p>""]","","1","visiting_cities_semantic"
"","","","","","image-button-response","19","360803","0.0-17.0-0.0","294C5AD37DFB4BDF93BB75FBAFE3F5C9","294C5AD37DFB4BDF93BB75FBAFE3F5C9","4387b333-5c4f-412e-818d-d9bff3e9b8ed","a647230e-5c99-4b66-bf2f-966bf482667d","{""part"":""2"",""participantId"":""294C5AD37DFB4BDF93BB75FBAFE3F5C9"",""assignmentId"":""4387b333-5c4f-412e-818d-d9bff3e9b8ed"",""projectId"":""a647230e-5c99-4b66-bf2f-966bf482667d""}","https://test12345.live/?part=2&participantId=294C5AD37DFB4BDF93BB75FBAFE3F5C9&assignmentId=4387b333-5c4f-412e-818d-d9bff3e9b8ed&projectId=a647230e-5c99-4b66-bf2f-966bf482667d","294C5AD37DFB4BDF93BB75FBAFE3F5C9-2025-05-16-15-43-33","","null","","images/schematic_sequence/restaurant_scheme/restaurant_scheme_0.png","null","",""
"","","","","","html-audio-response","20","407348","0.0-18.0","294C5AD37DFB4BDF93BB75FBAFE3F5C9","294C5AD37DFB4BDF93BB75FBAFE3F5C9","4387b333-5c4f-412e-818d-d9bff3e9b8ed","a647230e-5c99-4b66-bf2f-966bf482667d","{""part"":""2"",""participantId"":""294C5AD37DFB4BDF93BB75FBAFE3F5C9"",""assignmentId"":""4387b333-5c4f-412e-818d-d9bff3e9b8ed"",""projectId"":""a647230e-5c99-4b66-bf2f-966bf482667d""}","https://test12345.live/?part=2&participantId=294C5AD37DFB4BDF93BB75FBAFE3F5C9&assignmentId=4387b333-5c4f-412e-818d-d9bff3e9b8ed&projectId=a647230e-5c99-4b66-bf2f-966bf482667d","294C5AD37DFB4BDF93BB75FBAFE3F5C9-2025-05-16-15-43-33","","21840","","[""<span style=\""color: red; font-size: 24px\""> NOW RECORDING</span><p>Please say out loud all the images you saw in part 1 of the experiment, as many as you can remember. The images can be said in any order.</p>""]","","2","restaurant_scheme"
"","","","","","image-button-response","21","413360","0.0-19.0-0.0","294C5AD37DFB4BDF93BB75FBAFE3F5C9","294C5AD37DFB4BDF93BB75FBAFE3F5C9","4387b333-5c4f-412e-818d-d9bff3e9b8ed","a647230e-5c99-4b66-bf2f-966bf482667d","{""part"":""2"",""participantId"":""294C5AD37DFB4BDF93BB75FBAFE3F5C9"",""assignmentId"":""4387b333-5c4f-412e-818d-d9bff3e9b8ed"",""projectId"":""a647230e-5c99-4b66-bf2f-966bf482667d""}","https://test12345.live/?part=2&participantId=294C5AD37DFB4BDF93BB75FBAFE3F5C9&assignmentId=4387b333-5c4f-412e-818d-d9bff3e9b8ed&projectId=a647230e-5c99-4b66-bf2f-966bf482667d","294C5AD37DFB4BDF93BB75FBAFE3F5C9-2025-05-16-15-43-33","","null","","images/schematic_sequence/dinner_party_scheme/dinner_party_scheme_0.png","null","",""
"","","","","","html-audio-response","22","468290","0.0-20.0","294C5AD37DFB4BDF93BB75FBAFE3F5C9","294C5AD37DFB4BDF93BB75FBAFE3F5C9","4387b333-5c4f-412e-818d-d9bff3e9b8ed","a647230e-5c99-4b66-bf2f-966bf482667d","{""part"":""2"",""participantId"":""294C5AD37DFB4BDF93BB75FBAFE3F5C9"",""assignmentId"":""4387b333-5c4f-412e-818d-d9bff3e9b8ed"",""projectId"":""a647230e-5c99-4b66-bf2f-966bf482667d""}","https://test12345.live/?part=2&participantId=294C5AD37DFB4BDF93BB75FBAFE3F5C9&assignmentId=4387b333-5c4f-412e-818d-d9bff3e9b8ed&projectId=a647230e-5c99-4b66-bf2f-966bf482667d","294C5AD37DFB4BDF93BB75FBAFE3F5C9-2025-05-16-15-43-33","","22475","","[""<span style=\""color: red; font-size: 24px\""> NOW RECORDING</span><p>Please say out loud all the images you saw in part 1 of the experiment, as many as you can remember. The images can be said in any order.</p>""]","","1","dinner_party_scheme"
"","","","","","image-button-response","23","474298","0.0-21.0-0.0","294C5AD37DFB4BDF93BB75FBAFE3F5C9","294C5AD37DFB4BDF93BB75FBAFE3F5C9","4387b333-5c4f-412e-818d-d9bff3e9b8ed","a647230e-5c99-4b66-bf2f-966bf482667d","{""part"":""2"",""participantId"":""294C5AD37DFB4BDF93BB75FBAFE3F5C9"",""assignmentId"":""4387b333-5c4f-412e-818d-d9bff3e9b8ed"",""projectId"":""a647230e-5c99-4b66-bf2f-966bf482667d""}","https://test12345.live/?part=2&participantId=294C5AD37DFB4BDF93BB75FBAFE3F5C9&assignmentId=4387b333-5c4f-412e-818d-d9bff3e9b8ed&projectId=a647230e-5c99-4b66-bf2f-966bf482667d","294C5AD37DFB4BDF93BB75FBAFE3F5C9-2025-05-16-15-43-33","","null","","images/semantic_sequence/redecorating_semantic/redecorating_semantic_0.png","null","",""
"","","","","","html-audio-response","24","510022","0.0-22.0","294C5AD37DFB4BDF93BB75FBAFE3F5C9","294C5AD37DFB4BDF93BB75FBAFE3F5C9","4387b333-5c4f-412e-818d-d9bff3e9b8ed","a647230e-5c99-4b66-bf2f-966bf482667d","{""part"":""2"",""participantId"":""294C5AD37DFB4BDF93BB75FBAFE3F5C9"",""assignmentId"":""4387b333-5c4f-412e-818d-d9bff3e9b8ed"",""projectId"":""a647230e-5c99-4b66-bf2f-966bf482667d""}","https://test12345.live/?part=2&participantId=294C5AD37DFB4BDF93BB75FBAFE3F5C9&assignmentId=4387b333-5c4f-412e-818d-d9bff3e9b8ed&projectId=a647230e-5c99-4b66-bf2f-966bf482667d","294C5AD37DFB4BDF93BB75FBAFE3F5C9-2025-05-16-15-43-33","","18070","","[""<span style=\""color: red; font-size: 24px\""> NOW RECORDING</span><p>Please say out loud all the images you saw in part 1 of the experiment, as many as you can remember. The images can be said in any order.</p>""]","","2","redecorating_semantic"
"","","","","","image-button-response","25","516034","0.0-23.0-0.0","294C5AD37DFB4BDF93BB75FBAFE3F5C9","294C5AD37DFB4BDF93BB75FBAFE3F5C9","4387b333-5c4f-412e-818d-d9bff3e9b8ed","a647230e-5c99-4b66-bf2f-966bf482667d","{""part"":""2"",""participantId"":""294C5AD37DFB4BDF93BB75FBAFE3F5C9"",""assignmentId"":""4387b333-5c4f-412e-818d-d9bff3e9b8ed"",""projectId"":""a647230e-5c99-4b66-bf2f-966bf482667d""}","https://test12345.live/?part=2&participantId=294C5AD37DFB4BDF93BB75FBAFE3F5C9&assignmentId=4387b333-5c4f-412e-818d-d9bff3e9b8ed&projectId=a647230e-5c99-4b66-bf2f-966bf482667d","294C5AD37DFB4BDF93BB75FBAFE3F5C9-2025-05-16-15-43-33","","null","","images/schematic_sequence/supermarket_scheme/supermarket_scheme_0.png","null","",""
"","","","","","html-audio-response","26","550052","0.0-24.0","294C5AD37DFB4BDF93BB75FBAFE3F5C9","294C5AD37DFB4BDF93BB75FBAFE3F5C9","4387b333-5c4f-412e-818d-d9bff3e9b8ed","a647230e-5c99-4b66-bf2f-966bf482667d","{""part"":""2"",""participantId"":""294C5AD37DFB4BDF93BB75FBAFE3F5C9"",""assignmentId"":""4387b333-5c4f-412e-818d-d9bff3e9b8ed"",""projectId"":""a647230e-5c99-4b66-bf2f-966bf482667d""}","https://test12345.live/?part=2&participantId=294C5AD37DFB4BDF93BB75FBAFE3F5C9&assignmentId=4387b333-5c4f-412e-818d-d9bff3e9b8ed&projectId=a647230e-5c99-4b66-bf2f-966bf482667d","294C5AD37DFB4BDF93BB75FBAFE3F5C9-2025-05-16-15-43-33","","16114","","[""<span style=\""color: red; font-size: 24px\""> NOW RECORDING</span><p>Please say out loud all the images you saw in part 1 of the experiment, as many as you can remember. The images can be said in any order.</p>""]","","2","supermarket_scheme"
"","","","","","image-button-response","27","556066","0.0-25.0-0.0","294C5AD37DFB4BDF93BB75FBAFE3F5C9","294C5AD37DFB4BDF93BB75FBAFE3F5C9","4387b333-5c4f-412e-818d-d9bff3e9b8ed","a647230e-5c99-4b66-bf2f-966bf482667d","{""part"":""2"",""participantId"":""294C5AD37DFB4BDF93BB75FBAFE3F5C9"",""assignmentId"":""4387b333-5c4f-412e-818d-d9bff3e9b8ed"",""projectId"":""a647230e-5c99-4b66-bf2f-966bf482667d""}","https://test12345.live/?part=2&participantId=294C5AD37DFB4BDF93BB75FBAFE3F5C9&assignmentId=4387b333-5c4f-412e-818d-d9bff3e9b8ed&projectId=a647230e-5c99-4b66-bf2f-966bf482667d","294C5AD37DFB4BDF93BB75FBAFE3F5C9-2025-05-16-15-43-33","","null","","images/semantic_sequence/creative_activities_semantic/creative_activities_semantic_0.png","null","",""
"","","","","","html-audio-response","28","583219","0.0-26.0","294C5AD37DFB4BDF93BB75FBAFE3F5C9","294C5AD37DFB4BDF93BB75FBAFE3F5C9","4387b333-5c4f-412e-818d-d9bff3e9b8ed","a647230e-5c99-4b66-bf2f-966bf482667d","{""part"":""2"",""participantId"":""294C5AD37DFB4BDF93BB75FBAFE3F5C9"",""assignmentId"":""4387b333-5c4f-412e-818d-d9bff3e9b8ed"",""projectId"":""a647230e-5c99-4b66-bf2f-966bf482667d""}","https://test12345.live/?part=2&participantId=294C5AD37DFB4BDF93BB75FBAFE3F5C9&assignmentId=4387b333-5c4f-412e-818d-d9bff3e9b8ed&projectId=a647230e-5c99-4b66-bf2f-966bf482667d","294C5AD37DFB4BDF93BB75FBAFE3F5C9-2025-05-16-15-43-33","","12919","","[""<span style=\""color: red; font-size: 24px\""> NOW RECORDING</span><p>Please say out loud all the images you saw in part 1 of the experiment, as many as you can remember. The images can be said in any order.</p>""]","","2","creative_activities_semantic"
"","","","","","image-button-response","29","589228","0.0-27.0-0.0","294C5AD37DFB4BDF93BB75FBAFE3F5C9","294C5AD37DFB4BDF93BB75FBAFE3F5C9","4387b333-5c4f-412e-818d-d9bff3e9b8ed","a647230e-5c99-4b66-bf2f-966bf482667d","{""part"":""2"",""participantId"":""294C5AD37DFB4BDF93BB75FBAFE3F5C9"",""assignmentId"":""4387b333-5c4f-412e-818d-d9bff3e9b8ed"",""projectId"":""a647230e-5c99-4b66-bf2f-966bf482667d""}","https://test12345.live/?part=2&participantId=294C5AD37DFB4BDF93BB75FBAFE3F5C9&assignmentId=4387b333-5c4f-412e-818d-d9bff3e9b8ed&projectId=a647230e-5c99-4b66-bf2f-966bf482667d","294C5AD37DFB4BDF93BB75FBAFE3F5C9-2025-05-16-15-43-33","","null","","images/semantic_sequence/kitchen_operations_semantic/kitchen_operations_semantic_0.png","null","",""
"","","","","","html-audio-response","30","607340","0.0-28.0","294C5AD37DFB4BDF93BB75FBAFE3F5C9","294C5AD37DFB4BDF93BB75FBAFE3F5C9","4387b333-5c4f-412e-818d-d9bff3e9b8ed","a647230e-5c99-4b66-bf2f-966bf482667d","{""part"":""2"",""participantId"":""294C5AD37DFB4BDF93BB75FBAFE3F5C9"",""assignmentId"":""4387b333-5c4f-412e-818d-d9bff3e9b8ed"",""projectId"":""a647230e-5c99-4b66-bf2f-966bf482667d""}","https://test12345.live/?part=2&participantId=294C5AD37DFB4BDF93BB75FBAFE3F5C9&assignmentId=4387b333-5c4f-412e-818d-d9bff3e9b8ed&projectId=a647230e-5c99-4b66-bf2f-966bf482667d","294C5AD37DFB4BDF93BB75FBAFE3F5C9-2025-05-16-15-43-33","","8260","","[""<span style=\""color: red; font-size: 24px\""> NOW RECORDING</span><p>Please say out loud all the images you saw in part 1 of the experiment, as many as you can remember. The images can be said in any order.</p>""]","","2","kitchen_operations_semantic"
"","","","","","image-button-response","31","613347","0.0-29.0-0.0","294C5AD37DFB4BDF93BB75FBAFE3F5C9","294C5AD37DFB4BDF93BB75FBAFE3F5C9","4387b333-5c4f-412e-818d-d9bff3e9b8ed","a647230e-5c99-4b66-bf2f-966bf482667d","{""part"":""2"",""participantId"":""294C5AD37DFB4BDF93BB75FBAFE3F5C9"",""assignmentId"":""4387b333-5c4f-412e-818d-d9bff3e9b8ed"",""projectId"":""a647230e-5c99-4b66-bf2f-966bf482667d""}","https://test12345.live/?part=2&participantId=294C5AD37DFB4BDF93BB75FBAFE3F5C9&assignmentId=4387b333-5c4f-412e-818d-d9bff3e9b8ed&projectId=a647230e-5c99-4b66-bf2f-966bf482667d","294C5AD37DFB4BDF93BB75FBAFE3F5C9-2025-05-16-15-43-33","","null","","images/semantic_sequence/self_care_activities_semantic/self_care_activities_semantic_0.png","null","",""
"","","","","","html-audio-response","32","658851","0.0-30.0","294C5AD37DFB4BDF93BB75FBAFE3F5C9","294C5AD37DFB4BDF93BB75FBAFE3F5C9","4387b333-5c4f-412e-818d-d9bff3e9b8ed","a647230e-5c99-4b66-bf2f-966bf482667d","{""part"":""2"",""participantId"":""294C5AD37DFB4BDF93BB75FBAFE3F5C9"",""assignmentId"":""4387b333-5c4f-412e-818d-d9bff3e9b8ed"",""projectId"":""a647230e-5c99-4b66-bf2f-966bf482667d""}","https://test12345.live/?part=2&participantId=294C5AD37DFB4BDF93BB75FBAFE3F5C9&assignmentId=4387b333-5c4f-412e-818d-d9bff3e9b8ed&projectId=a647230e-5c99-4b66-bf2f-966bf482667d","294C5AD37DFB4BDF93BB75FBAFE3F5C9-2025-05-16-15-43-33","","21864","","[""<span style=\""color: red; font-size: 24px\""> NOW RECORDING</span><p>Please say out loud all the images you saw in part 1 of the experiment, as many as you can remember. The images can be said in any order.</p>""]","","2","self_care_activities_semantic"
"","","","","","image-button-response","33","664859","0.0-31.0-0.0","294C5AD37DFB4BDF93BB75FBAFE3F5C9","294C5AD37DFB4BDF93BB75FBAFE3F5C9","4387b333-5c4f-412e-818d-d9bff3e9b8ed","a647230e-5c99-4b66-bf2f-966bf482667d","{""part"":""2"",""participantId"":""294C5AD37DFB4BDF93BB75FBAFE3F5C9"",""assignmentId"":""4387b333-5c4f-412e-818d-d9bff3e9b8ed"",""projectId"":""a647230e-5c99-4b66-bf2f-966bf482667d""}","https://test12345.live/?part=2&participantId=294C5AD37DFB4BDF93BB75FBAFE3F5C9&assignmentId=4387b333-5c4f-412e-818d-d9bff3e9b8ed&projectId=a647230e-5c99-4b66-bf2f-966bf482667d","294C5AD37DFB4BDF93BB75FBAFE3F5C9-2025-05-16-15-43-33","","null","","images/semantic_sequence/physical_activity_semantic/physical_activity_semantic_0.png","null","",""
"","","","","","html-audio-response","34","695283","0.0-32.0","294C5AD37DFB4BDF93BB75FBAFE3F5C9","294C5AD37DFB4BDF93BB75FBAFE3F5C9","4387b333-5c4f-412e-818d-d9bff3e9b8ed","a647230e-5c99-4b66-bf2f-966bf482667d","{""part"":""2"",""participantId"":""294C5AD37DFB4BDF93BB75FBAFE3F5C9"",""assignmentId"":""4387b333-5c4f-412e-818d-d9bff3e9b8ed"",""projectId"":""a647230e-5c99-4b66-bf2f-966bf482667d""}","https://test12345.live/?part=2&participantId=294C5AD37DFB4BDF93BB75FBAFE3F5C9&assignmentId=4387b333-5c4f-412e-818d-d9bff3e9b8ed&projectId=a647230e-5c99-4b66-bf2f-966bf482667d","294C5AD37DFB4BDF93BB75FBAFE3F5C9-2025-05-16-15-43-33","","15090","","[""<span style=\""color: red; font-size: 24px\""> NOW RECORDING</span><p>Please say out loud all the images you saw in part 1 of the experiment, as many as you can remember. The images can be said in any order.</p>""]","","2","physical_activity_semantic"
"","","","","","image-button-response","35","701293","0.0-33.0-0.0","294C5AD37DFB4BDF93BB75FBAFE3F5C9","294C5AD37DFB4BDF93BB75FBAFE3F5C9","4387b333-5c4f-412e-818d-d9bff3e9b8ed","a647230e-5c99-4b66-bf2f-966bf482667d","{""part"":""2"",""participantId"":""294C5AD37DFB4BDF93BB75FBAFE3F5C9"",""assignmentId"":""4387b333-5c4f-412e-818d-d9bff3e9b8ed"",""projectId"":""a647230e-5c99-4b66-bf2f-966bf482667d""}","https://test12345.live/?part=2&participantId=294C5AD37DFB4BDF93BB75FBAFE3F5C9&assignmentId=4387b333-5c4f-412e-818d-d9bff3e9b8ed&projectId=a647230e-5c99-4b66-bf2f-966bf482667d","294C5AD37DFB4BDF93BB75FBAFE3F5C9-2025-05-16-15-43-33","","null","","images/causal_sequence/the_performance_causal/the_performance_causal_0.png","null","",""
"","","","","","html-audio-response","36","724237","0.0-34.0","294C5AD37DFB4BDF93BB75FBAFE3F5C9","294C5AD37DFB4BDF93BB75FBAFE3F5C9","4387b333-5c4f-412e-818d-d9bff3e9b8ed","a647230e-5c99-4b66-bf2f-966bf482667d","{""part"":""2"",""participantId"":""294C5AD37DFB4BDF93BB75FBAFE3F5C9"",""assignmentId"":""4387b333-5c4f-412e-818d-d9bff3e9b8ed"",""projectId"":""a647230e-5c99-4b66-bf2f-966bf482667d""}","https://test12345.live/?part=2&participantId=294C5AD37DFB4BDF93BB75FBAFE3F5C9&assignmentId=4387b333-5c4f-412e-818d-d9bff3e9b8ed&projectId=a647230e-5c99-4b66-bf2f-966bf482667d","294C5AD37DFB4BDF93BB75FBAFE3F5C9-2025-05-16-15-43-33","","10415","","[""<span style=\""color: red; font-size: 24px\""> NOW RECORDING</span><p>Please say out loud all the images you saw in part 1 of the experiment, as many as you can remember. The images can be said in any order.</p>""]","","2","the_performance_causal"
"","","","","","image-button-response","37","730247","0.0-35.0-0.0","294C5AD37DFB4BDF93BB75FBAFE3F5C9","294C5AD37DFB4BDF93BB75FBAFE3F5C9","4387b333-5c4f-412e-818d-d9bff3e9b8ed","a647230e-5c99-4b66-bf2f-966bf482667d","{""part"":""2"",""participantId"":""294C5AD37DFB4BDF93BB75FBAFE3F5C9"",""assignmentId"":""4387b333-5c4f-412e-818d-d9bff3e9b8ed"",""projectId"":""a647230e-5c99-4b66-bf2f-966bf482667d""}","https://test12345.live/?part=2&participantId=294C5AD37DFB4BDF93BB75FBAFE3F5C9&assignmentId=4387b333-5c4f-412e-818d-d9bff3e9b8ed&projectId=a647230e-5c99-4b66-bf2f-966bf482667d","294C5AD37DFB4BDF93BB75FBAFE3F5C9-2025-05-16-15-43-33","","null","","images/semantic_sequence/cat_care_semantic/cat_care_semantic_0.png","null","",""
"","","","","","html-audio-response","38","748360","0.0-36.0","294C5AD37DFB4BDF93BB75FBAFE3F5C9","294C5AD37DFB4BDF93BB75FBAFE3F5C9","4387b333-5c4f-412e-818d-d9bff3e9b8ed","a647230e-5c99-4b66-bf2f-966bf482667d","{""part"":""2"",""participantId"":""294C5AD37DFB4BDF93BB75FBAFE3F5C9"",""assignmentId"":""4387b333-5c4f-412e-818d-d9bff3e9b8ed"",""projectId"":""a647230e-5c99-4b66-bf2f-966bf482667d""}","https://test12345.live/?part=2&participantId=294C5AD37DFB4BDF93BB75FBAFE3F5C9&assignmentId=4387b333-5c4f-412e-818d-d9bff3e9b8ed&projectId=a647230e-5c99-4b66-bf2f-966bf482667d","294C5AD37DFB4BDF93BB75FBAFE3F5C9-2025-05-16-15-43-33","","7674","","[""<span style=\""color: red; font-size: 24px\""> NOW RECORDING</span><p>Please say out loud all the images you saw in part 1 of the experiment, as many as you can remember. The images can be said in any order.</p>""]","","2","cat_care_semantic"
"","","","","","image-button-response","39","754369","0.0-37.0-0.0","294C5AD37DFB4BDF93BB75FBAFE3F5C9","294C5AD37DFB4BDF93BB75FBAFE3F5C9","4387b333-5c4f-412e-818d-d9bff3e9b8ed","a647230e-5c99-4b66-bf2f-966bf482667d","{""part"":""2"",""participantId"":""294C5AD37DFB4BDF93BB75FBAFE3F5C9"",""assignmentId"":""4387b333-5c4f-412e-818d-d9bff3e9b8ed"",""projectId"":""a647230e-5c99-4b66-bf2f-966bf482667d""}","https://test12345.live/?part=2&participantId=294C5AD37DFB4BDF93BB75FBAFE3F5C9&assignmentId=4387b333-5c4f-412e-818d-d9bff3e9b8ed&projectId=a647230e-5c99-4b66-bf2f-966bf482667d","294C5AD37DFB4BDF93BB75FBAFE3F5C9-2025-05-16-15-43-33","","null","","images/schematic_sequence/flight_scheme/flight_scheme_0.png","null","",""
"","","","","","html-audio-response","40","873373","0.0-38.0","294C5AD37DFB4BDF93BB75FBAFE3F5C9","294C5AD37DFB4BDF93BB75FBAFE3F5C9","4387b333-5c4f-412e-818d-d9bff3e9b8ed","a647230e-5c99-4b66-bf2f-966bf482667d","{""part"":""2"",""participantId"":""294C5AD37DFB4BDF93BB75FBAFE3F5C9"",""assignmentId"":""4387b333-5c4f-412e-818d-d9bff3e9b8ed"",""projectId"":""a647230e-5c99-4b66-bf2f-966bf482667d""}","https://test12345.live/?part=2&participantId=294C5AD37DFB4BDF93BB75FBAFE3F5C9&assignmentId=4387b333-5c4f-412e-818d-d9bff3e9b8ed&projectId=a647230e-5c99-4b66-bf2f-966bf482667d","294C5AD37DFB4BDF93BB75FBAFE3F5C9-2025-05-16-15-43-33","","11749","","[""<span style=\""color: red; font-size: 24px\""> NOW RECORDING</span><p>Please say out loud all the images you saw in part 1 of the experiment, as many as you can remember. The images can be said in any order.</p>""]","","2","flight_scheme"
"","","","","","image-button-response","41","879379","0.0-39.0-0.0","294C5AD37DFB4BDF93BB75FBAFE3F5C9","294C5AD37DFB4BDF93BB75FBAFE3F5C9","4387b333-5c4f-412e-818d-d9bff3e9b8ed","a647230e-5c99-4b66-bf2f-966bf482667d","{""part"":""2"",""participantId"":""294C5AD37DFB4BDF93BB75FBAFE3F5C9"",""assignmentId"":""4387b333-5c4f-412e-818d-d9bff3e9b8ed"",""projectId"":""a647230e-5c99-4b66-bf2f-966bf482667d""}","https://test12345.live/?part=2&participantId=294C5AD37DFB4BDF93BB75FBAFE3F5C9&assignmentId=4387b333-5c4f-412e-818d-d9bff3e9b8ed&projectId=a647230e-5c99-4b66-bf2f-966bf482667d","294C5AD37DFB4BDF93BB75FBAFE3F5C9-2025-05-16-15-43-33","","null","","images/schematic_sequence/hotel_scheme/hotel_scheme_0.png","null","",""
"","","","","","html-audio-response","42","898955","0.0-40.0","294C5AD37DFB4BDF93BB75FBAFE3F5C9","294C5AD37DFB4BDF93BB75FBAFE3F5C9","4387b333-5c4f-412e-818d-d9bff3e9b8ed","a647230e-5c99-4b66-bf2f-966bf482667d","{""part"":""2"",""participantId"":""294C5AD37DFB4BDF93BB75FBAFE3F5C9"",""assignmentId"":""4387b333-5c4f-412e-818d-d9bff3e9b8ed"",""projectId"":""a647230e-5c99-4b66-bf2f-966bf482667d""}","https://test12345.live/?part=2&participantId=294C5AD37DFB4BDF93BB75FBAFE3F5C9&assignmentId=4387b333-5c4f-412e-818d-d9bff3e9b8ed&projectId=a647230e-5c99-4b66-bf2f-966bf482667d","294C5AD37DFB4BDF93BB75FBAFE3F5C9-2025-05-16-15-43-33","","8846","","[""<span style=\""color: red; font-size: 24px\""> NOW RECORDING</span><p>Please say out loud all the images you saw in part 1 of the experiment, as many as you can remember. The images can be said in any order.</p>""]","","2","hotel_scheme"
"","","","","","image-button-response","43","904961","0.0-41.0-0.0","294C5AD37DFB4BDF93BB75FBAFE3F5C9","294C5AD37DFB4BDF93BB75FBAFE3F5C9","4387b333-5c4f-412e-818d-d9bff3e9b8ed","a647230e-5c99-4b66-bf2f-966bf482667d","{""part"":""2"",""participantId"":""294C5AD37DFB4BDF93BB75FBAFE3F5C9"",""assignmentId"":""4387b333-5c4f-412e-818d-d9bff3e9b8ed"",""projectId"":""a647230e-5c99-4b66-bf2f-966bf482667d""}","https://test12345.live/?part=2&participantId=294C5AD37DFB4BDF93BB75FBAFE3F5C9&assignmentId=4387b333-5c4f-412e-818d-d9bff3e9b8ed&projectId=a647230e-5c99-4b66-bf2f-966bf482667d","294C5AD37DFB4BDF93BB75FBAFE3F5C9-2025-05-16-15-43-33","","null","","images/causal_sequence/museum_causal/museum_causal_0.png","null","",""
"","","","","","html-audio-response","44","934665","0.0-42.0","294C5AD37DFB4BDF93BB75FBAFE3F5C9","294C5AD37DFB4BDF93BB75FBAFE3F5C9","4387b333-5c4f-412e-818d-d9bff3e9b8ed","a647230e-5c99-4b66-bf2f-966bf482667d","{""part"":""2"",""participantId"":""294C5AD37DFB4BDF93BB75FBAFE3F5C9"",""assignmentId"":""4387b333-5c4f-412e-818d-d9bff3e9b8ed"",""projectId"":""a647230e-5c99-4b66-bf2f-966bf482667d""}","https://test12345.live/?part=2&participantId=294C5AD37DFB4BDF93BB75FBAFE3F5C9&assignmentId=4387b333-5c4f-412e-818d-d9bff3e9b8ed&projectId=a647230e-5c99-4b66-bf2f-966bf482667d","294C5AD37DFB4BDF93BB75FBAFE3F5C9-2025-05-16-15-43-33","","13491","","[""<span style=\""color: red; font-size: 24px\""> NOW RECORDING</span><p>Please say out loud all the images you saw in part 1 of the experiment, as many as you can remember. The images can be said in any order.</p>""]","","9","museum_causal"
"","","","","","image-button-response","45","940670","0.0-43.0-0.0","294C5AD37DFB4BDF93BB75FBAFE3F5C9","294C5AD37DFB4BDF93BB75FBAFE3F5C9","4387b333-5c4f-412e-818d-d9bff3e9b8ed","a647230e-5c99-4b66-bf2f-966bf482667d","{""part"":""2"",""participantId"":""294C5AD37DFB4BDF93BB75FBAFE3F5C9"",""assignmentId"":""4387b333-5c4f-412e-818d-d9bff3e9b8ed"",""projectId"":""a647230e-5c99-4b66-bf2f-966bf482667d""}","https://test12345.live/?part=2&participantId=294C5AD37DFB4BDF93BB75FBAFE3F5C9&assignmentId=4387b333-5c4f-412e-818d-d9bff3e9b8ed&projectId=a647230e-5c99-4b66-bf2f-966bf482667d","294C5AD37DFB4BDF93BB75FBAFE3F5C9-2025-05-16-15-43-33","","null","","images/causal_sequence/coin_causal/coin_causal_0.png","null","",""
"","","","","","html-audio-response","46","955424","0.0-44.0","294C5AD37DFB4BDF93BB75FBAFE3F5C9","294C5AD37DFB4BDF93BB75FBAFE3F5C9","4387b333-5c4f-412e-818d-d9bff3e9b8ed","a647230e-5c99-4b66-bf2f-966bf482667d","{""part"":""2"",""participantId"":""294C5AD37DFB4BDF93BB75FBAFE3F5C9"",""assignmentId"":""4387b333-5c4f-412e-818d-d9bff3e9b8ed"",""projectId"":""a647230e-5c99-4b66-bf2f-966bf482667d""}","https://test12345.live/?part=2&participantId=294C5AD37DFB4BDF93BB75FBAFE3F5C9&assignmentId=4387b333-5c4f-412e-818d-d9bff3e9b8ed&projectId=a647230e-5c99-4b66-bf2f-966bf482667d","294C5AD37DFB4BDF93BB75FBAFE3F5C9-2025-05-16-15-43-33","","6542","","[""<span style=\""color: red; font-size: 24px\""> NOW RECORDING</span><p>Please say out loud all the images you saw in part 1 of the experiment, as many as you can remember. The images can be said in any order.</p>""]","","2","coin_causal"
"","","","","","image-button-response","47","961430","0.0-45.0-0.0","294C5AD37DFB4BDF93BB75FBAFE3F5C9","294C5AD37DFB4BDF93BB75FBAFE3F5C9","4387b333-5c4f-412e-818d-d9bff3e9b8ed","a647230e-5c99-4b66-bf2f-966bf482667d","{""part"":""2"",""participantId"":""294C5AD37DFB4BDF93BB75FBAFE3F5C9"",""assignmentId"":""4387b333-5c4f-412e-818d-d9bff3e9b8ed"",""projectId"":""a647230e-5c99-4b66-bf2f-966bf482667d""}","https://test12345.live/?part=2&participantId=294C5AD37DFB4BDF93BB75FBAFE3F5C9&assignmentId=4387b333-5c4f-412e-818d-d9bff3e9b8ed&projectId=a647230e-5c99-4b66-bf2f-966bf482667d","294C5AD37DFB4BDF93BB75FBAFE3F5C9-2025-05-16-15-43-33","","null","","images/schematic_sequence/interview_scheme/interview_scheme_0.png","null","",""
"","","","","","html-audio-response","48","997025","0.0-46.0","294C5AD37DFB4BDF93BB75FBAFE3F5C9","294C5AD37DFB4BDF93BB75FBAFE3F5C9","4387b333-5c4f-412e-818d-d9bff3e9b8ed","a647230e-5c99-4b66-bf2f-966bf482667d","{""part"":""2"",""participantId"":""294C5AD37DFB4BDF93BB75FBAFE3F5C9"",""assignmentId"":""4387b333-5c4f-412e-818d-d9bff3e9b8ed"",""projectId"":""a647230e-5c99-4b66-bf2f-966bf482667d""}","https://test12345.live/?part=2&participantId=294C5AD37DFB4BDF93BB75FBAFE3F5C9&assignmentId=4387b333-5c4f-412e-818d-d9bff3e9b8ed&projectId=a647230e-5c99-4b66-bf2f-966bf482667d","294C5AD37DFB4BDF93BB75FBAFE3F5C9-2025-05-16-15-43-33","","3662","","[""<span style=\""color: red; font-size: 24px\""> NOW RECORDING</span><p>Please say out loud all the images you saw in part 1 of the experiment, as many as you can remember. The images can be said in any order.</p>""]","","3","interview_scheme"
"","","","","","image-button-response","49","1003033","0.0-47.0-0.0","294C5AD37DFB4BDF93BB75FBAFE3F5C9","294C5AD37DFB4BDF93BB75FBAFE3F5C9","4387b333-5c4f-412e-818d-d9bff3e9b8ed","a647230e-5c99-4b66-bf2f-966bf482667d","{""part"":""2"",""participantId"":""294C5AD37DFB4BDF93BB75FBAFE3F5C9"",""assignmentId"":""4387b333-5c4f-412e-818d-d9bff3e9b8ed"",""projectId"":""a647230e-5c99-4b66-bf2f-966bf482667d""}","https://test12345.live/?part=2&participantId=294C5AD37DFB4BDF93BB75FBAFE3F5C9&assignmentId=4387b333-5c4f-412e-818d-d9bff3e9b8ed&projectId=a647230e-5c99-4b66-bf2f-966bf482667d","294C5AD37DFB4BDF93BB75FBAFE3F5C9-2025-05-16-15-43-33","","null","","images/semantic_sequence/housework_semantic/housework_semantic_0.png","null","",""
"","","","","","html-audio-response","50","1032758","0.0-48.0","294C5AD37DFB4BDF93BB75FBAFE3F5C9","294C5AD37DFB4BDF93BB75FBAFE3F5C9","4387b333-5c4f-412e-818d-d9bff3e9b8ed","a647230e-5c99-4b66-bf2f-966bf482667d","{""part"":""2"",""participantId"":""294C5AD37DFB4BDF93BB75FBAFE3F5C9"",""assignmentId"":""4387b333-5c4f-412e-818d-d9bff3e9b8ed"",""projectId"":""a647230e-5c99-4b66-bf2f-966bf482667d""}","https://test12345.live/?part=2&participantId=294C5AD37DFB4BDF93BB75FBAFE3F5C9&assignmentId=4387b333-5c4f-412e-818d-d9bff3e9b8ed&projectId=a647230e-5c99-4b66-bf2f-966bf482667d","294C5AD37DFB4BDF93BB75FBAFE3F5C9-2025-05-16-15-43-33","","4499","","[""<span style=\""color: red; font-size: 24px\""> NOW RECORDING</span><p>Please say out loud all the images you saw in part 1 of the experiment, as many as you can remember. The images can be said in any order.</p>""]","","2","housework_semantic"
"","","","","","image-button-response","51","1038768","0.0-49.0-0.0","294C5AD37DFB4BDF93BB75FBAFE3F5C9","294C5AD37DFB4BDF93BB75FBAFE3F5C9","4387b333-5c4f-412e-818d-d9bff3e9b8ed","a647230e-5c99-4b66-bf2f-966bf482667d","{""part"":""2"",""participantId"":""294C5AD37DFB4BDF93BB75FBAFE3F5C9"",""assignmentId"":""4387b333-5c4f-412e-818d-d9bff3e9b8ed"",""projectId"":""a647230e-5c99-4b66-bf2f-966bf482667d""}","https://test12345.live/?part=2&participantId=294C5AD37DFB4BDF93BB75FBAFE3F5C9&assignmentId=4387b333-5c4f-412e-818d-d9bff3e9b8ed&projectId=a647230e-5c99-4b66-bf2f-966bf482667d","294C5AD37DFB4BDF93BB75FBAFE3F5C9-2025-05-16-15-43-33","","null","","images/causal_sequence/package_causal/package_causal_0.png","null","",""
"","","","","","html-audio-response","52","1080286","0.0-50.0","294C5AD37DFB4BDF93BB75FBAFE3F5C9","294C5AD37DFB4BDF93BB75FBAFE3F5C9","4387b333-5c4f-412e-818d-d9bff3e9b8ed","a647230e-5c99-4b66-bf2f-966bf482667d","{""part"":""2"",""participantId"":""294C5AD37DFB4BDF93BB75FBAFE3F5C9"",""assignmentId"":""4387b333-5c4f-412e-818d-d9bff3e9b8ed"",""projectId"":""a647230e-5c99-4b66-bf2f-966bf482667d""}","https://test12345.live/?part=2&participantId=294C5AD37DFB4BDF93BB75FBAFE3F5C9&assignmentId=4387b333-5c4f-412e-818d-d9bff3e9b8ed&projectId=a647230e-5c99-4b66-bf2f-966bf482667d","294C5AD37DFB4BDF93BB75FBAFE3F5C9-2025-05-16-15-43-33","","12691","","[""<span style=\""color: red; font-size: 24px\""> NOW RECORDING</span><p>Please say out loud all the images you saw in part 1 of the experiment, as many as you can remember. The images can be said in any order.</p>""]","","3","package_causal"
"","","","","","image-button-response","53","1086294","0.0-51.0-0.0","294C5AD37DFB4BDF93BB75FBAFE3F5C9","294C5AD37DFB4BDF93BB75FBAFE3F5C9","4387b333-5c4f-412e-818d-d9bff3e9b8ed","a647230e-5c99-4b66-bf2f-966bf482667d","{""part"":""2"",""participantId"":""294C5AD37DFB4BDF93BB75FBAFE3F5C9"",""assignmentId"":""4387b333-5c4f-412e-818d-d9bff3e9b8ed"",""projectId"":""a647230e-5c99-4b66-bf2f-966bf482667d""}","https://test12345.live/?part=2&participantId=294C5AD37DFB4BDF93BB75FBAFE3F5C9&assignmentId=4387b333-5c4f-412e-818d-d9bff3e9b8ed&projectId=a647230e-5c99-4b66-bf2f-966bf482667d","294C5AD37DFB4BDF93BB75FBAFE3F5C9-2025-05-16-15-43-33","","null","","images/semantic_sequence/exploring_nature_semantic/exploring_nature_semantic_0.png","null","",""
"","","","","","html-audio-response","54","1099490","0.0-52.0","294C5AD37DFB4BDF93BB75FBAFE3F5C9","294C5AD37DFB4BDF93BB75FBAFE3F5C9","4387b333-5c4f-412e-818d-d9bff3e9b8ed","a647230e-5c99-4b66-bf2f-966bf482667d","{""part"":""2"",""participantId"":""294C5AD37DFB4BDF93BB75FBAFE3F5C9"",""assignmentId"":""4387b333-5c4f-412e-818d-d9bff3e9b8ed"",""projectId"":""a647230e-5c99-4b66-bf2f-966bf482667d""}","https://test12345.live/?part=2&participantId=294C5AD37DFB4BDF93BB75FBAFE3F5C9&assignmentId=4387b333-5c4f-412e-818d-d9bff3e9b8ed&projectId=a647230e-5c99-4b66-bf2f-966bf482667d","294C5AD37DFB4BDF93BB75FBAFE3F5C9-2025-05-16-15-43-33","","5855","","[""<span style=\""color: red; font-size: 24px\""> NOW RECORDING</span><p>Please say out loud all the images you saw in part 1 of the experiment, as many as you can remember. The images can be said in any order.</p>""]","","2","exploring_nature_semantic"
"","","","","","image-button-response","55","1105500","0.0-53.0-0.0","294C5AD37DFB4BDF93BB75FBAFE3F5C9","294C5AD37DFB4BDF93BB75FBAFE3F5C9","4387b333-5c4f-412e-818d-d9bff3e9b8ed","a647230e-5c99-4b66-bf2f-966bf482667d","{""part"":""2"",""participantId"":""294C5AD37DFB4BDF93BB75FBAFE3F5C9"",""assignmentId"":""4387b333-5c4f-412e-818d-d9bff3e9b8ed"",""projectId"":""a647230e-5c99-4b66-bf2f-966bf482667d""}","https://test12345.live/?part=2&participantId=294C5AD37DFB4BDF93BB75FBAFE3F5C9&assignmentId=4387b333-5c4f-412e-818d-d9bff3e9b8ed&projectId=a647230e-5c99-4b66-bf2f-966bf482667d","294C5AD37DFB4BDF93BB75FBAFE3F5C9-2025-05-16-15-43-33","","null","","images/causal_sequence/dog_causal/dog_causal_0.png","null","",""
"","","","","","html-audio-response","56","1131439","0.0-54.0","294C5AD37DFB4BDF93BB75FBAFE3F5C9","294C5AD37DFB4BDF93BB75FBAFE3F5C9","4387b333-5c4f-412e-818d-d9bff3e9b8ed","a647230e-5c99-4b66-bf2f-966bf482667d","{""part"":""2"",""participantId"":""294C5AD37DFB4BDF93BB75FBAFE3F5C9"",""assignmentId"":""4387b333-5c4f-412e-818d-d9bff3e9b8ed"",""projectId"":""a647230e-5c99-4b66-bf2f-966bf482667d""}","https://test12345.live/?part=2&participantId=294C5AD37DFB4BDF93BB75FBAFE3F5C9&assignmentId=4387b333-5c4f-412e-818d-d9bff3e9b8ed&projectId=a647230e-5c99-4b66-bf2f-966bf482667d","294C5AD37DFB4BDF93BB75FBAFE3F5C9-2025-05-16-15-43-33","","12312","","[""<span style=\""color: red; font-size: 24px\""> NOW RECORDING</span><p>Please say out loud all the images you saw in part 1 of the experiment, as many as you can remember. The images can be said in any order.</p>""]","","2","dog_causal"
"","","","","","image-button-response","57","1137450","0.0-55.0-0.0","294C5AD37DFB4BDF93BB75FBAFE3F5C9","294C5AD37DFB4BDF93BB75FBAFE3F5C9","4387b333-5c4f-412e-818d-d9bff3e9b8ed","a647230e-5c99-4b66-bf2f-966bf482667d","{""part"":""2"",""participantId"":""294C5AD37DFB4BDF93BB75FBAFE3F5C9"",""assignmentId"":""4387b333-5c4f-412e-818d-d9bff3e9b8ed"",""projectId"":""a647230e-5c99-4b66-bf2f-966bf482667d""}","https://test12345.live/?part=2&participantId=294C5AD37DFB4BDF93BB75FBAFE3F5C9&assignmentId=4387b333-5c4f-412e-818d-d9bff3e9b8ed&projectId=a647230e-5c99-4b66-bf2f-966bf482667d","294C5AD37DFB4BDF93BB75FBAFE3F5C9-2025-05-16-15-43-33","","null","","images/semantic_sequence/market_semantic/market_semantic_0.png","null","",""
"","","","","","html-audio-response","58","1156905","0.0-56.0","294C5AD37DFB4BDF93BB75FBAFE3F5C9","294C5AD37DFB4BDF93BB75FBAFE3F5C9","4387b333-5c4f-412e-818d-d9bff3e9b8ed","a647230e-5c99-4b66-bf2f-966bf482667d","{""part"":""2"",""participantId"":""294C5AD37DFB4BDF93BB75FBAFE3F5C9"",""assignmentId"":""4387b333-5c4f-412e-818d-d9bff3e9b8ed"",""projectId"":""a647230e-5c99-4b66-bf2f-966bf482667d""}","https://test12345.live/?part=2&participantId=294C5AD37DFB4BDF93BB75FBAFE3F5C9&assignmentId=4387b333-5c4f-412e-818d-d9bff3e9b8ed&projectId=a647230e-5c99-4b66-bf2f-966bf482667d","294C5AD37DFB4BDF93BB75FBAFE3F5C9-2025-05-16-15-43-33","","13224","","[""<span style=\""color: red; font-size: 24px\""> NOW RECORDING</span><p>Please say out loud all the images you saw in part 1 of the experiment, as many as you can remember. The images can be said in any order.</p>""]","","2","market_semantic"
"","","","","","survey-text","59","1164012","0.0-57.0","294C5AD37DFB4BDF93BB75FBAFE3F5C9","294C5AD37DFB4BDF93BB75FBAFE3F5C9","4387b333-5c4f-412e-818d-d9bff3e9b8ed","a647230e-5c99-4b66-bf2f-966bf482667d","{""part"":""2"",""participantId"":""294C5AD37DFB4BDF93BB75FBAFE3F5C9"",""assignmentId"":""4387b333-5c4f-412e-818d-d9bff3e9b8ed"",""projectId"":""a647230e-5c99-4b66-bf2f-966bf482667d""}","https://test12345.live/?part=2&participantId=294C5AD37DFB4BDF93BB75FBAFE3F5C9&assignmentId=4387b333-5c4f-412e-818d-d9bff3e9b8ed&projectId=a647230e-5c99-4b66-bf2f-966bf482667d","294C5AD37DFB4BDF93BB75FBAFE3F5C9-2025-05-16-15-43-33","","7100","","","{""Q0"":""female"",""Q1"":""33""}","",""
"","","","","","instructions","60","1168200","0.0-58.0","294C5AD37DFB4BDF93BB75FBAFE3F5C9","294C5AD37DFB4BDF93BB75FBAFE3F5C9","4387b333-5c4f-412e-818d-d9bff3e9b8ed","a647230e-5c99-4b66-bf2f-966bf482667d","{""part"":""2"",""participantId"":""294C5AD37DFB4BDF93BB75FBAFE3F5C9"",""assignmentId"":""4387b333-5c4f-412e-818d-d9bff3e9b8ed"",""projectId"":""a647230e-5c99-4b66-bf2f-966bf482667d""}","https://test12345.live/?part=2&participantId=294C5AD37DFB4BDF93BB75FBAFE3F5C9&assignmentId=4387b333-5c4f-412e-818d-d9bff3e9b8ed&projectId=a647230e-5c99-4b66-bf2f-966bf482667d","294C5AD37DFB4BDF93BB75FBAFE3F5C9-2025-05-16-15-43-33","[{""page_index"":0,""viewing_time"":4186}]","4187","","","","",""
"","","","","","survey-text","61","1171810","0.0-59.0","294C5AD37DFB4BDF93BB75FBAFE3F5C9","294C5AD37DFB4BDF93BB75FBAFE3F5C9","4387b333-5c4f-412e-818d-d9bff3e9b8ed","a647230e-5c99-4b66-bf2f-966bf482667d","{""part"":""2"",""participantId"":""294C5AD37DFB4BDF93BB75FBAFE3F5C9"",""assignmentId"":""4387b333-5c4f-412e-818d-d9bff3e9b8ed"",""projectId"":""a647230e-5c99-4b66-bf2f-966bf482667d""}","https://test12345.live/?part=2&participantId=294C5AD37DFB4BDF93BB75FBAFE3F5C9&assignmentId=4387b333-5c4f-412e-818d-d9bff3e9b8ed&projectId=a647230e-5c99-4b66-bf2f-966bf482667d","294C5AD37DFB4BDF93BB75FBAFE3F5C9-2025-05-16-15-43-33","","3607","","","{""Q0"":""AJFHBG896""}","",""
