"success","timeout","failed_images","failed_audio","failed_video","trial_type","trial_index","time_elapsed","internal_node_id","subject","subject_id","study_id","session_id","urlvar","current_url","audio_id","view_history","rt","device_id","stimulus","response","estimated_stimulus_onset","seq_name"
"true","false","[]","[]","[]","preload","0","10920","0.0-0.0","2F8079230AA54FFAA59EFD5AB6343713","2F8079230AA54FFAA59EFD5AB6343713","0198c329-83f5-7ade-8507-1a25e4dabd10","0198c320-653a-770c-93e4-41e10e7faa5f","{""num_scrambled_semantic"":""8"",""num_scrambled_causal"":""4"",""num_scrambled_schematic"":""4"",""participantId"":""2F8079230AA54FFAA59EFD5AB6343713"",""assignmentId"":""0198c329-83f5-7ade-8507-1a25e4dabd10"",""projectId"":""0198c320-653a-770c-93e4-41e10e7faa5f""}","https://test12345.live/?num_scrambled_semantic=8&num_scrambled_causal=4&num_scrambled_schematic=4&participantId=2F8079230AA54FFAA59EFD5AB6343713&assignmentId=0198c329-83f5-7ade-8507-1a25e4dabd10&projectId=0198c320-653a-770c-93e4-41e10e7faa5f","2F8079230AA54FFAA59EFD5AB6343713-2025-08-19-16-45-00","","","","","","",""
"","","","","","instructions","1","694952","0.0-1.0","2F8079230AA54FFAA59EFD5AB6343713","2F8079230AA54FFAA59EFD5AB6343713","0198c329-83f5-7ade-8507-1a25e4dabd10","0198c320-653a-770c-93e4-41e10e7faa5f","{""num_scrambled_semantic"":""8"",""num_scrambled_causal"":""4"",""num_scrambled_schematic"":""4"",""participantId"":""2F8079230AA54FFAA59EFD5AB6343713"",""assignmentId"":""0198c329-83f5-7ade-8507-1a25e4dabd10"",""projectId"":""0198c320-653a-770c-93e4-41e10e7faa5f""}","https://test12345.live/?num_scrambled_semantic=8&num_scrambled_causal=4&num_scrambled_schematic=4&participantId=2F8079230AA54FFAA59EFD5AB6343713&assignmentId=0198c329-83f5-7ade-8507-1a25e4dabd10&projectId=0198c320-653a-770c-93e4-41e10e7faa5f","2F8079230AA54FFAA59EFD5AB6343713-2025-08-19-16-45-00","[{""page_index"":0,""viewing_time"":684025}]","684030","","","","",""
"","","","","","instructions","2","700401","0.0-2.0","2F8079230AA54FFAA59EFD5AB6343713","2F8079230AA54FFAA59EFD5AB6343713","0198c329-83f5-7ade-8507-1a25e4dabd10","0198c320-653a-770c-93e4-41e10e7faa5f","{""num_scrambled_semantic"":""8"",""num_scrambled_causal"":""4"",""num_scrambled_schematic"":""4"",""participantId"":""2F8079230AA54FFAA59EFD5AB6343713"",""assignmentId"":""0198c329-83f5-7ade-8507-1a25e4dabd10"",""projectId"":""0198c320-653a-770c-93e4-41e10e7faa5f""}","https://test12345.live/?num_scrambled_semantic=8&num_scrambled_causal=4&num_scrambled_schematic=4&participantId=2F8079230AA54FFAA59EFD5AB6343713&assignmentId=0198c329-83f5-7ade-8507-1a25e4dabd10&projectId=0198c320-653a-770c-93e4-41e10e7faa5f","2F8079230AA54FFAA59EFD5AB6343713-2025-08-19-16-45-00","[{""page_index"":0,""viewing_time"":5446}]","5447","","","","",""
"true","","","","","fullscreen","3","704033","0.0-3.0","2F8079230AA54FFAA59EFD5AB6343713","2F8079230AA54FFAA59EFD5AB6343713","0198c329-83f5-7ade-8507-1a25e4dabd10","0198c320-653a-770c-93e4-41e10e7faa5f","{""num_scrambled_semantic"":""8"",""num_scrambled_causal"":""4"",""num_scrambled_schematic"":""4"",""participantId"":""2F8079230AA54FFAA59EFD5AB6343713"",""assignmentId"":""0198c329-83f5-7ade-8507-1a25e4dabd10"",""projectId"":""0198c320-653a-770c-93e4-41e10e7faa5f""}","https://test12345.live/?num_scrambled_semantic=8&num_scrambled_causal=4&num_scrambled_schematic=4&participantId=2F8079230AA54FFAA59EFD5AB6343713&assignmentId=0198c329-83f5-7ade-8507-1a25e4dabd10&projectId=0198c320-653a-770c-93e4-41e10e7faa5f","2F8079230AA54FFAA59EFD5AB6343713-2025-08-19-16-45-00","","2618","","","","",""
"","","","","","initialize-microphone","4","751357","0.0-4.0-0.0","2F8079230AA54FFAA59EFD5AB6343713","2F8079230AA54FFAA59EFD5AB6343713","0198c329-83f5-7ade-8507-1a25e4dabd10","0198c320-653a-770c-93e4-41e10e7faa5f","{""num_scrambled_semantic"":""8"",""num_scrambled_causal"":""4"",""num_scrambled_schematic"":""4"",""participantId"":""2F8079230AA54FFAA59EFD5AB6343713"",""assignmentId"":""0198c329-83f5-7ade-8507-1a25e4dabd10"",""projectId"":""0198c320-653a-770c-93e4-41e10e7faa5f""}","https://test12345.live/?num_scrambled_semantic=8&num_scrambled_causal=4&num_scrambled_schematic=4&participantId=2F8079230AA54FFAA59EFD5AB6343713&assignmentId=0198c329-83f5-7ade-8507-1a25e4dabd10&projectId=0198c320-653a-770c-93e4-41e10e7faa5f","2F8079230AA54FFAA59EFD5AB6343713-2025-08-19-16-45-00","","","38bfb821805f498b2361bacef23a756a7d12fb68cc4de2fbd41c176beb9a4f0b","","","",""
"","","","","","html-audio-response","5","761276","0.0-4.0-1.0","2F8079230AA54FFAA59EFD5AB6343713","2F8079230AA54FFAA59EFD5AB6343713","0198c329-83f5-7ade-8507-1a25e4dabd10","0198c320-653a-770c-93e4-41e10e7faa5f","{""num_scrambled_semantic"":""8"",""num_scrambled_causal"":""4"",""num_scrambled_schematic"":""4"",""participantId"":""2F8079230AA54FFAA59EFD5AB6343713"",""assignmentId"":""0198c329-83f5-7ade-8507-1a25e4dabd10"",""projectId"":""0198c320-653a-770c-93e4-41e10e7faa5f""}","https://test12345.live/?num_scrambled_semantic=8&num_scrambled_causal=4&num_scrambled_schematic=4&participantId=2F8079230AA54FFAA59EFD5AB6343713&assignmentId=0198c329-83f5-7ade-8507-1a25e4dabd10&projectId=0198c320-653a-770c-93e4-41e10e7faa5f","2F8079230AA54FFAA59EFD5AB6343713-2025-08-19-16-45-00","","4209","","<span style=""color: red; font-size: 24px""> NOW RECORDING</span>
        <p>Please test Microphone</p>","","4",""
"","","","","","html-button-response","6","762558","0.0-4.0-2.0","2F8079230AA54FFAA59EFD5AB6343713","2F8079230AA54FFAA59EFD5AB6343713","0198c329-83f5-7ade-8507-1a25e4dabd10","0198c320-653a-770c-93e4-41e10e7faa5f","{""num_scrambled_semantic"":""8"",""num_scrambled_causal"":""4"",""num_scrambled_schematic"":""4"",""participantId"":""2F8079230AA54FFAA59EFD5AB6343713"",""assignmentId"":""0198c329-83f5-7ade-8507-1a25e4dabd10"",""projectId"":""0198c320-653a-770c-93e4-41e10e7faa5f""}","https://test12345.live/?num_scrambled_semantic=8&num_scrambled_causal=4&num_scrambled_schematic=4&participantId=2F8079230AA54FFAA59EFD5AB6343713&assignmentId=0198c329-83f5-7ade-8507-1a25e4dabd10&projectId=0198c320-653a-770c-93e4-41e10e7faa5f","2F8079230AA54FFAA59EFD5AB6343713-2025-08-19-16-45-00","","1279","","<p style=""font-size:48px; color:red;"">Is Microphone OK?</p>","1","",""
"","","","","","instructions","7","768671","0.0-5.0","2F8079230AA54FFAA59EFD5AB6343713","2F8079230AA54FFAA59EFD5AB6343713","0198c329-83f5-7ade-8507-1a25e4dabd10","0198c320-653a-770c-93e4-41e10e7faa5f","{""num_scrambled_semantic"":""8"",""num_scrambled_causal"":""4"",""num_scrambled_schematic"":""4"",""participantId"":""2F8079230AA54FFAA59EFD5AB6343713"",""assignmentId"":""0198c329-83f5-7ade-8507-1a25e4dabd10"",""projectId"":""0198c320-653a-770c-93e4-41e10e7faa5f""}","https://test12345.live/?num_scrambled_semantic=8&num_scrambled_causal=4&num_scrambled_schematic=4&participantId=2F8079230AA54FFAA59EFD5AB6343713&assignmentId=0198c329-83f5-7ade-8507-1a25e4dabd10&projectId=0198c320-653a-770c-93e4-41e10e7faa5f","2F8079230AA54FFAA59EFD5AB6343713-2025-08-19-16-45-00","[{""page_index"":0,""viewing_time"":1108},{""page_index"":1,""viewing_time"":3085},{""page_index"":2,""viewing_time"":1911}]","6104","","","","",""
"","","","","","image-button-response","8","774682","0.0-6.0-0.0","2F8079230AA54FFAA59EFD5AB6343713","2F8079230AA54FFAA59EFD5AB6343713","0198c329-83f5-7ade-8507-1a25e4dabd10","0198c320-653a-770c-93e4-41e10e7faa5f","{""num_scrambled_semantic"":""8"",""num_scrambled_causal"":""4"",""num_scrambled_schematic"":""4"",""participantId"":""2F8079230AA54FFAA59EFD5AB6343713"",""assignmentId"":""0198c329-83f5-7ade-8507-1a25e4dabd10"",""projectId"":""0198c320-653a-770c-93e4-41e10e7faa5f""}","https://test12345.live/?num_scrambled_semantic=8&num_scrambled_causal=4&num_scrambled_schematic=4&participantId=2F8079230AA54FFAA59EFD5AB6343713&assignmentId=0198c329-83f5-7ade-8507-1a25e4dabd10&projectId=0198c320-653a-770c-93e4-41e10e7faa5f","2F8079230AA54FFAA59EFD5AB6343713-2025-08-19-16-45-00","","null","","images/instructions/movie_0.png","null","",""
"","","","","","html-audio-response","9","781451","0.0-7.0","2F8079230AA54FFAA59EFD5AB6343713","2F8079230AA54FFAA59EFD5AB6343713","0198c329-83f5-7ade-8507-1a25e4dabd10","0198c320-653a-770c-93e4-41e10e7faa5f","{""num_scrambled_semantic"":""8"",""num_scrambled_causal"":""4"",""num_scrambled_schematic"":""4"",""participantId"":""2F8079230AA54FFAA59EFD5AB6343713"",""assignmentId"":""0198c329-83f5-7ade-8507-1a25e4dabd10"",""projectId"":""0198c320-653a-770c-93e4-41e10e7faa5f""}","https://test12345.live/?num_scrambled_semantic=8&num_scrambled_causal=4&num_scrambled_schematic=4&participantId=2F8079230AA54FFAA59EFD5AB6343713&assignmentId=0198c329-83f5-7ade-8507-1a25e4dabd10&projectId=0198c320-653a-770c-93e4-41e10e7faa5f","2F8079230AA54FFAA59EFD5AB6343713-2025-08-19-16-45-00","","4849","","[""<span style=\""color: red; font-size: 24px\""> NOW RECORDING</span><p>Please say out loud all the images you saw in part 1 of the experiment, as many as you can remember. The images can be said in any order.</p>""]","","9",""
"","","","","","instructions","10","783184","0.0-8.0","2F8079230AA54FFAA59EFD5AB6343713","2F8079230AA54FFAA59EFD5AB6343713","0198c329-83f5-7ade-8507-1a25e4dabd10","0198c320-653a-770c-93e4-41e10e7faa5f","{""num_scrambled_semantic"":""8"",""num_scrambled_causal"":""4"",""num_scrambled_schematic"":""4"",""participantId"":""2F8079230AA54FFAA59EFD5AB6343713"",""assignmentId"":""0198c329-83f5-7ade-8507-1a25e4dabd10"",""projectId"":""0198c320-653a-770c-93e4-41e10e7faa5f""}","https://test12345.live/?num_scrambled_semantic=8&num_scrambled_causal=4&num_scrambled_schematic=4&participantId=2F8079230AA54FFAA59EFD5AB6343713&assignmentId=0198c329-83f5-7ade-8507-1a25e4dabd10&projectId=0198c320-653a-770c-93e4-41e10e7faa5f","2F8079230AA54FFAA59EFD5AB6343713-2025-08-19-16-45-00","[{""page_index"":0,""viewing_time"":1716}]","1716","","","","",""
"","","","","","image-button-response","11","789188","0.0-9.0-0.0","2F8079230AA54FFAA59EFD5AB6343713","2F8079230AA54FFAA59EFD5AB6343713","0198c329-83f5-7ade-8507-1a25e4dabd10","0198c320-653a-770c-93e4-41e10e7faa5f","{""num_scrambled_semantic"":""8"",""num_scrambled_causal"":""4"",""num_scrambled_schematic"":""4"",""participantId"":""2F8079230AA54FFAA59EFD5AB6343713"",""assignmentId"":""0198c329-83f5-7ade-8507-1a25e4dabd10"",""projectId"":""0198c320-653a-770c-93e4-41e10e7faa5f""}","https://test12345.live/?num_scrambled_semantic=8&num_scrambled_causal=4&num_scrambled_schematic=4&participantId=2F8079230AA54FFAA59EFD5AB6343713&assignmentId=0198c329-83f5-7ade-8507-1a25e4dabd10&projectId=0198c320-653a-770c-93e4-41e10e7faa5f","2F8079230AA54FFAA59EFD5AB6343713-2025-08-19-16-45-00","","null","","images/semantic_sequence/cat_care_semantic/cat_care_semantic_0.png","null","",""
"","","","","","html-audio-response","12","794139","0.0-10.0","2F8079230AA54FFAA59EFD5AB6343713","2F8079230AA54FFAA59EFD5AB6343713","0198c329-83f5-7ade-8507-1a25e4dabd10","0198c320-653a-770c-93e4-41e10e7faa5f","{""num_scrambled_semantic"":""8"",""num_scrambled_causal"":""4"",""num_scrambled_schematic"":""4"",""participantId"":""2F8079230AA54FFAA59EFD5AB6343713"",""assignmentId"":""0198c329-83f5-7ade-8507-1a25e4dabd10"",""projectId"":""0198c320-653a-770c-93e4-41e10e7faa5f""}","https://test12345.live/?num_scrambled_semantic=8&num_scrambled_causal=4&num_scrambled_schematic=4&participantId=2F8079230AA54FFAA59EFD5AB6343713&assignmentId=0198c329-83f5-7ade-8507-1a25e4dabd10&projectId=0198c320-653a-770c-93e4-41e10e7faa5f","2F8079230AA54FFAA59EFD5AB6343713-2025-08-19-16-45-00","","3154","","[""<span style=\""color: red; font-size: 24px\""> NOW RECORDING</span><p>Please say out loud all the images you saw in part 1 of the experiment, as many as you can remember. The images can be said in any order.</p>""]","","5","cat_care_semantic"
"","","","","","image-button-response","13","800161","0.0-11.0-0.0","2F8079230AA54FFAA59EFD5AB6343713","2F8079230AA54FFAA59EFD5AB6343713","0198c329-83f5-7ade-8507-1a25e4dabd10","0198c320-653a-770c-93e4-41e10e7faa5f","{""num_scrambled_semantic"":""8"",""num_scrambled_causal"":""4"",""num_scrambled_schematic"":""4"",""participantId"":""2F8079230AA54FFAA59EFD5AB6343713"",""assignmentId"":""0198c329-83f5-7ade-8507-1a25e4dabd10"",""projectId"":""0198c320-653a-770c-93e4-41e10e7faa5f""}","https://test12345.live/?num_scrambled_semantic=8&num_scrambled_causal=4&num_scrambled_schematic=4&participantId=2F8079230AA54FFAA59EFD5AB6343713&assignmentId=0198c329-83f5-7ade-8507-1a25e4dabd10&projectId=0198c320-653a-770c-93e4-41e10e7faa5f","2F8079230AA54FFAA59EFD5AB6343713-2025-08-19-16-45-00","","null","","images/causal_sequence/dog_causal/dog_causal_0.png","null","",""
"","","","","","html-audio-response","14","804034","0.0-12.0","2F8079230AA54FFAA59EFD5AB6343713","2F8079230AA54FFAA59EFD5AB6343713","0198c329-83f5-7ade-8507-1a25e4dabd10","0198c320-653a-770c-93e4-41e10e7faa5f","{""num_scrambled_semantic"":""8"",""num_scrambled_causal"":""4"",""num_scrambled_schematic"":""4"",""participantId"":""2F8079230AA54FFAA59EFD5AB6343713"",""assignmentId"":""0198c329-83f5-7ade-8507-1a25e4dabd10"",""projectId"":""0198c320-653a-770c-93e4-41e10e7faa5f""}","https://test12345.live/?num_scrambled_semantic=8&num_scrambled_causal=4&num_scrambled_schematic=4&participantId=2F8079230AA54FFAA59EFD5AB6343713&assignmentId=0198c329-83f5-7ade-8507-1a25e4dabd10&projectId=0198c320-653a-770c-93e4-41e10e7faa5f","2F8079230AA54FFAA59EFD5AB6343713-2025-08-19-16-45-00","","2781","","[""<span style=\""color: red; font-size: 24px\""> NOW RECORDING</span><p>Please say out loud all the images you saw in part 1 of the experiment, as many as you can remember. The images can be said in any order.</p>""]","","10","dog_causal"
"","","","","","image-button-response","15","810044","0.0-13.0-0.0","2F8079230AA54FFAA59EFD5AB6343713","2F8079230AA54FFAA59EFD5AB6343713","0198c329-83f5-7ade-8507-1a25e4dabd10","0198c320-653a-770c-93e4-41e10e7faa5f","{""num_scrambled_semantic"":""8"",""num_scrambled_causal"":""4"",""num_scrambled_schematic"":""4"",""participantId"":""2F8079230AA54FFAA59EFD5AB6343713"",""assignmentId"":""0198c329-83f5-7ade-8507-1a25e4dabd10"",""projectId"":""0198c320-653a-770c-93e4-41e10e7faa5f""}","https://test12345.live/?num_scrambled_semantic=8&num_scrambled_causal=4&num_scrambled_schematic=4&participantId=2F8079230AA54FFAA59EFD5AB6343713&assignmentId=0198c329-83f5-7ade-8507-1a25e4dabd10&projectId=0198c320-653a-770c-93e4-41e10e7faa5f","2F8079230AA54FFAA59EFD5AB6343713-2025-08-19-16-45-00","","null","","images/causal_sequence/saving_a_cat_causal/saving_a_cat_causal_0.png","null","",""
"","","","","","html-audio-response","16","816570","0.0-14.0","2F8079230AA54FFAA59EFD5AB6343713","2F8079230AA54FFAA59EFD5AB6343713","0198c329-83f5-7ade-8507-1a25e4dabd10","0198c320-653a-770c-93e4-41e10e7faa5f","{""num_scrambled_semantic"":""8"",""num_scrambled_causal"":""4"",""num_scrambled_schematic"":""4"",""participantId"":""2F8079230AA54FFAA59EFD5AB6343713"",""assignmentId"":""0198c329-83f5-7ade-8507-1a25e4dabd10"",""projectId"":""0198c320-653a-770c-93e4-41e10e7faa5f""}","https://test12345.live/?num_scrambled_semantic=8&num_scrambled_causal=4&num_scrambled_schematic=4&participantId=2F8079230AA54FFAA59EFD5AB6343713&assignmentId=0198c329-83f5-7ade-8507-1a25e4dabd10&projectId=0198c320-653a-770c-93e4-41e10e7faa5f","2F8079230AA54FFAA59EFD5AB6343713-2025-08-19-16-45-00","","4525","","[""<span style=\""color: red; font-size: 24px\""> NOW RECORDING</span><p>Please say out loud all the images you saw in part 1 of the experiment, as many as you can remember. The images can be said in any order.</p>""]","","11","saving_a_cat_causal"
"","","","","","image-button-response","17","822577","0.0-15.0-0.0","2F8079230AA54FFAA59EFD5AB6343713","2F8079230AA54FFAA59EFD5AB6343713","0198c329-83f5-7ade-8507-1a25e4dabd10","0198c320-653a-770c-93e4-41e10e7faa5f","{""num_scrambled_semantic"":""8"",""num_scrambled_causal"":""4"",""num_scrambled_schematic"":""4"",""participantId"":""2F8079230AA54FFAA59EFD5AB6343713"",""assignmentId"":""0198c329-83f5-7ade-8507-1a25e4dabd10"",""projectId"":""0198c320-653a-770c-93e4-41e10e7faa5f""}","https://test12345.live/?num_scrambled_semantic=8&num_scrambled_causal=4&num_scrambled_schematic=4&participantId=2F8079230AA54FFAA59EFD5AB6343713&assignmentId=0198c329-83f5-7ade-8507-1a25e4dabd10&projectId=0198c320-653a-770c-93e4-41e10e7faa5f","2F8079230AA54FFAA59EFD5AB6343713-2025-08-19-16-45-00","","null","","images/semantic_sequence/redecorating_semantic/redecorating_semantic_0.png","null","",""
"","","","","","html-audio-response","18","831004","0.0-16.0","2F8079230AA54FFAA59EFD5AB6343713","2F8079230AA54FFAA59EFD5AB6343713","0198c329-83f5-7ade-8507-1a25e4dabd10","0198c320-653a-770c-93e4-41e10e7faa5f","{""num_scrambled_semantic"":""8"",""num_scrambled_causal"":""4"",""num_scrambled_schematic"":""4"",""participantId"":""2F8079230AA54FFAA59EFD5AB6343713"",""assignmentId"":""0198c329-83f5-7ade-8507-1a25e4dabd10"",""projectId"":""0198c320-653a-770c-93e4-41e10e7faa5f""}","https://test12345.live/?num_scrambled_semantic=8&num_scrambled_causal=4&num_scrambled_schematic=4&participantId=2F8079230AA54FFAA59EFD5AB6343713&assignmentId=0198c329-83f5-7ade-8507-1a25e4dabd10&projectId=0198c320-653a-770c-93e4-41e10e7faa5f","2F8079230AA54FFAA59EFD5AB6343713-2025-08-19-16-45-00","","6975","","[""<span style=\""color: red; font-size: 24px\""> NOW RECORDING</span><p>Please say out loud all the images you saw in part 1 of the experiment, as many as you can remember. The images can be said in any order.</p>""]","","8","redecorating_semantic"
"","","","","","image-button-response","19","837018","0.0-17.0-0.0","2F8079230AA54FFAA59EFD5AB6343713","2F8079230AA54FFAA59EFD5AB6343713","0198c329-83f5-7ade-8507-1a25e4dabd10","0198c320-653a-770c-93e4-41e10e7faa5f","{""num_scrambled_semantic"":""8"",""num_scrambled_causal"":""4"",""num_scrambled_schematic"":""4"",""participantId"":""2F8079230AA54FFAA59EFD5AB6343713"",""assignmentId"":""0198c329-83f5-7ade-8507-1a25e4dabd10"",""projectId"":""0198c320-653a-770c-93e4-41e10e7faa5f""}","https://test12345.live/?num_scrambled_semantic=8&num_scrambled_causal=4&num_scrambled_schematic=4&participantId=2F8079230AA54FFAA59EFD5AB6343713&assignmentId=0198c329-83f5-7ade-8507-1a25e4dabd10&projectId=0198c320-653a-770c-93e4-41e10e7faa5f","2F8079230AA54FFAA59EFD5AB6343713-2025-08-19-16-45-00","","null","","images/causal_sequence/package_causal/package_causal_0.png","null","",""
"","","","","","html-audio-response","20","853344","0.0-18.0","2F8079230AA54FFAA59EFD5AB6343713","2F8079230AA54FFAA59EFD5AB6343713","0198c329-83f5-7ade-8507-1a25e4dabd10","0198c320-653a-770c-93e4-41e10e7faa5f","{""num_scrambled_semantic"":""8"",""num_scrambled_causal"":""4"",""num_scrambled_schematic"":""4"",""participantId"":""2F8079230AA54FFAA59EFD5AB6343713"",""assignmentId"":""0198c329-83f5-7ade-8507-1a25e4dabd10"",""projectId"":""0198c320-653a-770c-93e4-41e10e7faa5f""}","https://test12345.live/?num_scrambled_semantic=8&num_scrambled_causal=4&num_scrambled_schematic=4&participantId=2F8079230AA54FFAA59EFD5AB6343713&assignmentId=0198c329-83f5-7ade-8507-1a25e4dabd10&projectId=0198c320-653a-770c-93e4-41e10e7faa5f","2F8079230AA54FFAA59EFD5AB6343713-2025-08-19-16-45-00","","14643","","[""<span style=\""color: red; font-size: 24px\""> NOW RECORDING</span><p>Please say out loud all the images you saw in part 1 of the experiment, as many as you can remember. The images can be said in any order.</p>""]","","4","package_causal"
"","","","","","image-button-response","21","859361","0.0-19.0-0.0","2F8079230AA54FFAA59EFD5AB6343713","2F8079230AA54FFAA59EFD5AB6343713","0198c329-83f5-7ade-8507-1a25e4dabd10","0198c320-653a-770c-93e4-41e10e7faa5f","{""num_scrambled_semantic"":""8"",""num_scrambled_causal"":""4"",""num_scrambled_schematic"":""4"",""participantId"":""2F8079230AA54FFAA59EFD5AB6343713"",""assignmentId"":""0198c329-83f5-7ade-8507-1a25e4dabd10"",""projectId"":""0198c320-653a-770c-93e4-41e10e7faa5f""}","https://test12345.live/?num_scrambled_semantic=8&num_scrambled_causal=4&num_scrambled_schematic=4&participantId=2F8079230AA54FFAA59EFD5AB6343713&assignmentId=0198c329-83f5-7ade-8507-1a25e4dabd10&projectId=0198c320-653a-770c-93e4-41e10e7faa5f","2F8079230AA54FFAA59EFD5AB6343713-2025-08-19-16-45-00","","null","","images/semantic_sequence/housework_semantic/housework_semantic_0.png","null","",""
"","","","","","html-audio-response","22","862548","0.0-20.0","2F8079230AA54FFAA59EFD5AB6343713","2F8079230AA54FFAA59EFD5AB6343713","0198c329-83f5-7ade-8507-1a25e4dabd10","0198c320-653a-770c-93e4-41e10e7faa5f","{""num_scrambled_semantic"":""8"",""num_scrambled_causal"":""4"",""num_scrambled_schematic"":""4"",""participantId"":""2F8079230AA54FFAA59EFD5AB6343713"",""assignmentId"":""0198c329-83f5-7ade-8507-1a25e4dabd10"",""projectId"":""0198c320-653a-770c-93e4-41e10e7faa5f""}","https://test12345.live/?num_scrambled_semantic=8&num_scrambled_causal=4&num_scrambled_schematic=4&participantId=2F8079230AA54FFAA59EFD5AB6343713&assignmentId=0198c329-83f5-7ade-8507-1a25e4dabd10&projectId=0198c320-653a-770c-93e4-41e10e7faa5f","2F8079230AA54FFAA59EFD5AB6343713-2025-08-19-16-45-00","","2006","","[""<span style=\""color: red; font-size: 24px\""> NOW RECORDING</span><p>Please say out loud all the images you saw in part 1 of the experiment, as many as you can remember. The images can be said in any order.</p>""]","","2","housework_semantic"
"","","","","","image-button-response","23","868561","0.0-21.0-0.0","2F8079230AA54FFAA59EFD5AB6343713","2F8079230AA54FFAA59EFD5AB6343713","0198c329-83f5-7ade-8507-1a25e4dabd10","0198c320-653a-770c-93e4-41e10e7faa5f","{""num_scrambled_semantic"":""8"",""num_scrambled_causal"":""4"",""num_scrambled_schematic"":""4"",""participantId"":""2F8079230AA54FFAA59EFD5AB6343713"",""assignmentId"":""0198c329-83f5-7ade-8507-1a25e4dabd10"",""projectId"":""0198c320-653a-770c-93e4-41e10e7faa5f""}","https://test12345.live/?num_scrambled_semantic=8&num_scrambled_causal=4&num_scrambled_schematic=4&participantId=2F8079230AA54FFAA59EFD5AB6343713&assignmentId=0198c329-83f5-7ade-8507-1a25e4dabd10&projectId=0198c320-653a-770c-93e4-41e10e7faa5f","2F8079230AA54FFAA59EFD5AB6343713-2025-08-19-16-45-00","","null","","images/semantic_sequence/physical_activity_semantic/physical_activity_semantic_0.png","null","",""
"","","","","","html-audio-response","24","876994","0.0-22.0","2F8079230AA54FFAA59EFD5AB6343713","2F8079230AA54FFAA59EFD5AB6343713","0198c329-83f5-7ade-8507-1a25e4dabd10","0198c320-653a-770c-93e4-41e10e7faa5f","{""num_scrambled_semantic"":""8"",""num_scrambled_causal"":""4"",""num_scrambled_schematic"":""4"",""participantId"":""2F8079230AA54FFAA59EFD5AB6343713"",""assignmentId"":""0198c329-83f5-7ade-8507-1a25e4dabd10"",""projectId"":""0198c320-653a-770c-93e4-41e10e7faa5f""}","https://test12345.live/?num_scrambled_semantic=8&num_scrambled_causal=4&num_scrambled_schematic=4&participantId=2F8079230AA54FFAA59EFD5AB6343713&assignmentId=0198c329-83f5-7ade-8507-1a25e4dabd10&projectId=0198c320-653a-770c-93e4-41e10e7faa5f","2F8079230AA54FFAA59EFD5AB6343713-2025-08-19-16-45-00","","7468","","[""<span style=\""color: red; font-size: 24px\""> NOW RECORDING</span><p>Please say out loud all the images you saw in part 1 of the experiment, as many as you can remember. The images can be said in any order.</p>""]","","12","physical_activity_semantic"
"","","","","","image-button-response","25","883010","0.0-23.0-0.0","2F8079230AA54FFAA59EFD5AB6343713","2F8079230AA54FFAA59EFD5AB6343713","0198c329-83f5-7ade-8507-1a25e4dabd10","0198c320-653a-770c-93e4-41e10e7faa5f","{""num_scrambled_semantic"":""8"",""num_scrambled_causal"":""4"",""num_scrambled_schematic"":""4"",""participantId"":""2F8079230AA54FFAA59EFD5AB6343713"",""assignmentId"":""0198c329-83f5-7ade-8507-1a25e4dabd10"",""projectId"":""0198c320-653a-770c-93e4-41e10e7faa5f""}","https://test12345.live/?num_scrambled_semantic=8&num_scrambled_causal=4&num_scrambled_schematic=4&participantId=2F8079230AA54FFAA59EFD5AB6343713&assignmentId=0198c329-83f5-7ade-8507-1a25e4dabd10&projectId=0198c320-653a-770c-93e4-41e10e7faa5f","2F8079230AA54FFAA59EFD5AB6343713-2025-08-19-16-45-00","","null","","images/causal_sequence/coin_causal/coin_causal_0.png","null","",""
"","","","","","html-audio-response","26","888435","0.0-24.0","2F8079230AA54FFAA59EFD5AB6343713","2F8079230AA54FFAA59EFD5AB6343713","0198c329-83f5-7ade-8507-1a25e4dabd10","0198c320-653a-770c-93e4-41e10e7faa5f","{""num_scrambled_semantic"":""8"",""num_scrambled_causal"":""4"",""num_scrambled_schematic"":""4"",""participantId"":""2F8079230AA54FFAA59EFD5AB6343713"",""assignmentId"":""0198c329-83f5-7ade-8507-1a25e4dabd10"",""projectId"":""0198c320-653a-770c-93e4-41e10e7faa5f""}","https://test12345.live/?num_scrambled_semantic=8&num_scrambled_causal=4&num_scrambled_schematic=4&participantId=2F8079230AA54FFAA59EFD5AB6343713&assignmentId=0198c329-83f5-7ade-8507-1a25e4dabd10&projectId=0198c320-653a-770c-93e4-41e10e7faa5f","2F8079230AA54FFAA59EFD5AB6343713-2025-08-19-16-45-00","","3968","","[""<span style=\""color: red; font-size: 24px\""> NOW RECORDING</span><p>Please say out loud all the images you saw in part 1 of the experiment, as many as you can remember. The images can be said in any order.</p>""]","","13","coin_causal"
"","","","","","image-button-response","27","894449","0.0-25.0-0.0","2F8079230AA54FFAA59EFD5AB6343713","2F8079230AA54FFAA59EFD5AB6343713","0198c329-83f5-7ade-8507-1a25e4dabd10","0198c320-653a-770c-93e4-41e10e7faa5f","{""num_scrambled_semantic"":""8"",""num_scrambled_causal"":""4"",""num_scrambled_schematic"":""4"",""participantId"":""2F8079230AA54FFAA59EFD5AB6343713"",""assignmentId"":""0198c329-83f5-7ade-8507-1a25e4dabd10"",""projectId"":""0198c320-653a-770c-93e4-41e10e7faa5f""}","https://test12345.live/?num_scrambled_semantic=8&num_scrambled_causal=4&num_scrambled_schematic=4&participantId=2F8079230AA54FFAA59EFD5AB6343713&assignmentId=0198c329-83f5-7ade-8507-1a25e4dabd10&projectId=0198c320-653a-770c-93e4-41e10e7faa5f","2F8079230AA54FFAA59EFD5AB6343713-2025-08-19-16-45-00","","null","","images/causal_sequence/the_performance_causal/the_performance_causal_0.png","null","",""
"","","","","","html-audio-response","28","911909","0.0-26.0","2F8079230AA54FFAA59EFD5AB6343713","2F8079230AA54FFAA59EFD5AB6343713","0198c329-83f5-7ade-8507-1a25e4dabd10","0198c320-653a-770c-93e4-41e10e7faa5f","{""num_scrambled_semantic"":""8"",""num_scrambled_causal"":""4"",""num_scrambled_schematic"":""4"",""participantId"":""2F8079230AA54FFAA59EFD5AB6343713"",""assignmentId"":""0198c329-83f5-7ade-8507-1a25e4dabd10"",""projectId"":""0198c320-653a-770c-93e4-41e10e7faa5f""}","https://test12345.live/?num_scrambled_semantic=8&num_scrambled_causal=4&num_scrambled_schematic=4&participantId=2F8079230AA54FFAA59EFD5AB6343713&assignmentId=0198c329-83f5-7ade-8507-1a25e4dabd10&projectId=0198c320-653a-770c-93e4-41e10e7faa5f","2F8079230AA54FFAA59EFD5AB6343713-2025-08-19-16-45-00","","15955","","[""<span style=\""color: red; font-size: 24px\""> NOW RECORDING</span><p>Please say out loud all the images you saw in part 1 of the experiment, as many as you can remember. The images can be said in any order.</p>""]","","9","the_performance_causal"
"","","","","","image-button-response","29","917921","0.0-27.0-0.0","2F8079230AA54FFAA59EFD5AB6343713","2F8079230AA54FFAA59EFD5AB6343713","0198c329-83f5-7ade-8507-1a25e4dabd10","0198c320-653a-770c-93e4-41e10e7faa5f","{""num_scrambled_semantic"":""8"",""num_scrambled_causal"":""4"",""num_scrambled_schematic"":""4"",""participantId"":""2F8079230AA54FFAA59EFD5AB6343713"",""assignmentId"":""0198c329-83f5-7ade-8507-1a25e4dabd10"",""projectId"":""0198c320-653a-770c-93e4-41e10e7faa5f""}","https://test12345.live/?num_scrambled_semantic=8&num_scrambled_causal=4&num_scrambled_schematic=4&participantId=2F8079230AA54FFAA59EFD5AB6343713&assignmentId=0198c329-83f5-7ade-8507-1a25e4dabd10&projectId=0198c320-653a-770c-93e4-41e10e7faa5f","2F8079230AA54FFAA59EFD5AB6343713-2025-08-19-16-45-00","","null","","images/causal_sequence/museum_causal/museum_causal_0.png","null","",""
"","","","","","html-audio-response","30","922987","0.0-28.0","2F8079230AA54FFAA59EFD5AB6343713","2F8079230AA54FFAA59EFD5AB6343713","0198c329-83f5-7ade-8507-1a25e4dabd10","0198c320-653a-770c-93e4-41e10e7faa5f","{""num_scrambled_semantic"":""8"",""num_scrambled_causal"":""4"",""num_scrambled_schematic"":""4"",""participantId"":""2F8079230AA54FFAA59EFD5AB6343713"",""assignmentId"":""0198c329-83f5-7ade-8507-1a25e4dabd10"",""projectId"":""0198c320-653a-770c-93e4-41e10e7faa5f""}","https://test12345.live/?num_scrambled_semantic=8&num_scrambled_causal=4&num_scrambled_schematic=4&participantId=2F8079230AA54FFAA59EFD5AB6343713&assignmentId=0198c329-83f5-7ade-8507-1a25e4dabd10&projectId=0198c320-653a-770c-93e4-41e10e7faa5f","2F8079230AA54FFAA59EFD5AB6343713-2025-08-19-16-45-00","","4040","","[""<span style=\""color: red; font-size: 24px\""> NOW RECORDING</span><p>Please say out loud all the images you saw in part 1 of the experiment, as many as you can remember. The images can be said in any order.</p>""]","","13","museum_causal"
"","","","","","image-button-response","31","929001","0.0-29.0-0.0","2F8079230AA54FFAA59EFD5AB6343713","2F8079230AA54FFAA59EFD5AB6343713","0198c329-83f5-7ade-8507-1a25e4dabd10","0198c320-653a-770c-93e4-41e10e7faa5f","{""num_scrambled_semantic"":""8"",""num_scrambled_causal"":""4"",""num_scrambled_schematic"":""4"",""participantId"":""2F8079230AA54FFAA59EFD5AB6343713"",""assignmentId"":""0198c329-83f5-7ade-8507-1a25e4dabd10"",""projectId"":""0198c320-653a-770c-93e4-41e10e7faa5f""}","https://test12345.live/?num_scrambled_semantic=8&num_scrambled_causal=4&num_scrambled_schematic=4&participantId=2F8079230AA54FFAA59EFD5AB6343713&assignmentId=0198c329-83f5-7ade-8507-1a25e4dabd10&projectId=0198c320-653a-770c-93e4-41e10e7faa5f","2F8079230AA54FFAA59EFD5AB6343713-2025-08-19-16-45-00","","null","","images/semantic_sequence/using_technology_semantic/using_technology_semantic_0.png","null","",""
"","","","","","html-audio-response","32","932647","0.0-30.0","2F8079230AA54FFAA59EFD5AB6343713","2F8079230AA54FFAA59EFD5AB6343713","0198c329-83f5-7ade-8507-1a25e4dabd10","0198c320-653a-770c-93e4-41e10e7faa5f","{""num_scrambled_semantic"":""8"",""num_scrambled_causal"":""4"",""num_scrambled_schematic"":""4"",""participantId"":""2F8079230AA54FFAA59EFD5AB6343713"",""assignmentId"":""0198c329-83f5-7ade-8507-1a25e4dabd10"",""projectId"":""0198c320-653a-770c-93e4-41e10e7faa5f""}","https://test12345.live/?num_scrambled_semantic=8&num_scrambled_causal=4&num_scrambled_schematic=4&participantId=2F8079230AA54FFAA59EFD5AB6343713&assignmentId=0198c329-83f5-7ade-8507-1a25e4dabd10&projectId=0198c320-653a-770c-93e4-41e10e7faa5f","2F8079230AA54FFAA59EFD5AB6343713-2025-08-19-16-45-00","","2780","","[""<span style=\""color: red; font-size: 24px\""> NOW RECORDING</span><p>Please say out loud all the images you saw in part 1 of the experiment, as many as you can remember. The images can be said in any order.</p>""]","","3","using_technology_semantic"
"","","","","","image-button-response","33","938657","0.0-31.0-0.0","2F8079230AA54FFAA59EFD5AB6343713","2F8079230AA54FFAA59EFD5AB6343713","0198c329-83f5-7ade-8507-1a25e4dabd10","0198c320-653a-770c-93e4-41e10e7faa5f","{""num_scrambled_semantic"":""8"",""num_scrambled_causal"":""4"",""num_scrambled_schematic"":""4"",""participantId"":""2F8079230AA54FFAA59EFD5AB6343713"",""assignmentId"":""0198c329-83f5-7ade-8507-1a25e4dabd10"",""projectId"":""0198c320-653a-770c-93e4-41e10e7faa5f""}","https://test12345.live/?num_scrambled_semantic=8&num_scrambled_causal=4&num_scrambled_schematic=4&participantId=2F8079230AA54FFAA59EFD5AB6343713&assignmentId=0198c329-83f5-7ade-8507-1a25e4dabd10&projectId=0198c320-653a-770c-93e4-41e10e7faa5f","2F8079230AA54FFAA59EFD5AB6343713-2025-08-19-16-45-00","","null","","images/semantic_sequence/creative_activities_semantic/creative_activities_semantic_0.png","null","",""
"","","","","","html-audio-response","34","949098","0.0-32.0","2F8079230AA54FFAA59EFD5AB6343713","2F8079230AA54FFAA59EFD5AB6343713","0198c329-83f5-7ade-8507-1a25e4dabd10","0198c320-653a-770c-93e4-41e10e7faa5f","{""num_scrambled_semantic"":""8"",""num_scrambled_causal"":""4"",""num_scrambled_schematic"":""4"",""participantId"":""2F8079230AA54FFAA59EFD5AB6343713"",""assignmentId"":""0198c329-83f5-7ade-8507-1a25e4dabd10"",""projectId"":""0198c320-653a-770c-93e4-41e10e7faa5f""}","https://test12345.live/?num_scrambled_semantic=8&num_scrambled_causal=4&num_scrambled_schematic=4&participantId=2F8079230AA54FFAA59EFD5AB6343713&assignmentId=0198c329-83f5-7ade-8507-1a25e4dabd10&projectId=0198c320-653a-770c-93e4-41e10e7faa5f","2F8079230AA54FFAA59EFD5AB6343713-2025-08-19-16-45-00","","9315","","[""<span style=\""color: red; font-size: 24px\""> NOW RECORDING</span><p>Please say out loud all the images you saw in part 1 of the experiment, as many as you can remember. The images can be said in any order.</p>""]","","12","creative_activities_semantic"
"","","","","","image-button-response","35","955113","0.0-33.0-0.0","2F8079230AA54FFAA59EFD5AB6343713","2F8079230AA54FFAA59EFD5AB6343713","0198c329-83f5-7ade-8507-1a25e4dabd10","0198c320-653a-770c-93e4-41e10e7faa5f","{""num_scrambled_semantic"":""8"",""num_scrambled_causal"":""4"",""num_scrambled_schematic"":""4"",""participantId"":""2F8079230AA54FFAA59EFD5AB6343713"",""assignmentId"":""0198c329-83f5-7ade-8507-1a25e4dabd10"",""projectId"":""0198c320-653a-770c-93e4-41e10e7faa5f""}","https://test12345.live/?num_scrambled_semantic=8&num_scrambled_causal=4&num_scrambled_schematic=4&participantId=2F8079230AA54FFAA59EFD5AB6343713&assignmentId=0198c329-83f5-7ade-8507-1a25e4dabd10&projectId=0198c320-653a-770c-93e4-41e10e7faa5f","2F8079230AA54FFAA59EFD5AB6343713-2025-08-19-16-45-00","","null","","images/semantic_sequence/maintaining_a_car_semantic/maintaining_a_car_semantic_0.png","null","",""
"","","","","","html-audio-response","36","959460","0.0-34.0","2F8079230AA54FFAA59EFD5AB6343713","2F8079230AA54FFAA59EFD5AB6343713","0198c329-83f5-7ade-8507-1a25e4dabd10","0198c320-653a-770c-93e4-41e10e7faa5f","{""num_scrambled_semantic"":""8"",""num_scrambled_causal"":""4"",""num_scrambled_schematic"":""4"",""participantId"":""2F8079230AA54FFAA59EFD5AB6343713"",""assignmentId"":""0198c329-83f5-7ade-8507-1a25e4dabd10"",""projectId"":""0198c320-653a-770c-93e4-41e10e7faa5f""}","https://test12345.live/?num_scrambled_semantic=8&num_scrambled_causal=4&num_scrambled_schematic=4&participantId=2F8079230AA54FFAA59EFD5AB6343713&assignmentId=0198c329-83f5-7ade-8507-1a25e4dabd10&projectId=0198c320-653a-770c-93e4-41e10e7faa5f","2F8079230AA54FFAA59EFD5AB6343713-2025-08-19-16-45-00","","3605","","[""<span style=\""color: red; font-size: 24px\""> NOW RECORDING</span><p>Please say out loud all the images you saw in part 1 of the experiment, as many as you can remember. The images can be said in any order.</p>""]","","3","maintaining_a_car_semantic"
"","","","","","survey-text","37","965187","0.0-35.0","2F8079230AA54FFAA59EFD5AB6343713","2F8079230AA54FFAA59EFD5AB6343713","0198c329-83f5-7ade-8507-1a25e4dabd10","0198c320-653a-770c-93e4-41e10e7faa5f","{""num_scrambled_semantic"":""8"",""num_scrambled_causal"":""4"",""num_scrambled_schematic"":""4"",""participantId"":""2F8079230AA54FFAA59EFD5AB6343713"",""assignmentId"":""0198c329-83f5-7ade-8507-1a25e4dabd10"",""projectId"":""0198c320-653a-770c-93e4-41e10e7faa5f""}","https://test12345.live/?num_scrambled_semantic=8&num_scrambled_causal=4&num_scrambled_schematic=4&participantId=2F8079230AA54FFAA59EFD5AB6343713&assignmentId=0198c329-83f5-7ade-8507-1a25e4dabd10&projectId=0198c320-653a-770c-93e4-41e10e7faa5f","2F8079230AA54FFAA59EFD5AB6343713-2025-08-19-16-45-00","","5705","","","{""Q0"":""male"",""Q1"":""24""}","",""
"","","","","","instructions","38","970845","0.0-36.0","2F8079230AA54FFAA59EFD5AB6343713","2F8079230AA54FFAA59EFD5AB6343713","0198c329-83f5-7ade-8507-1a25e4dabd10","0198c320-653a-770c-93e4-41e10e7faa5f","{""num_scrambled_semantic"":""8"",""num_scrambled_causal"":""4"",""num_scrambled_schematic"":""4"",""participantId"":""2F8079230AA54FFAA59EFD5AB6343713"",""assignmentId"":""0198c329-83f5-7ade-8507-1a25e4dabd10"",""projectId"":""0198c320-653a-770c-93e4-41e10e7faa5f""}","https://test12345.live/?num_scrambled_semantic=8&num_scrambled_causal=4&num_scrambled_schematic=4&participantId=2F8079230AA54FFAA59EFD5AB6343713&assignmentId=0198c329-83f5-7ade-8507-1a25e4dabd10&projectId=0198c320-653a-770c-93e4-41e10e7faa5f","2F8079230AA54FFAA59EFD5AB6343713-2025-08-19-16-45-00","[{""page_index"":0,""viewing_time"":5656}]","5657","","","","",""
"","","","","","survey-text","39","974604","0.0-37.0","2F8079230AA54FFAA59EFD5AB6343713","2F8079230AA54FFAA59EFD5AB6343713","0198c329-83f5-7ade-8507-1a25e4dabd10","0198c320-653a-770c-93e4-41e10e7faa5f","{""num_scrambled_semantic"":""8"",""num_scrambled_causal"":""4"",""num_scrambled_schematic"":""4"",""participantId"":""2F8079230AA54FFAA59EFD5AB6343713"",""assignmentId"":""0198c329-83f5-7ade-8507-1a25e4dabd10"",""projectId"":""0198c320-653a-770c-93e4-41e10e7faa5f""}","https://test12345.live/?num_scrambled_semantic=8&num_scrambled_causal=4&num_scrambled_schematic=4&participantId=2F8079230AA54FFAA59EFD5AB6343713&assignmentId=0198c329-83f5-7ade-8507-1a25e4dabd10&projectId=0198c320-653a-770c-93e4-41e10e7faa5f","2F8079230AA54FFAA59EFD5AB6343713-2025-08-19-16-45-00","","3753","","","{""Q0"":""AJFHBG896""}","",""
