"success","timeout","failed_images","failed_audio","failed_video","trial_type","trial_index","time_elapsed","internal_node_id","subject","subject_id","study_id","session_id","urlvar","current_url","audio_id","view_history","rt","device_id","stimulus","response","estimated_stimulus_onset","seq_name"
"true","false","[]","[]","[]","preload","0","4713","0.0-0.0","316303FDC0634BB8AE1B440774EE686F","316303FDC0634BB8AE1B440774EE686F","0198c00e-4440-7503-b605-b287d7147864","0198beef-981a-7243-9790-051e10551090","{""num_scrambled_semantic"":""8"",""num_scrambled_causal"":""4"",""num_scrambled_schematic"":""4"",""participantId"":""316303FDC0634BB8AE1B440774EE686F"",""assignmentId"":""0198c00e-4440-7503-b605-b287d7147864"",""projectId"":""0198beef-981a-7243-9790-051e10551090""}","https://test12345.live/?num_scrambled_semantic=8&num_scrambled_causal=4&num_scrambled_schematic=4&participantId=316303FDC0634BB8AE1B440774EE686F&assignmentId=0198c00e-4440-7503-b605-b287d7147864&projectId=0198beef-981a-7243-9790-051e10551090","316303FDC0634BB8AE1B440774EE686F-2025-08-19-02-08-58","","","","","","",""
"","","","","","instructions","1","30110","0.0-1.0","316303FDC0634BB8AE1B440774EE686F","316303FDC0634BB8AE1B440774EE686F","0198c00e-4440-7503-b605-b287d7147864","0198beef-981a-7243-9790-051e10551090","{""num_scrambled_semantic"":""8"",""num_scrambled_causal"":""4"",""num_scrambled_schematic"":""4"",""participantId"":""316303FDC0634BB8AE1B440774EE686F"",""assignmentId"":""0198c00e-4440-7503-b605-b287d7147864"",""projectId"":""0198beef-981a-7243-9790-051e10551090""}","https://test12345.live/?num_scrambled_semantic=8&num_scrambled_causal=4&num_scrambled_schematic=4&participantId=316303FDC0634BB8AE1B440774EE686F&assignmentId=0198c00e-4440-7503-b605-b287d7147864&projectId=0198beef-981a-7243-9790-051e10551090","316303FDC0634BB8AE1B440774EE686F-2025-08-19-02-08-58","[{""page_index"":0,""viewing_time"":25397}]","25397","","","","",""
"","","","","","instructions","2","35291","0.0-2.0","316303FDC0634BB8AE1B440774EE686F","316303FDC0634BB8AE1B440774EE686F","0198c00e-4440-7503-b605-b287d7147864","0198beef-981a-7243-9790-051e10551090","{""num_scrambled_semantic"":""8"",""num_scrambled_causal"":""4"",""num_scrambled_schematic"":""4"",""participantId"":""316303FDC0634BB8AE1B440774EE686F"",""assignmentId"":""0198c00e-4440-7503-b605-b287d7147864"",""projectId"":""0198beef-981a-7243-9790-051e10551090""}","https://test12345.live/?num_scrambled_semantic=8&num_scrambled_causal=4&num_scrambled_schematic=4&participantId=316303FDC0634BB8AE1B440774EE686F&assignmentId=0198c00e-4440-7503-b605-b287d7147864&projectId=0198beef-981a-7243-9790-051e10551090","316303FDC0634BB8AE1B440774EE686F-2025-08-19-02-08-58","[{""page_index"":0,""viewing_time"":5181}]","5181","","","","",""
"true","","","","","fullscreen","3","37699","0.0-3.0","316303FDC0634BB8AE1B440774EE686F","316303FDC0634BB8AE1B440774EE686F","0198c00e-4440-7503-b605-b287d7147864","0198beef-981a-7243-9790-051e10551090","{""num_scrambled_semantic"":""8"",""num_scrambled_causal"":""4"",""num_scrambled_schematic"":""4"",""participantId"":""316303FDC0634BB8AE1B440774EE686F"",""assignmentId"":""0198c00e-4440-7503-b605-b287d7147864"",""projectId"":""0198beef-981a-7243-9790-051e10551090""}","https://test12345.live/?num_scrambled_semantic=8&num_scrambled_causal=4&num_scrambled_schematic=4&participantId=316303FDC0634BB8AE1B440774EE686F&assignmentId=0198c00e-4440-7503-b605-b287d7147864&projectId=0198beef-981a-7243-9790-051e10551090","316303FDC0634BB8AE1B440774EE686F-2025-08-19-02-08-58","","1407","","","","",""
"","","","","","initialize-microphone","4","42234","0.0-4.0-0.0","316303FDC0634BB8AE1B440774EE686F","316303FDC0634BB8AE1B440774EE686F","0198c00e-4440-7503-b605-b287d7147864","0198beef-981a-7243-9790-051e10551090","{""num_scrambled_semantic"":""8"",""num_scrambled_causal"":""4"",""num_scrambled_schematic"":""4"",""participantId"":""316303FDC0634BB8AE1B440774EE686F"",""assignmentId"":""0198c00e-4440-7503-b605-b287d7147864"",""projectId"":""0198beef-981a-7243-9790-051e10551090""}","https://test12345.live/?num_scrambled_semantic=8&num_scrambled_causal=4&num_scrambled_schematic=4&participantId=316303FDC0634BB8AE1B440774EE686F&assignmentId=0198c00e-4440-7503-b605-b287d7147864&projectId=0198beef-981a-7243-9790-051e10551090","316303FDC0634BB8AE1B440774EE686F-2025-08-19-02-08-58","","","881a1a101b5954e5ea2206f609481095e46e3714c70f2794c113e0ed7aa82e4e","","","",""
"","","","","","html-audio-response","5","47036","0.0-4.0-1.0","316303FDC0634BB8AE1B440774EE686F","316303FDC0634BB8AE1B440774EE686F","0198c00e-4440-7503-b605-b287d7147864","0198beef-981a-7243-9790-051e10551090","{""num_scrambled_semantic"":""8"",""num_scrambled_causal"":""4"",""num_scrambled_schematic"":""4"",""participantId"":""316303FDC0634BB8AE1B440774EE686F"",""assignmentId"":""0198c00e-4440-7503-b605-b287d7147864"",""projectId"":""0198beef-981a-7243-9790-051e10551090""}","https://test12345.live/?num_scrambled_semantic=8&num_scrambled_causal=4&num_scrambled_schematic=4&participantId=316303FDC0634BB8AE1B440774EE686F&assignmentId=0198c00e-4440-7503-b605-b287d7147864&projectId=0198beef-981a-7243-9790-051e10551090","316303FDC0634BB8AE1B440774EE686F-2025-08-19-02-08-58","","1712","","<span style=""color: red; font-size: 24px""> NOW RECORDING</span>
        <p>Please test Microphone</p>","","2",""
"","","","","","html-button-response","6","48311","0.0-4.0-2.0","316303FDC0634BB8AE1B440774EE686F","316303FDC0634BB8AE1B440774EE686F","0198c00e-4440-7503-b605-b287d7147864","0198beef-981a-7243-9790-051e10551090","{""num_scrambled_semantic"":""8"",""num_scrambled_causal"":""4"",""num_scrambled_schematic"":""4"",""participantId"":""316303FDC0634BB8AE1B440774EE686F"",""assignmentId"":""0198c00e-4440-7503-b605-b287d7147864"",""projectId"":""0198beef-981a-7243-9790-051e10551090""}","https://test12345.live/?num_scrambled_semantic=8&num_scrambled_causal=4&num_scrambled_schematic=4&participantId=316303FDC0634BB8AE1B440774EE686F&assignmentId=0198c00e-4440-7503-b605-b287d7147864&projectId=0198beef-981a-7243-9790-051e10551090","316303FDC0634BB8AE1B440774EE686F-2025-08-19-02-08-58","","1275","","<p style=""font-size:48px; color:red;"">Is Microphone OK?</p>","1","",""
"","","","","","instructions","7","57551","0.0-5.0","316303FDC0634BB8AE1B440774EE686F","316303FDC0634BB8AE1B440774EE686F","0198c00e-4440-7503-b605-b287d7147864","0198beef-981a-7243-9790-051e10551090","{""num_scrambled_semantic"":""8"",""num_scrambled_causal"":""4"",""num_scrambled_schematic"":""4"",""participantId"":""316303FDC0634BB8AE1B440774EE686F"",""assignmentId"":""0198c00e-4440-7503-b605-b287d7147864"",""projectId"":""0198beef-981a-7243-9790-051e10551090""}","https://test12345.live/?num_scrambled_semantic=8&num_scrambled_causal=4&num_scrambled_schematic=4&participantId=316303FDC0634BB8AE1B440774EE686F&assignmentId=0198c00e-4440-7503-b605-b287d7147864&projectId=0198beef-981a-7243-9790-051e10551090","316303FDC0634BB8AE1B440774EE686F-2025-08-19-02-08-58","[{""page_index"":0,""viewing_time"":893},{""page_index"":1,""viewing_time"":3994},{""page_index"":2,""viewing_time"":4353}]","9240","","","","",""
"","","","","","image-button-response","8","63553","0.0-6.0-0.0","316303FDC0634BB8AE1B440774EE686F","316303FDC0634BB8AE1B440774EE686F","0198c00e-4440-7503-b605-b287d7147864","0198beef-981a-7243-9790-051e10551090","{""num_scrambled_semantic"":""8"",""num_scrambled_causal"":""4"",""num_scrambled_schematic"":""4"",""participantId"":""316303FDC0634BB8AE1B440774EE686F"",""assignmentId"":""0198c00e-4440-7503-b605-b287d7147864"",""projectId"":""0198beef-981a-7243-9790-051e10551090""}","https://test12345.live/?num_scrambled_semantic=8&num_scrambled_causal=4&num_scrambled_schematic=4&participantId=316303FDC0634BB8AE1B440774EE686F&assignmentId=0198c00e-4440-7503-b605-b287d7147864&projectId=0198beef-981a-7243-9790-051e10551090","316303FDC0634BB8AE1B440774EE686F-2025-08-19-02-08-58","","null","","images/instructions/movie_0.png","null","",""
"","","","","","html-audio-response","9","91956","0.0-7.0","316303FDC0634BB8AE1B440774EE686F","316303FDC0634BB8AE1B440774EE686F","0198c00e-4440-7503-b605-b287d7147864","0198beef-981a-7243-9790-051e10551090","{""num_scrambled_semantic"":""8"",""num_scrambled_causal"":""4"",""num_scrambled_schematic"":""4"",""participantId"":""316303FDC0634BB8AE1B440774EE686F"",""assignmentId"":""0198c00e-4440-7503-b605-b287d7147864"",""projectId"":""0198beef-981a-7243-9790-051e10551090""}","https://test12345.live/?num_scrambled_semantic=8&num_scrambled_causal=4&num_scrambled_schematic=4&participantId=316303FDC0634BB8AE1B440774EE686F&assignmentId=0198c00e-4440-7503-b605-b287d7147864&projectId=0198beef-981a-7243-9790-051e10551090","316303FDC0634BB8AE1B440774EE686F-2025-08-19-02-08-58","","27504","","[""<span style=\""color: red; font-size: 24px\""> NOW RECORDING</span><p>Please say out loud all the images you saw in part 1 of the experiment, as many as you can remember. The images can be said in any order.</p>""]","","1",""
"","","","","","instructions","10","93445","0.0-8.0","316303FDC0634BB8AE1B440774EE686F","316303FDC0634BB8AE1B440774EE686F","0198c00e-4440-7503-b605-b287d7147864","0198beef-981a-7243-9790-051e10551090","{""num_scrambled_semantic"":""8"",""num_scrambled_causal"":""4"",""num_scrambled_schematic"":""4"",""participantId"":""316303FDC0634BB8AE1B440774EE686F"",""assignmentId"":""0198c00e-4440-7503-b605-b287d7147864"",""projectId"":""0198beef-981a-7243-9790-051e10551090""}","https://test12345.live/?num_scrambled_semantic=8&num_scrambled_causal=4&num_scrambled_schematic=4&participantId=316303FDC0634BB8AE1B440774EE686F&assignmentId=0198c00e-4440-7503-b605-b287d7147864&projectId=0198beef-981a-7243-9790-051e10551090","316303FDC0634BB8AE1B440774EE686F-2025-08-19-02-08-58","[{""page_index"":0,""viewing_time"":1486}]","1487","","","","",""
"","","","","","image-button-response","11","99446","0.0-9.0-0.0","316303FDC0634BB8AE1B440774EE686F","316303FDC0634BB8AE1B440774EE686F","0198c00e-4440-7503-b605-b287d7147864","0198beef-981a-7243-9790-051e10551090","{""num_scrambled_semantic"":""8"",""num_scrambled_causal"":""4"",""num_scrambled_schematic"":""4"",""participantId"":""316303FDC0634BB8AE1B440774EE686F"",""assignmentId"":""0198c00e-4440-7503-b605-b287d7147864"",""projectId"":""0198beef-981a-7243-9790-051e10551090""}","https://test12345.live/?num_scrambled_semantic=8&num_scrambled_causal=4&num_scrambled_schematic=4&participantId=316303FDC0634BB8AE1B440774EE686F&assignmentId=0198c00e-4440-7503-b605-b287d7147864&projectId=0198beef-981a-7243-9790-051e10551090","316303FDC0634BB8AE1B440774EE686F-2025-08-19-02-08-58","","null","","images/semantic_sequence/maintaining_a_car_semantic/maintaining_a_car_semantic_0.png","null","",""
"","","","","","html-audio-response","12","124720","0.0-10.0","316303FDC0634BB8AE1B440774EE686F","316303FDC0634BB8AE1B440774EE686F","0198c00e-4440-7503-b605-b287d7147864","0198beef-981a-7243-9790-051e10551090","{""num_scrambled_semantic"":""8"",""num_scrambled_causal"":""4"",""num_scrambled_schematic"":""4"",""participantId"":""316303FDC0634BB8AE1B440774EE686F"",""assignmentId"":""0198c00e-4440-7503-b605-b287d7147864"",""projectId"":""0198beef-981a-7243-9790-051e10551090""}","https://test12345.live/?num_scrambled_semantic=8&num_scrambled_causal=4&num_scrambled_schematic=4&participantId=316303FDC0634BB8AE1B440774EE686F&assignmentId=0198c00e-4440-7503-b605-b287d7147864&projectId=0198beef-981a-7243-9790-051e10551090","316303FDC0634BB8AE1B440774EE686F-2025-08-19-02-08-58","","24268","","[""<span style=\""color: red; font-size: 24px\""> NOW RECORDING</span><p>Please say out loud all the images you saw in part 1 of the experiment, as many as you can remember. The images can be said in any order.</p>""]","","1","maintaining_a_car_semantic"
"","","","","","image-button-response","13","130723","0.0-11.0-0.0","316303FDC0634BB8AE1B440774EE686F","316303FDC0634BB8AE1B440774EE686F","0198c00e-4440-7503-b605-b287d7147864","0198beef-981a-7243-9790-051e10551090","{""num_scrambled_semantic"":""8"",""num_scrambled_causal"":""4"",""num_scrambled_schematic"":""4"",""participantId"":""316303FDC0634BB8AE1B440774EE686F"",""assignmentId"":""0198c00e-4440-7503-b605-b287d7147864"",""projectId"":""0198beef-981a-7243-9790-051e10551090""}","https://test12345.live/?num_scrambled_semantic=8&num_scrambled_causal=4&num_scrambled_schematic=4&participantId=316303FDC0634BB8AE1B440774EE686F&assignmentId=0198c00e-4440-7503-b605-b287d7147864&projectId=0198beef-981a-7243-9790-051e10551090","316303FDC0634BB8AE1B440774EE686F-2025-08-19-02-08-58","","null","","images/causal_sequence/dog_causal/dog_causal_0.png","null","",""
"","","","","","html-audio-response","14","159896","0.0-12.0","316303FDC0634BB8AE1B440774EE686F","316303FDC0634BB8AE1B440774EE686F","0198c00e-4440-7503-b605-b287d7147864","0198beef-981a-7243-9790-051e10551090","{""num_scrambled_semantic"":""8"",""num_scrambled_causal"":""4"",""num_scrambled_schematic"":""4"",""participantId"":""316303FDC0634BB8AE1B440774EE686F"",""assignmentId"":""0198c00e-4440-7503-b605-b287d7147864"",""projectId"":""0198beef-981a-7243-9790-051e10551090""}","https://test12345.live/?num_scrambled_semantic=8&num_scrambled_causal=4&num_scrambled_schematic=4&participantId=316303FDC0634BB8AE1B440774EE686F&assignmentId=0198c00e-4440-7503-b605-b287d7147864&projectId=0198beef-981a-7243-9790-051e10551090","316303FDC0634BB8AE1B440774EE686F-2025-08-19-02-08-58","","28038","","[""<span style=\""color: red; font-size: 24px\""> NOW RECORDING</span><p>Please say out loud all the images you saw in part 1 of the experiment, as many as you can remember. The images can be said in any order.</p>""]","","0","dog_causal"
"","","","","","image-button-response","15","165898","0.0-13.0-0.0","316303FDC0634BB8AE1B440774EE686F","316303FDC0634BB8AE1B440774EE686F","0198c00e-4440-7503-b605-b287d7147864","0198beef-981a-7243-9790-051e10551090","{""num_scrambled_semantic"":""8"",""num_scrambled_causal"":""4"",""num_scrambled_schematic"":""4"",""participantId"":""316303FDC0634BB8AE1B440774EE686F"",""assignmentId"":""0198c00e-4440-7503-b605-b287d7147864"",""projectId"":""0198beef-981a-7243-9790-051e10551090""}","https://test12345.live/?num_scrambled_semantic=8&num_scrambled_causal=4&num_scrambled_schematic=4&participantId=316303FDC0634BB8AE1B440774EE686F&assignmentId=0198c00e-4440-7503-b605-b287d7147864&projectId=0198beef-981a-7243-9790-051e10551090","316303FDC0634BB8AE1B440774EE686F-2025-08-19-02-08-58","","null","","images/semantic_sequence/cat_care_semantic/cat_care_semantic_0.png","null","",""
"","","","","","html-audio-response","16","191620","0.0-14.0","316303FDC0634BB8AE1B440774EE686F","316303FDC0634BB8AE1B440774EE686F","0198c00e-4440-7503-b605-b287d7147864","0198beef-981a-7243-9790-051e10551090","{""num_scrambled_semantic"":""8"",""num_scrambled_causal"":""4"",""num_scrambled_schematic"":""4"",""participantId"":""316303FDC0634BB8AE1B440774EE686F"",""assignmentId"":""0198c00e-4440-7503-b605-b287d7147864"",""projectId"":""0198beef-981a-7243-9790-051e10551090""}","https://test12345.live/?num_scrambled_semantic=8&num_scrambled_causal=4&num_scrambled_schematic=4&participantId=316303FDC0634BB8AE1B440774EE686F&assignmentId=0198c00e-4440-7503-b605-b287d7147864&projectId=0198beef-981a-7243-9790-051e10551090","316303FDC0634BB8AE1B440774EE686F-2025-08-19-02-08-58","","24973","","[""<span style=\""color: red; font-size: 24px\""> NOW RECORDING</span><p>Please say out loud all the images you saw in part 1 of the experiment, as many as you can remember. The images can be said in any order.</p>""]","","1","cat_care_semantic"
"","","","","","image-button-response","17","197624","0.0-15.0-0.0","316303FDC0634BB8AE1B440774EE686F","316303FDC0634BB8AE1B440774EE686F","0198c00e-4440-7503-b605-b287d7147864","0198beef-981a-7243-9790-051e10551090","{""num_scrambled_semantic"":""8"",""num_scrambled_causal"":""4"",""num_scrambled_schematic"":""4"",""participantId"":""316303FDC0634BB8AE1B440774EE686F"",""assignmentId"":""0198c00e-4440-7503-b605-b287d7147864"",""projectId"":""0198beef-981a-7243-9790-051e10551090""}","https://test12345.live/?num_scrambled_semantic=8&num_scrambled_causal=4&num_scrambled_schematic=4&participantId=316303FDC0634BB8AE1B440774EE686F&assignmentId=0198c00e-4440-7503-b605-b287d7147864&projectId=0198beef-981a-7243-9790-051e10551090","316303FDC0634BB8AE1B440774EE686F-2025-08-19-02-08-58","","null","","images/semantic_sequence/redecorating_semantic/redecorating_semantic_0.png","null","",""
"","","","","","html-audio-response","18","211746","0.0-16.0","316303FDC0634BB8AE1B440774EE686F","316303FDC0634BB8AE1B440774EE686F","0198c00e-4440-7503-b605-b287d7147864","0198beef-981a-7243-9790-051e10551090","{""num_scrambled_semantic"":""8"",""num_scrambled_causal"":""4"",""num_scrambled_schematic"":""4"",""participantId"":""316303FDC0634BB8AE1B440774EE686F"",""assignmentId"":""0198c00e-4440-7503-b605-b287d7147864"",""projectId"":""0198beef-981a-7243-9790-051e10551090""}","https://test12345.live/?num_scrambled_semantic=8&num_scrambled_causal=4&num_scrambled_schematic=4&participantId=316303FDC0634BB8AE1B440774EE686F&assignmentId=0198c00e-4440-7503-b605-b287d7147864&projectId=0198beef-981a-7243-9790-051e10551090","316303FDC0634BB8AE1B440774EE686F-2025-08-19-02-08-58","","13235","","[""<span style=\""color: red; font-size: 24px\""> NOW RECORDING</span><p>Please say out loud all the images you saw in part 1 of the experiment, as many as you can remember. The images can be said in any order.</p>""]","","1","redecorating_semantic"
"","","","","","image-button-response","19","217749","0.0-17.0-0.0","316303FDC0634BB8AE1B440774EE686F","316303FDC0634BB8AE1B440774EE686F","0198c00e-4440-7503-b605-b287d7147864","0198beef-981a-7243-9790-051e10551090","{""num_scrambled_semantic"":""8"",""num_scrambled_causal"":""4"",""num_scrambled_schematic"":""4"",""participantId"":""316303FDC0634BB8AE1B440774EE686F"",""assignmentId"":""0198c00e-4440-7503-b605-b287d7147864"",""projectId"":""0198beef-981a-7243-9790-051e10551090""}","https://test12345.live/?num_scrambled_semantic=8&num_scrambled_causal=4&num_scrambled_schematic=4&participantId=316303FDC0634BB8AE1B440774EE686F&assignmentId=0198c00e-4440-7503-b605-b287d7147864&projectId=0198beef-981a-7243-9790-051e10551090","316303FDC0634BB8AE1B440774EE686F-2025-08-19-02-08-58","","null","","images/semantic_sequence/physical_activity_semantic/physical_activity_semantic_0.png","null","",""
"","","","","","html-audio-response","20","249495","0.0-18.0","316303FDC0634BB8AE1B440774EE686F","316303FDC0634BB8AE1B440774EE686F","0198c00e-4440-7503-b605-b287d7147864","0198beef-981a-7243-9790-051e10551090","{""num_scrambled_semantic"":""8"",""num_scrambled_causal"":""4"",""num_scrambled_schematic"":""4"",""participantId"":""316303FDC0634BB8AE1B440774EE686F"",""assignmentId"":""0198c00e-4440-7503-b605-b287d7147864"",""projectId"":""0198beef-981a-7243-9790-051e10551090""}","https://test12345.live/?num_scrambled_semantic=8&num_scrambled_causal=4&num_scrambled_schematic=4&participantId=316303FDC0634BB8AE1B440774EE686F&assignmentId=0198c00e-4440-7503-b605-b287d7147864&projectId=0198beef-981a-7243-9790-051e10551090","316303FDC0634BB8AE1B440774EE686F-2025-08-19-02-08-58","","30656","","[""<span style=\""color: red; font-size: 24px\""> NOW RECORDING</span><p>Please say out loud all the images you saw in part 1 of the experiment, as many as you can remember. The images can be said in any order.</p>""]","","0","physical_activity_semantic"
"","","","","","image-button-response","21","255499","0.0-19.0-0.0","316303FDC0634BB8AE1B440774EE686F","316303FDC0634BB8AE1B440774EE686F","0198c00e-4440-7503-b605-b287d7147864","0198beef-981a-7243-9790-051e10551090","{""num_scrambled_semantic"":""8"",""num_scrambled_causal"":""4"",""num_scrambled_schematic"":""4"",""participantId"":""316303FDC0634BB8AE1B440774EE686F"",""assignmentId"":""0198c00e-4440-7503-b605-b287d7147864"",""projectId"":""0198beef-981a-7243-9790-051e10551090""}","https://test12345.live/?num_scrambled_semantic=8&num_scrambled_causal=4&num_scrambled_schematic=4&participantId=316303FDC0634BB8AE1B440774EE686F&assignmentId=0198c00e-4440-7503-b605-b287d7147864&projectId=0198beef-981a-7243-9790-051e10551090","316303FDC0634BB8AE1B440774EE686F-2025-08-19-02-08-58","","null","","images/semantic_sequence/housework_semantic/housework_semantic_0.png","null","",""
"","","","","","html-audio-response","22","283625","0.0-20.0","316303FDC0634BB8AE1B440774EE686F","316303FDC0634BB8AE1B440774EE686F","0198c00e-4440-7503-b605-b287d7147864","0198beef-981a-7243-9790-051e10551090","{""num_scrambled_semantic"":""8"",""num_scrambled_causal"":""4"",""num_scrambled_schematic"":""4"",""participantId"":""316303FDC0634BB8AE1B440774EE686F"",""assignmentId"":""0198c00e-4440-7503-b605-b287d7147864"",""projectId"":""0198beef-981a-7243-9790-051e10551090""}","https://test12345.live/?num_scrambled_semantic=8&num_scrambled_causal=4&num_scrambled_schematic=4&participantId=316303FDC0634BB8AE1B440774EE686F&assignmentId=0198c00e-4440-7503-b605-b287d7147864&projectId=0198beef-981a-7243-9790-051e10551090","316303FDC0634BB8AE1B440774EE686F-2025-08-19-02-08-58","","27335","","[""<span style=\""color: red; font-size: 24px\""> NOW RECORDING</span><p>Please say out loud all the images you saw in part 1 of the experiment, as many as you can remember. The images can be said in any order.</p>""]","","1","housework_semantic"
"","","","","","image-button-response","23","289628","0.0-21.0-0.0","316303FDC0634BB8AE1B440774EE686F","316303FDC0634BB8AE1B440774EE686F","0198c00e-4440-7503-b605-b287d7147864","0198beef-981a-7243-9790-051e10551090","{""num_scrambled_semantic"":""8"",""num_scrambled_causal"":""4"",""num_scrambled_schematic"":""4"",""participantId"":""316303FDC0634BB8AE1B440774EE686F"",""assignmentId"":""0198c00e-4440-7503-b605-b287d7147864"",""projectId"":""0198beef-981a-7243-9790-051e10551090""}","https://test12345.live/?num_scrambled_semantic=8&num_scrambled_causal=4&num_scrambled_schematic=4&participantId=316303FDC0634BB8AE1B440774EE686F&assignmentId=0198c00e-4440-7503-b605-b287d7147864&projectId=0198beef-981a-7243-9790-051e10551090","316303FDC0634BB8AE1B440774EE686F-2025-08-19-02-08-58","","null","","images/semantic_sequence/using_technology_semantic/using_technology_semantic_0.png","null","",""
"","","","","","html-audio-response","24","313803","0.0-22.0","316303FDC0634BB8AE1B440774EE686F","316303FDC0634BB8AE1B440774EE686F","0198c00e-4440-7503-b605-b287d7147864","0198beef-981a-7243-9790-051e10551090","{""num_scrambled_semantic"":""8"",""num_scrambled_causal"":""4"",""num_scrambled_schematic"":""4"",""participantId"":""316303FDC0634BB8AE1B440774EE686F"",""assignmentId"":""0198c00e-4440-7503-b605-b287d7147864"",""projectId"":""0198beef-981a-7243-9790-051e10551090""}","https://test12345.live/?num_scrambled_semantic=8&num_scrambled_causal=4&num_scrambled_schematic=4&participantId=316303FDC0634BB8AE1B440774EE686F&assignmentId=0198c00e-4440-7503-b605-b287d7147864&projectId=0198beef-981a-7243-9790-051e10551090","316303FDC0634BB8AE1B440774EE686F-2025-08-19-02-08-58","","23400","","[""<span style=\""color: red; font-size: 24px\""> NOW RECORDING</span><p>Please say out loud all the images you saw in part 1 of the experiment, as many as you can remember. The images can be said in any order.</p>""]","","0","using_technology_semantic"
"","","","","","image-button-response","25","319807","0.0-23.0-0.0","316303FDC0634BB8AE1B440774EE686F","316303FDC0634BB8AE1B440774EE686F","0198c00e-4440-7503-b605-b287d7147864","0198beef-981a-7243-9790-051e10551090","{""num_scrambled_semantic"":""8"",""num_scrambled_causal"":""4"",""num_scrambled_schematic"":""4"",""participantId"":""316303FDC0634BB8AE1B440774EE686F"",""assignmentId"":""0198c00e-4440-7503-b605-b287d7147864"",""projectId"":""0198beef-981a-7243-9790-051e10551090""}","https://test12345.live/?num_scrambled_semantic=8&num_scrambled_causal=4&num_scrambled_schematic=4&participantId=316303FDC0634BB8AE1B440774EE686F&assignmentId=0198c00e-4440-7503-b605-b287d7147864&projectId=0198beef-981a-7243-9790-051e10551090","316303FDC0634BB8AE1B440774EE686F-2025-08-19-02-08-58","","null","","images/semantic_sequence/creative_activities_semantic/creative_activities_semantic_0.png","null","",""
"","","","","","html-audio-response","26","340348","0.0-24.0","316303FDC0634BB8AE1B440774EE686F","316303FDC0634BB8AE1B440774EE686F","0198c00e-4440-7503-b605-b287d7147864","0198beef-981a-7243-9790-051e10551090","{""num_scrambled_semantic"":""8"",""num_scrambled_causal"":""4"",""num_scrambled_schematic"":""4"",""participantId"":""316303FDC0634BB8AE1B440774EE686F"",""assignmentId"":""0198c00e-4440-7503-b605-b287d7147864"",""projectId"":""0198beef-981a-7243-9790-051e10551090""}","https://test12345.live/?num_scrambled_semantic=8&num_scrambled_causal=4&num_scrambled_schematic=4&participantId=316303FDC0634BB8AE1B440774EE686F&assignmentId=0198c00e-4440-7503-b605-b287d7147864&projectId=0198beef-981a-7243-9790-051e10551090","316303FDC0634BB8AE1B440774EE686F-2025-08-19-02-08-58","","19814","","[""<span style=\""color: red; font-size: 24px\""> NOW RECORDING</span><p>Please say out loud all the images you saw in part 1 of the experiment, as many as you can remember. The images can be said in any order.</p>""]","","1","creative_activities_semantic"
"","","","","","image-button-response","27","346350","0.0-25.0-0.0","316303FDC0634BB8AE1B440774EE686F","316303FDC0634BB8AE1B440774EE686F","0198c00e-4440-7503-b605-b287d7147864","0198beef-981a-7243-9790-051e10551090","{""num_scrambled_semantic"":""8"",""num_scrambled_causal"":""4"",""num_scrambled_schematic"":""4"",""participantId"":""316303FDC0634BB8AE1B440774EE686F"",""assignmentId"":""0198c00e-4440-7503-b605-b287d7147864"",""projectId"":""0198beef-981a-7243-9790-051e10551090""}","https://test12345.live/?num_scrambled_semantic=8&num_scrambled_causal=4&num_scrambled_schematic=4&participantId=316303FDC0634BB8AE1B440774EE686F&assignmentId=0198c00e-4440-7503-b605-b287d7147864&projectId=0198beef-981a-7243-9790-051e10551090","316303FDC0634BB8AE1B440774EE686F-2025-08-19-02-08-58","","null","","images/causal_sequence/museum_causal/museum_causal_0.png","null","",""
"","","","","","html-audio-response","28","376470","0.0-26.0","316303FDC0634BB8AE1B440774EE686F","316303FDC0634BB8AE1B440774EE686F","0198c00e-4440-7503-b605-b287d7147864","0198beef-981a-7243-9790-051e10551090","{""num_scrambled_semantic"":""8"",""num_scrambled_causal"":""4"",""num_scrambled_schematic"":""4"",""participantId"":""316303FDC0634BB8AE1B440774EE686F"",""assignmentId"":""0198c00e-4440-7503-b605-b287d7147864"",""projectId"":""0198beef-981a-7243-9790-051e10551090""}","https://test12345.live/?num_scrambled_semantic=8&num_scrambled_causal=4&num_scrambled_schematic=4&participantId=316303FDC0634BB8AE1B440774EE686F&assignmentId=0198c00e-4440-7503-b605-b287d7147864&projectId=0198beef-981a-7243-9790-051e10551090","316303FDC0634BB8AE1B440774EE686F-2025-08-19-02-08-58","","28942","","[""<span style=\""color: red; font-size: 24px\""> NOW RECORDING</span><p>Please say out loud all the images you saw in part 1 of the experiment, as many as you can remember. The images can be said in any order.</p>""]","","1","museum_causal"
"","","","","","image-button-response","29","382474","0.0-27.0-0.0","316303FDC0634BB8AE1B440774EE686F","316303FDC0634BB8AE1B440774EE686F","0198c00e-4440-7503-b605-b287d7147864","0198beef-981a-7243-9790-051e10551090","{""num_scrambled_semantic"":""8"",""num_scrambled_causal"":""4"",""num_scrambled_schematic"":""4"",""participantId"":""316303FDC0634BB8AE1B440774EE686F"",""assignmentId"":""0198c00e-4440-7503-b605-b287d7147864"",""projectId"":""0198beef-981a-7243-9790-051e10551090""}","https://test12345.live/?num_scrambled_semantic=8&num_scrambled_causal=4&num_scrambled_schematic=4&participantId=316303FDC0634BB8AE1B440774EE686F&assignmentId=0198c00e-4440-7503-b605-b287d7147864&projectId=0198beef-981a-7243-9790-051e10551090","316303FDC0634BB8AE1B440774EE686F-2025-08-19-02-08-58","","null","","images/causal_sequence/coin_causal/coin_causal_0.png","null","",""
"","","","","","html-audio-response","30","423103","0.0-28.0","316303FDC0634BB8AE1B440774EE686F","316303FDC0634BB8AE1B440774EE686F","0198c00e-4440-7503-b605-b287d7147864","0198beef-981a-7243-9790-051e10551090","{""num_scrambled_semantic"":""8"",""num_scrambled_causal"":""4"",""num_scrambled_schematic"":""4"",""participantId"":""316303FDC0634BB8AE1B440774EE686F"",""assignmentId"":""0198c00e-4440-7503-b605-b287d7147864"",""projectId"":""0198beef-981a-7243-9790-051e10551090""}","https://test12345.live/?num_scrambled_semantic=8&num_scrambled_causal=4&num_scrambled_schematic=4&participantId=316303FDC0634BB8AE1B440774EE686F&assignmentId=0198c00e-4440-7503-b605-b287d7147864&projectId=0198beef-981a-7243-9790-051e10551090","316303FDC0634BB8AE1B440774EE686F-2025-08-19-02-08-58","","39847","","[""<span style=\""color: red; font-size: 24px\""> NOW RECORDING</span><p>Please say out loud all the images you saw in part 1 of the experiment, as many as you can remember. The images can be said in any order.</p>""]","","1","coin_causal"
"","","","","","image-button-response","31","429107","0.0-29.0-0.0","316303FDC0634BB8AE1B440774EE686F","316303FDC0634BB8AE1B440774EE686F","0198c00e-4440-7503-b605-b287d7147864","0198beef-981a-7243-9790-051e10551090","{""num_scrambled_semantic"":""8"",""num_scrambled_causal"":""4"",""num_scrambled_schematic"":""4"",""participantId"":""316303FDC0634BB8AE1B440774EE686F"",""assignmentId"":""0198c00e-4440-7503-b605-b287d7147864"",""projectId"":""0198beef-981a-7243-9790-051e10551090""}","https://test12345.live/?num_scrambled_semantic=8&num_scrambled_causal=4&num_scrambled_schematic=4&participantId=316303FDC0634BB8AE1B440774EE686F&assignmentId=0198c00e-4440-7503-b605-b287d7147864&projectId=0198beef-981a-7243-9790-051e10551090","316303FDC0634BB8AE1B440774EE686F-2025-08-19-02-08-58","","null","","images/causal_sequence/saving_a_cat_causal/saving_a_cat_causal_0.png","null","",""
"","","","","","html-audio-response","32","458235","0.0-30.0","316303FDC0634BB8AE1B440774EE686F","316303FDC0634BB8AE1B440774EE686F","0198c00e-4440-7503-b605-b287d7147864","0198beef-981a-7243-9790-051e10551090","{""num_scrambled_semantic"":""8"",""num_scrambled_causal"":""4"",""num_scrambled_schematic"":""4"",""participantId"":""316303FDC0634BB8AE1B440774EE686F"",""assignmentId"":""0198c00e-4440-7503-b605-b287d7147864"",""projectId"":""0198beef-981a-7243-9790-051e10551090""}","https://test12345.live/?num_scrambled_semantic=8&num_scrambled_causal=4&num_scrambled_schematic=4&participantId=316303FDC0634BB8AE1B440774EE686F&assignmentId=0198c00e-4440-7503-b605-b287d7147864&projectId=0198beef-981a-7243-9790-051e10551090","316303FDC0634BB8AE1B440774EE686F-2025-08-19-02-08-58","","28491","","[""<span style=\""color: red; font-size: 24px\""> NOW RECORDING</span><p>Please say out loud all the images you saw in part 1 of the experiment, as many as you can remember. The images can be said in any order.</p>""]","","1","saving_a_cat_causal"
"","","","","","image-button-response","33","464238","0.0-31.0-0.0","316303FDC0634BB8AE1B440774EE686F","316303FDC0634BB8AE1B440774EE686F","0198c00e-4440-7503-b605-b287d7147864","0198beef-981a-7243-9790-051e10551090","{""num_scrambled_semantic"":""8"",""num_scrambled_causal"":""4"",""num_scrambled_schematic"":""4"",""participantId"":""316303FDC0634BB8AE1B440774EE686F"",""assignmentId"":""0198c00e-4440-7503-b605-b287d7147864"",""projectId"":""0198beef-981a-7243-9790-051e10551090""}","https://test12345.live/?num_scrambled_semantic=8&num_scrambled_causal=4&num_scrambled_schematic=4&participantId=316303FDC0634BB8AE1B440774EE686F&assignmentId=0198c00e-4440-7503-b605-b287d7147864&projectId=0198beef-981a-7243-9790-051e10551090","316303FDC0634BB8AE1B440774EE686F-2025-08-19-02-08-58","","null","","images/causal_sequence/the_performance_causal/the_performance_causal_0.png","null","",""
"","","","","","html-audio-response","34","484972","0.0-32.0","316303FDC0634BB8AE1B440774EE686F","316303FDC0634BB8AE1B440774EE686F","0198c00e-4440-7503-b605-b287d7147864","0198beef-981a-7243-9790-051e10551090","{""num_scrambled_semantic"":""8"",""num_scrambled_causal"":""4"",""num_scrambled_schematic"":""4"",""participantId"":""316303FDC0634BB8AE1B440774EE686F"",""assignmentId"":""0198c00e-4440-7503-b605-b287d7147864"",""projectId"":""0198beef-981a-7243-9790-051e10551090""}","https://test12345.live/?num_scrambled_semantic=8&num_scrambled_causal=4&num_scrambled_schematic=4&participantId=316303FDC0634BB8AE1B440774EE686F&assignmentId=0198c00e-4440-7503-b605-b287d7147864&projectId=0198beef-981a-7243-9790-051e10551090","316303FDC0634BB8AE1B440774EE686F-2025-08-19-02-08-58","","19949","","[""<span style=\""color: red; font-size: 24px\""> NOW RECORDING</span><p>Please say out loud all the images you saw in part 1 of the experiment, as many as you can remember. The images can be said in any order.</p>""]","","3","the_performance_causal"
"","","","","","image-button-response","35","490976","0.0-33.0-0.0","316303FDC0634BB8AE1B440774EE686F","316303FDC0634BB8AE1B440774EE686F","0198c00e-4440-7503-b605-b287d7147864","0198beef-981a-7243-9790-051e10551090","{""num_scrambled_semantic"":""8"",""num_scrambled_causal"":""4"",""num_scrambled_schematic"":""4"",""participantId"":""316303FDC0634BB8AE1B440774EE686F"",""assignmentId"":""0198c00e-4440-7503-b605-b287d7147864"",""projectId"":""0198beef-981a-7243-9790-051e10551090""}","https://test12345.live/?num_scrambled_semantic=8&num_scrambled_causal=4&num_scrambled_schematic=4&participantId=316303FDC0634BB8AE1B440774EE686F&assignmentId=0198c00e-4440-7503-b605-b287d7147864&projectId=0198beef-981a-7243-9790-051e10551090","316303FDC0634BB8AE1B440774EE686F-2025-08-19-02-08-58","","null","","images/causal_sequence/package_causal/package_causal_0.png","null","",""
"","","","","","html-audio-response","36","513998","0.0-34.0","316303FDC0634BB8AE1B440774EE686F","316303FDC0634BB8AE1B440774EE686F","0198c00e-4440-7503-b605-b287d7147864","0198beef-981a-7243-9790-051e10551090","{""num_scrambled_semantic"":""8"",""num_scrambled_causal"":""4"",""num_scrambled_schematic"":""4"",""participantId"":""316303FDC0634BB8AE1B440774EE686F"",""assignmentId"":""0198c00e-4440-7503-b605-b287d7147864"",""projectId"":""0198beef-981a-7243-9790-051e10551090""}","https://test12345.live/?num_scrambled_semantic=8&num_scrambled_causal=4&num_scrambled_schematic=4&participantId=316303FDC0634BB8AE1B440774EE686F&assignmentId=0198c00e-4440-7503-b605-b287d7147864&projectId=0198beef-981a-7243-9790-051e10551090","316303FDC0634BB8AE1B440774EE686F-2025-08-19-02-08-58","","21868","","[""<span style=\""color: red; font-size: 24px\""> NOW RECORDING</span><p>Please say out loud all the images you saw in part 1 of the experiment, as many as you can remember. The images can be said in any order.</p>""]","","1","package_causal"
"","","","","","survey-text","37","519644","0.0-35.0","316303FDC0634BB8AE1B440774EE686F","316303FDC0634BB8AE1B440774EE686F","0198c00e-4440-7503-b605-b287d7147864","0198beef-981a-7243-9790-051e10551090","{""num_scrambled_semantic"":""8"",""num_scrambled_causal"":""4"",""num_scrambled_schematic"":""4"",""participantId"":""316303FDC0634BB8AE1B440774EE686F"",""assignmentId"":""0198c00e-4440-7503-b605-b287d7147864"",""projectId"":""0198beef-981a-7243-9790-051e10551090""}","https://test12345.live/?num_scrambled_semantic=8&num_scrambled_causal=4&num_scrambled_schematic=4&participantId=316303FDC0634BB8AE1B440774EE686F&assignmentId=0198c00e-4440-7503-b605-b287d7147864&projectId=0198beef-981a-7243-9790-051e10551090","316303FDC0634BB8AE1B440774EE686F-2025-08-19-02-08-58","","5643","","","{""Q0"":""Male"",""Q1"":""22""}","",""
"","","","","","instructions","38","522464","0.0-36.0","316303FDC0634BB8AE1B440774EE686F","316303FDC0634BB8AE1B440774EE686F","0198c00e-4440-7503-b605-b287d7147864","0198beef-981a-7243-9790-051e10551090","{""num_scrambled_semantic"":""8"",""num_scrambled_causal"":""4"",""num_scrambled_schematic"":""4"",""participantId"":""316303FDC0634BB8AE1B440774EE686F"",""assignmentId"":""0198c00e-4440-7503-b605-b287d7147864"",""projectId"":""0198beef-981a-7243-9790-051e10551090""}","https://test12345.live/?num_scrambled_semantic=8&num_scrambled_causal=4&num_scrambled_schematic=4&participantId=316303FDC0634BB8AE1B440774EE686F&assignmentId=0198c00e-4440-7503-b605-b287d7147864&projectId=0198beef-981a-7243-9790-051e10551090","316303FDC0634BB8AE1B440774EE686F-2025-08-19-02-08-58","[{""page_index"":0,""viewing_time"":2819}]","2820","","","","",""
"","","","","","survey-text","39","524534","0.0-37.0","316303FDC0634BB8AE1B440774EE686F","316303FDC0634BB8AE1B440774EE686F","0198c00e-4440-7503-b605-b287d7147864","0198beef-981a-7243-9790-051e10551090","{""num_scrambled_semantic"":""8"",""num_scrambled_causal"":""4"",""num_scrambled_schematic"":""4"",""participantId"":""316303FDC0634BB8AE1B440774EE686F"",""assignmentId"":""0198c00e-4440-7503-b605-b287d7147864"",""projectId"":""0198beef-981a-7243-9790-051e10551090""}","https://test12345.live/?num_scrambled_semantic=8&num_scrambled_causal=4&num_scrambled_schematic=4&participantId=316303FDC0634BB8AE1B440774EE686F&assignmentId=0198c00e-4440-7503-b605-b287d7147864&projectId=0198beef-981a-7243-9790-051e10551090","316303FDC0634BB8AE1B440774EE686F-2025-08-19-02-08-58","","2069","","","{""Q0"":""AJFHBG896""}","",""
