"success","timeout","failed_images","failed_audio","failed_video","trial_type","trial_index","time_elapsed","internal_node_id","subject","subject_id","study_id","session_id","urlvar","current_url","audio_id","view_history","rt","device_id","stimulus","response","estimated_stimulus_onset","seq_name"
"true","false","[]","[]","[]","preload","0","4606","0.0-0.0","3341F1296A454766A8E3BC48D7B5E50E","3341F1296A454766A8E3BC48D7B5E50E","0198bffc-b76d-7438-a84c-8ce9a44d83fc","0198beef-981a-7243-9790-051e10551090","{""num_scrambled_semantic"":""8"",""num_scrambled_causal"":""4"",""num_scrambled_schematic"":""4"",""participantId"":""3341F1296A454766A8E3BC48D7B5E50E"",""assignmentId"":""0198bffc-b76d-7438-a84c-8ce9a44d83fc"",""projectId"":""0198beef-981a-7243-9790-051e10551090""}","https://test12345.live/?num_scrambled_semantic=8&num_scrambled_causal=4&num_scrambled_schematic=4&participantId=3341F1296A454766A8E3BC48D7B5E50E&assignmentId=0198bffc-b76d-7438-a84c-8ce9a44d83fc&projectId=0198beef-981a-7243-9790-051e10551090","3341F1296A454766A8E3BC48D7B5E50E-2025-08-19-02-00-08","","","","","","",""
"","","","","","instructions","1","513902","0.0-1.0","3341F1296A454766A8E3BC48D7B5E50E","3341F1296A454766A8E3BC48D7B5E50E","0198bffc-b76d-7438-a84c-8ce9a44d83fc","0198beef-981a-7243-9790-051e10551090","{""num_scrambled_semantic"":""8"",""num_scrambled_causal"":""4"",""num_scrambled_schematic"":""4"",""participantId"":""3341F1296A454766A8E3BC48D7B5E50E"",""assignmentId"":""0198bffc-b76d-7438-a84c-8ce9a44d83fc"",""projectId"":""0198beef-981a-7243-9790-051e10551090""}","https://test12345.live/?num_scrambled_semantic=8&num_scrambled_causal=4&num_scrambled_schematic=4&participantId=3341F1296A454766A8E3BC48D7B5E50E&assignmentId=0198bffc-b76d-7438-a84c-8ce9a44d83fc&projectId=0198beef-981a-7243-9790-051e10551090","3341F1296A454766A8E3BC48D7B5E50E-2025-08-19-02-00-08","[{""page_index"":0,""viewing_time"":509292}]","509292","","","","",""
"","","","","","instructions","2","524205","0.0-2.0","3341F1296A454766A8E3BC48D7B5E50E","3341F1296A454766A8E3BC48D7B5E50E","0198bffc-b76d-7438-a84c-8ce9a44d83fc","0198beef-981a-7243-9790-051e10551090","{""num_scrambled_semantic"":""8"",""num_scrambled_causal"":""4"",""num_scrambled_schematic"":""4"",""participantId"":""3341F1296A454766A8E3BC48D7B5E50E"",""assignmentId"":""0198bffc-b76d-7438-a84c-8ce9a44d83fc"",""projectId"":""0198beef-981a-7243-9790-051e10551090""}","https://test12345.live/?num_scrambled_semantic=8&num_scrambled_causal=4&num_scrambled_schematic=4&participantId=3341F1296A454766A8E3BC48D7B5E50E&assignmentId=0198bffc-b76d-7438-a84c-8ce9a44d83fc&projectId=0198beef-981a-7243-9790-051e10551090","3341F1296A454766A8E3BC48D7B5E50E-2025-08-19-02-00-08","[{""page_index"":0,""viewing_time"":10303}]","10303","","","","",""
"true","","","","","fullscreen","3","527382","0.0-3.0","3341F1296A454766A8E3BC48D7B5E50E","3341F1296A454766A8E3BC48D7B5E50E","0198bffc-b76d-7438-a84c-8ce9a44d83fc","0198beef-981a-7243-9790-051e10551090","{""num_scrambled_semantic"":""8"",""num_scrambled_causal"":""4"",""num_scrambled_schematic"":""4"",""participantId"":""3341F1296A454766A8E3BC48D7B5E50E"",""assignmentId"":""0198bffc-b76d-7438-a84c-8ce9a44d83fc"",""projectId"":""0198beef-981a-7243-9790-051e10551090""}","https://test12345.live/?num_scrambled_semantic=8&num_scrambled_causal=4&num_scrambled_schematic=4&participantId=3341F1296A454766A8E3BC48D7B5E50E&assignmentId=0198bffc-b76d-7438-a84c-8ce9a44d83fc&projectId=0198beef-981a-7243-9790-051e10551090","3341F1296A454766A8E3BC48D7B5E50E-2025-08-19-02-00-08","","2175","","","","",""
"","","","","","initialize-microphone","4","545789","0.0-4.0-0.0","3341F1296A454766A8E3BC48D7B5E50E","3341F1296A454766A8E3BC48D7B5E50E","0198bffc-b76d-7438-a84c-8ce9a44d83fc","0198beef-981a-7243-9790-051e10551090","{""num_scrambled_semantic"":""8"",""num_scrambled_causal"":""4"",""num_scrambled_schematic"":""4"",""participantId"":""3341F1296A454766A8E3BC48D7B5E50E"",""assignmentId"":""0198bffc-b76d-7438-a84c-8ce9a44d83fc"",""projectId"":""0198beef-981a-7243-9790-051e10551090""}","https://test12345.live/?num_scrambled_semantic=8&num_scrambled_causal=4&num_scrambled_schematic=4&participantId=3341F1296A454766A8E3BC48D7B5E50E&assignmentId=0198bffc-b76d-7438-a84c-8ce9a44d83fc&projectId=0198beef-981a-7243-9790-051e10551090","3341F1296A454766A8E3BC48D7B5E50E-2025-08-19-02-00-08","","","5930f6bfee27d428172c294ed3606397a6d2cae28eec376b457f32389b69e7b9","","","",""
"","","","","","html-audio-response","5","581807","0.0-4.0-1.0","3341F1296A454766A8E3BC48D7B5E50E","3341F1296A454766A8E3BC48D7B5E50E","0198bffc-b76d-7438-a84c-8ce9a44d83fc","0198beef-981a-7243-9790-051e10551090","{""num_scrambled_semantic"":""8"",""num_scrambled_causal"":""4"",""num_scrambled_schematic"":""4"",""participantId"":""3341F1296A454766A8E3BC48D7B5E50E"",""assignmentId"":""0198bffc-b76d-7438-a84c-8ce9a44d83fc"",""projectId"":""0198beef-981a-7243-9790-051e10551090""}","https://test12345.live/?num_scrambled_semantic=8&num_scrambled_causal=4&num_scrambled_schematic=4&participantId=3341F1296A454766A8E3BC48D7B5E50E&assignmentId=0198bffc-b76d-7438-a84c-8ce9a44d83fc&projectId=0198beef-981a-7243-9790-051e10551090","3341F1296A454766A8E3BC48D7B5E50E-2025-08-19-02-00-08","","2927","","<span style=""color: red; font-size: 24px""> NOW RECORDING</span>
        <p>Please test Microphone</p>","","4",""
"","","","","","html-button-response","6","583621","0.0-4.0-2.0","3341F1296A454766A8E3BC48D7B5E50E","3341F1296A454766A8E3BC48D7B5E50E","0198bffc-b76d-7438-a84c-8ce9a44d83fc","0198beef-981a-7243-9790-051e10551090","{""num_scrambled_semantic"":""8"",""num_scrambled_causal"":""4"",""num_scrambled_schematic"":""4"",""participantId"":""3341F1296A454766A8E3BC48D7B5E50E"",""assignmentId"":""0198bffc-b76d-7438-a84c-8ce9a44d83fc"",""projectId"":""0198beef-981a-7243-9790-051e10551090""}","https://test12345.live/?num_scrambled_semantic=8&num_scrambled_causal=4&num_scrambled_schematic=4&participantId=3341F1296A454766A8E3BC48D7B5E50E&assignmentId=0198bffc-b76d-7438-a84c-8ce9a44d83fc&projectId=0198beef-981a-7243-9790-051e10551090","3341F1296A454766A8E3BC48D7B5E50E-2025-08-19-02-00-08","","1813","","<p style=""font-size:48px; color:red;"">Is Microphone OK?</p>","1","",""
"","","","","","instructions","7","600781","0.0-5.0","3341F1296A454766A8E3BC48D7B5E50E","3341F1296A454766A8E3BC48D7B5E50E","0198bffc-b76d-7438-a84c-8ce9a44d83fc","0198beef-981a-7243-9790-051e10551090","{""num_scrambled_semantic"":""8"",""num_scrambled_causal"":""4"",""num_scrambled_schematic"":""4"",""participantId"":""3341F1296A454766A8E3BC48D7B5E50E"",""assignmentId"":""0198bffc-b76d-7438-a84c-8ce9a44d83fc"",""projectId"":""0198beef-981a-7243-9790-051e10551090""}","https://test12345.live/?num_scrambled_semantic=8&num_scrambled_causal=4&num_scrambled_schematic=4&participantId=3341F1296A454766A8E3BC48D7B5E50E&assignmentId=0198bffc-b76d-7438-a84c-8ce9a44d83fc&projectId=0198beef-981a-7243-9790-051e10551090","3341F1296A454766A8E3BC48D7B5E50E-2025-08-19-02-00-08","[{""page_index"":0,""viewing_time"":2167},{""page_index"":1,""viewing_time"":7416},{""page_index"":2,""viewing_time"":7576}]","17159","","","","",""
"","","","","","image-button-response","8","606786","0.0-6.0-0.0","3341F1296A454766A8E3BC48D7B5E50E","3341F1296A454766A8E3BC48D7B5E50E","0198bffc-b76d-7438-a84c-8ce9a44d83fc","0198beef-981a-7243-9790-051e10551090","{""num_scrambled_semantic"":""8"",""num_scrambled_causal"":""4"",""num_scrambled_schematic"":""4"",""participantId"":""3341F1296A454766A8E3BC48D7B5E50E"",""assignmentId"":""0198bffc-b76d-7438-a84c-8ce9a44d83fc"",""projectId"":""0198beef-981a-7243-9790-051e10551090""}","https://test12345.live/?num_scrambled_semantic=8&num_scrambled_causal=4&num_scrambled_schematic=4&participantId=3341F1296A454766A8E3BC48D7B5E50E&assignmentId=0198bffc-b76d-7438-a84c-8ce9a44d83fc&projectId=0198beef-981a-7243-9790-051e10551090","3341F1296A454766A8E3BC48D7B5E50E-2025-08-19-02-00-08","","null","","images/instructions/movie_0.png","null","",""
"","","","","","html-audio-response","9","617077","0.0-7.0","3341F1296A454766A8E3BC48D7B5E50E","3341F1296A454766A8E3BC48D7B5E50E","0198bffc-b76d-7438-a84c-8ce9a44d83fc","0198beef-981a-7243-9790-051e10551090","{""num_scrambled_semantic"":""8"",""num_scrambled_causal"":""4"",""num_scrambled_schematic"":""4"",""participantId"":""3341F1296A454766A8E3BC48D7B5E50E"",""assignmentId"":""0198bffc-b76d-7438-a84c-8ce9a44d83fc"",""projectId"":""0198beef-981a-7243-9790-051e10551090""}","https://test12345.live/?num_scrambled_semantic=8&num_scrambled_causal=4&num_scrambled_schematic=4&participantId=3341F1296A454766A8E3BC48D7B5E50E&assignmentId=0198bffc-b76d-7438-a84c-8ce9a44d83fc&projectId=0198beef-981a-7243-9790-051e10551090","3341F1296A454766A8E3BC48D7B5E50E-2025-08-19-02-00-08","","5410","","[""<span style=\""color: red; font-size: 24px\""> NOW RECORDING</span><p>Please say out loud all the images you saw in part 1 of the experiment, as many as you can remember. The images can be said in any order.</p>""]","","3",""
"","","","","","instructions","10","619861","0.0-8.0","3341F1296A454766A8E3BC48D7B5E50E","3341F1296A454766A8E3BC48D7B5E50E","0198bffc-b76d-7438-a84c-8ce9a44d83fc","0198beef-981a-7243-9790-051e10551090","{""num_scrambled_semantic"":""8"",""num_scrambled_causal"":""4"",""num_scrambled_schematic"":""4"",""participantId"":""3341F1296A454766A8E3BC48D7B5E50E"",""assignmentId"":""0198bffc-b76d-7438-a84c-8ce9a44d83fc"",""projectId"":""0198beef-981a-7243-9790-051e10551090""}","https://test12345.live/?num_scrambled_semantic=8&num_scrambled_causal=4&num_scrambled_schematic=4&participantId=3341F1296A454766A8E3BC48D7B5E50E&assignmentId=0198bffc-b76d-7438-a84c-8ce9a44d83fc&projectId=0198beef-981a-7243-9790-051e10551090","3341F1296A454766A8E3BC48D7B5E50E-2025-08-19-02-00-08","[{""page_index"":0,""viewing_time"":2782}]","2783","","","","",""
"","","","","","image-button-response","11","625870","0.0-9.0-0.0","3341F1296A454766A8E3BC48D7B5E50E","3341F1296A454766A8E3BC48D7B5E50E","0198bffc-b76d-7438-a84c-8ce9a44d83fc","0198beef-981a-7243-9790-051e10551090","{""num_scrambled_semantic"":""8"",""num_scrambled_causal"":""4"",""num_scrambled_schematic"":""4"",""participantId"":""3341F1296A454766A8E3BC48D7B5E50E"",""assignmentId"":""0198bffc-b76d-7438-a84c-8ce9a44d83fc"",""projectId"":""0198beef-981a-7243-9790-051e10551090""}","https://test12345.live/?num_scrambled_semantic=8&num_scrambled_causal=4&num_scrambled_schematic=4&participantId=3341F1296A454766A8E3BC48D7B5E50E&assignmentId=0198bffc-b76d-7438-a84c-8ce9a44d83fc&projectId=0198beef-981a-7243-9790-051e10551090","3341F1296A454766A8E3BC48D7B5E50E-2025-08-19-02-00-08","","null","","images/causal_sequence/package_causal/package_causal_0.png","null","",""
"","","","","","html-audio-response","12","656453","0.0-10.0","3341F1296A454766A8E3BC48D7B5E50E","3341F1296A454766A8E3BC48D7B5E50E","0198bffc-b76d-7438-a84c-8ce9a44d83fc","0198beef-981a-7243-9790-051e10551090","{""num_scrambled_semantic"":""8"",""num_scrambled_causal"":""4"",""num_scrambled_schematic"":""4"",""participantId"":""3341F1296A454766A8E3BC48D7B5E50E"",""assignmentId"":""0198bffc-b76d-7438-a84c-8ce9a44d83fc"",""projectId"":""0198beef-981a-7243-9790-051e10551090""}","https://test12345.live/?num_scrambled_semantic=8&num_scrambled_causal=4&num_scrambled_schematic=4&participantId=3341F1296A454766A8E3BC48D7B5E50E&assignmentId=0198bffc-b76d-7438-a84c-8ce9a44d83fc&projectId=0198beef-981a-7243-9790-051e10551090","3341F1296A454766A8E3BC48D7B5E50E-2025-08-19-02-00-08","","7997","","[""<span style=\""color: red; font-size: 24px\""> NOW RECORDING</span><p>Please say out loud all the images you saw in part 1 of the experiment, as many as you can remember. The images can be said in any order.</p>""]","","2","package_causal"
"","","","","","image-button-response","13","662457","0.0-11.0-0.0","3341F1296A454766A8E3BC48D7B5E50E","3341F1296A454766A8E3BC48D7B5E50E","0198bffc-b76d-7438-a84c-8ce9a44d83fc","0198beef-981a-7243-9790-051e10551090","{""num_scrambled_semantic"":""8"",""num_scrambled_causal"":""4"",""num_scrambled_schematic"":""4"",""participantId"":""3341F1296A454766A8E3BC48D7B5E50E"",""assignmentId"":""0198bffc-b76d-7438-a84c-8ce9a44d83fc"",""projectId"":""0198beef-981a-7243-9790-051e10551090""}","https://test12345.live/?num_scrambled_semantic=8&num_scrambled_causal=4&num_scrambled_schematic=4&participantId=3341F1296A454766A8E3BC48D7B5E50E&assignmentId=0198bffc-b76d-7438-a84c-8ce9a44d83fc&projectId=0198beef-981a-7243-9790-051e10551090","3341F1296A454766A8E3BC48D7B5E50E-2025-08-19-02-00-08","","null","","images/semantic_sequence/physical_activity_semantic/physical_activity_semantic_0.png","null","",""
"","","","","","html-audio-response","14","681781","0.0-12.0","3341F1296A454766A8E3BC48D7B5E50E","3341F1296A454766A8E3BC48D7B5E50E","0198bffc-b76d-7438-a84c-8ce9a44d83fc","0198beef-981a-7243-9790-051e10551090","{""num_scrambled_semantic"":""8"",""num_scrambled_causal"":""4"",""num_scrambled_schematic"":""4"",""participantId"":""3341F1296A454766A8E3BC48D7B5E50E"",""assignmentId"":""0198bffc-b76d-7438-a84c-8ce9a44d83fc"",""projectId"":""0198beef-981a-7243-9790-051e10551090""}","https://test12345.live/?num_scrambled_semantic=8&num_scrambled_causal=4&num_scrambled_schematic=4&participantId=3341F1296A454766A8E3BC48D7B5E50E&assignmentId=0198bffc-b76d-7438-a84c-8ce9a44d83fc&projectId=0198beef-981a-7243-9790-051e10551090","3341F1296A454766A8E3BC48D7B5E50E-2025-08-19-02-00-08","","18562","","[""<span style=\""color: red; font-size: 24px\""> NOW RECORDING</span><p>Please say out loud all the images you saw in part 1 of the experiment, as many as you can remember. The images can be said in any order.</p>""]","","5","physical_activity_semantic"
"","","","","","image-button-response","15","687785","0.0-13.0-0.0","3341F1296A454766A8E3BC48D7B5E50E","3341F1296A454766A8E3BC48D7B5E50E","0198bffc-b76d-7438-a84c-8ce9a44d83fc","0198beef-981a-7243-9790-051e10551090","{""num_scrambled_semantic"":""8"",""num_scrambled_causal"":""4"",""num_scrambled_schematic"":""4"",""participantId"":""3341F1296A454766A8E3BC48D7B5E50E"",""assignmentId"":""0198bffc-b76d-7438-a84c-8ce9a44d83fc"",""projectId"":""0198beef-981a-7243-9790-051e10551090""}","https://test12345.live/?num_scrambled_semantic=8&num_scrambled_causal=4&num_scrambled_schematic=4&participantId=3341F1296A454766A8E3BC48D7B5E50E&assignmentId=0198bffc-b76d-7438-a84c-8ce9a44d83fc&projectId=0198beef-981a-7243-9790-051e10551090","3341F1296A454766A8E3BC48D7B5E50E-2025-08-19-02-00-08","","null","","images/causal_sequence/coin_causal/coin_causal_0.png","null","",""
"","","","","","html-audio-response","16","720813","0.0-14.0","3341F1296A454766A8E3BC48D7B5E50E","3341F1296A454766A8E3BC48D7B5E50E","0198bffc-b76d-7438-a84c-8ce9a44d83fc","0198beef-981a-7243-9790-051e10551090","{""num_scrambled_semantic"":""8"",""num_scrambled_causal"":""4"",""num_scrambled_schematic"":""4"",""participantId"":""3341F1296A454766A8E3BC48D7B5E50E"",""assignmentId"":""0198bffc-b76d-7438-a84c-8ce9a44d83fc"",""projectId"":""0198beef-981a-7243-9790-051e10551090""}","https://test12345.live/?num_scrambled_semantic=8&num_scrambled_causal=4&num_scrambled_schematic=4&participantId=3341F1296A454766A8E3BC48D7B5E50E&assignmentId=0198bffc-b76d-7438-a84c-8ce9a44d83fc&projectId=0198beef-981a-7243-9790-051e10551090","3341F1296A454766A8E3BC48D7B5E50E-2025-08-19-02-00-08","","32202","","[""<span style=\""color: red; font-size: 24px\""> NOW RECORDING</span><p>Please say out loud all the images you saw in part 1 of the experiment, as many as you can remember. The images can be said in any order.</p>""]","","3","coin_causal"
"","","","","","image-button-response","17","726819","0.0-15.0-0.0","3341F1296A454766A8E3BC48D7B5E50E","3341F1296A454766A8E3BC48D7B5E50E","0198bffc-b76d-7438-a84c-8ce9a44d83fc","0198beef-981a-7243-9790-051e10551090","{""num_scrambled_semantic"":""8"",""num_scrambled_causal"":""4"",""num_scrambled_schematic"":""4"",""participantId"":""3341F1296A454766A8E3BC48D7B5E50E"",""assignmentId"":""0198bffc-b76d-7438-a84c-8ce9a44d83fc"",""projectId"":""0198beef-981a-7243-9790-051e10551090""}","https://test12345.live/?num_scrambled_semantic=8&num_scrambled_causal=4&num_scrambled_schematic=4&participantId=3341F1296A454766A8E3BC48D7B5E50E&assignmentId=0198bffc-b76d-7438-a84c-8ce9a44d83fc&projectId=0198beef-981a-7243-9790-051e10551090","3341F1296A454766A8E3BC48D7B5E50E-2025-08-19-02-00-08","","null","","images/semantic_sequence/using_technology_semantic/using_technology_semantic_0.png","null","",""
"","","","","","html-audio-response","18","757509","0.0-16.0","3341F1296A454766A8E3BC48D7B5E50E","3341F1296A454766A8E3BC48D7B5E50E","0198bffc-b76d-7438-a84c-8ce9a44d83fc","0198beef-981a-7243-9790-051e10551090","{""num_scrambled_semantic"":""8"",""num_scrambled_causal"":""4"",""num_scrambled_schematic"":""4"",""participantId"":""3341F1296A454766A8E3BC48D7B5E50E"",""assignmentId"":""0198bffc-b76d-7438-a84c-8ce9a44d83fc"",""projectId"":""0198beef-981a-7243-9790-051e10551090""}","https://test12345.live/?num_scrambled_semantic=8&num_scrambled_causal=4&num_scrambled_schematic=4&participantId=3341F1296A454766A8E3BC48D7B5E50E&assignmentId=0198bffc-b76d-7438-a84c-8ce9a44d83fc&projectId=0198beef-981a-7243-9790-051e10551090","3341F1296A454766A8E3BC48D7B5E50E-2025-08-19-02-00-08","","28411","","[""<span style=\""color: red; font-size: 24px\""> NOW RECORDING</span><p>Please say out loud all the images you saw in part 1 of the experiment, as many as you can remember. The images can be said in any order.</p>""]","","3","using_technology_semantic"
"","","","","","image-button-response","19","763519","0.0-17.0-0.0","3341F1296A454766A8E3BC48D7B5E50E","3341F1296A454766A8E3BC48D7B5E50E","0198bffc-b76d-7438-a84c-8ce9a44d83fc","0198beef-981a-7243-9790-051e10551090","{""num_scrambled_semantic"":""8"",""num_scrambled_causal"":""4"",""num_scrambled_schematic"":""4"",""participantId"":""3341F1296A454766A8E3BC48D7B5E50E"",""assignmentId"":""0198bffc-b76d-7438-a84c-8ce9a44d83fc"",""projectId"":""0198beef-981a-7243-9790-051e10551090""}","https://test12345.live/?num_scrambled_semantic=8&num_scrambled_causal=4&num_scrambled_schematic=4&participantId=3341F1296A454766A8E3BC48D7B5E50E&assignmentId=0198bffc-b76d-7438-a84c-8ce9a44d83fc&projectId=0198beef-981a-7243-9790-051e10551090","3341F1296A454766A8E3BC48D7B5E50E-2025-08-19-02-00-08","","null","","images/semantic_sequence/maintaining_a_car_semantic/maintaining_a_car_semantic_0.png","null","",""
"","","","","","html-audio-response","20","785077","0.0-18.0","3341F1296A454766A8E3BC48D7B5E50E","3341F1296A454766A8E3BC48D7B5E50E","0198bffc-b76d-7438-a84c-8ce9a44d83fc","0198beef-981a-7243-9790-051e10551090","{""num_scrambled_semantic"":""8"",""num_scrambled_causal"":""4"",""num_scrambled_schematic"":""4"",""participantId"":""3341F1296A454766A8E3BC48D7B5E50E"",""assignmentId"":""0198bffc-b76d-7438-a84c-8ce9a44d83fc"",""projectId"":""0198beef-981a-7243-9790-051e10551090""}","https://test12345.live/?num_scrambled_semantic=8&num_scrambled_causal=4&num_scrambled_schematic=4&participantId=3341F1296A454766A8E3BC48D7B5E50E&assignmentId=0198bffc-b76d-7438-a84c-8ce9a44d83fc&projectId=0198beef-981a-7243-9790-051e10551090","3341F1296A454766A8E3BC48D7B5E50E-2025-08-19-02-00-08","","20746","","[""<span style=\""color: red; font-size: 24px\""> NOW RECORDING</span><p>Please say out loud all the images you saw in part 1 of the experiment, as many as you can remember. The images can be said in any order.</p>""]","","7","maintaining_a_car_semantic"
"","","","","","image-button-response","21","791085","0.0-19.0-0.0","3341F1296A454766A8E3BC48D7B5E50E","3341F1296A454766A8E3BC48D7B5E50E","0198bffc-b76d-7438-a84c-8ce9a44d83fc","0198beef-981a-7243-9790-051e10551090","{""num_scrambled_semantic"":""8"",""num_scrambled_causal"":""4"",""num_scrambled_schematic"":""4"",""participantId"":""3341F1296A454766A8E3BC48D7B5E50E"",""assignmentId"":""0198bffc-b76d-7438-a84c-8ce9a44d83fc"",""projectId"":""0198beef-981a-7243-9790-051e10551090""}","https://test12345.live/?num_scrambled_semantic=8&num_scrambled_causal=4&num_scrambled_schematic=4&participantId=3341F1296A454766A8E3BC48D7B5E50E&assignmentId=0198bffc-b76d-7438-a84c-8ce9a44d83fc&projectId=0198beef-981a-7243-9790-051e10551090","3341F1296A454766A8E3BC48D7B5E50E-2025-08-19-02-00-08","","null","","images/semantic_sequence/redecorating_semantic/redecorating_semantic_0.png","null","",""
"","","","","","html-audio-response","22","844941","0.0-20.0","3341F1296A454766A8E3BC48D7B5E50E","3341F1296A454766A8E3BC48D7B5E50E","0198bffc-b76d-7438-a84c-8ce9a44d83fc","0198beef-981a-7243-9790-051e10551090","{""num_scrambled_semantic"":""8"",""num_scrambled_causal"":""4"",""num_scrambled_schematic"":""4"",""participantId"":""3341F1296A454766A8E3BC48D7B5E50E"",""assignmentId"":""0198bffc-b76d-7438-a84c-8ce9a44d83fc"",""projectId"":""0198beef-981a-7243-9790-051e10551090""}","https://test12345.live/?num_scrambled_semantic=8&num_scrambled_causal=4&num_scrambled_schematic=4&participantId=3341F1296A454766A8E3BC48D7B5E50E&assignmentId=0198bffc-b76d-7438-a84c-8ce9a44d83fc&projectId=0198beef-981a-7243-9790-051e10551090","3341F1296A454766A8E3BC48D7B5E50E-2025-08-19-02-00-08","","22202","","[""<span style=\""color: red; font-size: 24px\""> NOW RECORDING</span><p>Please say out loud all the images you saw in part 1 of the experiment, as many as you can remember. The images can be said in any order.</p>""]","","5","redecorating_semantic"
"","","","","","image-button-response","23","850946","0.0-21.0-0.0","3341F1296A454766A8E3BC48D7B5E50E","3341F1296A454766A8E3BC48D7B5E50E","0198bffc-b76d-7438-a84c-8ce9a44d83fc","0198beef-981a-7243-9790-051e10551090","{""num_scrambled_semantic"":""8"",""num_scrambled_causal"":""4"",""num_scrambled_schematic"":""4"",""participantId"":""3341F1296A454766A8E3BC48D7B5E50E"",""assignmentId"":""0198bffc-b76d-7438-a84c-8ce9a44d83fc"",""projectId"":""0198beef-981a-7243-9790-051e10551090""}","https://test12345.live/?num_scrambled_semantic=8&num_scrambled_causal=4&num_scrambled_schematic=4&participantId=3341F1296A454766A8E3BC48D7B5E50E&assignmentId=0198bffc-b76d-7438-a84c-8ce9a44d83fc&projectId=0198beef-981a-7243-9790-051e10551090","3341F1296A454766A8E3BC48D7B5E50E-2025-08-19-02-00-08","","null","","images/causal_sequence/museum_causal/museum_causal_0.png","null","",""
"","","","","","html-audio-response","24","886580","0.0-22.0","3341F1296A454766A8E3BC48D7B5E50E","3341F1296A454766A8E3BC48D7B5E50E","0198bffc-b76d-7438-a84c-8ce9a44d83fc","0198beef-981a-7243-9790-051e10551090","{""num_scrambled_semantic"":""8"",""num_scrambled_causal"":""4"",""num_scrambled_schematic"":""4"",""participantId"":""3341F1296A454766A8E3BC48D7B5E50E"",""assignmentId"":""0198bffc-b76d-7438-a84c-8ce9a44d83fc"",""projectId"":""0198beef-981a-7243-9790-051e10551090""}","https://test12345.live/?num_scrambled_semantic=8&num_scrambled_causal=4&num_scrambled_schematic=4&participantId=3341F1296A454766A8E3BC48D7B5E50E&assignmentId=0198bffc-b76d-7438-a84c-8ce9a44d83fc&projectId=0198beef-981a-7243-9790-051e10551090","3341F1296A454766A8E3BC48D7B5E50E-2025-08-19-02-00-08","","31376","","[""<span style=\""color: red; font-size: 24px\""> NOW RECORDING</span><p>Please say out loud all the images you saw in part 1 of the experiment, as many as you can remember. The images can be said in any order.</p>""]","","2","museum_causal"
"","","","","","image-button-response","25","892588","0.0-23.0-0.0","3341F1296A454766A8E3BC48D7B5E50E","3341F1296A454766A8E3BC48D7B5E50E","0198bffc-b76d-7438-a84c-8ce9a44d83fc","0198beef-981a-7243-9790-051e10551090","{""num_scrambled_semantic"":""8"",""num_scrambled_causal"":""4"",""num_scrambled_schematic"":""4"",""participantId"":""3341F1296A454766A8E3BC48D7B5E50E"",""assignmentId"":""0198bffc-b76d-7438-a84c-8ce9a44d83fc"",""projectId"":""0198beef-981a-7243-9790-051e10551090""}","https://test12345.live/?num_scrambled_semantic=8&num_scrambled_causal=4&num_scrambled_schematic=4&participantId=3341F1296A454766A8E3BC48D7B5E50E&assignmentId=0198bffc-b76d-7438-a84c-8ce9a44d83fc&projectId=0198beef-981a-7243-9790-051e10551090","3341F1296A454766A8E3BC48D7B5E50E-2025-08-19-02-00-08","","null","","images/semantic_sequence/housework_semantic/housework_semantic_0.png","null","",""
"","","","","","html-audio-response","26","956093","0.0-24.0","3341F1296A454766A8E3BC48D7B5E50E","3341F1296A454766A8E3BC48D7B5E50E","0198bffc-b76d-7438-a84c-8ce9a44d83fc","0198beef-981a-7243-9790-051e10551090","{""num_scrambled_semantic"":""8"",""num_scrambled_causal"":""4"",""num_scrambled_schematic"":""4"",""participantId"":""3341F1296A454766A8E3BC48D7B5E50E"",""assignmentId"":""0198bffc-b76d-7438-a84c-8ce9a44d83fc"",""projectId"":""0198beef-981a-7243-9790-051e10551090""}","https://test12345.live/?num_scrambled_semantic=8&num_scrambled_causal=4&num_scrambled_schematic=4&participantId=3341F1296A454766A8E3BC48D7B5E50E&assignmentId=0198bffc-b76d-7438-a84c-8ce9a44d83fc&projectId=0198beef-981a-7243-9790-051e10551090","3341F1296A454766A8E3BC48D7B5E50E-2025-08-19-02-00-08","","24946","","[""<span style=\""color: red; font-size: 24px\""> NOW RECORDING</span><p>Please say out loud all the images you saw in part 1 of the experiment, as many as you can remember. The images can be said in any order.</p>""]","","8","housework_semantic"
"","","","","","image-button-response","27","962100","0.0-25.0-0.0","3341F1296A454766A8E3BC48D7B5E50E","3341F1296A454766A8E3BC48D7B5E50E","0198bffc-b76d-7438-a84c-8ce9a44d83fc","0198beef-981a-7243-9790-051e10551090","{""num_scrambled_semantic"":""8"",""num_scrambled_causal"":""4"",""num_scrambled_schematic"":""4"",""participantId"":""3341F1296A454766A8E3BC48D7B5E50E"",""assignmentId"":""0198bffc-b76d-7438-a84c-8ce9a44d83fc"",""projectId"":""0198beef-981a-7243-9790-051e10551090""}","https://test12345.live/?num_scrambled_semantic=8&num_scrambled_causal=4&num_scrambled_schematic=4&participantId=3341F1296A454766A8E3BC48D7B5E50E&assignmentId=0198bffc-b76d-7438-a84c-8ce9a44d83fc&projectId=0198beef-981a-7243-9790-051e10551090","3341F1296A454766A8E3BC48D7B5E50E-2025-08-19-02-00-08","","null","","images/causal_sequence/the_performance_causal/the_performance_causal_0.png","null","",""
"","","","","","html-audio-response","28","991860","0.0-26.0","3341F1296A454766A8E3BC48D7B5E50E","3341F1296A454766A8E3BC48D7B5E50E","0198bffc-b76d-7438-a84c-8ce9a44d83fc","0198beef-981a-7243-9790-051e10551090","{""num_scrambled_semantic"":""8"",""num_scrambled_causal"":""4"",""num_scrambled_schematic"":""4"",""participantId"":""3341F1296A454766A8E3BC48D7B5E50E"",""assignmentId"":""0198bffc-b76d-7438-a84c-8ce9a44d83fc"",""projectId"":""0198beef-981a-7243-9790-051e10551090""}","https://test12345.live/?num_scrambled_semantic=8&num_scrambled_causal=4&num_scrambled_schematic=4&participantId=3341F1296A454766A8E3BC48D7B5E50E&assignmentId=0198bffc-b76d-7438-a84c-8ce9a44d83fc&projectId=0198beef-981a-7243-9790-051e10551090","3341F1296A454766A8E3BC48D7B5E50E-2025-08-19-02-00-08","","28821","","[""<span style=\""color: red; font-size: 24px\""> NOW RECORDING</span><p>Please say out loud all the images you saw in part 1 of the experiment, as many as you can remember. The images can be said in any order.</p>""]","","6","the_performance_causal"
"","","","","","image-button-response","29","997868","0.0-27.0-0.0","3341F1296A454766A8E3BC48D7B5E50E","3341F1296A454766A8E3BC48D7B5E50E","0198bffc-b76d-7438-a84c-8ce9a44d83fc","0198beef-981a-7243-9790-051e10551090","{""num_scrambled_semantic"":""8"",""num_scrambled_causal"":""4"",""num_scrambled_schematic"":""4"",""participantId"":""3341F1296A454766A8E3BC48D7B5E50E"",""assignmentId"":""0198bffc-b76d-7438-a84c-8ce9a44d83fc"",""projectId"":""0198beef-981a-7243-9790-051e10551090""}","https://test12345.live/?num_scrambled_semantic=8&num_scrambled_causal=4&num_scrambled_schematic=4&participantId=3341F1296A454766A8E3BC48D7B5E50E&assignmentId=0198bffc-b76d-7438-a84c-8ce9a44d83fc&projectId=0198beef-981a-7243-9790-051e10551090","3341F1296A454766A8E3BC48D7B5E50E-2025-08-19-02-00-08","","null","","images/semantic_sequence/cat_care_semantic/cat_care_semantic_0.png","null","",""
"","","","","","html-audio-response","30","1023524","0.0-28.0","3341F1296A454766A8E3BC48D7B5E50E","3341F1296A454766A8E3BC48D7B5E50E","0198bffc-b76d-7438-a84c-8ce9a44d83fc","0198beef-981a-7243-9790-051e10551090","{""num_scrambled_semantic"":""8"",""num_scrambled_causal"":""4"",""num_scrambled_schematic"":""4"",""participantId"":""3341F1296A454766A8E3BC48D7B5E50E"",""assignmentId"":""0198bffc-b76d-7438-a84c-8ce9a44d83fc"",""projectId"":""0198beef-981a-7243-9790-051e10551090""}","https://test12345.live/?num_scrambled_semantic=8&num_scrambled_causal=4&num_scrambled_schematic=4&participantId=3341F1296A454766A8E3BC48D7B5E50E&assignmentId=0198bffc-b76d-7438-a84c-8ce9a44d83fc&projectId=0198beef-981a-7243-9790-051e10551090","3341F1296A454766A8E3BC48D7B5E50E-2025-08-19-02-00-08","","24891","","[""<span style=\""color: red; font-size: 24px\""> NOW RECORDING</span><p>Please say out loud all the images you saw in part 1 of the experiment, as many as you can remember. The images can be said in any order.</p>""]","","6","cat_care_semantic"
"","","","","","image-button-response","31","1029533","0.0-29.0-0.0","3341F1296A454766A8E3BC48D7B5E50E","3341F1296A454766A8E3BC48D7B5E50E","0198bffc-b76d-7438-a84c-8ce9a44d83fc","0198beef-981a-7243-9790-051e10551090","{""num_scrambled_semantic"":""8"",""num_scrambled_causal"":""4"",""num_scrambled_schematic"":""4"",""participantId"":""3341F1296A454766A8E3BC48D7B5E50E"",""assignmentId"":""0198bffc-b76d-7438-a84c-8ce9a44d83fc"",""projectId"":""0198beef-981a-7243-9790-051e10551090""}","https://test12345.live/?num_scrambled_semantic=8&num_scrambled_causal=4&num_scrambled_schematic=4&participantId=3341F1296A454766A8E3BC48D7B5E50E&assignmentId=0198bffc-b76d-7438-a84c-8ce9a44d83fc&projectId=0198beef-981a-7243-9790-051e10551090","3341F1296A454766A8E3BC48D7B5E50E-2025-08-19-02-00-08","","null","","images/semantic_sequence/creative_activities_semantic/creative_activities_semantic_0.png","null","",""
"","","","","","html-audio-response","32","1048420","0.0-30.0","3341F1296A454766A8E3BC48D7B5E50E","3341F1296A454766A8E3BC48D7B5E50E","0198bffc-b76d-7438-a84c-8ce9a44d83fc","0198beef-981a-7243-9790-051e10551090","{""num_scrambled_semantic"":""8"",""num_scrambled_causal"":""4"",""num_scrambled_schematic"":""4"",""participantId"":""3341F1296A454766A8E3BC48D7B5E50E"",""assignmentId"":""0198bffc-b76d-7438-a84c-8ce9a44d83fc"",""projectId"":""0198beef-981a-7243-9790-051e10551090""}","https://test12345.live/?num_scrambled_semantic=8&num_scrambled_causal=4&num_scrambled_schematic=4&participantId=3341F1296A454766A8E3BC48D7B5E50E&assignmentId=0198bffc-b76d-7438-a84c-8ce9a44d83fc&projectId=0198beef-981a-7243-9790-051e10551090","3341F1296A454766A8E3BC48D7B5E50E-2025-08-19-02-00-08","","17973","","[""<span style=\""color: red; font-size: 24px\""> NOW RECORDING</span><p>Please say out loud all the images you saw in part 1 of the experiment, as many as you can remember. The images can be said in any order.</p>""]","","7","creative_activities_semantic"
"","","","","","image-button-response","33","1054426","0.0-31.0-0.0","3341F1296A454766A8E3BC48D7B5E50E","3341F1296A454766A8E3BC48D7B5E50E","0198bffc-b76d-7438-a84c-8ce9a44d83fc","0198beef-981a-7243-9790-051e10551090","{""num_scrambled_semantic"":""8"",""num_scrambled_causal"":""4"",""num_scrambled_schematic"":""4"",""participantId"":""3341F1296A454766A8E3BC48D7B5E50E"",""assignmentId"":""0198bffc-b76d-7438-a84c-8ce9a44d83fc"",""projectId"":""0198beef-981a-7243-9790-051e10551090""}","https://test12345.live/?num_scrambled_semantic=8&num_scrambled_causal=4&num_scrambled_schematic=4&participantId=3341F1296A454766A8E3BC48D7B5E50E&assignmentId=0198bffc-b76d-7438-a84c-8ce9a44d83fc&projectId=0198beef-981a-7243-9790-051e10551090","3341F1296A454766A8E3BC48D7B5E50E-2025-08-19-02-00-08","","null","","images/causal_sequence/dog_causal/dog_causal_0.png","null","",""
"","","","","","html-audio-response","34","1099372","0.0-32.0","3341F1296A454766A8E3BC48D7B5E50E","3341F1296A454766A8E3BC48D7B5E50E","0198bffc-b76d-7438-a84c-8ce9a44d83fc","0198beef-981a-7243-9790-051e10551090","{""num_scrambled_semantic"":""8"",""num_scrambled_causal"":""4"",""num_scrambled_schematic"":""4"",""participantId"":""3341F1296A454766A8E3BC48D7B5E50E"",""assignmentId"":""0198bffc-b76d-7438-a84c-8ce9a44d83fc"",""projectId"":""0198beef-981a-7243-9790-051e10551090""}","https://test12345.live/?num_scrambled_semantic=8&num_scrambled_causal=4&num_scrambled_schematic=4&participantId=3341F1296A454766A8E3BC48D7B5E50E&assignmentId=0198bffc-b76d-7438-a84c-8ce9a44d83fc&projectId=0198beef-981a-7243-9790-051e10551090","3341F1296A454766A8E3BC48D7B5E50E-2025-08-19-02-00-08","","42486","","[""<span style=\""color: red; font-size: 24px\""> NOW RECORDING</span><p>Please say out loud all the images you saw in part 1 of the experiment, as many as you can remember. The images can be said in any order.</p>""]","","2","dog_causal"
"","","","","","image-button-response","35","1105379","0.0-33.0-0.0","3341F1296A454766A8E3BC48D7B5E50E","3341F1296A454766A8E3BC48D7B5E50E","0198bffc-b76d-7438-a84c-8ce9a44d83fc","0198beef-981a-7243-9790-051e10551090","{""num_scrambled_semantic"":""8"",""num_scrambled_causal"":""4"",""num_scrambled_schematic"":""4"",""participantId"":""3341F1296A454766A8E3BC48D7B5E50E"",""assignmentId"":""0198bffc-b76d-7438-a84c-8ce9a44d83fc"",""projectId"":""0198beef-981a-7243-9790-051e10551090""}","https://test12345.live/?num_scrambled_semantic=8&num_scrambled_causal=4&num_scrambled_schematic=4&participantId=3341F1296A454766A8E3BC48D7B5E50E&assignmentId=0198bffc-b76d-7438-a84c-8ce9a44d83fc&projectId=0198beef-981a-7243-9790-051e10551090","3341F1296A454766A8E3BC48D7B5E50E-2025-08-19-02-00-08","","null","","images/causal_sequence/saving_a_cat_causal/saving_a_cat_causal_0.png","null","",""
"","","","","","html-audio-response","36","1136532","0.0-34.0","3341F1296A454766A8E3BC48D7B5E50E","3341F1296A454766A8E3BC48D7B5E50E","0198bffc-b76d-7438-a84c-8ce9a44d83fc","0198beef-981a-7243-9790-051e10551090","{""num_scrambled_semantic"":""8"",""num_scrambled_causal"":""4"",""num_scrambled_schematic"":""4"",""participantId"":""3341F1296A454766A8E3BC48D7B5E50E"",""assignmentId"":""0198bffc-b76d-7438-a84c-8ce9a44d83fc"",""projectId"":""0198beef-981a-7243-9790-051e10551090""}","https://test12345.live/?num_scrambled_semantic=8&num_scrambled_causal=4&num_scrambled_schematic=4&participantId=3341F1296A454766A8E3BC48D7B5E50E&assignmentId=0198bffc-b76d-7438-a84c-8ce9a44d83fc&projectId=0198beef-981a-7243-9790-051e10551090","3341F1296A454766A8E3BC48D7B5E50E-2025-08-19-02-00-08","","28970","","[""<span style=\""color: red; font-size: 24px\""> NOW RECORDING</span><p>Please say out loud all the images you saw in part 1 of the experiment, as many as you can remember. The images can be said in any order.</p>""]","","8","saving_a_cat_causal"
"","","","","","survey-text","37","1143036","0.0-35.0","3341F1296A454766A8E3BC48D7B5E50E","3341F1296A454766A8E3BC48D7B5E50E","0198bffc-b76d-7438-a84c-8ce9a44d83fc","0198beef-981a-7243-9790-051e10551090","{""num_scrambled_semantic"":""8"",""num_scrambled_causal"":""4"",""num_scrambled_schematic"":""4"",""participantId"":""3341F1296A454766A8E3BC48D7B5E50E"",""assignmentId"":""0198bffc-b76d-7438-a84c-8ce9a44d83fc"",""projectId"":""0198beef-981a-7243-9790-051e10551090""}","https://test12345.live/?num_scrambled_semantic=8&num_scrambled_causal=4&num_scrambled_schematic=4&participantId=3341F1296A454766A8E3BC48D7B5E50E&assignmentId=0198bffc-b76d-7438-a84c-8ce9a44d83fc&projectId=0198beef-981a-7243-9790-051e10551090","3341F1296A454766A8E3BC48D7B5E50E-2025-08-19-02-00-08","","6499","","","{""Q0"":""MALE"",""Q1"":""33""}","",""
"","","","","","instructions","38","1147916","0.0-36.0","3341F1296A454766A8E3BC48D7B5E50E","3341F1296A454766A8E3BC48D7B5E50E","0198bffc-b76d-7438-a84c-8ce9a44d83fc","0198beef-981a-7243-9790-051e10551090","{""num_scrambled_semantic"":""8"",""num_scrambled_causal"":""4"",""num_scrambled_schematic"":""4"",""participantId"":""3341F1296A454766A8E3BC48D7B5E50E"",""assignmentId"":""0198bffc-b76d-7438-a84c-8ce9a44d83fc"",""projectId"":""0198beef-981a-7243-9790-051e10551090""}","https://test12345.live/?num_scrambled_semantic=8&num_scrambled_causal=4&num_scrambled_schematic=4&participantId=3341F1296A454766A8E3BC48D7B5E50E&assignmentId=0198bffc-b76d-7438-a84c-8ce9a44d83fc&projectId=0198beef-981a-7243-9790-051e10551090","3341F1296A454766A8E3BC48D7B5E50E-2025-08-19-02-00-08","[{""page_index"":0,""viewing_time"":4879}]","4879","","","","",""
"","","","","","survey-text","39","1149964","0.0-37.0","3341F1296A454766A8E3BC48D7B5E50E","3341F1296A454766A8E3BC48D7B5E50E","0198bffc-b76d-7438-a84c-8ce9a44d83fc","0198beef-981a-7243-9790-051e10551090","{""num_scrambled_semantic"":""8"",""num_scrambled_causal"":""4"",""num_scrambled_schematic"":""4"",""participantId"":""3341F1296A454766A8E3BC48D7B5E50E"",""assignmentId"":""0198bffc-b76d-7438-a84c-8ce9a44d83fc"",""projectId"":""0198beef-981a-7243-9790-051e10551090""}","https://test12345.live/?num_scrambled_semantic=8&num_scrambled_causal=4&num_scrambled_schematic=4&participantId=3341F1296A454766A8E3BC48D7B5E50E&assignmentId=0198bffc-b76d-7438-a84c-8ce9a44d83fc&projectId=0198beef-981a-7243-9790-051e10551090","3341F1296A454766A8E3BC48D7B5E50E-2025-08-19-02-00-08","","2047","","","{""Q0"":""AJFHBG896""}","",""
