"success","timeout","failed_images","failed_audio","failed_video","trial_type","trial_index","time_elapsed","internal_node_id","subject","subject_id","study_id","session_id","urlvar","current_url","audio_id","view_history","rt","device_id","stimulus","response","estimated_stimulus_onset","seq_name"
"true","false","[]","[]","[]","preload","0","2849","0.0-0.0","370C0B06651E4C23AC8CD94C86B91E85","370C0B06651E4C23AC8CD94C86B91E85","0198c219-2f3e-7e57-8c33-a2408da7a6fe","0198c075-3de9-7cab-996b-8cffe1adb15f","{""num_scrambled_semantic"":""8"",""num_scrambled_causal"":""4"",""num_scrambled_schematic"":""4"",""participantId"":""370C0B06651E4C23AC8CD94C86B91E85"",""assignmentId"":""0198c219-2f3e-7e57-8c33-a2408da7a6fe"",""projectId"":""0198c075-3de9-7cab-996b-8cffe1adb15f""}","https://test12345.live/?num_scrambled_semantic=8&num_scrambled_causal=4&num_scrambled_schematic=4&participantId=370C0B06651E4C23AC8CD94C86B91E85&assignmentId=0198c219-2f3e-7e57-8c33-a2408da7a6fe&projectId=0198c075-3de9-7cab-996b-8cffe1adb15f","370C0B06651E4C23AC8CD94C86B91E85-2025-08-19-11-40-35","","","","","","",""
"","","","","","instructions","1","59445","0.0-1.0","370C0B06651E4C23AC8CD94C86B91E85","370C0B06651E4C23AC8CD94C86B91E85","0198c219-2f3e-7e57-8c33-a2408da7a6fe","0198c075-3de9-7cab-996b-8cffe1adb15f","{""num_scrambled_semantic"":""8"",""num_scrambled_causal"":""4"",""num_scrambled_schematic"":""4"",""participantId"":""370C0B06651E4C23AC8CD94C86B91E85"",""assignmentId"":""0198c219-2f3e-7e57-8c33-a2408da7a6fe"",""projectId"":""0198c075-3de9-7cab-996b-8cffe1adb15f""}","https://test12345.live/?num_scrambled_semantic=8&num_scrambled_causal=4&num_scrambled_schematic=4&participantId=370C0B06651E4C23AC8CD94C86B91E85&assignmentId=0198c219-2f3e-7e57-8c33-a2408da7a6fe&projectId=0198c075-3de9-7cab-996b-8cffe1adb15f","370C0B06651E4C23AC8CD94C86B91E85-2025-08-19-11-40-35","[{""page_index"":0,""viewing_time"":56596}]","56596","","","","",""
"","","","","","instructions","2","69428","0.0-2.0","370C0B06651E4C23AC8CD94C86B91E85","370C0B06651E4C23AC8CD94C86B91E85","0198c219-2f3e-7e57-8c33-a2408da7a6fe","0198c075-3de9-7cab-996b-8cffe1adb15f","{""num_scrambled_semantic"":""8"",""num_scrambled_causal"":""4"",""num_scrambled_schematic"":""4"",""participantId"":""370C0B06651E4C23AC8CD94C86B91E85"",""assignmentId"":""0198c219-2f3e-7e57-8c33-a2408da7a6fe"",""projectId"":""0198c075-3de9-7cab-996b-8cffe1adb15f""}","https://test12345.live/?num_scrambled_semantic=8&num_scrambled_causal=4&num_scrambled_schematic=4&participantId=370C0B06651E4C23AC8CD94C86B91E85&assignmentId=0198c219-2f3e-7e57-8c33-a2408da7a6fe&projectId=0198c075-3de9-7cab-996b-8cffe1adb15f","370C0B06651E4C23AC8CD94C86B91E85-2025-08-19-11-40-35","[{""page_index"":0,""viewing_time"":9982}]","9982","","","","",""
"true","","","","","fullscreen","3","72838","0.0-3.0","370C0B06651E4C23AC8CD94C86B91E85","370C0B06651E4C23AC8CD94C86B91E85","0198c219-2f3e-7e57-8c33-a2408da7a6fe","0198c075-3de9-7cab-996b-8cffe1adb15f","{""num_scrambled_semantic"":""8"",""num_scrambled_causal"":""4"",""num_scrambled_schematic"":""4"",""participantId"":""370C0B06651E4C23AC8CD94C86B91E85"",""assignmentId"":""0198c219-2f3e-7e57-8c33-a2408da7a6fe"",""projectId"":""0198c075-3de9-7cab-996b-8cffe1adb15f""}","https://test12345.live/?num_scrambled_semantic=8&num_scrambled_causal=4&num_scrambled_schematic=4&participantId=370C0B06651E4C23AC8CD94C86B91E85&assignmentId=0198c219-2f3e-7e57-8c33-a2408da7a6fe&projectId=0198c075-3de9-7cab-996b-8cffe1adb15f","370C0B06651E4C23AC8CD94C86B91E85-2025-08-19-11-40-35","","2405","","","","",""
"","","","","","initialize-microphone","4","77792","0.0-4.0-0.0","370C0B06651E4C23AC8CD94C86B91E85","370C0B06651E4C23AC8CD94C86B91E85","0198c219-2f3e-7e57-8c33-a2408da7a6fe","0198c075-3de9-7cab-996b-8cffe1adb15f","{""num_scrambled_semantic"":""8"",""num_scrambled_causal"":""4"",""num_scrambled_schematic"":""4"",""participantId"":""370C0B06651E4C23AC8CD94C86B91E85"",""assignmentId"":""0198c219-2f3e-7e57-8c33-a2408da7a6fe"",""projectId"":""0198c075-3de9-7cab-996b-8cffe1adb15f""}","https://test12345.live/?num_scrambled_semantic=8&num_scrambled_causal=4&num_scrambled_schematic=4&participantId=370C0B06651E4C23AC8CD94C86B91E85&assignmentId=0198c219-2f3e-7e57-8c33-a2408da7a6fe&projectId=0198c075-3de9-7cab-996b-8cffe1adb15f","370C0B06651E4C23AC8CD94C86B91E85-2025-08-19-11-40-35","","","SsIcBiHFq22t1GUIiSlHpldDYt8o1Xc8DUm1HfXk59s=","","","",""
"","","","","","html-audio-response","5","113865","0.0-4.0-1.0","370C0B06651E4C23AC8CD94C86B91E85","370C0B06651E4C23AC8CD94C86B91E85","0198c219-2f3e-7e57-8c33-a2408da7a6fe","0198c075-3de9-7cab-996b-8cffe1adb15f","{""num_scrambled_semantic"":""8"",""num_scrambled_causal"":""4"",""num_scrambled_schematic"":""4"",""participantId"":""370C0B06651E4C23AC8CD94C86B91E85"",""assignmentId"":""0198c219-2f3e-7e57-8c33-a2408da7a6fe"",""projectId"":""0198c075-3de9-7cab-996b-8cffe1adb15f""}","https://test12345.live/?num_scrambled_semantic=8&num_scrambled_causal=4&num_scrambled_schematic=4&participantId=370C0B06651E4C23AC8CD94C86B91E85&assignmentId=0198c219-2f3e-7e57-8c33-a2408da7a6fe&projectId=0198c075-3de9-7cab-996b-8cffe1adb15f","370C0B06651E4C23AC8CD94C86B91E85-2025-08-19-11-40-35","","2306","","<span style=""color: red; font-size: 24px""> NOW RECORDING</span>
        <p>Please test Microphone</p>","","0",""
"","","","","","html-button-response","6","115812","0.0-4.0-2.0","370C0B06651E4C23AC8CD94C86B91E85","370C0B06651E4C23AC8CD94C86B91E85","0198c219-2f3e-7e57-8c33-a2408da7a6fe","0198c075-3de9-7cab-996b-8cffe1adb15f","{""num_scrambled_semantic"":""8"",""num_scrambled_causal"":""4"",""num_scrambled_schematic"":""4"",""participantId"":""370C0B06651E4C23AC8CD94C86B91E85"",""assignmentId"":""0198c219-2f3e-7e57-8c33-a2408da7a6fe"",""projectId"":""0198c075-3de9-7cab-996b-8cffe1adb15f""}","https://test12345.live/?num_scrambled_semantic=8&num_scrambled_causal=4&num_scrambled_schematic=4&participantId=370C0B06651E4C23AC8CD94C86B91E85&assignmentId=0198c219-2f3e-7e57-8c33-a2408da7a6fe&projectId=0198c075-3de9-7cab-996b-8cffe1adb15f","370C0B06651E4C23AC8CD94C86B91E85-2025-08-19-11-40-35","","1947","","<p style=""font-size:48px; color:red;"">Is Microphone OK?</p>","1","",""
"","","","","","instructions","7","139171","0.0-5.0","370C0B06651E4C23AC8CD94C86B91E85","370C0B06651E4C23AC8CD94C86B91E85","0198c219-2f3e-7e57-8c33-a2408da7a6fe","0198c075-3de9-7cab-996b-8cffe1adb15f","{""num_scrambled_semantic"":""8"",""num_scrambled_causal"":""4"",""num_scrambled_schematic"":""4"",""participantId"":""370C0B06651E4C23AC8CD94C86B91E85"",""assignmentId"":""0198c219-2f3e-7e57-8c33-a2408da7a6fe"",""projectId"":""0198c075-3de9-7cab-996b-8cffe1adb15f""}","https://test12345.live/?num_scrambled_semantic=8&num_scrambled_causal=4&num_scrambled_schematic=4&participantId=370C0B06651E4C23AC8CD94C86B91E85&assignmentId=0198c219-2f3e-7e57-8c33-a2408da7a6fe&projectId=0198c075-3de9-7cab-996b-8cffe1adb15f","370C0B06651E4C23AC8CD94C86B91E85-2025-08-19-11-40-35","[{""page_index"":0,""viewing_time"":978},{""page_index"":1,""viewing_time"":15809},{""page_index"":2,""viewing_time"":6572}]","23360","","","","",""
"","","","","","image-button-response","8","145304","0.0-6.0-0.0","370C0B06651E4C23AC8CD94C86B91E85","370C0B06651E4C23AC8CD94C86B91E85","0198c219-2f3e-7e57-8c33-a2408da7a6fe","0198c075-3de9-7cab-996b-8cffe1adb15f","{""num_scrambled_semantic"":""8"",""num_scrambled_causal"":""4"",""num_scrambled_schematic"":""4"",""participantId"":""370C0B06651E4C23AC8CD94C86B91E85"",""assignmentId"":""0198c219-2f3e-7e57-8c33-a2408da7a6fe"",""projectId"":""0198c075-3de9-7cab-996b-8cffe1adb15f""}","https://test12345.live/?num_scrambled_semantic=8&num_scrambled_causal=4&num_scrambled_schematic=4&participantId=370C0B06651E4C23AC8CD94C86B91E85&assignmentId=0198c219-2f3e-7e57-8c33-a2408da7a6fe&projectId=0198c075-3de9-7cab-996b-8cffe1adb15f","370C0B06651E4C23AC8CD94C86B91E85-2025-08-19-11-40-35","","null","","images/instructions/movie_0.png","null","",""
"","","","","","html-audio-response","9","165498","0.0-7.0","370C0B06651E4C23AC8CD94C86B91E85","370C0B06651E4C23AC8CD94C86B91E85","0198c219-2f3e-7e57-8c33-a2408da7a6fe","0198c075-3de9-7cab-996b-8cffe1adb15f","{""num_scrambled_semantic"":""8"",""num_scrambled_causal"":""4"",""num_scrambled_schematic"":""4"",""participantId"":""370C0B06651E4C23AC8CD94C86B91E85"",""assignmentId"":""0198c219-2f3e-7e57-8c33-a2408da7a6fe"",""projectId"":""0198c075-3de9-7cab-996b-8cffe1adb15f""}","https://test12345.live/?num_scrambled_semantic=8&num_scrambled_causal=4&num_scrambled_schematic=4&participantId=370C0B06651E4C23AC8CD94C86B91E85&assignmentId=0198c219-2f3e-7e57-8c33-a2408da7a6fe&projectId=0198c075-3de9-7cab-996b-8cffe1adb15f","370C0B06651E4C23AC8CD94C86B91E85-2025-08-19-11-40-35","","13300","","[""<span style=\""color: red; font-size: 24px\""> NOW RECORDING</span><p>Please say out loud all the images you saw in part 1 of the experiment, as many as you can remember. The images can be said in any order.</p>""]","","1",""
"","","","","","instructions","10","171736","0.0-8.0","370C0B06651E4C23AC8CD94C86B91E85","370C0B06651E4C23AC8CD94C86B91E85","0198c219-2f3e-7e57-8c33-a2408da7a6fe","0198c075-3de9-7cab-996b-8cffe1adb15f","{""num_scrambled_semantic"":""8"",""num_scrambled_causal"":""4"",""num_scrambled_schematic"":""4"",""participantId"":""370C0B06651E4C23AC8CD94C86B91E85"",""assignmentId"":""0198c219-2f3e-7e57-8c33-a2408da7a6fe"",""projectId"":""0198c075-3de9-7cab-996b-8cffe1adb15f""}","https://test12345.live/?num_scrambled_semantic=8&num_scrambled_causal=4&num_scrambled_schematic=4&participantId=370C0B06651E4C23AC8CD94C86B91E85&assignmentId=0198c219-2f3e-7e57-8c33-a2408da7a6fe&projectId=0198c075-3de9-7cab-996b-8cffe1adb15f","370C0B06651E4C23AC8CD94C86B91E85-2025-08-19-11-40-35","[{""page_index"":0,""viewing_time"":6237}]","6237","","","","",""
"","","","","","image-button-response","11","177936","0.0-9.0-0.0","370C0B06651E4C23AC8CD94C86B91E85","370C0B06651E4C23AC8CD94C86B91E85","0198c219-2f3e-7e57-8c33-a2408da7a6fe","0198c075-3de9-7cab-996b-8cffe1adb15f","{""num_scrambled_semantic"":""8"",""num_scrambled_causal"":""4"",""num_scrambled_schematic"":""4"",""participantId"":""370C0B06651E4C23AC8CD94C86B91E85"",""assignmentId"":""0198c219-2f3e-7e57-8c33-a2408da7a6fe"",""projectId"":""0198c075-3de9-7cab-996b-8cffe1adb15f""}","https://test12345.live/?num_scrambled_semantic=8&num_scrambled_causal=4&num_scrambled_schematic=4&participantId=370C0B06651E4C23AC8CD94C86B91E85&assignmentId=0198c219-2f3e-7e57-8c33-a2408da7a6fe&projectId=0198c075-3de9-7cab-996b-8cffe1adb15f","370C0B06651E4C23AC8CD94C86B91E85-2025-08-19-11-40-35","","null","","images/semantic_sequence/redecorating_semantic/redecorating_semantic_0.png","null","",""
"","","","","","html-audio-response","12","203091","0.0-10.0","370C0B06651E4C23AC8CD94C86B91E85","370C0B06651E4C23AC8CD94C86B91E85","0198c219-2f3e-7e57-8c33-a2408da7a6fe","0198c075-3de9-7cab-996b-8cffe1adb15f","{""num_scrambled_semantic"":""8"",""num_scrambled_causal"":""4"",""num_scrambled_schematic"":""4"",""participantId"":""370C0B06651E4C23AC8CD94C86B91E85"",""assignmentId"":""0198c219-2f3e-7e57-8c33-a2408da7a6fe"",""projectId"":""0198c075-3de9-7cab-996b-8cffe1adb15f""}","https://test12345.live/?num_scrambled_semantic=8&num_scrambled_causal=4&num_scrambled_schematic=4&participantId=370C0B06651E4C23AC8CD94C86B91E85&assignmentId=0198c219-2f3e-7e57-8c33-a2408da7a6fe&projectId=0198c075-3de9-7cab-996b-8cffe1adb15f","370C0B06651E4C23AC8CD94C86B91E85-2025-08-19-11-40-35","","7658","","[""<span style=\""color: red; font-size: 24px\""> NOW RECORDING</span><p>Please say out loud all the images you saw in part 1 of the experiment, as many as you can remember. The images can be said in any order.</p>""]","","0","redecorating_semantic"
"","","","","","image-button-response","13","209110","0.0-11.0-0.0","370C0B06651E4C23AC8CD94C86B91E85","370C0B06651E4C23AC8CD94C86B91E85","0198c219-2f3e-7e57-8c33-a2408da7a6fe","0198c075-3de9-7cab-996b-8cffe1adb15f","{""num_scrambled_semantic"":""8"",""num_scrambled_causal"":""4"",""num_scrambled_schematic"":""4"",""participantId"":""370C0B06651E4C23AC8CD94C86B91E85"",""assignmentId"":""0198c219-2f3e-7e57-8c33-a2408da7a6fe"",""projectId"":""0198c075-3de9-7cab-996b-8cffe1adb15f""}","https://test12345.live/?num_scrambled_semantic=8&num_scrambled_causal=4&num_scrambled_schematic=4&participantId=370C0B06651E4C23AC8CD94C86B91E85&assignmentId=0198c219-2f3e-7e57-8c33-a2408da7a6fe&projectId=0198c075-3de9-7cab-996b-8cffe1adb15f","370C0B06651E4C23AC8CD94C86B91E85-2025-08-19-11-40-35","","null","","images/semantic_sequence/maintaining_a_car_semantic/maintaining_a_car_semantic_0.png","null","",""
"","","","","","html-audio-response","14","235920","0.0-12.0","370C0B06651E4C23AC8CD94C86B91E85","370C0B06651E4C23AC8CD94C86B91E85","0198c219-2f3e-7e57-8c33-a2408da7a6fe","0198c075-3de9-7cab-996b-8cffe1adb15f","{""num_scrambled_semantic"":""8"",""num_scrambled_causal"":""4"",""num_scrambled_schematic"":""4"",""participantId"":""370C0B06651E4C23AC8CD94C86B91E85"",""assignmentId"":""0198c219-2f3e-7e57-8c33-a2408da7a6fe"",""projectId"":""0198c075-3de9-7cab-996b-8cffe1adb15f""}","https://test12345.live/?num_scrambled_semantic=8&num_scrambled_causal=4&num_scrambled_schematic=4&participantId=370C0B06651E4C23AC8CD94C86B91E85&assignmentId=0198c219-2f3e-7e57-8c33-a2408da7a6fe&projectId=0198c075-3de9-7cab-996b-8cffe1adb15f","370C0B06651E4C23AC8CD94C86B91E85-2025-08-19-11-40-35","","563","","[""<span style=\""color: red; font-size: 24px\""> NOW RECORDING</span><p>Please say out loud all the images you saw in part 1 of the experiment, as many as you can remember. The images can be said in any order.</p>""]","","1","maintaining_a_car_semantic"
"","","","","","image-button-response","15","242124","0.0-13.0-0.0","370C0B06651E4C23AC8CD94C86B91E85","370C0B06651E4C23AC8CD94C86B91E85","0198c219-2f3e-7e57-8c33-a2408da7a6fe","0198c075-3de9-7cab-996b-8cffe1adb15f","{""num_scrambled_semantic"":""8"",""num_scrambled_causal"":""4"",""num_scrambled_schematic"":""4"",""participantId"":""370C0B06651E4C23AC8CD94C86B91E85"",""assignmentId"":""0198c219-2f3e-7e57-8c33-a2408da7a6fe"",""projectId"":""0198c075-3de9-7cab-996b-8cffe1adb15f""}","https://test12345.live/?num_scrambled_semantic=8&num_scrambled_causal=4&num_scrambled_schematic=4&participantId=370C0B06651E4C23AC8CD94C86B91E85&assignmentId=0198c219-2f3e-7e57-8c33-a2408da7a6fe&projectId=0198c075-3de9-7cab-996b-8cffe1adb15f","370C0B06651E4C23AC8CD94C86B91E85-2025-08-19-11-40-35","","null","","images/causal_sequence/package_causal/package_causal_0.png","null","",""
"","","","","","html-audio-response","16","273831","0.0-14.0","370C0B06651E4C23AC8CD94C86B91E85","370C0B06651E4C23AC8CD94C86B91E85","0198c219-2f3e-7e57-8c33-a2408da7a6fe","0198c075-3de9-7cab-996b-8cffe1adb15f","{""num_scrambled_semantic"":""8"",""num_scrambled_causal"":""4"",""num_scrambled_schematic"":""4"",""participantId"":""370C0B06651E4C23AC8CD94C86B91E85"",""assignmentId"":""0198c219-2f3e-7e57-8c33-a2408da7a6fe"",""projectId"":""0198c075-3de9-7cab-996b-8cffe1adb15f""}","https://test12345.live/?num_scrambled_semantic=8&num_scrambled_causal=4&num_scrambled_schematic=4&participantId=370C0B06651E4C23AC8CD94C86B91E85&assignmentId=0198c219-2f3e-7e57-8c33-a2408da7a6fe&projectId=0198c075-3de9-7cab-996b-8cffe1adb15f","370C0B06651E4C23AC8CD94C86B91E85-2025-08-19-11-40-35","","30541","","[""<span style=\""color: red; font-size: 24px\""> NOW RECORDING</span><p>Please say out loud all the images you saw in part 1 of the experiment, as many as you can remember. The images can be said in any order.</p>""]","","0","package_causal"
"","","","","","image-button-response","17","280172","0.0-15.0-0.0","370C0B06651E4C23AC8CD94C86B91E85","370C0B06651E4C23AC8CD94C86B91E85","0198c219-2f3e-7e57-8c33-a2408da7a6fe","0198c075-3de9-7cab-996b-8cffe1adb15f","{""num_scrambled_semantic"":""8"",""num_scrambled_causal"":""4"",""num_scrambled_schematic"":""4"",""participantId"":""370C0B06651E4C23AC8CD94C86B91E85"",""assignmentId"":""0198c219-2f3e-7e57-8c33-a2408da7a6fe"",""projectId"":""0198c075-3de9-7cab-996b-8cffe1adb15f""}","https://test12345.live/?num_scrambled_semantic=8&num_scrambled_causal=4&num_scrambled_schematic=4&participantId=370C0B06651E4C23AC8CD94C86B91E85&assignmentId=0198c219-2f3e-7e57-8c33-a2408da7a6fe&projectId=0198c075-3de9-7cab-996b-8cffe1adb15f","370C0B06651E4C23AC8CD94C86B91E85-2025-08-19-11-40-35","","null","","images/causal_sequence/saving_a_cat_causal/saving_a_cat_causal_0.png","null","",""
"","","","","","html-audio-response","18","290905","0.0-16.0","370C0B06651E4C23AC8CD94C86B91E85","370C0B06651E4C23AC8CD94C86B91E85","0198c219-2f3e-7e57-8c33-a2408da7a6fe","0198c075-3de9-7cab-996b-8cffe1adb15f","{""num_scrambled_semantic"":""8"",""num_scrambled_causal"":""4"",""num_scrambled_schematic"":""4"",""participantId"":""370C0B06651E4C23AC8CD94C86B91E85"",""assignmentId"":""0198c219-2f3e-7e57-8c33-a2408da7a6fe"",""projectId"":""0198c075-3de9-7cab-996b-8cffe1adb15f""}","https://test12345.live/?num_scrambled_semantic=8&num_scrambled_causal=4&num_scrambled_schematic=4&participantId=370C0B06651E4C23AC8CD94C86B91E85&assignmentId=0198c219-2f3e-7e57-8c33-a2408da7a6fe&projectId=0198c075-3de9-7cab-996b-8cffe1adb15f","370C0B06651E4C23AC8CD94C86B91E85-2025-08-19-11-40-35","","2002","","[""<span style=\""color: red; font-size: 24px\""> NOW RECORDING</span><p>Please say out loud all the images you saw in part 1 of the experiment, as many as you can remember. The images can be said in any order.</p>""]","","5","saving_a_cat_causal"
"","","","","","image-button-response","19","297015","0.0-17.0-0.0","370C0B06651E4C23AC8CD94C86B91E85","370C0B06651E4C23AC8CD94C86B91E85","0198c219-2f3e-7e57-8c33-a2408da7a6fe","0198c075-3de9-7cab-996b-8cffe1adb15f","{""num_scrambled_semantic"":""8"",""num_scrambled_causal"":""4"",""num_scrambled_schematic"":""4"",""participantId"":""370C0B06651E4C23AC8CD94C86B91E85"",""assignmentId"":""0198c219-2f3e-7e57-8c33-a2408da7a6fe"",""projectId"":""0198c075-3de9-7cab-996b-8cffe1adb15f""}","https://test12345.live/?num_scrambled_semantic=8&num_scrambled_causal=4&num_scrambled_schematic=4&participantId=370C0B06651E4C23AC8CD94C86B91E85&assignmentId=0198c219-2f3e-7e57-8c33-a2408da7a6fe&projectId=0198c075-3de9-7cab-996b-8cffe1adb15f","370C0B06651E4C23AC8CD94C86B91E85-2025-08-19-11-40-35","","null","","images/semantic_sequence/physical_activity_semantic/physical_activity_semantic_0.png","null","",""
"","","","","","html-audio-response","20","308723","0.0-18.0","370C0B06651E4C23AC8CD94C86B91E85","370C0B06651E4C23AC8CD94C86B91E85","0198c219-2f3e-7e57-8c33-a2408da7a6fe","0198c075-3de9-7cab-996b-8cffe1adb15f","{""num_scrambled_semantic"":""8"",""num_scrambled_causal"":""4"",""num_scrambled_schematic"":""4"",""participantId"":""370C0B06651E4C23AC8CD94C86B91E85"",""assignmentId"":""0198c219-2f3e-7e57-8c33-a2408da7a6fe"",""projectId"":""0198c075-3de9-7cab-996b-8cffe1adb15f""}","https://test12345.live/?num_scrambled_semantic=8&num_scrambled_causal=4&num_scrambled_schematic=4&participantId=370C0B06651E4C23AC8CD94C86B91E85&assignmentId=0198c219-2f3e-7e57-8c33-a2408da7a6fe&projectId=0198c075-3de9-7cab-996b-8cffe1adb15f","370C0B06651E4C23AC8CD94C86B91E85-2025-08-19-11-40-35","","10001","","[""<span style=\""color: red; font-size: 24px\""> NOW RECORDING</span><p>Please say out loud all the images you saw in part 1 of the experiment, as many as you can remember. The images can be said in any order.</p>""]","","0","physical_activity_semantic"
"","","","","","image-button-response","21","314758","0.0-19.0-0.0","370C0B06651E4C23AC8CD94C86B91E85","370C0B06651E4C23AC8CD94C86B91E85","0198c219-2f3e-7e57-8c33-a2408da7a6fe","0198c075-3de9-7cab-996b-8cffe1adb15f","{""num_scrambled_semantic"":""8"",""num_scrambled_causal"":""4"",""num_scrambled_schematic"":""4"",""participantId"":""370C0B06651E4C23AC8CD94C86B91E85"",""assignmentId"":""0198c219-2f3e-7e57-8c33-a2408da7a6fe"",""projectId"":""0198c075-3de9-7cab-996b-8cffe1adb15f""}","https://test12345.live/?num_scrambled_semantic=8&num_scrambled_causal=4&num_scrambled_schematic=4&participantId=370C0B06651E4C23AC8CD94C86B91E85&assignmentId=0198c219-2f3e-7e57-8c33-a2408da7a6fe&projectId=0198c075-3de9-7cab-996b-8cffe1adb15f","370C0B06651E4C23AC8CD94C86B91E85-2025-08-19-11-40-35","","null","","images/causal_sequence/museum_causal/museum_causal_0.png","null","",""
"","","","","","html-audio-response","22","342184","0.0-20.0","370C0B06651E4C23AC8CD94C86B91E85","370C0B06651E4C23AC8CD94C86B91E85","0198c219-2f3e-7e57-8c33-a2408da7a6fe","0198c075-3de9-7cab-996b-8cffe1adb15f","{""num_scrambled_semantic"":""8"",""num_scrambled_causal"":""4"",""num_scrambled_schematic"":""4"",""participantId"":""370C0B06651E4C23AC8CD94C86B91E85"",""assignmentId"":""0198c219-2f3e-7e57-8c33-a2408da7a6fe"",""projectId"":""0198c075-3de9-7cab-996b-8cffe1adb15f""}","https://test12345.live/?num_scrambled_semantic=8&num_scrambled_causal=4&num_scrambled_schematic=4&participantId=370C0B06651E4C23AC8CD94C86B91E85&assignmentId=0198c219-2f3e-7e57-8c33-a2408da7a6fe&projectId=0198c075-3de9-7cab-996b-8cffe1adb15f","370C0B06651E4C23AC8CD94C86B91E85-2025-08-19-11-40-35","","26783","","[""<span style=\""color: red; font-size: 24px\""> NOW RECORDING</span><p>Please say out loud all the images you saw in part 1 of the experiment, as many as you can remember. The images can be said in any order.</p>""]","","4","museum_causal"
"","","","","","image-button-response","23","348432","0.0-21.0-0.0","370C0B06651E4C23AC8CD94C86B91E85","370C0B06651E4C23AC8CD94C86B91E85","0198c219-2f3e-7e57-8c33-a2408da7a6fe","0198c075-3de9-7cab-996b-8cffe1adb15f","{""num_scrambled_semantic"":""8"",""num_scrambled_causal"":""4"",""num_scrambled_schematic"":""4"",""participantId"":""370C0B06651E4C23AC8CD94C86B91E85"",""assignmentId"":""0198c219-2f3e-7e57-8c33-a2408da7a6fe"",""projectId"":""0198c075-3de9-7cab-996b-8cffe1adb15f""}","https://test12345.live/?num_scrambled_semantic=8&num_scrambled_causal=4&num_scrambled_schematic=4&participantId=370C0B06651E4C23AC8CD94C86B91E85&assignmentId=0198c219-2f3e-7e57-8c33-a2408da7a6fe&projectId=0198c075-3de9-7cab-996b-8cffe1adb15f","370C0B06651E4C23AC8CD94C86B91E85-2025-08-19-11-40-35","","null","","images/semantic_sequence/creative_activities_semantic/creative_activities_semantic_0.png","null","",""
"","","","","","html-audio-response","24","387563","0.0-22.0","370C0B06651E4C23AC8CD94C86B91E85","370C0B06651E4C23AC8CD94C86B91E85","0198c219-2f3e-7e57-8c33-a2408da7a6fe","0198c075-3de9-7cab-996b-8cffe1adb15f","{""num_scrambled_semantic"":""8"",""num_scrambled_causal"":""4"",""num_scrambled_schematic"":""4"",""participantId"":""370C0B06651E4C23AC8CD94C86B91E85"",""assignmentId"":""0198c219-2f3e-7e57-8c33-a2408da7a6fe"",""projectId"":""0198c075-3de9-7cab-996b-8cffe1adb15f""}","https://test12345.live/?num_scrambled_semantic=8&num_scrambled_causal=4&num_scrambled_schematic=4&participantId=370C0B06651E4C23AC8CD94C86B91E85&assignmentId=0198c219-2f3e-7e57-8c33-a2408da7a6fe&projectId=0198c075-3de9-7cab-996b-8cffe1adb15f","370C0B06651E4C23AC8CD94C86B91E85-2025-08-19-11-40-35","","6286","","[""<span style=\""color: red; font-size: 24px\""> NOW RECORDING</span><p>Please say out loud all the images you saw in part 1 of the experiment, as many as you can remember. The images can be said in any order.</p>""]","","0","creative_activities_semantic"
"","","","","","image-button-response","25","393937","0.0-23.0-0.0","370C0B06651E4C23AC8CD94C86B91E85","370C0B06651E4C23AC8CD94C86B91E85","0198c219-2f3e-7e57-8c33-a2408da7a6fe","0198c075-3de9-7cab-996b-8cffe1adb15f","{""num_scrambled_semantic"":""8"",""num_scrambled_causal"":""4"",""num_scrambled_schematic"":""4"",""participantId"":""370C0B06651E4C23AC8CD94C86B91E85"",""assignmentId"":""0198c219-2f3e-7e57-8c33-a2408da7a6fe"",""projectId"":""0198c075-3de9-7cab-996b-8cffe1adb15f""}","https://test12345.live/?num_scrambled_semantic=8&num_scrambled_causal=4&num_scrambled_schematic=4&participantId=370C0B06651E4C23AC8CD94C86B91E85&assignmentId=0198c219-2f3e-7e57-8c33-a2408da7a6fe&projectId=0198c075-3de9-7cab-996b-8cffe1adb15f","370C0B06651E4C23AC8CD94C86B91E85-2025-08-19-11-40-35","","null","","images/semantic_sequence/cat_care_semantic/cat_care_semantic_0.png","null","",""
"","","","","","html-audio-response","26","404587","0.0-24.0","370C0B06651E4C23AC8CD94C86B91E85","370C0B06651E4C23AC8CD94C86B91E85","0198c219-2f3e-7e57-8c33-a2408da7a6fe","0198c075-3de9-7cab-996b-8cffe1adb15f","{""num_scrambled_semantic"":""8"",""num_scrambled_causal"":""4"",""num_scrambled_schematic"":""4"",""participantId"":""370C0B06651E4C23AC8CD94C86B91E85"",""assignmentId"":""0198c219-2f3e-7e57-8c33-a2408da7a6fe"",""projectId"":""0198c075-3de9-7cab-996b-8cffe1adb15f""}","https://test12345.live/?num_scrambled_semantic=8&num_scrambled_causal=4&num_scrambled_schematic=4&participantId=370C0B06651E4C23AC8CD94C86B91E85&assignmentId=0198c219-2f3e-7e57-8c33-a2408da7a6fe&projectId=0198c075-3de9-7cab-996b-8cffe1adb15f","370C0B06651E4C23AC8CD94C86B91E85-2025-08-19-11-40-35","","9512","","[""<span style=\""color: red; font-size: 24px\""> NOW RECORDING</span><p>Please say out loud all the images you saw in part 1 of the experiment, as many as you can remember. The images can be said in any order.</p>""]","","0","cat_care_semantic"
"","","","","","image-button-response","27","410794","0.0-25.0-0.0","370C0B06651E4C23AC8CD94C86B91E85","370C0B06651E4C23AC8CD94C86B91E85","0198c219-2f3e-7e57-8c33-a2408da7a6fe","0198c075-3de9-7cab-996b-8cffe1adb15f","{""num_scrambled_semantic"":""8"",""num_scrambled_causal"":""4"",""num_scrambled_schematic"":""4"",""participantId"":""370C0B06651E4C23AC8CD94C86B91E85"",""assignmentId"":""0198c219-2f3e-7e57-8c33-a2408da7a6fe"",""projectId"":""0198c075-3de9-7cab-996b-8cffe1adb15f""}","https://test12345.live/?num_scrambled_semantic=8&num_scrambled_causal=4&num_scrambled_schematic=4&participantId=370C0B06651E4C23AC8CD94C86B91E85&assignmentId=0198c219-2f3e-7e57-8c33-a2408da7a6fe&projectId=0198c075-3de9-7cab-996b-8cffe1adb15f","370C0B06651E4C23AC8CD94C86B91E85-2025-08-19-11-40-35","","null","","images/semantic_sequence/housework_semantic/housework_semantic_0.png","null","",""
"","","","","","html-audio-response","28","415378","0.0-26.0","370C0B06651E4C23AC8CD94C86B91E85","370C0B06651E4C23AC8CD94C86B91E85","0198c219-2f3e-7e57-8c33-a2408da7a6fe","0198c075-3de9-7cab-996b-8cffe1adb15f","{""num_scrambled_semantic"":""8"",""num_scrambled_causal"":""4"",""num_scrambled_schematic"":""4"",""participantId"":""370C0B06651E4C23AC8CD94C86B91E85"",""assignmentId"":""0198c219-2f3e-7e57-8c33-a2408da7a6fe"",""projectId"":""0198c075-3de9-7cab-996b-8cffe1adb15f""}","https://test12345.live/?num_scrambled_semantic=8&num_scrambled_causal=4&num_scrambled_schematic=4&participantId=370C0B06651E4C23AC8CD94C86B91E85&assignmentId=0198c219-2f3e-7e57-8c33-a2408da7a6fe&projectId=0198c075-3de9-7cab-996b-8cffe1adb15f","370C0B06651E4C23AC8CD94C86B91E85-2025-08-19-11-40-35","","1792","","[""<span style=\""color: red; font-size: 24px\""> NOW RECORDING</span><p>Please say out loud all the images you saw in part 1 of the experiment, as many as you can remember. The images can be said in any order.</p>""]","","0","housework_semantic"
"","","","","","image-button-response","29","421394","0.0-27.0-0.0","370C0B06651E4C23AC8CD94C86B91E85","370C0B06651E4C23AC8CD94C86B91E85","0198c219-2f3e-7e57-8c33-a2408da7a6fe","0198c075-3de9-7cab-996b-8cffe1adb15f","{""num_scrambled_semantic"":""8"",""num_scrambled_causal"":""4"",""num_scrambled_schematic"":""4"",""participantId"":""370C0B06651E4C23AC8CD94C86B91E85"",""assignmentId"":""0198c219-2f3e-7e57-8c33-a2408da7a6fe"",""projectId"":""0198c075-3de9-7cab-996b-8cffe1adb15f""}","https://test12345.live/?num_scrambled_semantic=8&num_scrambled_causal=4&num_scrambled_schematic=4&participantId=370C0B06651E4C23AC8CD94C86B91E85&assignmentId=0198c219-2f3e-7e57-8c33-a2408da7a6fe&projectId=0198c075-3de9-7cab-996b-8cffe1adb15f","370C0B06651E4C23AC8CD94C86B91E85-2025-08-19-11-40-35","","null","","images/causal_sequence/coin_causal/coin_causal_0.png","null","",""
"","","","","","html-audio-response","30","443945","0.0-28.0","370C0B06651E4C23AC8CD94C86B91E85","370C0B06651E4C23AC8CD94C86B91E85","0198c219-2f3e-7e57-8c33-a2408da7a6fe","0198c075-3de9-7cab-996b-8cffe1adb15f","{""num_scrambled_semantic"":""8"",""num_scrambled_causal"":""4"",""num_scrambled_schematic"":""4"",""participantId"":""370C0B06651E4C23AC8CD94C86B91E85"",""assignmentId"":""0198c219-2f3e-7e57-8c33-a2408da7a6fe"",""projectId"":""0198c075-3de9-7cab-996b-8cffe1adb15f""}","https://test12345.live/?num_scrambled_semantic=8&num_scrambled_causal=4&num_scrambled_schematic=4&participantId=370C0B06651E4C23AC8CD94C86B91E85&assignmentId=0198c219-2f3e-7e57-8c33-a2408da7a6fe&projectId=0198c075-3de9-7cab-996b-8cffe1adb15f","370C0B06651E4C23AC8CD94C86B91E85-2025-08-19-11-40-35","","21741","","[""<span style=\""color: red; font-size: 24px\""> NOW RECORDING</span><p>Please say out loud all the images you saw in part 1 of the experiment, as many as you can remember. The images can be said in any order.</p>""]","","0","coin_causal"
"","","","","","image-button-response","31","450192","0.0-29.0-0.0","370C0B06651E4C23AC8CD94C86B91E85","370C0B06651E4C23AC8CD94C86B91E85","0198c219-2f3e-7e57-8c33-a2408da7a6fe","0198c075-3de9-7cab-996b-8cffe1adb15f","{""num_scrambled_semantic"":""8"",""num_scrambled_causal"":""4"",""num_scrambled_schematic"":""4"",""participantId"":""370C0B06651E4C23AC8CD94C86B91E85"",""assignmentId"":""0198c219-2f3e-7e57-8c33-a2408da7a6fe"",""projectId"":""0198c075-3de9-7cab-996b-8cffe1adb15f""}","https://test12345.live/?num_scrambled_semantic=8&num_scrambled_causal=4&num_scrambled_schematic=4&participantId=370C0B06651E4C23AC8CD94C86B91E85&assignmentId=0198c219-2f3e-7e57-8c33-a2408da7a6fe&projectId=0198c075-3de9-7cab-996b-8cffe1adb15f","370C0B06651E4C23AC8CD94C86B91E85-2025-08-19-11-40-35","","null","","images/semantic_sequence/using_technology_semantic/using_technology_semantic_0.png","null","",""
"","","","","","html-audio-response","32","452415","0.0-30.0","370C0B06651E4C23AC8CD94C86B91E85","370C0B06651E4C23AC8CD94C86B91E85","0198c219-2f3e-7e57-8c33-a2408da7a6fe","0198c075-3de9-7cab-996b-8cffe1adb15f","{""num_scrambled_semantic"":""8"",""num_scrambled_causal"":""4"",""num_scrambled_schematic"":""4"",""participantId"":""370C0B06651E4C23AC8CD94C86B91E85"",""assignmentId"":""0198c219-2f3e-7e57-8c33-a2408da7a6fe"",""projectId"":""0198c075-3de9-7cab-996b-8cffe1adb15f""}","https://test12345.live/?num_scrambled_semantic=8&num_scrambled_causal=4&num_scrambled_schematic=4&participantId=370C0B06651E4C23AC8CD94C86B91E85&assignmentId=0198c219-2f3e-7e57-8c33-a2408da7a6fe&projectId=0198c075-3de9-7cab-996b-8cffe1adb15f","370C0B06651E4C23AC8CD94C86B91E85-2025-08-19-11-40-35","","1204","","[""<span style=\""color: red; font-size: 24px\""> NOW RECORDING</span><p>Please say out loud all the images you saw in part 1 of the experiment, as many as you can remember. The images can be said in any order.</p>""]","","0","using_technology_semantic"
"","","","","","image-button-response","33","458653","0.0-31.0-0.0","370C0B06651E4C23AC8CD94C86B91E85","370C0B06651E4C23AC8CD94C86B91E85","0198c219-2f3e-7e57-8c33-a2408da7a6fe","0198c075-3de9-7cab-996b-8cffe1adb15f","{""num_scrambled_semantic"":""8"",""num_scrambled_causal"":""4"",""num_scrambled_schematic"":""4"",""participantId"":""370C0B06651E4C23AC8CD94C86B91E85"",""assignmentId"":""0198c219-2f3e-7e57-8c33-a2408da7a6fe"",""projectId"":""0198c075-3de9-7cab-996b-8cffe1adb15f""}","https://test12345.live/?num_scrambled_semantic=8&num_scrambled_causal=4&num_scrambled_schematic=4&participantId=370C0B06651E4C23AC8CD94C86B91E85&assignmentId=0198c219-2f3e-7e57-8c33-a2408da7a6fe&projectId=0198c075-3de9-7cab-996b-8cffe1adb15f","370C0B06651E4C23AC8CD94C86B91E85-2025-08-19-11-40-35","","null","","images/causal_sequence/the_performance_causal/the_performance_causal_0.png","null","",""
"","","","","","html-audio-response","34","478945","0.0-32.0","370C0B06651E4C23AC8CD94C86B91E85","370C0B06651E4C23AC8CD94C86B91E85","0198c219-2f3e-7e57-8c33-a2408da7a6fe","0198c075-3de9-7cab-996b-8cffe1adb15f","{""num_scrambled_semantic"":""8"",""num_scrambled_causal"":""4"",""num_scrambled_schematic"":""4"",""participantId"":""370C0B06651E4C23AC8CD94C86B91E85"",""assignmentId"":""0198c219-2f3e-7e57-8c33-a2408da7a6fe"",""projectId"":""0198c075-3de9-7cab-996b-8cffe1adb15f""}","https://test12345.live/?num_scrambled_semantic=8&num_scrambled_causal=4&num_scrambled_schematic=4&participantId=370C0B06651E4C23AC8CD94C86B91E85&assignmentId=0198c219-2f3e-7e57-8c33-a2408da7a6fe&projectId=0198c075-3de9-7cab-996b-8cffe1adb15f","370C0B06651E4C23AC8CD94C86B91E85-2025-08-19-11-40-35","","19127","","[""<span style=\""color: red; font-size: 24px\""> NOW RECORDING</span><p>Please say out loud all the images you saw in part 1 of the experiment, as many as you can remember. The images can be said in any order.</p>""]","","0","the_performance_causal"
"","","","","","image-button-response","35","484973","0.0-33.0-0.0","370C0B06651E4C23AC8CD94C86B91E85","370C0B06651E4C23AC8CD94C86B91E85","0198c219-2f3e-7e57-8c33-a2408da7a6fe","0198c075-3de9-7cab-996b-8cffe1adb15f","{""num_scrambled_semantic"":""8"",""num_scrambled_causal"":""4"",""num_scrambled_schematic"":""4"",""participantId"":""370C0B06651E4C23AC8CD94C86B91E85"",""assignmentId"":""0198c219-2f3e-7e57-8c33-a2408da7a6fe"",""projectId"":""0198c075-3de9-7cab-996b-8cffe1adb15f""}","https://test12345.live/?num_scrambled_semantic=8&num_scrambled_causal=4&num_scrambled_schematic=4&participantId=370C0B06651E4C23AC8CD94C86B91E85&assignmentId=0198c219-2f3e-7e57-8c33-a2408da7a6fe&projectId=0198c075-3de9-7cab-996b-8cffe1adb15f","370C0B06651E4C23AC8CD94C86B91E85-2025-08-19-11-40-35","","null","","images/causal_sequence/dog_causal/dog_causal_0.png","null","",""
"","","","","","html-audio-response","36","511005","0.0-34.0","370C0B06651E4C23AC8CD94C86B91E85","370C0B06651E4C23AC8CD94C86B91E85","0198c219-2f3e-7e57-8c33-a2408da7a6fe","0198c075-3de9-7cab-996b-8cffe1adb15f","{""num_scrambled_semantic"":""8"",""num_scrambled_causal"":""4"",""num_scrambled_schematic"":""4"",""participantId"":""370C0B06651E4C23AC8CD94C86B91E85"",""assignmentId"":""0198c219-2f3e-7e57-8c33-a2408da7a6fe"",""projectId"":""0198c075-3de9-7cab-996b-8cffe1adb15f""}","https://test12345.live/?num_scrambled_semantic=8&num_scrambled_causal=4&num_scrambled_schematic=4&participantId=370C0B06651E4C23AC8CD94C86B91E85&assignmentId=0198c219-2f3e-7e57-8c33-a2408da7a6fe&projectId=0198c075-3de9-7cab-996b-8cffe1adb15f","370C0B06651E4C23AC8CD94C86B91E85-2025-08-19-11-40-35","","25294","","[""<span style=\""color: red; font-size: 24px\""> NOW RECORDING</span><p>Please say out loud all the images you saw in part 1 of the experiment, as many as you can remember. The images can be said in any order.</p>""]","","0","dog_causal"
"","","","","","survey-text","37","518581","0.0-35.0","370C0B06651E4C23AC8CD94C86B91E85","370C0B06651E4C23AC8CD94C86B91E85","0198c219-2f3e-7e57-8c33-a2408da7a6fe","0198c075-3de9-7cab-996b-8cffe1adb15f","{""num_scrambled_semantic"":""8"",""num_scrambled_causal"":""4"",""num_scrambled_schematic"":""4"",""participantId"":""370C0B06651E4C23AC8CD94C86B91E85"",""assignmentId"":""0198c219-2f3e-7e57-8c33-a2408da7a6fe"",""projectId"":""0198c075-3de9-7cab-996b-8cffe1adb15f""}","https://test12345.live/?num_scrambled_semantic=8&num_scrambled_causal=4&num_scrambled_schematic=4&participantId=370C0B06651E4C23AC8CD94C86B91E85&assignmentId=0198c219-2f3e-7e57-8c33-a2408da7a6fe&projectId=0198c075-3de9-7cab-996b-8cffe1adb15f","370C0B06651E4C23AC8CD94C86B91E85-2025-08-19-11-40-35","","7573","","","{""Q0"":""Male"",""Q1"":""31""}","",""
"","","","","","instructions","38","523651","0.0-36.0","370C0B06651E4C23AC8CD94C86B91E85","370C0B06651E4C23AC8CD94C86B91E85","0198c219-2f3e-7e57-8c33-a2408da7a6fe","0198c075-3de9-7cab-996b-8cffe1adb15f","{""num_scrambled_semantic"":""8"",""num_scrambled_causal"":""4"",""num_scrambled_schematic"":""4"",""participantId"":""370C0B06651E4C23AC8CD94C86B91E85"",""assignmentId"":""0198c219-2f3e-7e57-8c33-a2408da7a6fe"",""projectId"":""0198c075-3de9-7cab-996b-8cffe1adb15f""}","https://test12345.live/?num_scrambled_semantic=8&num_scrambled_causal=4&num_scrambled_schematic=4&participantId=370C0B06651E4C23AC8CD94C86B91E85&assignmentId=0198c219-2f3e-7e57-8c33-a2408da7a6fe&projectId=0198c075-3de9-7cab-996b-8cffe1adb15f","370C0B06651E4C23AC8CD94C86B91E85-2025-08-19-11-40-35","[{""page_index"":0,""viewing_time"":5069}]","5069","","","","",""
"","","","","","survey-text","39","528542","0.0-37.0","370C0B06651E4C23AC8CD94C86B91E85","370C0B06651E4C23AC8CD94C86B91E85","0198c219-2f3e-7e57-8c33-a2408da7a6fe","0198c075-3de9-7cab-996b-8cffe1adb15f","{""num_scrambled_semantic"":""8"",""num_scrambled_causal"":""4"",""num_scrambled_schematic"":""4"",""participantId"":""370C0B06651E4C23AC8CD94C86B91E85"",""assignmentId"":""0198c219-2f3e-7e57-8c33-a2408da7a6fe"",""projectId"":""0198c075-3de9-7cab-996b-8cffe1adb15f""}","https://test12345.live/?num_scrambled_semantic=8&num_scrambled_causal=4&num_scrambled_schematic=4&participantId=370C0B06651E4C23AC8CD94C86B91E85&assignmentId=0198c219-2f3e-7e57-8c33-a2408da7a6fe&projectId=0198c075-3de9-7cab-996b-8cffe1adb15f","370C0B06651E4C23AC8CD94C86B91E85-2025-08-19-11-40-35","","4890","","","{""Q0"":""AJFHBG896""}","",""
