"success","timeout","failed_images","failed_audio","failed_video","trial_type","trial_index","time_elapsed","internal_node_id","subject","subject_id","study_id","session_id","urlvar","current_url","audio_id","view_history","rt","device_id","stimulus","response","estimated_stimulus_onset","seq_name"
"true","false","[]","[]","[]","preload","0","5585","0.0-0.0","37DB0461F33B467E955ABB9F1EA2E2D1","37DB0461F33B467E955ABB9F1EA2E2D1","0198c22d-149c-7763-b8ec-0481350c9dab","0198c075-3de9-7cab-996b-8cffe1adb15f","{""num_scrambled_semantic"":""8"",""num_scrambled_causal"":""4"",""num_scrambled_schematic"":""4"",""participantId"":""37DB0461F33B467E955ABB9F1EA2E2D1"",""assignmentId"":""0198c22d-149c-7763-b8ec-0481350c9dab"",""projectId"":""0198c075-3de9-7cab-996b-8cffe1adb15f""}","https://test12345.live/?num_scrambled_semantic=8&num_scrambled_causal=4&num_scrambled_schematic=4&participantId=37DB0461F33B467E955ABB9F1EA2E2D1&assignmentId=0198c22d-149c-7763-b8ec-0481350c9dab&projectId=0198c075-3de9-7cab-996b-8cffe1adb15f","37DB0461F33B467E955ABB9F1EA2E2D1-2025-08-19-12-02-06","","","","","","",""
"","","","","","instructions","1","11786","0.0-1.0","37DB0461F33B467E955ABB9F1EA2E2D1","37DB0461F33B467E955ABB9F1EA2E2D1","0198c22d-149c-7763-b8ec-0481350c9dab","0198c075-3de9-7cab-996b-8cffe1adb15f","{""num_scrambled_semantic"":""8"",""num_scrambled_causal"":""4"",""num_scrambled_schematic"":""4"",""participantId"":""37DB0461F33B467E955ABB9F1EA2E2D1"",""assignmentId"":""0198c22d-149c-7763-b8ec-0481350c9dab"",""projectId"":""0198c075-3de9-7cab-996b-8cffe1adb15f""}","https://test12345.live/?num_scrambled_semantic=8&num_scrambled_causal=4&num_scrambled_schematic=4&participantId=37DB0461F33B467E955ABB9F1EA2E2D1&assignmentId=0198c22d-149c-7763-b8ec-0481350c9dab&projectId=0198c075-3de9-7cab-996b-8cffe1adb15f","37DB0461F33B467E955ABB9F1EA2E2D1-2025-08-19-12-02-06","[{""page_index"":0,""viewing_time"":6201}]","6201","","","","",""
"","","","","","instructions","2","15523","0.0-2.0","37DB0461F33B467E955ABB9F1EA2E2D1","37DB0461F33B467E955ABB9F1EA2E2D1","0198c22d-149c-7763-b8ec-0481350c9dab","0198c075-3de9-7cab-996b-8cffe1adb15f","{""num_scrambled_semantic"":""8"",""num_scrambled_causal"":""4"",""num_scrambled_schematic"":""4"",""participantId"":""37DB0461F33B467E955ABB9F1EA2E2D1"",""assignmentId"":""0198c22d-149c-7763-b8ec-0481350c9dab"",""projectId"":""0198c075-3de9-7cab-996b-8cffe1adb15f""}","https://test12345.live/?num_scrambled_semantic=8&num_scrambled_causal=4&num_scrambled_schematic=4&participantId=37DB0461F33B467E955ABB9F1EA2E2D1&assignmentId=0198c22d-149c-7763-b8ec-0481350c9dab&projectId=0198c075-3de9-7cab-996b-8cffe1adb15f","37DB0461F33B467E955ABB9F1EA2E2D1-2025-08-19-12-02-06","[{""page_index"":0,""viewing_time"":3734}]","3734","","","","",""
"true","","","","","fullscreen","3","17831","0.0-3.0","37DB0461F33B467E955ABB9F1EA2E2D1","37DB0461F33B467E955ABB9F1EA2E2D1","0198c22d-149c-7763-b8ec-0481350c9dab","0198c075-3de9-7cab-996b-8cffe1adb15f","{""num_scrambled_semantic"":""8"",""num_scrambled_causal"":""4"",""num_scrambled_schematic"":""4"",""participantId"":""37DB0461F33B467E955ABB9F1EA2E2D1"",""assignmentId"":""0198c22d-149c-7763-b8ec-0481350c9dab"",""projectId"":""0198c075-3de9-7cab-996b-8cffe1adb15f""}","https://test12345.live/?num_scrambled_semantic=8&num_scrambled_causal=4&num_scrambled_schematic=4&participantId=37DB0461F33B467E955ABB9F1EA2E2D1&assignmentId=0198c22d-149c-7763-b8ec-0481350c9dab&projectId=0198c075-3de9-7cab-996b-8cffe1adb15f","37DB0461F33B467E955ABB9F1EA2E2D1-2025-08-19-12-02-06","","1302","","","","",""
"","","","","","initialize-microphone","4","22327","0.0-4.0-0.0","37DB0461F33B467E955ABB9F1EA2E2D1","37DB0461F33B467E955ABB9F1EA2E2D1","0198c22d-149c-7763-b8ec-0481350c9dab","0198c075-3de9-7cab-996b-8cffe1adb15f","{""num_scrambled_semantic"":""8"",""num_scrambled_causal"":""4"",""num_scrambled_schematic"":""4"",""participantId"":""37DB0461F33B467E955ABB9F1EA2E2D1"",""assignmentId"":""0198c22d-149c-7763-b8ec-0481350c9dab"",""projectId"":""0198c075-3de9-7cab-996b-8cffe1adb15f""}","https://test12345.live/?num_scrambled_semantic=8&num_scrambled_causal=4&num_scrambled_schematic=4&participantId=37DB0461F33B467E955ABB9F1EA2E2D1&assignmentId=0198c22d-149c-7763-b8ec-0481350c9dab&projectId=0198c075-3de9-7cab-996b-8cffe1adb15f","37DB0461F33B467E955ABB9F1EA2E2D1-2025-08-19-12-02-06","","","zG+jYsmk8qrTfzTRiTRy4EUtef6VpFQmz5DOvqByeKc=","","","",""
"","","","","","html-audio-response","5","31770","0.0-4.0-1.0","37DB0461F33B467E955ABB9F1EA2E2D1","37DB0461F33B467E955ABB9F1EA2E2D1","0198c22d-149c-7763-b8ec-0481350c9dab","0198c075-3de9-7cab-996b-8cffe1adb15f","{""num_scrambled_semantic"":""8"",""num_scrambled_causal"":""4"",""num_scrambled_schematic"":""4"",""participantId"":""37DB0461F33B467E955ABB9F1EA2E2D1"",""assignmentId"":""0198c22d-149c-7763-b8ec-0481350c9dab"",""projectId"":""0198c075-3de9-7cab-996b-8cffe1adb15f""}","https://test12345.live/?num_scrambled_semantic=8&num_scrambled_causal=4&num_scrambled_schematic=4&participantId=37DB0461F33B467E955ABB9F1EA2E2D1&assignmentId=0198c22d-149c-7763-b8ec-0481350c9dab&projectId=0198c075-3de9-7cab-996b-8cffe1adb15f","37DB0461F33B467E955ABB9F1EA2E2D1-2025-08-19-12-02-06","","5130","","<span style=""color: red; font-size: 24px""> NOW RECORDING</span>
        <p>Please test Microphone</p>","","2",""
"","","","","","html-button-response","6","32914","0.0-4.0-2.0","37DB0461F33B467E955ABB9F1EA2E2D1","37DB0461F33B467E955ABB9F1EA2E2D1","0198c22d-149c-7763-b8ec-0481350c9dab","0198c075-3de9-7cab-996b-8cffe1adb15f","{""num_scrambled_semantic"":""8"",""num_scrambled_causal"":""4"",""num_scrambled_schematic"":""4"",""participantId"":""37DB0461F33B467E955ABB9F1EA2E2D1"",""assignmentId"":""0198c22d-149c-7763-b8ec-0481350c9dab"",""projectId"":""0198c075-3de9-7cab-996b-8cffe1adb15f""}","https://test12345.live/?num_scrambled_semantic=8&num_scrambled_causal=4&num_scrambled_schematic=4&participantId=37DB0461F33B467E955ABB9F1EA2E2D1&assignmentId=0198c22d-149c-7763-b8ec-0481350c9dab&projectId=0198c075-3de9-7cab-996b-8cffe1adb15f","37DB0461F33B467E955ABB9F1EA2E2D1-2025-08-19-12-02-06","","1143","","<p style=""font-size:48px; color:red;"">Is Microphone OK?</p>","1","",""
"","","","","","instructions","7","65105","0.0-5.0","37DB0461F33B467E955ABB9F1EA2E2D1","37DB0461F33B467E955ABB9F1EA2E2D1","0198c22d-149c-7763-b8ec-0481350c9dab","0198c075-3de9-7cab-996b-8cffe1adb15f","{""num_scrambled_semantic"":""8"",""num_scrambled_causal"":""4"",""num_scrambled_schematic"":""4"",""participantId"":""37DB0461F33B467E955ABB9F1EA2E2D1"",""assignmentId"":""0198c22d-149c-7763-b8ec-0481350c9dab"",""projectId"":""0198c075-3de9-7cab-996b-8cffe1adb15f""}","https://test12345.live/?num_scrambled_semantic=8&num_scrambled_causal=4&num_scrambled_schematic=4&participantId=37DB0461F33B467E955ABB9F1EA2E2D1&assignmentId=0198c22d-149c-7763-b8ec-0481350c9dab&projectId=0198c075-3de9-7cab-996b-8cffe1adb15f","37DB0461F33B467E955ABB9F1EA2E2D1-2025-08-19-12-02-06","[{""page_index"":0,""viewing_time"":1480},{""page_index"":1,""viewing_time"":9996},{""page_index"":2,""viewing_time"":20714}]","32190","","","","",""
"","","","","","image-button-response","8","71825","0.0-6.0-0.0","37DB0461F33B467E955ABB9F1EA2E2D1","37DB0461F33B467E955ABB9F1EA2E2D1","0198c22d-149c-7763-b8ec-0481350c9dab","0198c075-3de9-7cab-996b-8cffe1adb15f","{""num_scrambled_semantic"":""8"",""num_scrambled_causal"":""4"",""num_scrambled_schematic"":""4"",""participantId"":""37DB0461F33B467E955ABB9F1EA2E2D1"",""assignmentId"":""0198c22d-149c-7763-b8ec-0481350c9dab"",""projectId"":""0198c075-3de9-7cab-996b-8cffe1adb15f""}","https://test12345.live/?num_scrambled_semantic=8&num_scrambled_causal=4&num_scrambled_schematic=4&participantId=37DB0461F33B467E955ABB9F1EA2E2D1&assignmentId=0198c22d-149c-7763-b8ec-0481350c9dab&projectId=0198c075-3de9-7cab-996b-8cffe1adb15f","37DB0461F33B467E955ABB9F1EA2E2D1-2025-08-19-12-02-06","","null","","images/instructions/movie_0.png","null","",""
"","","","","","html-audio-response","9","94259","0.0-7.0","37DB0461F33B467E955ABB9F1EA2E2D1","37DB0461F33B467E955ABB9F1EA2E2D1","0198c22d-149c-7763-b8ec-0481350c9dab","0198c075-3de9-7cab-996b-8cffe1adb15f","{""num_scrambled_semantic"":""8"",""num_scrambled_causal"":""4"",""num_scrambled_schematic"":""4"",""participantId"":""37DB0461F33B467E955ABB9F1EA2E2D1"",""assignmentId"":""0198c22d-149c-7763-b8ec-0481350c9dab"",""projectId"":""0198c075-3de9-7cab-996b-8cffe1adb15f""}","https://test12345.live/?num_scrambled_semantic=8&num_scrambled_causal=4&num_scrambled_schematic=4&participantId=37DB0461F33B467E955ABB9F1EA2E2D1&assignmentId=0198c22d-149c-7763-b8ec-0481350c9dab&projectId=0198c075-3de9-7cab-996b-8cffe1adb15f","37DB0461F33B467E955ABB9F1EA2E2D1-2025-08-19-12-02-06","","20910","","[""<span style=\""color: red; font-size: 24px\""> NOW RECORDING</span><p>Please say out loud all the images you saw in part 1 of the experiment, as many as you can remember. The images can be said in any order.</p>""]","","11",""
"","","","","","instructions","10","95603","0.0-8.0","37DB0461F33B467E955ABB9F1EA2E2D1","37DB0461F33B467E955ABB9F1EA2E2D1","0198c22d-149c-7763-b8ec-0481350c9dab","0198c075-3de9-7cab-996b-8cffe1adb15f","{""num_scrambled_semantic"":""8"",""num_scrambled_causal"":""4"",""num_scrambled_schematic"":""4"",""participantId"":""37DB0461F33B467E955ABB9F1EA2E2D1"",""assignmentId"":""0198c22d-149c-7763-b8ec-0481350c9dab"",""projectId"":""0198c075-3de9-7cab-996b-8cffe1adb15f""}","https://test12345.live/?num_scrambled_semantic=8&num_scrambled_causal=4&num_scrambled_schematic=4&participantId=37DB0461F33B467E955ABB9F1EA2E2D1&assignmentId=0198c22d-149c-7763-b8ec-0481350c9dab&projectId=0198c075-3de9-7cab-996b-8cffe1adb15f","37DB0461F33B467E955ABB9F1EA2E2D1-2025-08-19-12-02-06","[{""page_index"":0,""viewing_time"":1339}]","1339","","","","",""
"","","","","","image-button-response","11","101944","0.0-9.0-0.0","37DB0461F33B467E955ABB9F1EA2E2D1","37DB0461F33B467E955ABB9F1EA2E2D1","0198c22d-149c-7763-b8ec-0481350c9dab","0198c075-3de9-7cab-996b-8cffe1adb15f","{""num_scrambled_semantic"":""8"",""num_scrambled_causal"":""4"",""num_scrambled_schematic"":""4"",""participantId"":""37DB0461F33B467E955ABB9F1EA2E2D1"",""assignmentId"":""0198c22d-149c-7763-b8ec-0481350c9dab"",""projectId"":""0198c075-3de9-7cab-996b-8cffe1adb15f""}","https://test12345.live/?num_scrambled_semantic=8&num_scrambled_causal=4&num_scrambled_schematic=4&participantId=37DB0461F33B467E955ABB9F1EA2E2D1&assignmentId=0198c22d-149c-7763-b8ec-0481350c9dab&projectId=0198c075-3de9-7cab-996b-8cffe1adb15f","37DB0461F33B467E955ABB9F1EA2E2D1-2025-08-19-12-02-06","","null","","images/causal_sequence/coin_causal/coin_causal_0.png","null","",""
"","","","","","html-audio-response","12","134972","0.0-10.0","37DB0461F33B467E955ABB9F1EA2E2D1","37DB0461F33B467E955ABB9F1EA2E2D1","0198c22d-149c-7763-b8ec-0481350c9dab","0198c075-3de9-7cab-996b-8cffe1adb15f","{""num_scrambled_semantic"":""8"",""num_scrambled_causal"":""4"",""num_scrambled_schematic"":""4"",""participantId"":""37DB0461F33B467E955ABB9F1EA2E2D1"",""assignmentId"":""0198c22d-149c-7763-b8ec-0481350c9dab"",""projectId"":""0198c075-3de9-7cab-996b-8cffe1adb15f""}","https://test12345.live/?num_scrambled_semantic=8&num_scrambled_causal=4&num_scrambled_schematic=4&participantId=37DB0461F33B467E955ABB9F1EA2E2D1&assignmentId=0198c22d-149c-7763-b8ec-0481350c9dab&projectId=0198c075-3de9-7cab-996b-8cffe1adb15f","37DB0461F33B467E955ABB9F1EA2E2D1-2025-08-19-12-02-06","","31851","","[""<span style=\""color: red; font-size: 24px\""> NOW RECORDING</span><p>Please say out loud all the images you saw in part 1 of the experiment, as many as you can remember. The images can be said in any order.</p>""]","","3","coin_causal"
"","","","","","image-button-response","13","140997","0.0-11.0-0.0","37DB0461F33B467E955ABB9F1EA2E2D1","37DB0461F33B467E955ABB9F1EA2E2D1","0198c22d-149c-7763-b8ec-0481350c9dab","0198c075-3de9-7cab-996b-8cffe1adb15f","{""num_scrambled_semantic"":""8"",""num_scrambled_causal"":""4"",""num_scrambled_schematic"":""4"",""participantId"":""37DB0461F33B467E955ABB9F1EA2E2D1"",""assignmentId"":""0198c22d-149c-7763-b8ec-0481350c9dab"",""projectId"":""0198c075-3de9-7cab-996b-8cffe1adb15f""}","https://test12345.live/?num_scrambled_semantic=8&num_scrambled_causal=4&num_scrambled_schematic=4&participantId=37DB0461F33B467E955ABB9F1EA2E2D1&assignmentId=0198c22d-149c-7763-b8ec-0481350c9dab&projectId=0198c075-3de9-7cab-996b-8cffe1adb15f","37DB0461F33B467E955ABB9F1EA2E2D1-2025-08-19-12-02-06","","null","","images/semantic_sequence/cat_care_semantic/cat_care_semantic_0.png","null","",""
"","","","","","html-audio-response","14","171287","0.0-12.0","37DB0461F33B467E955ABB9F1EA2E2D1","37DB0461F33B467E955ABB9F1EA2E2D1","0198c22d-149c-7763-b8ec-0481350c9dab","0198c075-3de9-7cab-996b-8cffe1adb15f","{""num_scrambled_semantic"":""8"",""num_scrambled_causal"":""4"",""num_scrambled_schematic"":""4"",""participantId"":""37DB0461F33B467E955ABB9F1EA2E2D1"",""assignmentId"":""0198c22d-149c-7763-b8ec-0481350c9dab"",""projectId"":""0198c075-3de9-7cab-996b-8cffe1adb15f""}","https://test12345.live/?num_scrambled_semantic=8&num_scrambled_causal=4&num_scrambled_schematic=4&participantId=37DB0461F33B467E955ABB9F1EA2E2D1&assignmentId=0198c22d-149c-7763-b8ec-0481350c9dab&projectId=0198c075-3de9-7cab-996b-8cffe1adb15f","37DB0461F33B467E955ABB9F1EA2E2D1-2025-08-19-12-02-06","","28932","","[""<span style=\""color: red; font-size: 24px\""> NOW RECORDING</span><p>Please say out loud all the images you saw in part 1 of the experiment, as many as you can remember. The images can be said in any order.</p>""]","","4","cat_care_semantic"
"","","","","","image-button-response","15","177311","0.0-13.0-0.0","37DB0461F33B467E955ABB9F1EA2E2D1","37DB0461F33B467E955ABB9F1EA2E2D1","0198c22d-149c-7763-b8ec-0481350c9dab","0198c075-3de9-7cab-996b-8cffe1adb15f","{""num_scrambled_semantic"":""8"",""num_scrambled_causal"":""4"",""num_scrambled_schematic"":""4"",""participantId"":""37DB0461F33B467E955ABB9F1EA2E2D1"",""assignmentId"":""0198c22d-149c-7763-b8ec-0481350c9dab"",""projectId"":""0198c075-3de9-7cab-996b-8cffe1adb15f""}","https://test12345.live/?num_scrambled_semantic=8&num_scrambled_causal=4&num_scrambled_schematic=4&participantId=37DB0461F33B467E955ABB9F1EA2E2D1&assignmentId=0198c22d-149c-7763-b8ec-0481350c9dab&projectId=0198c075-3de9-7cab-996b-8cffe1adb15f","37DB0461F33B467E955ABB9F1EA2E2D1-2025-08-19-12-02-06","","null","","images/causal_sequence/saving_a_cat_causal/saving_a_cat_causal_0.png","null","",""
"","","","","","html-audio-response","16","189255","0.0-14.0","37DB0461F33B467E955ABB9F1EA2E2D1","37DB0461F33B467E955ABB9F1EA2E2D1","0198c22d-149c-7763-b8ec-0481350c9dab","0198c075-3de9-7cab-996b-8cffe1adb15f","{""num_scrambled_semantic"":""8"",""num_scrambled_causal"":""4"",""num_scrambled_schematic"":""4"",""participantId"":""37DB0461F33B467E955ABB9F1EA2E2D1"",""assignmentId"":""0198c22d-149c-7763-b8ec-0481350c9dab"",""projectId"":""0198c075-3de9-7cab-996b-8cffe1adb15f""}","https://test12345.live/?num_scrambled_semantic=8&num_scrambled_causal=4&num_scrambled_schematic=4&participantId=37DB0461F33B467E955ABB9F1EA2E2D1&assignmentId=0198c22d-149c-7763-b8ec-0481350c9dab&projectId=0198c075-3de9-7cab-996b-8cffe1adb15f","37DB0461F33B467E955ABB9F1EA2E2D1-2025-08-19-12-02-06","","10821","","[""<span style=\""color: red; font-size: 24px\""> NOW RECORDING</span><p>Please say out loud all the images you saw in part 1 of the experiment, as many as you can remember. The images can be said in any order.</p>""]","","6","saving_a_cat_causal"
"","","","","","image-button-response","17","195271","0.0-15.0-0.0","37DB0461F33B467E955ABB9F1EA2E2D1","37DB0461F33B467E955ABB9F1EA2E2D1","0198c22d-149c-7763-b8ec-0481350c9dab","0198c075-3de9-7cab-996b-8cffe1adb15f","{""num_scrambled_semantic"":""8"",""num_scrambled_causal"":""4"",""num_scrambled_schematic"":""4"",""participantId"":""37DB0461F33B467E955ABB9F1EA2E2D1"",""assignmentId"":""0198c22d-149c-7763-b8ec-0481350c9dab"",""projectId"":""0198c075-3de9-7cab-996b-8cffe1adb15f""}","https://test12345.live/?num_scrambled_semantic=8&num_scrambled_causal=4&num_scrambled_schematic=4&participantId=37DB0461F33B467E955ABB9F1EA2E2D1&assignmentId=0198c22d-149c-7763-b8ec-0481350c9dab&projectId=0198c075-3de9-7cab-996b-8cffe1adb15f","37DB0461F33B467E955ABB9F1EA2E2D1-2025-08-19-12-02-06","","null","","images/causal_sequence/the_performance_causal/the_performance_causal_0.png","null","",""
"","","","","","html-audio-response","18","246676","0.0-16.0","37DB0461F33B467E955ABB9F1EA2E2D1","37DB0461F33B467E955ABB9F1EA2E2D1","0198c22d-149c-7763-b8ec-0481350c9dab","0198c075-3de9-7cab-996b-8cffe1adb15f","{""num_scrambled_semantic"":""8"",""num_scrambled_causal"":""4"",""num_scrambled_schematic"":""4"",""participantId"":""37DB0461F33B467E955ABB9F1EA2E2D1"",""assignmentId"":""0198c22d-149c-7763-b8ec-0481350c9dab"",""projectId"":""0198c075-3de9-7cab-996b-8cffe1adb15f""}","https://test12345.live/?num_scrambled_semantic=8&num_scrambled_causal=4&num_scrambled_schematic=4&participantId=37DB0461F33B467E955ABB9F1EA2E2D1&assignmentId=0198c22d-149c-7763-b8ec-0481350c9dab&projectId=0198c075-3de9-7cab-996b-8cffe1adb15f","37DB0461F33B467E955ABB9F1EA2E2D1-2025-08-19-12-02-06","","50179","","[""<span style=\""color: red; font-size: 24px\""> NOW RECORDING</span><p>Please say out loud all the images you saw in part 1 of the experiment, as many as you can remember. The images can be said in any order.</p>""]","","2","the_performance_causal"
"","","","","","image-button-response","19","252701","0.0-17.0-0.0","37DB0461F33B467E955ABB9F1EA2E2D1","37DB0461F33B467E955ABB9F1EA2E2D1","0198c22d-149c-7763-b8ec-0481350c9dab","0198c075-3de9-7cab-996b-8cffe1adb15f","{""num_scrambled_semantic"":""8"",""num_scrambled_causal"":""4"",""num_scrambled_schematic"":""4"",""participantId"":""37DB0461F33B467E955ABB9F1EA2E2D1"",""assignmentId"":""0198c22d-149c-7763-b8ec-0481350c9dab"",""projectId"":""0198c075-3de9-7cab-996b-8cffe1adb15f""}","https://test12345.live/?num_scrambled_semantic=8&num_scrambled_causal=4&num_scrambled_schematic=4&participantId=37DB0461F33B467E955ABB9F1EA2E2D1&assignmentId=0198c22d-149c-7763-b8ec-0481350c9dab&projectId=0198c075-3de9-7cab-996b-8cffe1adb15f","37DB0461F33B467E955ABB9F1EA2E2D1-2025-08-19-12-02-06","","null","","images/semantic_sequence/redecorating_semantic/redecorating_semantic_0.png","null","",""
"","","","","","html-audio-response","20","290068","0.0-18.0","37DB0461F33B467E955ABB9F1EA2E2D1","37DB0461F33B467E955ABB9F1EA2E2D1","0198c22d-149c-7763-b8ec-0481350c9dab","0198c075-3de9-7cab-996b-8cffe1adb15f","{""num_scrambled_semantic"":""8"",""num_scrambled_causal"":""4"",""num_scrambled_schematic"":""4"",""participantId"":""37DB0461F33B467E955ABB9F1EA2E2D1"",""assignmentId"":""0198c22d-149c-7763-b8ec-0481350c9dab"",""projectId"":""0198c075-3de9-7cab-996b-8cffe1adb15f""}","https://test12345.live/?num_scrambled_semantic=8&num_scrambled_causal=4&num_scrambled_schematic=4&participantId=37DB0461F33B467E955ABB9F1EA2E2D1&assignmentId=0198c22d-149c-7763-b8ec-0481350c9dab&projectId=0198c075-3de9-7cab-996b-8cffe1adb15f","37DB0461F33B467E955ABB9F1EA2E2D1-2025-08-19-12-02-06","","36405","","[""<span style=\""color: red; font-size: 24px\""> NOW RECORDING</span><p>Please say out loud all the images you saw in part 1 of the experiment, as many as you can remember. The images can be said in any order.</p>""]","","7","redecorating_semantic"
"","","","","","image-button-response","21","296169","0.0-19.0-0.0","37DB0461F33B467E955ABB9F1EA2E2D1","37DB0461F33B467E955ABB9F1EA2E2D1","0198c22d-149c-7763-b8ec-0481350c9dab","0198c075-3de9-7cab-996b-8cffe1adb15f","{""num_scrambled_semantic"":""8"",""num_scrambled_causal"":""4"",""num_scrambled_schematic"":""4"",""participantId"":""37DB0461F33B467E955ABB9F1EA2E2D1"",""assignmentId"":""0198c22d-149c-7763-b8ec-0481350c9dab"",""projectId"":""0198c075-3de9-7cab-996b-8cffe1adb15f""}","https://test12345.live/?num_scrambled_semantic=8&num_scrambled_causal=4&num_scrambled_schematic=4&participantId=37DB0461F33B467E955ABB9F1EA2E2D1&assignmentId=0198c22d-149c-7763-b8ec-0481350c9dab&projectId=0198c075-3de9-7cab-996b-8cffe1adb15f","37DB0461F33B467E955ABB9F1EA2E2D1-2025-08-19-12-02-06","","null","","images/semantic_sequence/housework_semantic/housework_semantic_0.png","null","",""
"","","","","","html-audio-response","22","353265","0.0-20.0","37DB0461F33B467E955ABB9F1EA2E2D1","37DB0461F33B467E955ABB9F1EA2E2D1","0198c22d-149c-7763-b8ec-0481350c9dab","0198c075-3de9-7cab-996b-8cffe1adb15f","{""num_scrambled_semantic"":""8"",""num_scrambled_causal"":""4"",""num_scrambled_schematic"":""4"",""participantId"":""37DB0461F33B467E955ABB9F1EA2E2D1"",""assignmentId"":""0198c22d-149c-7763-b8ec-0481350c9dab"",""projectId"":""0198c075-3de9-7cab-996b-8cffe1adb15f""}","https://test12345.live/?num_scrambled_semantic=8&num_scrambled_causal=4&num_scrambled_schematic=4&participantId=37DB0461F33B467E955ABB9F1EA2E2D1&assignmentId=0198c22d-149c-7763-b8ec-0481350c9dab&projectId=0198c075-3de9-7cab-996b-8cffe1adb15f","37DB0461F33B467E955ABB9F1EA2E2D1-2025-08-19-12-02-06","","null","","[""<span style=\""color: red; font-size: 24px\""> NOW RECORDING</span><p>Please say out loud all the images you saw in part 1 of the experiment, as many as you can remember. The images can be said in any order.</p>""]","","1","housework_semantic"
"","","","","","image-button-response","23","359288","0.0-21.0-0.0","37DB0461F33B467E955ABB9F1EA2E2D1","37DB0461F33B467E955ABB9F1EA2E2D1","0198c22d-149c-7763-b8ec-0481350c9dab","0198c075-3de9-7cab-996b-8cffe1adb15f","{""num_scrambled_semantic"":""8"",""num_scrambled_causal"":""4"",""num_scrambled_schematic"":""4"",""participantId"":""37DB0461F33B467E955ABB9F1EA2E2D1"",""assignmentId"":""0198c22d-149c-7763-b8ec-0481350c9dab"",""projectId"":""0198c075-3de9-7cab-996b-8cffe1adb15f""}","https://test12345.live/?num_scrambled_semantic=8&num_scrambled_causal=4&num_scrambled_schematic=4&participantId=37DB0461F33B467E955ABB9F1EA2E2D1&assignmentId=0198c22d-149c-7763-b8ec-0481350c9dab&projectId=0198c075-3de9-7cab-996b-8cffe1adb15f","37DB0461F33B467E955ABB9F1EA2E2D1-2025-08-19-12-02-06","","null","","images/semantic_sequence/using_technology_semantic/using_technology_semantic_0.png","null","",""
"","","","","","html-audio-response","24","365513","0.0-22.0","37DB0461F33B467E955ABB9F1EA2E2D1","37DB0461F33B467E955ABB9F1EA2E2D1","0198c22d-149c-7763-b8ec-0481350c9dab","0198c075-3de9-7cab-996b-8cffe1adb15f","{""num_scrambled_semantic"":""8"",""num_scrambled_causal"":""4"",""num_scrambled_schematic"":""4"",""participantId"":""37DB0461F33B467E955ABB9F1EA2E2D1"",""assignmentId"":""0198c22d-149c-7763-b8ec-0481350c9dab"",""projectId"":""0198c075-3de9-7cab-996b-8cffe1adb15f""}","https://test12345.live/?num_scrambled_semantic=8&num_scrambled_causal=4&num_scrambled_schematic=4&participantId=37DB0461F33B467E955ABB9F1EA2E2D1&assignmentId=0198c22d-149c-7763-b8ec-0481350c9dab&projectId=0198c075-3de9-7cab-996b-8cffe1adb15f","37DB0461F33B467E955ABB9F1EA2E2D1-2025-08-19-12-02-06","","4976","","[""<span style=\""color: red; font-size: 24px\""> NOW RECORDING</span><p>Please say out loud all the images you saw in part 1 of the experiment, as many as you can remember. The images can be said in any order.</p>""]","","16","using_technology_semantic"
"","","","","","image-button-response","25","371537","0.0-23.0-0.0","37DB0461F33B467E955ABB9F1EA2E2D1","37DB0461F33B467E955ABB9F1EA2E2D1","0198c22d-149c-7763-b8ec-0481350c9dab","0198c075-3de9-7cab-996b-8cffe1adb15f","{""num_scrambled_semantic"":""8"",""num_scrambled_causal"":""4"",""num_scrambled_schematic"":""4"",""participantId"":""37DB0461F33B467E955ABB9F1EA2E2D1"",""assignmentId"":""0198c22d-149c-7763-b8ec-0481350c9dab"",""projectId"":""0198c075-3de9-7cab-996b-8cffe1adb15f""}","https://test12345.live/?num_scrambled_semantic=8&num_scrambled_causal=4&num_scrambled_schematic=4&participantId=37DB0461F33B467E955ABB9F1EA2E2D1&assignmentId=0198c22d-149c-7763-b8ec-0481350c9dab&projectId=0198c075-3de9-7cab-996b-8cffe1adb15f","37DB0461F33B467E955ABB9F1EA2E2D1-2025-08-19-12-02-06","","null","","images/causal_sequence/museum_causal/museum_causal_0.png","null","",""
"","","","","","html-audio-response","26","415203","0.0-24.0","37DB0461F33B467E955ABB9F1EA2E2D1","37DB0461F33B467E955ABB9F1EA2E2D1","0198c22d-149c-7763-b8ec-0481350c9dab","0198c075-3de9-7cab-996b-8cffe1adb15f","{""num_scrambled_semantic"":""8"",""num_scrambled_causal"":""4"",""num_scrambled_schematic"":""4"",""participantId"":""37DB0461F33B467E955ABB9F1EA2E2D1"",""assignmentId"":""0198c22d-149c-7763-b8ec-0481350c9dab"",""projectId"":""0198c075-3de9-7cab-996b-8cffe1adb15f""}","https://test12345.live/?num_scrambled_semantic=8&num_scrambled_causal=4&num_scrambled_schematic=4&participantId=37DB0461F33B467E955ABB9F1EA2E2D1&assignmentId=0198c22d-149c-7763-b8ec-0481350c9dab&projectId=0198c075-3de9-7cab-996b-8cffe1adb15f","37DB0461F33B467E955ABB9F1EA2E2D1-2025-08-19-12-02-06","","41780","","[""<span style=\""color: red; font-size: 24px\""> NOW RECORDING</span><p>Please say out loud all the images you saw in part 1 of the experiment, as many as you can remember. The images can be said in any order.</p>""]","","3","museum_causal"
"","","","","","image-button-response","27","421226","0.0-25.0-0.0","37DB0461F33B467E955ABB9F1EA2E2D1","37DB0461F33B467E955ABB9F1EA2E2D1","0198c22d-149c-7763-b8ec-0481350c9dab","0198c075-3de9-7cab-996b-8cffe1adb15f","{""num_scrambled_semantic"":""8"",""num_scrambled_causal"":""4"",""num_scrambled_schematic"":""4"",""participantId"":""37DB0461F33B467E955ABB9F1EA2E2D1"",""assignmentId"":""0198c22d-149c-7763-b8ec-0481350c9dab"",""projectId"":""0198c075-3de9-7cab-996b-8cffe1adb15f""}","https://test12345.live/?num_scrambled_semantic=8&num_scrambled_causal=4&num_scrambled_schematic=4&participantId=37DB0461F33B467E955ABB9F1EA2E2D1&assignmentId=0198c22d-149c-7763-b8ec-0481350c9dab&projectId=0198c075-3de9-7cab-996b-8cffe1adb15f","37DB0461F33B467E955ABB9F1EA2E2D1-2025-08-19-12-02-06","","null","","images/semantic_sequence/creative_activities_semantic/creative_activities_semantic_0.png","null","",""
"","","","","","html-audio-response","28","426955","0.0-26.0","37DB0461F33B467E955ABB9F1EA2E2D1","37DB0461F33B467E955ABB9F1EA2E2D1","0198c22d-149c-7763-b8ec-0481350c9dab","0198c075-3de9-7cab-996b-8cffe1adb15f","{""num_scrambled_semantic"":""8"",""num_scrambled_causal"":""4"",""num_scrambled_schematic"":""4"",""participantId"":""37DB0461F33B467E955ABB9F1EA2E2D1"",""assignmentId"":""0198c22d-149c-7763-b8ec-0481350c9dab"",""projectId"":""0198c075-3de9-7cab-996b-8cffe1adb15f""}","https://test12345.live/?num_scrambled_semantic=8&num_scrambled_causal=4&num_scrambled_schematic=4&participantId=37DB0461F33B467E955ABB9F1EA2E2D1&assignmentId=0198c22d-149c-7763-b8ec-0481350c9dab&projectId=0198c075-3de9-7cab-996b-8cffe1adb15f","37DB0461F33B467E955ABB9F1EA2E2D1-2025-08-19-12-02-06","","4688","","[""<span style=\""color: red; font-size: 24px\""> NOW RECORDING</span><p>Please say out loud all the images you saw in part 1 of the experiment, as many as you can remember. The images can be said in any order.</p>""]","","2","creative_activities_semantic"
"","","","","","image-button-response","29","433377","0.0-27.0-0.0","37DB0461F33B467E955ABB9F1EA2E2D1","37DB0461F33B467E955ABB9F1EA2E2D1","0198c22d-149c-7763-b8ec-0481350c9dab","0198c075-3de9-7cab-996b-8cffe1adb15f","{""num_scrambled_semantic"":""8"",""num_scrambled_causal"":""4"",""num_scrambled_schematic"":""4"",""participantId"":""37DB0461F33B467E955ABB9F1EA2E2D1"",""assignmentId"":""0198c22d-149c-7763-b8ec-0481350c9dab"",""projectId"":""0198c075-3de9-7cab-996b-8cffe1adb15f""}","https://test12345.live/?num_scrambled_semantic=8&num_scrambled_causal=4&num_scrambled_schematic=4&participantId=37DB0461F33B467E955ABB9F1EA2E2D1&assignmentId=0198c22d-149c-7763-b8ec-0481350c9dab&projectId=0198c075-3de9-7cab-996b-8cffe1adb15f","37DB0461F33B467E955ABB9F1EA2E2D1-2025-08-19-12-02-06","","null","","images/semantic_sequence/physical_activity_semantic/physical_activity_semantic_0.png","null","",""
"","","","","","html-audio-response","30","489931","0.0-28.0","37DB0461F33B467E955ABB9F1EA2E2D1","37DB0461F33B467E955ABB9F1EA2E2D1","0198c22d-149c-7763-b8ec-0481350c9dab","0198c075-3de9-7cab-996b-8cffe1adb15f","{""num_scrambled_semantic"":""8"",""num_scrambled_causal"":""4"",""num_scrambled_schematic"":""4"",""participantId"":""37DB0461F33B467E955ABB9F1EA2E2D1"",""assignmentId"":""0198c22d-149c-7763-b8ec-0481350c9dab"",""projectId"":""0198c075-3de9-7cab-996b-8cffe1adb15f""}","https://test12345.live/?num_scrambled_semantic=8&num_scrambled_causal=4&num_scrambled_schematic=4&participantId=37DB0461F33B467E955ABB9F1EA2E2D1&assignmentId=0198c22d-149c-7763-b8ec-0481350c9dab&projectId=0198c075-3de9-7cab-996b-8cffe1adb15f","37DB0461F33B467E955ABB9F1EA2E2D1-2025-08-19-12-02-06","","null","","[""<span style=\""color: red; font-size: 24px\""> NOW RECORDING</span><p>Please say out loud all the images you saw in part 1 of the experiment, as many as you can remember. The images can be said in any order.</p>""]","","17","physical_activity_semantic"
"","","","","","image-button-response","31","495957","0.0-29.0-0.0","37DB0461F33B467E955ABB9F1EA2E2D1","37DB0461F33B467E955ABB9F1EA2E2D1","0198c22d-149c-7763-b8ec-0481350c9dab","0198c075-3de9-7cab-996b-8cffe1adb15f","{""num_scrambled_semantic"":""8"",""num_scrambled_causal"":""4"",""num_scrambled_schematic"":""4"",""participantId"":""37DB0461F33B467E955ABB9F1EA2E2D1"",""assignmentId"":""0198c22d-149c-7763-b8ec-0481350c9dab"",""projectId"":""0198c075-3de9-7cab-996b-8cffe1adb15f""}","https://test12345.live/?num_scrambled_semantic=8&num_scrambled_causal=4&num_scrambled_schematic=4&participantId=37DB0461F33B467E955ABB9F1EA2E2D1&assignmentId=0198c22d-149c-7763-b8ec-0481350c9dab&projectId=0198c075-3de9-7cab-996b-8cffe1adb15f","37DB0461F33B467E955ABB9F1EA2E2D1-2025-08-19-12-02-06","","null","","images/causal_sequence/dog_causal/dog_causal_0.png","null","",""
"","","","","","html-audio-response","32","499897","0.0-30.0","37DB0461F33B467E955ABB9F1EA2E2D1","37DB0461F33B467E955ABB9F1EA2E2D1","0198c22d-149c-7763-b8ec-0481350c9dab","0198c075-3de9-7cab-996b-8cffe1adb15f","{""num_scrambled_semantic"":""8"",""num_scrambled_causal"":""4"",""num_scrambled_schematic"":""4"",""participantId"":""37DB0461F33B467E955ABB9F1EA2E2D1"",""assignmentId"":""0198c22d-149c-7763-b8ec-0481350c9dab"",""projectId"":""0198c075-3de9-7cab-996b-8cffe1adb15f""}","https://test12345.live/?num_scrambled_semantic=8&num_scrambled_causal=4&num_scrambled_schematic=4&participantId=37DB0461F33B467E955ABB9F1EA2E2D1&assignmentId=0198c22d-149c-7763-b8ec-0481350c9dab&projectId=0198c075-3de9-7cab-996b-8cffe1adb15f","37DB0461F33B467E955ABB9F1EA2E2D1-2025-08-19-12-02-06","","2956","","[""<span style=\""color: red; font-size: 24px\""> NOW RECORDING</span><p>Please say out loud all the images you saw in part 1 of the experiment, as many as you can remember. The images can be said in any order.</p>""]","","4","dog_causal"
"","","","","","image-button-response","33","505964","0.0-31.0-0.0","37DB0461F33B467E955ABB9F1EA2E2D1","37DB0461F33B467E955ABB9F1EA2E2D1","0198c22d-149c-7763-b8ec-0481350c9dab","0198c075-3de9-7cab-996b-8cffe1adb15f","{""num_scrambled_semantic"":""8"",""num_scrambled_causal"":""4"",""num_scrambled_schematic"":""4"",""participantId"":""37DB0461F33B467E955ABB9F1EA2E2D1"",""assignmentId"":""0198c22d-149c-7763-b8ec-0481350c9dab"",""projectId"":""0198c075-3de9-7cab-996b-8cffe1adb15f""}","https://test12345.live/?num_scrambled_semantic=8&num_scrambled_causal=4&num_scrambled_schematic=4&participantId=37DB0461F33B467E955ABB9F1EA2E2D1&assignmentId=0198c22d-149c-7763-b8ec-0481350c9dab&projectId=0198c075-3de9-7cab-996b-8cffe1adb15f","37DB0461F33B467E955ABB9F1EA2E2D1-2025-08-19-12-02-06","","null","","images/causal_sequence/package_causal/package_causal_0.png","null","",""
"","","","","","html-audio-response","34","511000","0.0-32.0","37DB0461F33B467E955ABB9F1EA2E2D1","37DB0461F33B467E955ABB9F1EA2E2D1","0198c22d-149c-7763-b8ec-0481350c9dab","0198c075-3de9-7cab-996b-8cffe1adb15f","{""num_scrambled_semantic"":""8"",""num_scrambled_causal"":""4"",""num_scrambled_schematic"":""4"",""participantId"":""37DB0461F33B467E955ABB9F1EA2E2D1"",""assignmentId"":""0198c22d-149c-7763-b8ec-0481350c9dab"",""projectId"":""0198c075-3de9-7cab-996b-8cffe1adb15f""}","https://test12345.live/?num_scrambled_semantic=8&num_scrambled_causal=4&num_scrambled_schematic=4&participantId=37DB0461F33B467E955ABB9F1EA2E2D1&assignmentId=0198c22d-149c-7763-b8ec-0481350c9dab&projectId=0198c075-3de9-7cab-996b-8cffe1adb15f","37DB0461F33B467E955ABB9F1EA2E2D1-2025-08-19-12-02-06","","4186","","[""<span style=\""color: red; font-size: 24px\""> NOW RECORDING</span><p>Please say out loud all the images you saw in part 1 of the experiment, as many as you can remember. The images can be said in any order.</p>""]","","10","package_causal"
"","","","","","image-button-response","35","517018","0.0-33.0-0.0","37DB0461F33B467E955ABB9F1EA2E2D1","37DB0461F33B467E955ABB9F1EA2E2D1","0198c22d-149c-7763-b8ec-0481350c9dab","0198c075-3de9-7cab-996b-8cffe1adb15f","{""num_scrambled_semantic"":""8"",""num_scrambled_causal"":""4"",""num_scrambled_schematic"":""4"",""participantId"":""37DB0461F33B467E955ABB9F1EA2E2D1"",""assignmentId"":""0198c22d-149c-7763-b8ec-0481350c9dab"",""projectId"":""0198c075-3de9-7cab-996b-8cffe1adb15f""}","https://test12345.live/?num_scrambled_semantic=8&num_scrambled_causal=4&num_scrambled_schematic=4&participantId=37DB0461F33B467E955ABB9F1EA2E2D1&assignmentId=0198c22d-149c-7763-b8ec-0481350c9dab&projectId=0198c075-3de9-7cab-996b-8cffe1adb15f","37DB0461F33B467E955ABB9F1EA2E2D1-2025-08-19-12-02-06","","null","","images/semantic_sequence/maintaining_a_car_semantic/maintaining_a_car_semantic_0.png","null","",""
"","","","","","html-audio-response","36","528268","0.0-34.0","37DB0461F33B467E955ABB9F1EA2E2D1","37DB0461F33B467E955ABB9F1EA2E2D1","0198c22d-149c-7763-b8ec-0481350c9dab","0198c075-3de9-7cab-996b-8cffe1adb15f","{""num_scrambled_semantic"":""8"",""num_scrambled_causal"":""4"",""num_scrambled_schematic"":""4"",""participantId"":""37DB0461F33B467E955ABB9F1EA2E2D1"",""assignmentId"":""0198c22d-149c-7763-b8ec-0481350c9dab"",""projectId"":""0198c075-3de9-7cab-996b-8cffe1adb15f""}","https://test12345.live/?num_scrambled_semantic=8&num_scrambled_causal=4&num_scrambled_schematic=4&participantId=37DB0461F33B467E955ABB9F1EA2E2D1&assignmentId=0198c22d-149c-7763-b8ec-0481350c9dab&projectId=0198c075-3de9-7cab-996b-8cffe1adb15f","37DB0461F33B467E955ABB9F1EA2E2D1-2025-08-19-12-02-06","","8303","","[""<span style=\""color: red; font-size: 24px\""> NOW RECORDING</span><p>Please say out loud all the images you saw in part 1 of the experiment, as many as you can remember. The images can be said in any order.</p>""]","","2","maintaining_a_car_semantic"
"","","","","","survey-text","37","533912","0.0-35.0","37DB0461F33B467E955ABB9F1EA2E2D1","37DB0461F33B467E955ABB9F1EA2E2D1","0198c22d-149c-7763-b8ec-0481350c9dab","0198c075-3de9-7cab-996b-8cffe1adb15f","{""num_scrambled_semantic"":""8"",""num_scrambled_causal"":""4"",""num_scrambled_schematic"":""4"",""participantId"":""37DB0461F33B467E955ABB9F1EA2E2D1"",""assignmentId"":""0198c22d-149c-7763-b8ec-0481350c9dab"",""projectId"":""0198c075-3de9-7cab-996b-8cffe1adb15f""}","https://test12345.live/?num_scrambled_semantic=8&num_scrambled_causal=4&num_scrambled_schematic=4&participantId=37DB0461F33B467E955ABB9F1EA2E2D1&assignmentId=0198c22d-149c-7763-b8ec-0481350c9dab&projectId=0198c075-3de9-7cab-996b-8cffe1adb15f","37DB0461F33B467E955ABB9F1EA2E2D1-2025-08-19-12-02-06","","5596","","","{""Q0"":""Male"",""Q1"":""34""}","",""
"","","","","","instructions","38","538321","0.0-36.0","37DB0461F33B467E955ABB9F1EA2E2D1","37DB0461F33B467E955ABB9F1EA2E2D1","0198c22d-149c-7763-b8ec-0481350c9dab","0198c075-3de9-7cab-996b-8cffe1adb15f","{""num_scrambled_semantic"":""8"",""num_scrambled_causal"":""4"",""num_scrambled_schematic"":""4"",""participantId"":""37DB0461F33B467E955ABB9F1EA2E2D1"",""assignmentId"":""0198c22d-149c-7763-b8ec-0481350c9dab"",""projectId"":""0198c075-3de9-7cab-996b-8cffe1adb15f""}","https://test12345.live/?num_scrambled_semantic=8&num_scrambled_causal=4&num_scrambled_schematic=4&participantId=37DB0461F33B467E955ABB9F1EA2E2D1&assignmentId=0198c22d-149c-7763-b8ec-0481350c9dab&projectId=0198c075-3de9-7cab-996b-8cffe1adb15f","37DB0461F33B467E955ABB9F1EA2E2D1-2025-08-19-12-02-06","[{""page_index"":0,""viewing_time"":4406}]","4406","","","","",""
"","","","","","survey-text","39","540580","0.0-37.0","37DB0461F33B467E955ABB9F1EA2E2D1","37DB0461F33B467E955ABB9F1EA2E2D1","0198c22d-149c-7763-b8ec-0481350c9dab","0198c075-3de9-7cab-996b-8cffe1adb15f","{""num_scrambled_semantic"":""8"",""num_scrambled_causal"":""4"",""num_scrambled_schematic"":""4"",""participantId"":""37DB0461F33B467E955ABB9F1EA2E2D1"",""assignmentId"":""0198c22d-149c-7763-b8ec-0481350c9dab"",""projectId"":""0198c075-3de9-7cab-996b-8cffe1adb15f""}","https://test12345.live/?num_scrambled_semantic=8&num_scrambled_causal=4&num_scrambled_schematic=4&participantId=37DB0461F33B467E955ABB9F1EA2E2D1&assignmentId=0198c22d-149c-7763-b8ec-0481350c9dab&projectId=0198c075-3de9-7cab-996b-8cffe1adb15f","37DB0461F33B467E955ABB9F1EA2E2D1-2025-08-19-12-02-06","","2252","","","{""Q0"":""AJFHBG896""}","",""
