"success","timeout","failed_images","failed_audio","failed_video","trial_type","trial_index","time_elapsed","internal_node_id","subject","subject_id","study_id","session_id","urlvar","current_url","audio_id","view_history","rt","device_id","stimulus","response","estimated_stimulus_onset","seq_name"
"true","false","[]","[]","[]","preload","0","9656","0.0-0.0","425DC690A1EA4A98AA72B3C378B2CFB6","425DC690A1EA4A98AA72B3C378B2CFB6","0198c2de-4884-7fa1-bcbe-016379d1d092","0198c075-3de9-7cab-996b-8cffe1adb15f","{""num_scrambled_semantic"":""8"",""num_scrambled_causal"":""4"",""num_scrambled_schematic"":""4"",""participantId"":""425DC690A1EA4A98AA72B3C378B2CFB6"",""assignmentId"":""0198c2de-4884-7fa1-bcbe-016379d1d092"",""projectId"":""0198c075-3de9-7cab-996b-8cffe1adb15f""}","https://test12345.live/?num_scrambled_semantic=8&num_scrambled_causal=4&num_scrambled_schematic=4&participantId=425DC690A1EA4A98AA72B3C378B2CFB6&assignmentId=0198c2de-4884-7fa1-bcbe-016379d1d092&projectId=0198c075-3de9-7cab-996b-8cffe1adb15f","425DC690A1EA4A98AA72B3C378B2CFB6-2025-08-19-15-22-52","","","","","","",""
"","","","","","instructions","1","400390","0.0-1.0","425DC690A1EA4A98AA72B3C378B2CFB6","425DC690A1EA4A98AA72B3C378B2CFB6","0198c2de-4884-7fa1-bcbe-016379d1d092","0198c075-3de9-7cab-996b-8cffe1adb15f","{""num_scrambled_semantic"":""8"",""num_scrambled_causal"":""4"",""num_scrambled_schematic"":""4"",""participantId"":""425DC690A1EA4A98AA72B3C378B2CFB6"",""assignmentId"":""0198c2de-4884-7fa1-bcbe-016379d1d092"",""projectId"":""0198c075-3de9-7cab-996b-8cffe1adb15f""}","https://test12345.live/?num_scrambled_semantic=8&num_scrambled_causal=4&num_scrambled_schematic=4&participantId=425DC690A1EA4A98AA72B3C378B2CFB6&assignmentId=0198c2de-4884-7fa1-bcbe-016379d1d092&projectId=0198c075-3de9-7cab-996b-8cffe1adb15f","425DC690A1EA4A98AA72B3C378B2CFB6-2025-08-19-15-22-52","[{""page_index"":0,""viewing_time"":390720}]","390721","","","","",""
"","","","","","instructions","2","405622","0.0-2.0","425DC690A1EA4A98AA72B3C378B2CFB6","425DC690A1EA4A98AA72B3C378B2CFB6","0198c2de-4884-7fa1-bcbe-016379d1d092","0198c075-3de9-7cab-996b-8cffe1adb15f","{""num_scrambled_semantic"":""8"",""num_scrambled_causal"":""4"",""num_scrambled_schematic"":""4"",""participantId"":""425DC690A1EA4A98AA72B3C378B2CFB6"",""assignmentId"":""0198c2de-4884-7fa1-bcbe-016379d1d092"",""projectId"":""0198c075-3de9-7cab-996b-8cffe1adb15f""}","https://test12345.live/?num_scrambled_semantic=8&num_scrambled_causal=4&num_scrambled_schematic=4&participantId=425DC690A1EA4A98AA72B3C378B2CFB6&assignmentId=0198c2de-4884-7fa1-bcbe-016379d1d092&projectId=0198c075-3de9-7cab-996b-8cffe1adb15f","425DC690A1EA4A98AA72B3C378B2CFB6-2025-08-19-15-22-52","[{""page_index"":0,""viewing_time"":5231}]","5231","","","","",""
"true","","","","","fullscreen","3","412102","0.0-3.0","425DC690A1EA4A98AA72B3C378B2CFB6","425DC690A1EA4A98AA72B3C378B2CFB6","0198c2de-4884-7fa1-bcbe-016379d1d092","0198c075-3de9-7cab-996b-8cffe1adb15f","{""num_scrambled_semantic"":""8"",""num_scrambled_causal"":""4"",""num_scrambled_schematic"":""4"",""participantId"":""425DC690A1EA4A98AA72B3C378B2CFB6"",""assignmentId"":""0198c2de-4884-7fa1-bcbe-016379d1d092"",""projectId"":""0198c075-3de9-7cab-996b-8cffe1adb15f""}","https://test12345.live/?num_scrambled_semantic=8&num_scrambled_causal=4&num_scrambled_schematic=4&participantId=425DC690A1EA4A98AA72B3C378B2CFB6&assignmentId=0198c2de-4884-7fa1-bcbe-016379d1d092&projectId=0198c075-3de9-7cab-996b-8cffe1adb15f","425DC690A1EA4A98AA72B3C378B2CFB6-2025-08-19-15-22-52","","5477","","","","",""
"","","","","","initialize-microphone","4","442846","0.0-4.0-0.0","425DC690A1EA4A98AA72B3C378B2CFB6","425DC690A1EA4A98AA72B3C378B2CFB6","0198c2de-4884-7fa1-bcbe-016379d1d092","0198c075-3de9-7cab-996b-8cffe1adb15f","{""num_scrambled_semantic"":""8"",""num_scrambled_causal"":""4"",""num_scrambled_schematic"":""4"",""participantId"":""425DC690A1EA4A98AA72B3C378B2CFB6"",""assignmentId"":""0198c2de-4884-7fa1-bcbe-016379d1d092"",""projectId"":""0198c075-3de9-7cab-996b-8cffe1adb15f""}","https://test12345.live/?num_scrambled_semantic=8&num_scrambled_causal=4&num_scrambled_schematic=4&participantId=425DC690A1EA4A98AA72B3C378B2CFB6&assignmentId=0198c2de-4884-7fa1-bcbe-016379d1d092&projectId=0198c075-3de9-7cab-996b-8cffe1adb15f","425DC690A1EA4A98AA72B3C378B2CFB6-2025-08-19-15-22-52","","","cdce84d346028c96e7e4af04f58aaf8ef63d85b7e0fda2a99db87dcf3903a2ab","","","",""
"","","","","","html-audio-response","5","452649","0.0-4.0-1.0","425DC690A1EA4A98AA72B3C378B2CFB6","425DC690A1EA4A98AA72B3C378B2CFB6","0198c2de-4884-7fa1-bcbe-016379d1d092","0198c075-3de9-7cab-996b-8cffe1adb15f","{""num_scrambled_semantic"":""8"",""num_scrambled_causal"":""4"",""num_scrambled_schematic"":""4"",""participantId"":""425DC690A1EA4A98AA72B3C378B2CFB6"",""assignmentId"":""0198c2de-4884-7fa1-bcbe-016379d1d092"",""projectId"":""0198c075-3de9-7cab-996b-8cffe1adb15f""}","https://test12345.live/?num_scrambled_semantic=8&num_scrambled_causal=4&num_scrambled_schematic=4&participantId=425DC690A1EA4A98AA72B3C378B2CFB6&assignmentId=0198c2de-4884-7fa1-bcbe-016379d1d092&projectId=0198c075-3de9-7cab-996b-8cffe1adb15f","425DC690A1EA4A98AA72B3C378B2CFB6-2025-08-19-15-22-52","","4677","","<span style=""color: red; font-size: 24px""> NOW RECORDING</span>
        <p>Please test Microphone</p>","","14",""
"","","","","","html-button-response","6","454218","0.0-4.0-2.0","425DC690A1EA4A98AA72B3C378B2CFB6","425DC690A1EA4A98AA72B3C378B2CFB6","0198c2de-4884-7fa1-bcbe-016379d1d092","0198c075-3de9-7cab-996b-8cffe1adb15f","{""num_scrambled_semantic"":""8"",""num_scrambled_causal"":""4"",""num_scrambled_schematic"":""4"",""participantId"":""425DC690A1EA4A98AA72B3C378B2CFB6"",""assignmentId"":""0198c2de-4884-7fa1-bcbe-016379d1d092"",""projectId"":""0198c075-3de9-7cab-996b-8cffe1adb15f""}","https://test12345.live/?num_scrambled_semantic=8&num_scrambled_causal=4&num_scrambled_schematic=4&participantId=425DC690A1EA4A98AA72B3C378B2CFB6&assignmentId=0198c2de-4884-7fa1-bcbe-016379d1d092&projectId=0198c075-3de9-7cab-996b-8cffe1adb15f","425DC690A1EA4A98AA72B3C378B2CFB6-2025-08-19-15-22-52","","1567","","<p style=""font-size:48px; color:red;"">Is Microphone OK?</p>","1","",""
"","","","","","instructions","7","466407","0.0-5.0","425DC690A1EA4A98AA72B3C378B2CFB6","425DC690A1EA4A98AA72B3C378B2CFB6","0198c2de-4884-7fa1-bcbe-016379d1d092","0198c075-3de9-7cab-996b-8cffe1adb15f","{""num_scrambled_semantic"":""8"",""num_scrambled_causal"":""4"",""num_scrambled_schematic"":""4"",""participantId"":""425DC690A1EA4A98AA72B3C378B2CFB6"",""assignmentId"":""0198c2de-4884-7fa1-bcbe-016379d1d092"",""projectId"":""0198c075-3de9-7cab-996b-8cffe1adb15f""}","https://test12345.live/?num_scrambled_semantic=8&num_scrambled_causal=4&num_scrambled_schematic=4&participantId=425DC690A1EA4A98AA72B3C378B2CFB6&assignmentId=0198c2de-4884-7fa1-bcbe-016379d1d092&projectId=0198c075-3de9-7cab-996b-8cffe1adb15f","425DC690A1EA4A98AA72B3C378B2CFB6-2025-08-19-15-22-52","[{""page_index"":0,""viewing_time"":1205},{""page_index"":1,""viewing_time"":4034},{""page_index"":2,""viewing_time"":6949}]","12188","","","","",""
"","","","","","image-button-response","8","472414","0.0-6.0-0.0","425DC690A1EA4A98AA72B3C378B2CFB6","425DC690A1EA4A98AA72B3C378B2CFB6","0198c2de-4884-7fa1-bcbe-016379d1d092","0198c075-3de9-7cab-996b-8cffe1adb15f","{""num_scrambled_semantic"":""8"",""num_scrambled_causal"":""4"",""num_scrambled_schematic"":""4"",""participantId"":""425DC690A1EA4A98AA72B3C378B2CFB6"",""assignmentId"":""0198c2de-4884-7fa1-bcbe-016379d1d092"",""projectId"":""0198c075-3de9-7cab-996b-8cffe1adb15f""}","https://test12345.live/?num_scrambled_semantic=8&num_scrambled_causal=4&num_scrambled_schematic=4&participantId=425DC690A1EA4A98AA72B3C378B2CFB6&assignmentId=0198c2de-4884-7fa1-bcbe-016379d1d092&projectId=0198c075-3de9-7cab-996b-8cffe1adb15f","425DC690A1EA4A98AA72B3C378B2CFB6-2025-08-19-15-22-52","","null","","images/instructions/movie_0.png","null","",""
"","","","","","html-audio-response","9","518197","0.0-7.0","425DC690A1EA4A98AA72B3C378B2CFB6","425DC690A1EA4A98AA72B3C378B2CFB6","0198c2de-4884-7fa1-bcbe-016379d1d092","0198c075-3de9-7cab-996b-8cffe1adb15f","{""num_scrambled_semantic"":""8"",""num_scrambled_causal"":""4"",""num_scrambled_schematic"":""4"",""participantId"":""425DC690A1EA4A98AA72B3C378B2CFB6"",""assignmentId"":""0198c2de-4884-7fa1-bcbe-016379d1d092"",""projectId"":""0198c075-3de9-7cab-996b-8cffe1adb15f""}","https://test12345.live/?num_scrambled_semantic=8&num_scrambled_causal=4&num_scrambled_schematic=4&participantId=425DC690A1EA4A98AA72B3C378B2CFB6&assignmentId=0198c2de-4884-7fa1-bcbe-016379d1d092&projectId=0198c075-3de9-7cab-996b-8cffe1adb15f","425DC690A1EA4A98AA72B3C378B2CFB6-2025-08-19-15-22-52","","11769","","[""<span style=\""color: red; font-size: 24px\""> NOW RECORDING</span><p>Please say out loud all the images you saw in part 1 of the experiment, as many as you can remember. The images can be said in any order.</p>""]","","15",""
"","","","","","instructions","10","520172","0.0-8.0","425DC690A1EA4A98AA72B3C378B2CFB6","425DC690A1EA4A98AA72B3C378B2CFB6","0198c2de-4884-7fa1-bcbe-016379d1d092","0198c075-3de9-7cab-996b-8cffe1adb15f","{""num_scrambled_semantic"":""8"",""num_scrambled_causal"":""4"",""num_scrambled_schematic"":""4"",""participantId"":""425DC690A1EA4A98AA72B3C378B2CFB6"",""assignmentId"":""0198c2de-4884-7fa1-bcbe-016379d1d092"",""projectId"":""0198c075-3de9-7cab-996b-8cffe1adb15f""}","https://test12345.live/?num_scrambled_semantic=8&num_scrambled_causal=4&num_scrambled_schematic=4&participantId=425DC690A1EA4A98AA72B3C378B2CFB6&assignmentId=0198c2de-4884-7fa1-bcbe-016379d1d092&projectId=0198c075-3de9-7cab-996b-8cffe1adb15f","425DC690A1EA4A98AA72B3C378B2CFB6-2025-08-19-15-22-52","[{""page_index"":0,""viewing_time"":1969}]","1969","","","","",""
"","","","","","image-button-response","11","526190","0.0-9.0-0.0","425DC690A1EA4A98AA72B3C378B2CFB6","425DC690A1EA4A98AA72B3C378B2CFB6","0198c2de-4884-7fa1-bcbe-016379d1d092","0198c075-3de9-7cab-996b-8cffe1adb15f","{""num_scrambled_semantic"":""8"",""num_scrambled_causal"":""4"",""num_scrambled_schematic"":""4"",""participantId"":""425DC690A1EA4A98AA72B3C378B2CFB6"",""assignmentId"":""0198c2de-4884-7fa1-bcbe-016379d1d092"",""projectId"":""0198c075-3de9-7cab-996b-8cffe1adb15f""}","https://test12345.live/?num_scrambled_semantic=8&num_scrambled_causal=4&num_scrambled_schematic=4&participantId=425DC690A1EA4A98AA72B3C378B2CFB6&assignmentId=0198c2de-4884-7fa1-bcbe-016379d1d092&projectId=0198c075-3de9-7cab-996b-8cffe1adb15f","425DC690A1EA4A98AA72B3C378B2CFB6-2025-08-19-15-22-52","","null","","images/semantic_sequence/physical_activity_semantic/physical_activity_semantic_0.png","null","",""
"","","","","","html-audio-response","12","551424","0.0-10.0","425DC690A1EA4A98AA72B3C378B2CFB6","425DC690A1EA4A98AA72B3C378B2CFB6","0198c2de-4884-7fa1-bcbe-016379d1d092","0198c075-3de9-7cab-996b-8cffe1adb15f","{""num_scrambled_semantic"":""8"",""num_scrambled_causal"":""4"",""num_scrambled_schematic"":""4"",""participantId"":""425DC690A1EA4A98AA72B3C378B2CFB6"",""assignmentId"":""0198c2de-4884-7fa1-bcbe-016379d1d092"",""projectId"":""0198c075-3de9-7cab-996b-8cffe1adb15f""}","https://test12345.live/?num_scrambled_semantic=8&num_scrambled_causal=4&num_scrambled_schematic=4&participantId=425DC690A1EA4A98AA72B3C378B2CFB6&assignmentId=0198c2de-4884-7fa1-bcbe-016379d1d092&projectId=0198c075-3de9-7cab-996b-8cffe1adb15f","425DC690A1EA4A98AA72B3C378B2CFB6-2025-08-19-15-22-52","","24234","","[""<span style=\""color: red; font-size: 24px\""> NOW RECORDING</span><p>Please say out loud all the images you saw in part 1 of the experiment, as many as you can remember. The images can be said in any order.</p>""]","","2","physical_activity_semantic"
"","","","","","image-button-response","13","557433","0.0-11.0-0.0","425DC690A1EA4A98AA72B3C378B2CFB6","425DC690A1EA4A98AA72B3C378B2CFB6","0198c2de-4884-7fa1-bcbe-016379d1d092","0198c075-3de9-7cab-996b-8cffe1adb15f","{""num_scrambled_semantic"":""8"",""num_scrambled_causal"":""4"",""num_scrambled_schematic"":""4"",""participantId"":""425DC690A1EA4A98AA72B3C378B2CFB6"",""assignmentId"":""0198c2de-4884-7fa1-bcbe-016379d1d092"",""projectId"":""0198c075-3de9-7cab-996b-8cffe1adb15f""}","https://test12345.live/?num_scrambled_semantic=8&num_scrambled_causal=4&num_scrambled_schematic=4&participantId=425DC690A1EA4A98AA72B3C378B2CFB6&assignmentId=0198c2de-4884-7fa1-bcbe-016379d1d092&projectId=0198c075-3de9-7cab-996b-8cffe1adb15f","425DC690A1EA4A98AA72B3C378B2CFB6-2025-08-19-15-22-52","","null","","images/causal_sequence/dog_causal/dog_causal_0.png","null","",""
"","","","","","html-audio-response","14","588221","0.0-12.0","425DC690A1EA4A98AA72B3C378B2CFB6","425DC690A1EA4A98AA72B3C378B2CFB6","0198c2de-4884-7fa1-bcbe-016379d1d092","0198c075-3de9-7cab-996b-8cffe1adb15f","{""num_scrambled_semantic"":""8"",""num_scrambled_causal"":""4"",""num_scrambled_schematic"":""4"",""participantId"":""425DC690A1EA4A98AA72B3C378B2CFB6"",""assignmentId"":""0198c2de-4884-7fa1-bcbe-016379d1d092"",""projectId"":""0198c075-3de9-7cab-996b-8cffe1adb15f""}","https://test12345.live/?num_scrambled_semantic=8&num_scrambled_causal=4&num_scrambled_schematic=4&participantId=425DC690A1EA4A98AA72B3C378B2CFB6&assignmentId=0198c2de-4884-7fa1-bcbe-016379d1d092&projectId=0198c075-3de9-7cab-996b-8cffe1adb15f","425DC690A1EA4A98AA72B3C378B2CFB6-2025-08-19-15-22-52","","29423","","[""<span style=\""color: red; font-size: 24px\""> NOW RECORDING</span><p>Please say out loud all the images you saw in part 1 of the experiment, as many as you can remember. The images can be said in any order.</p>""]","","9","dog_causal"
"","","","","","image-button-response","15","594242","0.0-13.0-0.0","425DC690A1EA4A98AA72B3C378B2CFB6","425DC690A1EA4A98AA72B3C378B2CFB6","0198c2de-4884-7fa1-bcbe-016379d1d092","0198c075-3de9-7cab-996b-8cffe1adb15f","{""num_scrambled_semantic"":""8"",""num_scrambled_causal"":""4"",""num_scrambled_schematic"":""4"",""participantId"":""425DC690A1EA4A98AA72B3C378B2CFB6"",""assignmentId"":""0198c2de-4884-7fa1-bcbe-016379d1d092"",""projectId"":""0198c075-3de9-7cab-996b-8cffe1adb15f""}","https://test12345.live/?num_scrambled_semantic=8&num_scrambled_causal=4&num_scrambled_schematic=4&participantId=425DC690A1EA4A98AA72B3C378B2CFB6&assignmentId=0198c2de-4884-7fa1-bcbe-016379d1d092&projectId=0198c075-3de9-7cab-996b-8cffe1adb15f","425DC690A1EA4A98AA72B3C378B2CFB6-2025-08-19-15-22-52","","null","","images/semantic_sequence/housework_semantic/housework_semantic_0.png","null","",""
"","","","","","html-audio-response","16","621807","0.0-14.0","425DC690A1EA4A98AA72B3C378B2CFB6","425DC690A1EA4A98AA72B3C378B2CFB6","0198c2de-4884-7fa1-bcbe-016379d1d092","0198c075-3de9-7cab-996b-8cffe1adb15f","{""num_scrambled_semantic"":""8"",""num_scrambled_causal"":""4"",""num_scrambled_schematic"":""4"",""participantId"":""425DC690A1EA4A98AA72B3C378B2CFB6"",""assignmentId"":""0198c2de-4884-7fa1-bcbe-016379d1d092"",""projectId"":""0198c075-3de9-7cab-996b-8cffe1adb15f""}","https://test12345.live/?num_scrambled_semantic=8&num_scrambled_causal=4&num_scrambled_schematic=4&participantId=425DC690A1EA4A98AA72B3C378B2CFB6&assignmentId=0198c2de-4884-7fa1-bcbe-016379d1d092&projectId=0198c075-3de9-7cab-996b-8cffe1adb15f","425DC690A1EA4A98AA72B3C378B2CFB6-2025-08-19-15-22-52","","25923","","[""<span style=\""color: red; font-size: 24px\""> NOW RECORDING</span><p>Please say out loud all the images you saw in part 1 of the experiment, as many as you can remember. The images can be said in any order.</p>""]","","2","housework_semantic"
"","","","","","image-button-response","17","627823","0.0-15.0-0.0","425DC690A1EA4A98AA72B3C378B2CFB6","425DC690A1EA4A98AA72B3C378B2CFB6","0198c2de-4884-7fa1-bcbe-016379d1d092","0198c075-3de9-7cab-996b-8cffe1adb15f","{""num_scrambled_semantic"":""8"",""num_scrambled_causal"":""4"",""num_scrambled_schematic"":""4"",""participantId"":""425DC690A1EA4A98AA72B3C378B2CFB6"",""assignmentId"":""0198c2de-4884-7fa1-bcbe-016379d1d092"",""projectId"":""0198c075-3de9-7cab-996b-8cffe1adb15f""}","https://test12345.live/?num_scrambled_semantic=8&num_scrambled_causal=4&num_scrambled_schematic=4&participantId=425DC690A1EA4A98AA72B3C378B2CFB6&assignmentId=0198c2de-4884-7fa1-bcbe-016379d1d092&projectId=0198c075-3de9-7cab-996b-8cffe1adb15f","425DC690A1EA4A98AA72B3C378B2CFB6-2025-08-19-15-22-52","","null","","images/semantic_sequence/using_technology_semantic/using_technology_semantic_0.png","null","",""
"","","","","","html-audio-response","18","638800","0.0-16.0","425DC690A1EA4A98AA72B3C378B2CFB6","425DC690A1EA4A98AA72B3C378B2CFB6","0198c2de-4884-7fa1-bcbe-016379d1d092","0198c075-3de9-7cab-996b-8cffe1adb15f","{""num_scrambled_semantic"":""8"",""num_scrambled_causal"":""4"",""num_scrambled_schematic"":""4"",""participantId"":""425DC690A1EA4A98AA72B3C378B2CFB6"",""assignmentId"":""0198c2de-4884-7fa1-bcbe-016379d1d092"",""projectId"":""0198c075-3de9-7cab-996b-8cffe1adb15f""}","https://test12345.live/?num_scrambled_semantic=8&num_scrambled_causal=4&num_scrambled_schematic=4&participantId=425DC690A1EA4A98AA72B3C378B2CFB6&assignmentId=0198c2de-4884-7fa1-bcbe-016379d1d092&projectId=0198c075-3de9-7cab-996b-8cffe1adb15f","425DC690A1EA4A98AA72B3C378B2CFB6-2025-08-19-15-22-52","","8916","","[""<span style=\""color: red; font-size: 24px\""> NOW RECORDING</span><p>Please say out loud all the images you saw in part 1 of the experiment, as many as you can remember. The images can be said in any order.</p>""]","","2","using_technology_semantic"
"","","","","","image-button-response","19","644811","0.0-17.0-0.0","425DC690A1EA4A98AA72B3C378B2CFB6","425DC690A1EA4A98AA72B3C378B2CFB6","0198c2de-4884-7fa1-bcbe-016379d1d092","0198c075-3de9-7cab-996b-8cffe1adb15f","{""num_scrambled_semantic"":""8"",""num_scrambled_causal"":""4"",""num_scrambled_schematic"":""4"",""participantId"":""425DC690A1EA4A98AA72B3C378B2CFB6"",""assignmentId"":""0198c2de-4884-7fa1-bcbe-016379d1d092"",""projectId"":""0198c075-3de9-7cab-996b-8cffe1adb15f""}","https://test12345.live/?num_scrambled_semantic=8&num_scrambled_causal=4&num_scrambled_schematic=4&participantId=425DC690A1EA4A98AA72B3C378B2CFB6&assignmentId=0198c2de-4884-7fa1-bcbe-016379d1d092&projectId=0198c075-3de9-7cab-996b-8cffe1adb15f","425DC690A1EA4A98AA72B3C378B2CFB6-2025-08-19-15-22-52","","null","","images/causal_sequence/museum_causal/museum_causal_0.png","null","",""
"","","","","","html-audio-response","20","685551","0.0-18.0","425DC690A1EA4A98AA72B3C378B2CFB6","425DC690A1EA4A98AA72B3C378B2CFB6","0198c2de-4884-7fa1-bcbe-016379d1d092","0198c075-3de9-7cab-996b-8cffe1adb15f","{""num_scrambled_semantic"":""8"",""num_scrambled_causal"":""4"",""num_scrambled_schematic"":""4"",""participantId"":""425DC690A1EA4A98AA72B3C378B2CFB6"",""assignmentId"":""0198c2de-4884-7fa1-bcbe-016379d1d092"",""projectId"":""0198c075-3de9-7cab-996b-8cffe1adb15f""}","https://test12345.live/?num_scrambled_semantic=8&num_scrambled_causal=4&num_scrambled_schematic=4&participantId=425DC690A1EA4A98AA72B3C378B2CFB6&assignmentId=0198c2de-4884-7fa1-bcbe-016379d1d092&projectId=0198c075-3de9-7cab-996b-8cffe1adb15f","425DC690A1EA4A98AA72B3C378B2CFB6-2025-08-19-15-22-52","","39212","","[""<span style=\""color: red; font-size: 24px\""> NOW RECORDING</span><p>Please say out loud all the images you saw in part 1 of the experiment, as many as you can remember. The images can be said in any order.</p>""]","","15","museum_causal"
"","","","","","image-button-response","21","691578","0.0-19.0-0.0","425DC690A1EA4A98AA72B3C378B2CFB6","425DC690A1EA4A98AA72B3C378B2CFB6","0198c2de-4884-7fa1-bcbe-016379d1d092","0198c075-3de9-7cab-996b-8cffe1adb15f","{""num_scrambled_semantic"":""8"",""num_scrambled_causal"":""4"",""num_scrambled_schematic"":""4"",""participantId"":""425DC690A1EA4A98AA72B3C378B2CFB6"",""assignmentId"":""0198c2de-4884-7fa1-bcbe-016379d1d092"",""projectId"":""0198c075-3de9-7cab-996b-8cffe1adb15f""}","https://test12345.live/?num_scrambled_semantic=8&num_scrambled_causal=4&num_scrambled_schematic=4&participantId=425DC690A1EA4A98AA72B3C378B2CFB6&assignmentId=0198c2de-4884-7fa1-bcbe-016379d1d092&projectId=0198c075-3de9-7cab-996b-8cffe1adb15f","425DC690A1EA4A98AA72B3C378B2CFB6-2025-08-19-15-22-52","","null","","images/semantic_sequence/cat_care_semantic/cat_care_semantic_0.png","null","",""
"","","","","","html-audio-response","22","721038","0.0-20.0","425DC690A1EA4A98AA72B3C378B2CFB6","425DC690A1EA4A98AA72B3C378B2CFB6","0198c2de-4884-7fa1-bcbe-016379d1d092","0198c075-3de9-7cab-996b-8cffe1adb15f","{""num_scrambled_semantic"":""8"",""num_scrambled_causal"":""4"",""num_scrambled_schematic"":""4"",""participantId"":""425DC690A1EA4A98AA72B3C378B2CFB6"",""assignmentId"":""0198c2de-4884-7fa1-bcbe-016379d1d092"",""projectId"":""0198c075-3de9-7cab-996b-8cffe1adb15f""}","https://test12345.live/?num_scrambled_semantic=8&num_scrambled_causal=4&num_scrambled_schematic=4&participantId=425DC690A1EA4A98AA72B3C378B2CFB6&assignmentId=0198c2de-4884-7fa1-bcbe-016379d1d092&projectId=0198c075-3de9-7cab-996b-8cffe1adb15f","425DC690A1EA4A98AA72B3C378B2CFB6-2025-08-19-15-22-52","","28342","","[""<span style=\""color: red; font-size: 24px\""> NOW RECORDING</span><p>Please say out loud all the images you saw in part 1 of the experiment, as many as you can remember. The images can be said in any order.</p>""]","","1","cat_care_semantic"
"","","","","","image-button-response","23","727056","0.0-21.0-0.0","425DC690A1EA4A98AA72B3C378B2CFB6","425DC690A1EA4A98AA72B3C378B2CFB6","0198c2de-4884-7fa1-bcbe-016379d1d092","0198c075-3de9-7cab-996b-8cffe1adb15f","{""num_scrambled_semantic"":""8"",""num_scrambled_causal"":""4"",""num_scrambled_schematic"":""4"",""participantId"":""425DC690A1EA4A98AA72B3C378B2CFB6"",""assignmentId"":""0198c2de-4884-7fa1-bcbe-016379d1d092"",""projectId"":""0198c075-3de9-7cab-996b-8cffe1adb15f""}","https://test12345.live/?num_scrambled_semantic=8&num_scrambled_causal=4&num_scrambled_schematic=4&participantId=425DC690A1EA4A98AA72B3C378B2CFB6&assignmentId=0198c2de-4884-7fa1-bcbe-016379d1d092&projectId=0198c075-3de9-7cab-996b-8cffe1adb15f","425DC690A1EA4A98AA72B3C378B2CFB6-2025-08-19-15-22-52","","null","","images/semantic_sequence/maintaining_a_car_semantic/maintaining_a_car_semantic_0.png","null","",""
"","","","","","html-audio-response","24","736276","0.0-22.0","425DC690A1EA4A98AA72B3C378B2CFB6","425DC690A1EA4A98AA72B3C378B2CFB6","0198c2de-4884-7fa1-bcbe-016379d1d092","0198c075-3de9-7cab-996b-8cffe1adb15f","{""num_scrambled_semantic"":""8"",""num_scrambled_causal"":""4"",""num_scrambled_schematic"":""4"",""participantId"":""425DC690A1EA4A98AA72B3C378B2CFB6"",""assignmentId"":""0198c2de-4884-7fa1-bcbe-016379d1d092"",""projectId"":""0198c075-3de9-7cab-996b-8cffe1adb15f""}","https://test12345.live/?num_scrambled_semantic=8&num_scrambled_causal=4&num_scrambled_schematic=4&participantId=425DC690A1EA4A98AA72B3C378B2CFB6&assignmentId=0198c2de-4884-7fa1-bcbe-016379d1d092&projectId=0198c075-3de9-7cab-996b-8cffe1adb15f","425DC690A1EA4A98AA72B3C378B2CFB6-2025-08-19-15-22-52","","8111","","[""<span style=\""color: red; font-size: 24px\""> NOW RECORDING</span><p>Please say out loud all the images you saw in part 1 of the experiment, as many as you can remember. The images can be said in any order.</p>""]","","11","maintaining_a_car_semantic"
"","","","","","image-button-response","25","742283","0.0-23.0-0.0","425DC690A1EA4A98AA72B3C378B2CFB6","425DC690A1EA4A98AA72B3C378B2CFB6","0198c2de-4884-7fa1-bcbe-016379d1d092","0198c075-3de9-7cab-996b-8cffe1adb15f","{""num_scrambled_semantic"":""8"",""num_scrambled_causal"":""4"",""num_scrambled_schematic"":""4"",""participantId"":""425DC690A1EA4A98AA72B3C378B2CFB6"",""assignmentId"":""0198c2de-4884-7fa1-bcbe-016379d1d092"",""projectId"":""0198c075-3de9-7cab-996b-8cffe1adb15f""}","https://test12345.live/?num_scrambled_semantic=8&num_scrambled_causal=4&num_scrambled_schematic=4&participantId=425DC690A1EA4A98AA72B3C378B2CFB6&assignmentId=0198c2de-4884-7fa1-bcbe-016379d1d092&projectId=0198c075-3de9-7cab-996b-8cffe1adb15f","425DC690A1EA4A98AA72B3C378B2CFB6-2025-08-19-15-22-52","","null","","images/causal_sequence/coin_causal/coin_causal_0.png","null","",""
"","","","","","html-audio-response","26","767098","0.0-24.0","425DC690A1EA4A98AA72B3C378B2CFB6","425DC690A1EA4A98AA72B3C378B2CFB6","0198c2de-4884-7fa1-bcbe-016379d1d092","0198c075-3de9-7cab-996b-8cffe1adb15f","{""num_scrambled_semantic"":""8"",""num_scrambled_causal"":""4"",""num_scrambled_schematic"":""4"",""participantId"":""425DC690A1EA4A98AA72B3C378B2CFB6"",""assignmentId"":""0198c2de-4884-7fa1-bcbe-016379d1d092"",""projectId"":""0198c075-3de9-7cab-996b-8cffe1adb15f""}","https://test12345.live/?num_scrambled_semantic=8&num_scrambled_causal=4&num_scrambled_schematic=4&participantId=425DC690A1EA4A98AA72B3C378B2CFB6&assignmentId=0198c2de-4884-7fa1-bcbe-016379d1d092&projectId=0198c075-3de9-7cab-996b-8cffe1adb15f","425DC690A1EA4A98AA72B3C378B2CFB6-2025-08-19-15-22-52","","23261","","[""<span style=\""color: red; font-size: 24px\""> NOW RECORDING</span><p>Please say out loud all the images you saw in part 1 of the experiment, as many as you can remember. The images can be said in any order.</p>""]","","5","coin_causal"
"","","","","","image-button-response","27","773113","0.0-25.0-0.0","425DC690A1EA4A98AA72B3C378B2CFB6","425DC690A1EA4A98AA72B3C378B2CFB6","0198c2de-4884-7fa1-bcbe-016379d1d092","0198c075-3de9-7cab-996b-8cffe1adb15f","{""num_scrambled_semantic"":""8"",""num_scrambled_causal"":""4"",""num_scrambled_schematic"":""4"",""participantId"":""425DC690A1EA4A98AA72B3C378B2CFB6"",""assignmentId"":""0198c2de-4884-7fa1-bcbe-016379d1d092"",""projectId"":""0198c075-3de9-7cab-996b-8cffe1adb15f""}","https://test12345.live/?num_scrambled_semantic=8&num_scrambled_causal=4&num_scrambled_schematic=4&participantId=425DC690A1EA4A98AA72B3C378B2CFB6&assignmentId=0198c2de-4884-7fa1-bcbe-016379d1d092&projectId=0198c075-3de9-7cab-996b-8cffe1adb15f","425DC690A1EA4A98AA72B3C378B2CFB6-2025-08-19-15-22-52","","null","","images/semantic_sequence/redecorating_semantic/redecorating_semantic_0.png","null","",""
"","","","","","html-audio-response","28","805701","0.0-26.0","425DC690A1EA4A98AA72B3C378B2CFB6","425DC690A1EA4A98AA72B3C378B2CFB6","0198c2de-4884-7fa1-bcbe-016379d1d092","0198c075-3de9-7cab-996b-8cffe1adb15f","{""num_scrambled_semantic"":""8"",""num_scrambled_causal"":""4"",""num_scrambled_schematic"":""4"",""participantId"":""425DC690A1EA4A98AA72B3C378B2CFB6"",""assignmentId"":""0198c2de-4884-7fa1-bcbe-016379d1d092"",""projectId"":""0198c075-3de9-7cab-996b-8cffe1adb15f""}","https://test12345.live/?num_scrambled_semantic=8&num_scrambled_causal=4&num_scrambled_schematic=4&participantId=425DC690A1EA4A98AA72B3C378B2CFB6&assignmentId=0198c2de-4884-7fa1-bcbe-016379d1d092&projectId=0198c075-3de9-7cab-996b-8cffe1adb15f","425DC690A1EA4A98AA72B3C378B2CFB6-2025-08-19-15-22-52","","31543","","[""<span style=\""color: red; font-size: 24px\""> NOW RECORDING</span><p>Please say out loud all the images you saw in part 1 of the experiment, as many as you can remember. The images can be said in any order.</p>""]","","8","redecorating_semantic"
"","","","","","image-button-response","29","811726","0.0-27.0-0.0","425DC690A1EA4A98AA72B3C378B2CFB6","425DC690A1EA4A98AA72B3C378B2CFB6","0198c2de-4884-7fa1-bcbe-016379d1d092","0198c075-3de9-7cab-996b-8cffe1adb15f","{""num_scrambled_semantic"":""8"",""num_scrambled_causal"":""4"",""num_scrambled_schematic"":""4"",""participantId"":""425DC690A1EA4A98AA72B3C378B2CFB6"",""assignmentId"":""0198c2de-4884-7fa1-bcbe-016379d1d092"",""projectId"":""0198c075-3de9-7cab-996b-8cffe1adb15f""}","https://test12345.live/?num_scrambled_semantic=8&num_scrambled_causal=4&num_scrambled_schematic=4&participantId=425DC690A1EA4A98AA72B3C378B2CFB6&assignmentId=0198c2de-4884-7fa1-bcbe-016379d1d092&projectId=0198c075-3de9-7cab-996b-8cffe1adb15f","425DC690A1EA4A98AA72B3C378B2CFB6-2025-08-19-15-22-52","","null","","images/causal_sequence/saving_a_cat_causal/saving_a_cat_causal_0.png","null","",""
"","","","","","html-audio-response","30","840491","0.0-28.0","425DC690A1EA4A98AA72B3C378B2CFB6","425DC690A1EA4A98AA72B3C378B2CFB6","0198c2de-4884-7fa1-bcbe-016379d1d092","0198c075-3de9-7cab-996b-8cffe1adb15f","{""num_scrambled_semantic"":""8"",""num_scrambled_causal"":""4"",""num_scrambled_schematic"":""4"",""participantId"":""425DC690A1EA4A98AA72B3C378B2CFB6"",""assignmentId"":""0198c2de-4884-7fa1-bcbe-016379d1d092"",""projectId"":""0198c075-3de9-7cab-996b-8cffe1adb15f""}","https://test12345.live/?num_scrambled_semantic=8&num_scrambled_causal=4&num_scrambled_schematic=4&participantId=425DC690A1EA4A98AA72B3C378B2CFB6&assignmentId=0198c2de-4884-7fa1-bcbe-016379d1d092&projectId=0198c075-3de9-7cab-996b-8cffe1adb15f","425DC690A1EA4A98AA72B3C378B2CFB6-2025-08-19-15-22-52","","27017","","[""<span style=\""color: red; font-size: 24px\""> NOW RECORDING</span><p>Please say out loud all the images you saw in part 1 of the experiment, as many as you can remember. The images can be said in any order.</p>""]","","12","saving_a_cat_causal"
"","","","","","image-button-response","31","846503","0.0-29.0-0.0","425DC690A1EA4A98AA72B3C378B2CFB6","425DC690A1EA4A98AA72B3C378B2CFB6","0198c2de-4884-7fa1-bcbe-016379d1d092","0198c075-3de9-7cab-996b-8cffe1adb15f","{""num_scrambled_semantic"":""8"",""num_scrambled_causal"":""4"",""num_scrambled_schematic"":""4"",""participantId"":""425DC690A1EA4A98AA72B3C378B2CFB6"",""assignmentId"":""0198c2de-4884-7fa1-bcbe-016379d1d092"",""projectId"":""0198c075-3de9-7cab-996b-8cffe1adb15f""}","https://test12345.live/?num_scrambled_semantic=8&num_scrambled_causal=4&num_scrambled_schematic=4&participantId=425DC690A1EA4A98AA72B3C378B2CFB6&assignmentId=0198c2de-4884-7fa1-bcbe-016379d1d092&projectId=0198c075-3de9-7cab-996b-8cffe1adb15f","425DC690A1EA4A98AA72B3C378B2CFB6-2025-08-19-15-22-52","","null","","images/causal_sequence/package_causal/package_causal_0.png","null","",""
"","","","","","html-audio-response","32","882614","0.0-30.0","425DC690A1EA4A98AA72B3C378B2CFB6","425DC690A1EA4A98AA72B3C378B2CFB6","0198c2de-4884-7fa1-bcbe-016379d1d092","0198c075-3de9-7cab-996b-8cffe1adb15f","{""num_scrambled_semantic"":""8"",""num_scrambled_causal"":""4"",""num_scrambled_schematic"":""4"",""participantId"":""425DC690A1EA4A98AA72B3C378B2CFB6"",""assignmentId"":""0198c2de-4884-7fa1-bcbe-016379d1d092"",""projectId"":""0198c075-3de9-7cab-996b-8cffe1adb15f""}","https://test12345.live/?num_scrambled_semantic=8&num_scrambled_causal=4&num_scrambled_schematic=4&participantId=425DC690A1EA4A98AA72B3C378B2CFB6&assignmentId=0198c2de-4884-7fa1-bcbe-016379d1d092&projectId=0198c075-3de9-7cab-996b-8cffe1adb15f","425DC690A1EA4A98AA72B3C378B2CFB6-2025-08-19-15-22-52","","35037","","[""<span style=\""color: red; font-size: 24px\""> NOW RECORDING</span><p>Please say out loud all the images you saw in part 1 of the experiment, as many as you can remember. The images can be said in any order.</p>""]","","1","package_causal"
"","","","","","image-button-response","33","888629","0.0-31.0-0.0","425DC690A1EA4A98AA72B3C378B2CFB6","425DC690A1EA4A98AA72B3C378B2CFB6","0198c2de-4884-7fa1-bcbe-016379d1d092","0198c075-3de9-7cab-996b-8cffe1adb15f","{""num_scrambled_semantic"":""8"",""num_scrambled_causal"":""4"",""num_scrambled_schematic"":""4"",""participantId"":""425DC690A1EA4A98AA72B3C378B2CFB6"",""assignmentId"":""0198c2de-4884-7fa1-bcbe-016379d1d092"",""projectId"":""0198c075-3de9-7cab-996b-8cffe1adb15f""}","https://test12345.live/?num_scrambled_semantic=8&num_scrambled_causal=4&num_scrambled_schematic=4&participantId=425DC690A1EA4A98AA72B3C378B2CFB6&assignmentId=0198c2de-4884-7fa1-bcbe-016379d1d092&projectId=0198c075-3de9-7cab-996b-8cffe1adb15f","425DC690A1EA4A98AA72B3C378B2CFB6-2025-08-19-15-22-52","","null","","images/semantic_sequence/creative_activities_semantic/creative_activities_semantic_0.png","null","",""
"","","","","","html-audio-response","34","912784","0.0-32.0","425DC690A1EA4A98AA72B3C378B2CFB6","425DC690A1EA4A98AA72B3C378B2CFB6","0198c2de-4884-7fa1-bcbe-016379d1d092","0198c075-3de9-7cab-996b-8cffe1adb15f","{""num_scrambled_semantic"":""8"",""num_scrambled_causal"":""4"",""num_scrambled_schematic"":""4"",""participantId"":""425DC690A1EA4A98AA72B3C378B2CFB6"",""assignmentId"":""0198c2de-4884-7fa1-bcbe-016379d1d092"",""projectId"":""0198c075-3de9-7cab-996b-8cffe1adb15f""}","https://test12345.live/?num_scrambled_semantic=8&num_scrambled_causal=4&num_scrambled_schematic=4&participantId=425DC690A1EA4A98AA72B3C378B2CFB6&assignmentId=0198c2de-4884-7fa1-bcbe-016379d1d092&projectId=0198c075-3de9-7cab-996b-8cffe1adb15f","425DC690A1EA4A98AA72B3C378B2CFB6-2025-08-19-15-22-52","","22975","","[""<span style=\""color: red; font-size: 24px\""> NOW RECORDING</span><p>Please say out loud all the images you saw in part 1 of the experiment, as many as you can remember. The images can be said in any order.</p>""]","","12","creative_activities_semantic"
"","","","","","image-button-response","35","918790","0.0-33.0-0.0","425DC690A1EA4A98AA72B3C378B2CFB6","425DC690A1EA4A98AA72B3C378B2CFB6","0198c2de-4884-7fa1-bcbe-016379d1d092","0198c075-3de9-7cab-996b-8cffe1adb15f","{""num_scrambled_semantic"":""8"",""num_scrambled_causal"":""4"",""num_scrambled_schematic"":""4"",""participantId"":""425DC690A1EA4A98AA72B3C378B2CFB6"",""assignmentId"":""0198c2de-4884-7fa1-bcbe-016379d1d092"",""projectId"":""0198c075-3de9-7cab-996b-8cffe1adb15f""}","https://test12345.live/?num_scrambled_semantic=8&num_scrambled_causal=4&num_scrambled_schematic=4&participantId=425DC690A1EA4A98AA72B3C378B2CFB6&assignmentId=0198c2de-4884-7fa1-bcbe-016379d1d092&projectId=0198c075-3de9-7cab-996b-8cffe1adb15f","425DC690A1EA4A98AA72B3C378B2CFB6-2025-08-19-15-22-52","","null","","images/causal_sequence/the_performance_causal/the_performance_causal_0.png","null","",""
"","","","","","html-audio-response","36","963514","0.0-34.0","425DC690A1EA4A98AA72B3C378B2CFB6","425DC690A1EA4A98AA72B3C378B2CFB6","0198c2de-4884-7fa1-bcbe-016379d1d092","0198c075-3de9-7cab-996b-8cffe1adb15f","{""num_scrambled_semantic"":""8"",""num_scrambled_causal"":""4"",""num_scrambled_schematic"":""4"",""participantId"":""425DC690A1EA4A98AA72B3C378B2CFB6"",""assignmentId"":""0198c2de-4884-7fa1-bcbe-016379d1d092"",""projectId"":""0198c075-3de9-7cab-996b-8cffe1adb15f""}","https://test12345.live/?num_scrambled_semantic=8&num_scrambled_causal=4&num_scrambled_schematic=4&participantId=425DC690A1EA4A98AA72B3C378B2CFB6&assignmentId=0198c2de-4884-7fa1-bcbe-016379d1d092&projectId=0198c075-3de9-7cab-996b-8cffe1adb15f","425DC690A1EA4A98AA72B3C378B2CFB6-2025-08-19-15-22-52","","43785","","[""<span style=\""color: red; font-size: 24px\""> NOW RECORDING</span><p>Please say out loud all the images you saw in part 1 of the experiment, as many as you can remember. The images can be said in any order.</p>""]","","7","the_performance_causal"
"","","","","","survey-text","37","972691","0.0-35.0","425DC690A1EA4A98AA72B3C378B2CFB6","425DC690A1EA4A98AA72B3C378B2CFB6","0198c2de-4884-7fa1-bcbe-016379d1d092","0198c075-3de9-7cab-996b-8cffe1adb15f","{""num_scrambled_semantic"":""8"",""num_scrambled_causal"":""4"",""num_scrambled_schematic"":""4"",""participantId"":""425DC690A1EA4A98AA72B3C378B2CFB6"",""assignmentId"":""0198c2de-4884-7fa1-bcbe-016379d1d092"",""projectId"":""0198c075-3de9-7cab-996b-8cffe1adb15f""}","https://test12345.live/?num_scrambled_semantic=8&num_scrambled_causal=4&num_scrambled_schematic=4&participantId=425DC690A1EA4A98AA72B3C378B2CFB6&assignmentId=0198c2de-4884-7fa1-bcbe-016379d1d092&projectId=0198c075-3de9-7cab-996b-8cffe1adb15f","425DC690A1EA4A98AA72B3C378B2CFB6-2025-08-19-15-22-52","","9162","","","{""Q0"":""Female"",""Q1"":""35""}","",""
"","","","","","instructions","38","980254","0.0-36.0","425DC690A1EA4A98AA72B3C378B2CFB6","425DC690A1EA4A98AA72B3C378B2CFB6","0198c2de-4884-7fa1-bcbe-016379d1d092","0198c075-3de9-7cab-996b-8cffe1adb15f","{""num_scrambled_semantic"":""8"",""num_scrambled_causal"":""4"",""num_scrambled_schematic"":""4"",""participantId"":""425DC690A1EA4A98AA72B3C378B2CFB6"",""assignmentId"":""0198c2de-4884-7fa1-bcbe-016379d1d092"",""projectId"":""0198c075-3de9-7cab-996b-8cffe1adb15f""}","https://test12345.live/?num_scrambled_semantic=8&num_scrambled_causal=4&num_scrambled_schematic=4&participantId=425DC690A1EA4A98AA72B3C378B2CFB6&assignmentId=0198c2de-4884-7fa1-bcbe-016379d1d092&projectId=0198c075-3de9-7cab-996b-8cffe1adb15f","425DC690A1EA4A98AA72B3C378B2CFB6-2025-08-19-15-22-52","[{""page_index"":0,""viewing_time"":7571}]","7572","","","","",""
"","","","","","survey-text","39","984043","0.0-37.0","425DC690A1EA4A98AA72B3C378B2CFB6","425DC690A1EA4A98AA72B3C378B2CFB6","0198c2de-4884-7fa1-bcbe-016379d1d092","0198c075-3de9-7cab-996b-8cffe1adb15f","{""num_scrambled_semantic"":""8"",""num_scrambled_causal"":""4"",""num_scrambled_schematic"":""4"",""participantId"":""425DC690A1EA4A98AA72B3C378B2CFB6"",""assignmentId"":""0198c2de-4884-7fa1-bcbe-016379d1d092"",""projectId"":""0198c075-3de9-7cab-996b-8cffe1adb15f""}","https://test12345.live/?num_scrambled_semantic=8&num_scrambled_causal=4&num_scrambled_schematic=4&participantId=425DC690A1EA4A98AA72B3C378B2CFB6&assignmentId=0198c2de-4884-7fa1-bcbe-016379d1d092&projectId=0198c075-3de9-7cab-996b-8cffe1adb15f","425DC690A1EA4A98AA72B3C378B2CFB6-2025-08-19-15-22-52","","3783","","","{""Q0"":""AJFHBG896""}","",""
