"success","timeout","failed_images","failed_audio","failed_video","trial_type","trial_index","time_elapsed","internal_node_id","subject","subject_id","study_id","session_id","urlvar","current_url","audio_id","view_history","rt","device_id","stimulus","response","estimated_stimulus_onset","seq_name"
"true","false","[]","[]","[]","preload","0","18918","0.0-0.0","44ED7AA909E34B8E9E2FFE6461E18F8D","44ED7AA909E34B8E9E2FFE6461E18F8D","43198963-8c08-42c7-9fca-24b8fd8caa13","e9cc2542-c7dc-4d8f-b94f-d088ad8989d1","{""part"":""2"",""participantId"":""44ED7AA909E34B8E9E2FFE6461E18F8D"",""assignmentId"":""43198963-8c08-42c7-9fca-24b8fd8caa13"",""projectId"":""e9cc2542-c7dc-4d8f-b94f-d088ad8989d1""}","https://test12345.live/?part=2&participantId=44ED7AA909E34B8E9E2FFE6461E18F8D&assignmentId=43198963-8c08-42c7-9fca-24b8fd8caa13&projectId=e9cc2542-c7dc-4d8f-b94f-d088ad8989d1","44ED7AA909E34B8E9E2FFE6461E18F8D-2025-05-16-21-12-11","","","","","","",""
"","","","","","instructions","1","70338","0.0-1.0","44ED7AA909E34B8E9E2FFE6461E18F8D","44ED7AA909E34B8E9E2FFE6461E18F8D","43198963-8c08-42c7-9fca-24b8fd8caa13","e9cc2542-c7dc-4d8f-b94f-d088ad8989d1","{""part"":""2"",""participantId"":""44ED7AA909E34B8E9E2FFE6461E18F8D"",""assignmentId"":""43198963-8c08-42c7-9fca-24b8fd8caa13"",""projectId"":""e9cc2542-c7dc-4d8f-b94f-d088ad8989d1""}","https://test12345.live/?part=2&participantId=44ED7AA909E34B8E9E2FFE6461E18F8D&assignmentId=43198963-8c08-42c7-9fca-24b8fd8caa13&projectId=e9cc2542-c7dc-4d8f-b94f-d088ad8989d1","44ED7AA909E34B8E9E2FFE6461E18F8D-2025-05-16-21-12-11","[{""page_index"":0,""viewing_time"":51418}]","51418","","","","",""
"","","","","","instructions","2","80363","0.0-2.0","44ED7AA909E34B8E9E2FFE6461E18F8D","44ED7AA909E34B8E9E2FFE6461E18F8D","43198963-8c08-42c7-9fca-24b8fd8caa13","e9cc2542-c7dc-4d8f-b94f-d088ad8989d1","{""part"":""2"",""participantId"":""44ED7AA909E34B8E9E2FFE6461E18F8D"",""assignmentId"":""43198963-8c08-42c7-9fca-24b8fd8caa13"",""projectId"":""e9cc2542-c7dc-4d8f-b94f-d088ad8989d1""}","https://test12345.live/?part=2&participantId=44ED7AA909E34B8E9E2FFE6461E18F8D&assignmentId=43198963-8c08-42c7-9fca-24b8fd8caa13&projectId=e9cc2542-c7dc-4d8f-b94f-d088ad8989d1","44ED7AA909E34B8E9E2FFE6461E18F8D-2025-05-16-21-12-11","[{""page_index"":0,""viewing_time"":10024}]","10024","","","","",""
"true","","","","","fullscreen","3","82812","0.0-3.0","44ED7AA909E34B8E9E2FFE6461E18F8D","44ED7AA909E34B8E9E2FFE6461E18F8D","43198963-8c08-42c7-9fca-24b8fd8caa13","e9cc2542-c7dc-4d8f-b94f-d088ad8989d1","{""part"":""2"",""participantId"":""44ED7AA909E34B8E9E2FFE6461E18F8D"",""assignmentId"":""43198963-8c08-42c7-9fca-24b8fd8caa13"",""projectId"":""e9cc2542-c7dc-4d8f-b94f-d088ad8989d1""}","https://test12345.live/?part=2&participantId=44ED7AA909E34B8E9E2FFE6461E18F8D&assignmentId=43198963-8c08-42c7-9fca-24b8fd8caa13&projectId=e9cc2542-c7dc-4d8f-b94f-d088ad8989d1","44ED7AA909E34B8E9E2FFE6461E18F8D-2025-05-16-21-12-11","","1447","","","","",""
"","","","","","initialize-microphone","4","88775","0.0-4.0-0.0","44ED7AA909E34B8E9E2FFE6461E18F8D","44ED7AA909E34B8E9E2FFE6461E18F8D","43198963-8c08-42c7-9fca-24b8fd8caa13","e9cc2542-c7dc-4d8f-b94f-d088ad8989d1","{""part"":""2"",""participantId"":""44ED7AA909E34B8E9E2FFE6461E18F8D"",""assignmentId"":""43198963-8c08-42c7-9fca-24b8fd8caa13"",""projectId"":""e9cc2542-c7dc-4d8f-b94f-d088ad8989d1""}","https://test12345.live/?part=2&participantId=44ED7AA909E34B8E9E2FFE6461E18F8D&assignmentId=43198963-8c08-42c7-9fca-24b8fd8caa13&projectId=e9cc2542-c7dc-4d8f-b94f-d088ad8989d1","44ED7AA909E34B8E9E2FFE6461E18F8D-2025-05-16-21-12-11","","","edbb875cc75677ca358bf1e9f37df409edd27c1b7389e5d6a2ba39b8f0ad0a5e","","","",""
"","","","","","html-audio-response","5","101315","0.0-4.0-1.0","44ED7AA909E34B8E9E2FFE6461E18F8D","44ED7AA909E34B8E9E2FFE6461E18F8D","43198963-8c08-42c7-9fca-24b8fd8caa13","e9cc2542-c7dc-4d8f-b94f-d088ad8989d1","{""part"":""2"",""participantId"":""44ED7AA909E34B8E9E2FFE6461E18F8D"",""assignmentId"":""43198963-8c08-42c7-9fca-24b8fd8caa13"",""projectId"":""e9cc2542-c7dc-4d8f-b94f-d088ad8989d1""}","https://test12345.live/?part=2&participantId=44ED7AA909E34B8E9E2FFE6461E18F8D&assignmentId=43198963-8c08-42c7-9fca-24b8fd8caa13&projectId=e9cc2542-c7dc-4d8f-b94f-d088ad8989d1","44ED7AA909E34B8E9E2FFE6461E18F8D-2025-05-16-21-12-11","","4906","","<span style=""color: red; font-size: 24px""> NOW RECORDING</span>
        <p>Please test Microphone</p>","","14",""
"","","","","","html-button-response","6","103754","0.0-4.0-2.0","44ED7AA909E34B8E9E2FFE6461E18F8D","44ED7AA909E34B8E9E2FFE6461E18F8D","43198963-8c08-42c7-9fca-24b8fd8caa13","e9cc2542-c7dc-4d8f-b94f-d088ad8989d1","{""part"":""2"",""participantId"":""44ED7AA909E34B8E9E2FFE6461E18F8D"",""assignmentId"":""43198963-8c08-42c7-9fca-24b8fd8caa13"",""projectId"":""e9cc2542-c7dc-4d8f-b94f-d088ad8989d1""}","https://test12345.live/?part=2&participantId=44ED7AA909E34B8E9E2FFE6461E18F8D&assignmentId=43198963-8c08-42c7-9fca-24b8fd8caa13&projectId=e9cc2542-c7dc-4d8f-b94f-d088ad8989d1","44ED7AA909E34B8E9E2FFE6461E18F8D-2025-05-16-21-12-11","","2438","","<p style=""font-size:48px; color:red;"">Is Microphone OK?</p>","1","",""
"","","","","","instructions","7","125923","0.0-5.0","44ED7AA909E34B8E9E2FFE6461E18F8D","44ED7AA909E34B8E9E2FFE6461E18F8D","43198963-8c08-42c7-9fca-24b8fd8caa13","e9cc2542-c7dc-4d8f-b94f-d088ad8989d1","{""part"":""2"",""participantId"":""44ED7AA909E34B8E9E2FFE6461E18F8D"",""assignmentId"":""43198963-8c08-42c7-9fca-24b8fd8caa13"",""projectId"":""e9cc2542-c7dc-4d8f-b94f-d088ad8989d1""}","https://test12345.live/?part=2&participantId=44ED7AA909E34B8E9E2FFE6461E18F8D&assignmentId=43198963-8c08-42c7-9fca-24b8fd8caa13&projectId=e9cc2542-c7dc-4d8f-b94f-d088ad8989d1","44ED7AA909E34B8E9E2FFE6461E18F8D-2025-05-16-21-12-11","[{""page_index"":0,""viewing_time"":5971},{""page_index"":1,""viewing_time"":10361},{""page_index"":2,""viewing_time"":5836}]","22168","","","","",""
"","","","","","image-button-response","8","131927","0.0-6.0-0.0","44ED7AA909E34B8E9E2FFE6461E18F8D","44ED7AA909E34B8E9E2FFE6461E18F8D","43198963-8c08-42c7-9fca-24b8fd8caa13","e9cc2542-c7dc-4d8f-b94f-d088ad8989d1","{""part"":""2"",""participantId"":""44ED7AA909E34B8E9E2FFE6461E18F8D"",""assignmentId"":""43198963-8c08-42c7-9fca-24b8fd8caa13"",""projectId"":""e9cc2542-c7dc-4d8f-b94f-d088ad8989d1""}","https://test12345.live/?part=2&participantId=44ED7AA909E34B8E9E2FFE6461E18F8D&assignmentId=43198963-8c08-42c7-9fca-24b8fd8caa13&projectId=e9cc2542-c7dc-4d8f-b94f-d088ad8989d1","44ED7AA909E34B8E9E2FFE6461E18F8D-2025-05-16-21-12-11","","null","","images/instructions/movie_0.png","null","",""
"","","","","","html-audio-response","9","157000","0.0-7.0","44ED7AA909E34B8E9E2FFE6461E18F8D","44ED7AA909E34B8E9E2FFE6461E18F8D","43198963-8c08-42c7-9fca-24b8fd8caa13","e9cc2542-c7dc-4d8f-b94f-d088ad8989d1","{""part"":""2"",""participantId"":""44ED7AA909E34B8E9E2FFE6461E18F8D"",""assignmentId"":""43198963-8c08-42c7-9fca-24b8fd8caa13"",""projectId"":""e9cc2542-c7dc-4d8f-b94f-d088ad8989d1""}","https://test12345.live/?part=2&participantId=44ED7AA909E34B8E9E2FFE6461E18F8D&assignmentId=43198963-8c08-42c7-9fca-24b8fd8caa13&projectId=e9cc2542-c7dc-4d8f-b94f-d088ad8989d1","44ED7AA909E34B8E9E2FFE6461E18F8D-2025-05-16-21-12-11","","19255","","[""<span style=\""color: red; font-size: 24px\""> NOW RECORDING</span><p>Please say out loud all the images you saw in part 1 of the experiment, as many as you can remember. The images can be said in any order.</p>""]","","1",""
"","","","","","instructions","10","159984","0.0-8.0","44ED7AA909E34B8E9E2FFE6461E18F8D","44ED7AA909E34B8E9E2FFE6461E18F8D","43198963-8c08-42c7-9fca-24b8fd8caa13","e9cc2542-c7dc-4d8f-b94f-d088ad8989d1","{""part"":""2"",""participantId"":""44ED7AA909E34B8E9E2FFE6461E18F8D"",""assignmentId"":""43198963-8c08-42c7-9fca-24b8fd8caa13"",""projectId"":""e9cc2542-c7dc-4d8f-b94f-d088ad8989d1""}","https://test12345.live/?part=2&participantId=44ED7AA909E34B8E9E2FFE6461E18F8D&assignmentId=43198963-8c08-42c7-9fca-24b8fd8caa13&projectId=e9cc2542-c7dc-4d8f-b94f-d088ad8989d1","44ED7AA909E34B8E9E2FFE6461E18F8D-2025-05-16-21-12-11","[{""page_index"":0,""viewing_time"":2976}]","2976","","","","",""
"","","","","","image-button-response","11","165987","0.0-9.0-0.0","44ED7AA909E34B8E9E2FFE6461E18F8D","44ED7AA909E34B8E9E2FFE6461E18F8D","43198963-8c08-42c7-9fca-24b8fd8caa13","e9cc2542-c7dc-4d8f-b94f-d088ad8989d1","{""part"":""2"",""participantId"":""44ED7AA909E34B8E9E2FFE6461E18F8D"",""assignmentId"":""43198963-8c08-42c7-9fca-24b8fd8caa13"",""projectId"":""e9cc2542-c7dc-4d8f-b94f-d088ad8989d1""}","https://test12345.live/?part=2&participantId=44ED7AA909E34B8E9E2FFE6461E18F8D&assignmentId=43198963-8c08-42c7-9fca-24b8fd8caa13&projectId=e9cc2542-c7dc-4d8f-b94f-d088ad8989d1","44ED7AA909E34B8E9E2FFE6461E18F8D-2025-05-16-21-12-11","","null","","images/causal_sequence/package_causal/package_causal_0.png","null","",""
"","","","","","html-audio-response","12","263570","0.0-10.0","44ED7AA909E34B8E9E2FFE6461E18F8D","44ED7AA909E34B8E9E2FFE6461E18F8D","43198963-8c08-42c7-9fca-24b8fd8caa13","e9cc2542-c7dc-4d8f-b94f-d088ad8989d1","{""part"":""2"",""participantId"":""44ED7AA909E34B8E9E2FFE6461E18F8D"",""assignmentId"":""43198963-8c08-42c7-9fca-24b8fd8caa13"",""projectId"":""e9cc2542-c7dc-4d8f-b94f-d088ad8989d1""}","https://test12345.live/?part=2&participantId=44ED7AA909E34B8E9E2FFE6461E18F8D&assignmentId=43198963-8c08-42c7-9fca-24b8fd8caa13&projectId=e9cc2542-c7dc-4d8f-b94f-d088ad8989d1","44ED7AA909E34B8E9E2FFE6461E18F8D-2025-05-16-21-12-11","","32259","","[""<span style=\""color: red; font-size: 24px\""> NOW RECORDING</span><p>Please say out loud all the images you saw in part 1 of the experiment, as many as you can remember. The images can be said in any order.</p>""]","","13","package_causal"
"","","","","","image-button-response","13","269580","0.0-11.0-0.0","44ED7AA909E34B8E9E2FFE6461E18F8D","44ED7AA909E34B8E9E2FFE6461E18F8D","43198963-8c08-42c7-9fca-24b8fd8caa13","e9cc2542-c7dc-4d8f-b94f-d088ad8989d1","{""part"":""2"",""participantId"":""44ED7AA909E34B8E9E2FFE6461E18F8D"",""assignmentId"":""43198963-8c08-42c7-9fca-24b8fd8caa13"",""projectId"":""e9cc2542-c7dc-4d8f-b94f-d088ad8989d1""}","https://test12345.live/?part=2&participantId=44ED7AA909E34B8E9E2FFE6461E18F8D&assignmentId=43198963-8c08-42c7-9fca-24b8fd8caa13&projectId=e9cc2542-c7dc-4d8f-b94f-d088ad8989d1","44ED7AA909E34B8E9E2FFE6461E18F8D-2025-05-16-21-12-11","","null","","images/semantic_sequence/market_semantic/market_semantic_0.png","null","",""
"","","","","","html-audio-response","14","313685","0.0-12.0","44ED7AA909E34B8E9E2FFE6461E18F8D","44ED7AA909E34B8E9E2FFE6461E18F8D","43198963-8c08-42c7-9fca-24b8fd8caa13","e9cc2542-c7dc-4d8f-b94f-d088ad8989d1","{""part"":""2"",""participantId"":""44ED7AA909E34B8E9E2FFE6461E18F8D"",""assignmentId"":""43198963-8c08-42c7-9fca-24b8fd8caa13"",""projectId"":""e9cc2542-c7dc-4d8f-b94f-d088ad8989d1""}","https://test12345.live/?part=2&participantId=44ED7AA909E34B8E9E2FFE6461E18F8D&assignmentId=43198963-8c08-42c7-9fca-24b8fd8caa13&projectId=e9cc2542-c7dc-4d8f-b94f-d088ad8989d1","44ED7AA909E34B8E9E2FFE6461E18F8D-2025-05-16-21-12-11","","31497","","[""<span style=\""color: red; font-size: 24px\""> NOW RECORDING</span><p>Please say out loud all the images you saw in part 1 of the experiment, as many as you can remember. The images can be said in any order.</p>""]","","1","market_semantic"
"","","","","","image-button-response","15","319697","0.0-13.0-0.0","44ED7AA909E34B8E9E2FFE6461E18F8D","44ED7AA909E34B8E9E2FFE6461E18F8D","43198963-8c08-42c7-9fca-24b8fd8caa13","e9cc2542-c7dc-4d8f-b94f-d088ad8989d1","{""part"":""2"",""participantId"":""44ED7AA909E34B8E9E2FFE6461E18F8D"",""assignmentId"":""43198963-8c08-42c7-9fca-24b8fd8caa13"",""projectId"":""e9cc2542-c7dc-4d8f-b94f-d088ad8989d1""}","https://test12345.live/?part=2&participantId=44ED7AA909E34B8E9E2FFE6461E18F8D&assignmentId=43198963-8c08-42c7-9fca-24b8fd8caa13&projectId=e9cc2542-c7dc-4d8f-b94f-d088ad8989d1","44ED7AA909E34B8E9E2FFE6461E18F8D-2025-05-16-21-12-11","","null","","images/semantic_sequence/housework_semantic/housework_semantic_0.png","null","",""
"","","","","","html-audio-response","16","365134","0.0-14.0","44ED7AA909E34B8E9E2FFE6461E18F8D","44ED7AA909E34B8E9E2FFE6461E18F8D","43198963-8c08-42c7-9fca-24b8fd8caa13","e9cc2542-c7dc-4d8f-b94f-d088ad8989d1","{""part"":""2"",""participantId"":""44ED7AA909E34B8E9E2FFE6461E18F8D"",""assignmentId"":""43198963-8c08-42c7-9fca-24b8fd8caa13"",""projectId"":""e9cc2542-c7dc-4d8f-b94f-d088ad8989d1""}","https://test12345.live/?part=2&participantId=44ED7AA909E34B8E9E2FFE6461E18F8D&assignmentId=43198963-8c08-42c7-9fca-24b8fd8caa13&projectId=e9cc2542-c7dc-4d8f-b94f-d088ad8989d1","44ED7AA909E34B8E9E2FFE6461E18F8D-2025-05-16-21-12-11","","38473","","[""<span style=\""color: red; font-size: 24px\""> NOW RECORDING</span><p>Please say out loud all the images you saw in part 1 of the experiment, as many as you can remember. The images can be said in any order.</p>""]","","1","housework_semantic"
"","","","","","image-button-response","17","371147","0.0-15.0-0.0","44ED7AA909E34B8E9E2FFE6461E18F8D","44ED7AA909E34B8E9E2FFE6461E18F8D","43198963-8c08-42c7-9fca-24b8fd8caa13","e9cc2542-c7dc-4d8f-b94f-d088ad8989d1","{""part"":""2"",""participantId"":""44ED7AA909E34B8E9E2FFE6461E18F8D"",""assignmentId"":""43198963-8c08-42c7-9fca-24b8fd8caa13"",""projectId"":""e9cc2542-c7dc-4d8f-b94f-d088ad8989d1""}","https://test12345.live/?part=2&participantId=44ED7AA909E34B8E9E2FFE6461E18F8D&assignmentId=43198963-8c08-42c7-9fca-24b8fd8caa13&projectId=e9cc2542-c7dc-4d8f-b94f-d088ad8989d1","44ED7AA909E34B8E9E2FFE6461E18F8D-2025-05-16-21-12-11","","null","","images/semantic_sequence/using_technology_semantic/using_technology_semantic_0.png","null","",""
"","","","","","html-audio-response","18","429063","0.0-16.0","44ED7AA909E34B8E9E2FFE6461E18F8D","44ED7AA909E34B8E9E2FFE6461E18F8D","43198963-8c08-42c7-9fca-24b8fd8caa13","e9cc2542-c7dc-4d8f-b94f-d088ad8989d1","{""part"":""2"",""participantId"":""44ED7AA909E34B8E9E2FFE6461E18F8D"",""assignmentId"":""43198963-8c08-42c7-9fca-24b8fd8caa13"",""projectId"":""e9cc2542-c7dc-4d8f-b94f-d088ad8989d1""}","https://test12345.live/?part=2&participantId=44ED7AA909E34B8E9E2FFE6461E18F8D&assignmentId=43198963-8c08-42c7-9fca-24b8fd8caa13&projectId=e9cc2542-c7dc-4d8f-b94f-d088ad8989d1","44ED7AA909E34B8E9E2FFE6461E18F8D-2025-05-16-21-12-11","","44925","","[""<span style=\""color: red; font-size: 24px\""> NOW RECORDING</span><p>Please say out loud all the images you saw in part 1 of the experiment, as many as you can remember. The images can be said in any order.</p>""]","","1","using_technology_semantic"
"","","","","","image-button-response","19","435075","0.0-17.0-0.0","44ED7AA909E34B8E9E2FFE6461E18F8D","44ED7AA909E34B8E9E2FFE6461E18F8D","43198963-8c08-42c7-9fca-24b8fd8caa13","e9cc2542-c7dc-4d8f-b94f-d088ad8989d1","{""part"":""2"",""participantId"":""44ED7AA909E34B8E9E2FFE6461E18F8D"",""assignmentId"":""43198963-8c08-42c7-9fca-24b8fd8caa13"",""projectId"":""e9cc2542-c7dc-4d8f-b94f-d088ad8989d1""}","https://test12345.live/?part=2&participantId=44ED7AA909E34B8E9E2FFE6461E18F8D&assignmentId=43198963-8c08-42c7-9fca-24b8fd8caa13&projectId=e9cc2542-c7dc-4d8f-b94f-d088ad8989d1","44ED7AA909E34B8E9E2FFE6461E18F8D-2025-05-16-21-12-11","","null","","images/causal_sequence/coin_causal/coin_causal_0.png","null","",""
"","","","","","html-audio-response","20","483885","0.0-18.0","44ED7AA909E34B8E9E2FFE6461E18F8D","44ED7AA909E34B8E9E2FFE6461E18F8D","43198963-8c08-42c7-9fca-24b8fd8caa13","e9cc2542-c7dc-4d8f-b94f-d088ad8989d1","{""part"":""2"",""participantId"":""44ED7AA909E34B8E9E2FFE6461E18F8D"",""assignmentId"":""43198963-8c08-42c7-9fca-24b8fd8caa13"",""projectId"":""e9cc2542-c7dc-4d8f-b94f-d088ad8989d1""}","https://test12345.live/?part=2&participantId=44ED7AA909E34B8E9E2FFE6461E18F8D&assignmentId=43198963-8c08-42c7-9fca-24b8fd8caa13&projectId=e9cc2542-c7dc-4d8f-b94f-d088ad8989d1","44ED7AA909E34B8E9E2FFE6461E18F8D-2025-05-16-21-12-11","","37775","","[""<span style=\""color: red; font-size: 24px\""> NOW RECORDING</span><p>Please say out loud all the images you saw in part 1 of the experiment, as many as you can remember. The images can be said in any order.</p>""]","","1","coin_causal"
"","","","","","image-button-response","21","489895","0.0-19.0-0.0","44ED7AA909E34B8E9E2FFE6461E18F8D","44ED7AA909E34B8E9E2FFE6461E18F8D","43198963-8c08-42c7-9fca-24b8fd8caa13","e9cc2542-c7dc-4d8f-b94f-d088ad8989d1","{""part"":""2"",""participantId"":""44ED7AA909E34B8E9E2FFE6461E18F8D"",""assignmentId"":""43198963-8c08-42c7-9fca-24b8fd8caa13"",""projectId"":""e9cc2542-c7dc-4d8f-b94f-d088ad8989d1""}","https://test12345.live/?part=2&participantId=44ED7AA909E34B8E9E2FFE6461E18F8D&assignmentId=43198963-8c08-42c7-9fca-24b8fd8caa13&projectId=e9cc2542-c7dc-4d8f-b94f-d088ad8989d1","44ED7AA909E34B8E9E2FFE6461E18F8D-2025-05-16-21-12-11","","null","","images/semantic_sequence/maintaining_a_car_semantic/maintaining_a_car_semantic_0.png","null","",""
"","","","","","html-audio-response","22","590940","0.0-20.0","44ED7AA909E34B8E9E2FFE6461E18F8D","44ED7AA909E34B8E9E2FFE6461E18F8D","43198963-8c08-42c7-9fca-24b8fd8caa13","e9cc2542-c7dc-4d8f-b94f-d088ad8989d1","{""part"":""2"",""participantId"":""44ED7AA909E34B8E9E2FFE6461E18F8D"",""assignmentId"":""43198963-8c08-42c7-9fca-24b8fd8caa13"",""projectId"":""e9cc2542-c7dc-4d8f-b94f-d088ad8989d1""}","https://test12345.live/?part=2&participantId=44ED7AA909E34B8E9E2FFE6461E18F8D&assignmentId=43198963-8c08-42c7-9fca-24b8fd8caa13&projectId=e9cc2542-c7dc-4d8f-b94f-d088ad8989d1","44ED7AA909E34B8E9E2FFE6461E18F8D-2025-05-16-21-12-11","","34787","","[""<span style=\""color: red; font-size: 24px\""> NOW RECORDING</span><p>Please say out loud all the images you saw in part 1 of the experiment, as many as you can remember. The images can be said in any order.</p>""]","","1","maintaining_a_car_semantic"
"","","","","","image-button-response","23","596948","0.0-21.0-0.0","44ED7AA909E34B8E9E2FFE6461E18F8D","44ED7AA909E34B8E9E2FFE6461E18F8D","43198963-8c08-42c7-9fca-24b8fd8caa13","e9cc2542-c7dc-4d8f-b94f-d088ad8989d1","{""part"":""2"",""participantId"":""44ED7AA909E34B8E9E2FFE6461E18F8D"",""assignmentId"":""43198963-8c08-42c7-9fca-24b8fd8caa13"",""projectId"":""e9cc2542-c7dc-4d8f-b94f-d088ad8989d1""}","https://test12345.live/?part=2&participantId=44ED7AA909E34B8E9E2FFE6461E18F8D&assignmentId=43198963-8c08-42c7-9fca-24b8fd8caa13&projectId=e9cc2542-c7dc-4d8f-b94f-d088ad8989d1","44ED7AA909E34B8E9E2FFE6461E18F8D-2025-05-16-21-12-11","","null","","images/schematic_sequence/dinner_party_scheme/dinner_party_scheme_0.png","null","",""
"","","","","","html-audio-response","24","632353","0.0-22.0","44ED7AA909E34B8E9E2FFE6461E18F8D","44ED7AA909E34B8E9E2FFE6461E18F8D","43198963-8c08-42c7-9fca-24b8fd8caa13","e9cc2542-c7dc-4d8f-b94f-d088ad8989d1","{""part"":""2"",""participantId"":""44ED7AA909E34B8E9E2FFE6461E18F8D"",""assignmentId"":""43198963-8c08-42c7-9fca-24b8fd8caa13"",""projectId"":""e9cc2542-c7dc-4d8f-b94f-d088ad8989d1""}","https://test12345.live/?part=2&participantId=44ED7AA909E34B8E9E2FFE6461E18F8D&assignmentId=43198963-8c08-42c7-9fca-24b8fd8caa13&projectId=e9cc2542-c7dc-4d8f-b94f-d088ad8989d1","44ED7AA909E34B8E9E2FFE6461E18F8D-2025-05-16-21-12-11","","26832","","[""<span style=\""color: red; font-size: 24px\""> NOW RECORDING</span><p>Please say out loud all the images you saw in part 1 of the experiment, as many as you can remember. The images can be said in any order.</p>""]","","1","dinner_party_scheme"
"","","","","","image-button-response","25","638361","0.0-23.0-0.0","44ED7AA909E34B8E9E2FFE6461E18F8D","44ED7AA909E34B8E9E2FFE6461E18F8D","43198963-8c08-42c7-9fca-24b8fd8caa13","e9cc2542-c7dc-4d8f-b94f-d088ad8989d1","{""part"":""2"",""participantId"":""44ED7AA909E34B8E9E2FFE6461E18F8D"",""assignmentId"":""43198963-8c08-42c7-9fca-24b8fd8caa13"",""projectId"":""e9cc2542-c7dc-4d8f-b94f-d088ad8989d1""}","https://test12345.live/?part=2&participantId=44ED7AA909E34B8E9E2FFE6461E18F8D&assignmentId=43198963-8c08-42c7-9fca-24b8fd8caa13&projectId=e9cc2542-c7dc-4d8f-b94f-d088ad8989d1","44ED7AA909E34B8E9E2FFE6461E18F8D-2025-05-16-21-12-11","","null","","images/schematic_sequence/hotel_scheme/hotel_scheme_0.png","null","",""
"","","","","","html-audio-response","26","679483","0.0-24.0","44ED7AA909E34B8E9E2FFE6461E18F8D","44ED7AA909E34B8E9E2FFE6461E18F8D","43198963-8c08-42c7-9fca-24b8fd8caa13","e9cc2542-c7dc-4d8f-b94f-d088ad8989d1","{""part"":""2"",""participantId"":""44ED7AA909E34B8E9E2FFE6461E18F8D"",""assignmentId"":""43198963-8c08-42c7-9fca-24b8fd8caa13"",""projectId"":""e9cc2542-c7dc-4d8f-b94f-d088ad8989d1""}","https://test12345.live/?part=2&participantId=44ED7AA909E34B8E9E2FFE6461E18F8D&assignmentId=43198963-8c08-42c7-9fca-24b8fd8caa13&projectId=e9cc2542-c7dc-4d8f-b94f-d088ad8989d1","44ED7AA909E34B8E9E2FFE6461E18F8D-2025-05-16-21-12-11","","31495","","[""<span style=\""color: red; font-size: 24px\""> NOW RECORDING</span><p>Please say out loud all the images you saw in part 1 of the experiment, as many as you can remember. The images can be said in any order.</p>""]","","1","hotel_scheme"
"","","","","","image-button-response","27","685495","0.0-25.0-0.0","44ED7AA909E34B8E9E2FFE6461E18F8D","44ED7AA909E34B8E9E2FFE6461E18F8D","43198963-8c08-42c7-9fca-24b8fd8caa13","e9cc2542-c7dc-4d8f-b94f-d088ad8989d1","{""part"":""2"",""participantId"":""44ED7AA909E34B8E9E2FFE6461E18F8D"",""assignmentId"":""43198963-8c08-42c7-9fca-24b8fd8caa13"",""projectId"":""e9cc2542-c7dc-4d8f-b94f-d088ad8989d1""}","https://test12345.live/?part=2&participantId=44ED7AA909E34B8E9E2FFE6461E18F8D&assignmentId=43198963-8c08-42c7-9fca-24b8fd8caa13&projectId=e9cc2542-c7dc-4d8f-b94f-d088ad8989d1","44ED7AA909E34B8E9E2FFE6461E18F8D-2025-05-16-21-12-11","","null","","images/schematic_sequence/interview_scheme/interview_scheme_0.png","null","",""
"","","","","","html-audio-response","28","733412","0.0-26.0","44ED7AA909E34B8E9E2FFE6461E18F8D","44ED7AA909E34B8E9E2FFE6461E18F8D","43198963-8c08-42c7-9fca-24b8fd8caa13","e9cc2542-c7dc-4d8f-b94f-d088ad8989d1","{""part"":""2"",""participantId"":""44ED7AA909E34B8E9E2FFE6461E18F8D"",""assignmentId"":""43198963-8c08-42c7-9fca-24b8fd8caa13"",""projectId"":""e9cc2542-c7dc-4d8f-b94f-d088ad8989d1""}","https://test12345.live/?part=2&participantId=44ED7AA909E34B8E9E2FFE6461E18F8D&assignmentId=43198963-8c08-42c7-9fca-24b8fd8caa13&projectId=e9cc2542-c7dc-4d8f-b94f-d088ad8989d1","44ED7AA909E34B8E9E2FFE6461E18F8D-2025-05-16-21-12-11","","32909","","[""<span style=\""color: red; font-size: 24px\""> NOW RECORDING</span><p>Please say out loud all the images you saw in part 1 of the experiment, as many as you can remember. The images can be said in any order.</p>""]","","1","interview_scheme"
"","","","","","image-button-response","29","739419","0.0-27.0-0.0","44ED7AA909E34B8E9E2FFE6461E18F8D","44ED7AA909E34B8E9E2FFE6461E18F8D","43198963-8c08-42c7-9fca-24b8fd8caa13","e9cc2542-c7dc-4d8f-b94f-d088ad8989d1","{""part"":""2"",""participantId"":""44ED7AA909E34B8E9E2FFE6461E18F8D"",""assignmentId"":""43198963-8c08-42c7-9fca-24b8fd8caa13"",""projectId"":""e9cc2542-c7dc-4d8f-b94f-d088ad8989d1""}","https://test12345.live/?part=2&participantId=44ED7AA909E34B8E9E2FFE6461E18F8D&assignmentId=43198963-8c08-42c7-9fca-24b8fd8caa13&projectId=e9cc2542-c7dc-4d8f-b94f-d088ad8989d1","44ED7AA909E34B8E9E2FFE6461E18F8D-2025-05-16-21-12-11","","null","","images/semantic_sequence/visiting_cities_semantic/visiting_cities_semantic_0.png","null","",""
"","","","","","html-audio-response","30","788718","0.0-28.0","44ED7AA909E34B8E9E2FFE6461E18F8D","44ED7AA909E34B8E9E2FFE6461E18F8D","43198963-8c08-42c7-9fca-24b8fd8caa13","e9cc2542-c7dc-4d8f-b94f-d088ad8989d1","{""part"":""2"",""participantId"":""44ED7AA909E34B8E9E2FFE6461E18F8D"",""assignmentId"":""43198963-8c08-42c7-9fca-24b8fd8caa13"",""projectId"":""e9cc2542-c7dc-4d8f-b94f-d088ad8989d1""}","https://test12345.live/?part=2&participantId=44ED7AA909E34B8E9E2FFE6461E18F8D&assignmentId=43198963-8c08-42c7-9fca-24b8fd8caa13&projectId=e9cc2542-c7dc-4d8f-b94f-d088ad8989d1","44ED7AA909E34B8E9E2FFE6461E18F8D-2025-05-16-21-12-11","","33268","","[""<span style=\""color: red; font-size: 24px\""> NOW RECORDING</span><p>Please say out loud all the images you saw in part 1 of the experiment, as many as you can remember. The images can be said in any order.</p>""]","","1","visiting_cities_semantic"
"","","","","","image-button-response","31","794729","0.0-29.0-0.0","44ED7AA909E34B8E9E2FFE6461E18F8D","44ED7AA909E34B8E9E2FFE6461E18F8D","43198963-8c08-42c7-9fca-24b8fd8caa13","e9cc2542-c7dc-4d8f-b94f-d088ad8989d1","{""part"":""2"",""participantId"":""44ED7AA909E34B8E9E2FFE6461E18F8D"",""assignmentId"":""43198963-8c08-42c7-9fca-24b8fd8caa13"",""projectId"":""e9cc2542-c7dc-4d8f-b94f-d088ad8989d1""}","https://test12345.live/?part=2&participantId=44ED7AA909E34B8E9E2FFE6461E18F8D&assignmentId=43198963-8c08-42c7-9fca-24b8fd8caa13&projectId=e9cc2542-c7dc-4d8f-b94f-d088ad8989d1","44ED7AA909E34B8E9E2FFE6461E18F8D-2025-05-16-21-12-11","","null","","images/schematic_sequence/restaurant_scheme/restaurant_scheme_0.png","null","",""
"","","","","","html-audio-response","32","835052","0.0-30.0","44ED7AA909E34B8E9E2FFE6461E18F8D","44ED7AA909E34B8E9E2FFE6461E18F8D","43198963-8c08-42c7-9fca-24b8fd8caa13","e9cc2542-c7dc-4d8f-b94f-d088ad8989d1","{""part"":""2"",""participantId"":""44ED7AA909E34B8E9E2FFE6461E18F8D"",""assignmentId"":""43198963-8c08-42c7-9fca-24b8fd8caa13"",""projectId"":""e9cc2542-c7dc-4d8f-b94f-d088ad8989d1""}","https://test12345.live/?part=2&participantId=44ED7AA909E34B8E9E2FFE6461E18F8D&assignmentId=43198963-8c08-42c7-9fca-24b8fd8caa13&projectId=e9cc2542-c7dc-4d8f-b94f-d088ad8989d1","44ED7AA909E34B8E9E2FFE6461E18F8D-2025-05-16-21-12-11","","33021","","[""<span style=\""color: red; font-size: 24px\""> NOW RECORDING</span><p>Please say out loud all the images you saw in part 1 of the experiment, as many as you can remember. The images can be said in any order.</p>""]","","1","restaurant_scheme"
"","","","","","image-button-response","33","841065","0.0-31.0-0.0","44ED7AA909E34B8E9E2FFE6461E18F8D","44ED7AA909E34B8E9E2FFE6461E18F8D","43198963-8c08-42c7-9fca-24b8fd8caa13","e9cc2542-c7dc-4d8f-b94f-d088ad8989d1","{""part"":""2"",""participantId"":""44ED7AA909E34B8E9E2FFE6461E18F8D"",""assignmentId"":""43198963-8c08-42c7-9fca-24b8fd8caa13"",""projectId"":""e9cc2542-c7dc-4d8f-b94f-d088ad8989d1""}","https://test12345.live/?part=2&participantId=44ED7AA909E34B8E9E2FFE6461E18F8D&assignmentId=43198963-8c08-42c7-9fca-24b8fd8caa13&projectId=e9cc2542-c7dc-4d8f-b94f-d088ad8989d1","44ED7AA909E34B8E9E2FFE6461E18F8D-2025-05-16-21-12-11","","null","","images/causal_sequence/saving_a_cat_causal/saving_a_cat_causal_0.png","null","",""
"","","","","","html-audio-response","34","914931","0.0-32.0","44ED7AA909E34B8E9E2FFE6461E18F8D","44ED7AA909E34B8E9E2FFE6461E18F8D","43198963-8c08-42c7-9fca-24b8fd8caa13","e9cc2542-c7dc-4d8f-b94f-d088ad8989d1","{""part"":""2"",""participantId"":""44ED7AA909E34B8E9E2FFE6461E18F8D"",""assignmentId"":""43198963-8c08-42c7-9fca-24b8fd8caa13"",""projectId"":""e9cc2542-c7dc-4d8f-b94f-d088ad8989d1""}","https://test12345.live/?part=2&participantId=44ED7AA909E34B8E9E2FFE6461E18F8D&assignmentId=43198963-8c08-42c7-9fca-24b8fd8caa13&projectId=e9cc2542-c7dc-4d8f-b94f-d088ad8989d1","44ED7AA909E34B8E9E2FFE6461E18F8D-2025-05-16-21-12-11","","42425","","[""<span style=\""color: red; font-size: 24px\""> NOW RECORDING</span><p>Please say out loud all the images you saw in part 1 of the experiment, as many as you can remember. The images can be said in any order.</p>""]","","1","saving_a_cat_causal"
"","","","","","image-button-response","35","920944","0.0-33.0-0.0","44ED7AA909E34B8E9E2FFE6461E18F8D","44ED7AA909E34B8E9E2FFE6461E18F8D","43198963-8c08-42c7-9fca-24b8fd8caa13","e9cc2542-c7dc-4d8f-b94f-d088ad8989d1","{""part"":""2"",""participantId"":""44ED7AA909E34B8E9E2FFE6461E18F8D"",""assignmentId"":""43198963-8c08-42c7-9fca-24b8fd8caa13"",""projectId"":""e9cc2542-c7dc-4d8f-b94f-d088ad8989d1""}","https://test12345.live/?part=2&participantId=44ED7AA909E34B8E9E2FFE6461E18F8D&assignmentId=43198963-8c08-42c7-9fca-24b8fd8caa13&projectId=e9cc2542-c7dc-4d8f-b94f-d088ad8989d1","44ED7AA909E34B8E9E2FFE6461E18F8D-2025-05-16-21-12-11","","null","","images/semantic_sequence/cat_care_semantic/cat_care_semantic_0.png","null","",""
"","","","","","html-audio-response","36","963299","0.0-34.0","44ED7AA909E34B8E9E2FFE6461E18F8D","44ED7AA909E34B8E9E2FFE6461E18F8D","43198963-8c08-42c7-9fca-24b8fd8caa13","e9cc2542-c7dc-4d8f-b94f-d088ad8989d1","{""part"":""2"",""participantId"":""44ED7AA909E34B8E9E2FFE6461E18F8D"",""assignmentId"":""43198963-8c08-42c7-9fca-24b8fd8caa13"",""projectId"":""e9cc2542-c7dc-4d8f-b94f-d088ad8989d1""}","https://test12345.live/?part=2&participantId=44ED7AA909E34B8E9E2FFE6461E18F8D&assignmentId=43198963-8c08-42c7-9fca-24b8fd8caa13&projectId=e9cc2542-c7dc-4d8f-b94f-d088ad8989d1","44ED7AA909E34B8E9E2FFE6461E18F8D-2025-05-16-21-12-11","","30565","","[""<span style=\""color: red; font-size: 24px\""> NOW RECORDING</span><p>Please say out loud all the images you saw in part 1 of the experiment, as many as you can remember. The images can be said in any order.</p>""]","","1","cat_care_semantic"
"","","","","","image-button-response","37","969309","0.0-35.0-0.0","44ED7AA909E34B8E9E2FFE6461E18F8D","44ED7AA909E34B8E9E2FFE6461E18F8D","43198963-8c08-42c7-9fca-24b8fd8caa13","e9cc2542-c7dc-4d8f-b94f-d088ad8989d1","{""part"":""2"",""participantId"":""44ED7AA909E34B8E9E2FFE6461E18F8D"",""assignmentId"":""43198963-8c08-42c7-9fca-24b8fd8caa13"",""projectId"":""e9cc2542-c7dc-4d8f-b94f-d088ad8989d1""}","https://test12345.live/?part=2&participantId=44ED7AA909E34B8E9E2FFE6461E18F8D&assignmentId=43198963-8c08-42c7-9fca-24b8fd8caa13&projectId=e9cc2542-c7dc-4d8f-b94f-d088ad8989d1","44ED7AA909E34B8E9E2FFE6461E18F8D-2025-05-16-21-12-11","","null","","images/semantic_sequence/physical_activity_semantic/physical_activity_semantic_0.png","null","",""
"","","","","","html-audio-response","38","1080032","0.0-36.0","44ED7AA909E34B8E9E2FFE6461E18F8D","44ED7AA909E34B8E9E2FFE6461E18F8D","43198963-8c08-42c7-9fca-24b8fd8caa13","e9cc2542-c7dc-4d8f-b94f-d088ad8989d1","{""part"":""2"",""participantId"":""44ED7AA909E34B8E9E2FFE6461E18F8D"",""assignmentId"":""43198963-8c08-42c7-9fca-24b8fd8caa13"",""projectId"":""e9cc2542-c7dc-4d8f-b94f-d088ad8989d1""}","https://test12345.live/?part=2&participantId=44ED7AA909E34B8E9E2FFE6461E18F8D&assignmentId=43198963-8c08-42c7-9fca-24b8fd8caa13&projectId=e9cc2542-c7dc-4d8f-b94f-d088ad8989d1","44ED7AA909E34B8E9E2FFE6461E18F8D-2025-05-16-21-12-11","","49533","","[""<span style=\""color: red; font-size: 24px\""> NOW RECORDING</span><p>Please say out loud all the images you saw in part 1 of the experiment, as many as you can remember. The images can be said in any order.</p>""]","","1","physical_activity_semantic"
"","","","","","image-button-response","39","1086046","0.0-37.0-0.0","44ED7AA909E34B8E9E2FFE6461E18F8D","44ED7AA909E34B8E9E2FFE6461E18F8D","43198963-8c08-42c7-9fca-24b8fd8caa13","e9cc2542-c7dc-4d8f-b94f-d088ad8989d1","{""part"":""2"",""participantId"":""44ED7AA909E34B8E9E2FFE6461E18F8D"",""assignmentId"":""43198963-8c08-42c7-9fca-24b8fd8caa13"",""projectId"":""e9cc2542-c7dc-4d8f-b94f-d088ad8989d1""}","https://test12345.live/?part=2&participantId=44ED7AA909E34B8E9E2FFE6461E18F8D&assignmentId=43198963-8c08-42c7-9fca-24b8fd8caa13&projectId=e9cc2542-c7dc-4d8f-b94f-d088ad8989d1","44ED7AA909E34B8E9E2FFE6461E18F8D-2025-05-16-21-12-11","","null","","images/semantic_sequence/self_care_activities_semantic/self_care_activities_semantic_0.png","null","",""
"","","","","","html-audio-response","40","1147837","0.0-38.0","44ED7AA909E34B8E9E2FFE6461E18F8D","44ED7AA909E34B8E9E2FFE6461E18F8D","43198963-8c08-42c7-9fca-24b8fd8caa13","e9cc2542-c7dc-4d8f-b94f-d088ad8989d1","{""part"":""2"",""participantId"":""44ED7AA909E34B8E9E2FFE6461E18F8D"",""assignmentId"":""43198963-8c08-42c7-9fca-24b8fd8caa13"",""projectId"":""e9cc2542-c7dc-4d8f-b94f-d088ad8989d1""}","https://test12345.live/?part=2&participantId=44ED7AA909E34B8E9E2FFE6461E18F8D&assignmentId=43198963-8c08-42c7-9fca-24b8fd8caa13&projectId=e9cc2542-c7dc-4d8f-b94f-d088ad8989d1","44ED7AA909E34B8E9E2FFE6461E18F8D-2025-05-16-21-12-11","","18667","","[""<span style=\""color: red; font-size: 24px\""> NOW RECORDING</span><p>Please say out loud all the images you saw in part 1 of the experiment, as many as you can remember. The images can be said in any order.</p>""]","","4","self_care_activities_semantic"
"","","","","","image-button-response","41","1153844","0.0-39.0-0.0","44ED7AA909E34B8E9E2FFE6461E18F8D","44ED7AA909E34B8E9E2FFE6461E18F8D","43198963-8c08-42c7-9fca-24b8fd8caa13","e9cc2542-c7dc-4d8f-b94f-d088ad8989d1","{""part"":""2"",""participantId"":""44ED7AA909E34B8E9E2FFE6461E18F8D"",""assignmentId"":""43198963-8c08-42c7-9fca-24b8fd8caa13"",""projectId"":""e9cc2542-c7dc-4d8f-b94f-d088ad8989d1""}","https://test12345.live/?part=2&participantId=44ED7AA909E34B8E9E2FFE6461E18F8D&assignmentId=43198963-8c08-42c7-9fca-24b8fd8caa13&projectId=e9cc2542-c7dc-4d8f-b94f-d088ad8989d1","44ED7AA909E34B8E9E2FFE6461E18F8D-2025-05-16-21-12-11","","null","","images/semantic_sequence/redecorating_semantic/redecorating_semantic_0.png","null","",""
"","","","","","html-audio-response","42","1199271","0.0-40.0","44ED7AA909E34B8E9E2FFE6461E18F8D","44ED7AA909E34B8E9E2FFE6461E18F8D","43198963-8c08-42c7-9fca-24b8fd8caa13","e9cc2542-c7dc-4d8f-b94f-d088ad8989d1","{""part"":""2"",""participantId"":""44ED7AA909E34B8E9E2FFE6461E18F8D"",""assignmentId"":""43198963-8c08-42c7-9fca-24b8fd8caa13"",""projectId"":""e9cc2542-c7dc-4d8f-b94f-d088ad8989d1""}","https://test12345.live/?part=2&participantId=44ED7AA909E34B8E9E2FFE6461E18F8D&assignmentId=43198963-8c08-42c7-9fca-24b8fd8caa13&projectId=e9cc2542-c7dc-4d8f-b94f-d088ad8989d1","44ED7AA909E34B8E9E2FFE6461E18F8D-2025-05-16-21-12-11","","19841","","[""<span style=\""color: red; font-size: 24px\""> NOW RECORDING</span><p>Please say out loud all the images you saw in part 1 of the experiment, as many as you can remember. The images can be said in any order.</p>""]","","3","redecorating_semantic"
"","","","","","image-button-response","43","1205281","0.0-41.0-0.0","44ED7AA909E34B8E9E2FFE6461E18F8D","44ED7AA909E34B8E9E2FFE6461E18F8D","43198963-8c08-42c7-9fca-24b8fd8caa13","e9cc2542-c7dc-4d8f-b94f-d088ad8989d1","{""part"":""2"",""participantId"":""44ED7AA909E34B8E9E2FFE6461E18F8D"",""assignmentId"":""43198963-8c08-42c7-9fca-24b8fd8caa13"",""projectId"":""e9cc2542-c7dc-4d8f-b94f-d088ad8989d1""}","https://test12345.live/?part=2&participantId=44ED7AA909E34B8E9E2FFE6461E18F8D&assignmentId=43198963-8c08-42c7-9fca-24b8fd8caa13&projectId=e9cc2542-c7dc-4d8f-b94f-d088ad8989d1","44ED7AA909E34B8E9E2FFE6461E18F8D-2025-05-16-21-12-11","","null","","images/schematic_sequence/flight_scheme/flight_scheme_0.png","null","",""
"","","","","","html-audio-response","44","1245968","0.0-42.0","44ED7AA909E34B8E9E2FFE6461E18F8D","44ED7AA909E34B8E9E2FFE6461E18F8D","43198963-8c08-42c7-9fca-24b8fd8caa13","e9cc2542-c7dc-4d8f-b94f-d088ad8989d1","{""part"":""2"",""participantId"":""44ED7AA909E34B8E9E2FFE6461E18F8D"",""assignmentId"":""43198963-8c08-42c7-9fca-24b8fd8caa13"",""projectId"":""e9cc2542-c7dc-4d8f-b94f-d088ad8989d1""}","https://test12345.live/?part=2&participantId=44ED7AA909E34B8E9E2FFE6461E18F8D&assignmentId=43198963-8c08-42c7-9fca-24b8fd8caa13&projectId=e9cc2542-c7dc-4d8f-b94f-d088ad8989d1","44ED7AA909E34B8E9E2FFE6461E18F8D-2025-05-16-21-12-11","","29040","","[""<span style=\""color: red; font-size: 24px\""> NOW RECORDING</span><p>Please say out loud all the images you saw in part 1 of the experiment, as many as you can remember. The images can be said in any order.</p>""]","","6","flight_scheme"
"","","","","","image-button-response","45","1251977","0.0-43.0-0.0","44ED7AA909E34B8E9E2FFE6461E18F8D","44ED7AA909E34B8E9E2FFE6461E18F8D","43198963-8c08-42c7-9fca-24b8fd8caa13","e9cc2542-c7dc-4d8f-b94f-d088ad8989d1","{""part"":""2"",""participantId"":""44ED7AA909E34B8E9E2FFE6461E18F8D"",""assignmentId"":""43198963-8c08-42c7-9fca-24b8fd8caa13"",""projectId"":""e9cc2542-c7dc-4d8f-b94f-d088ad8989d1""}","https://test12345.live/?part=2&participantId=44ED7AA909E34B8E9E2FFE6461E18F8D&assignmentId=43198963-8c08-42c7-9fca-24b8fd8caa13&projectId=e9cc2542-c7dc-4d8f-b94f-d088ad8989d1","44ED7AA909E34B8E9E2FFE6461E18F8D-2025-05-16-21-12-11","","null","","images/causal_sequence/the_performance_causal/the_performance_causal_0.png","null","",""
"","","","","","html-audio-response","46","1310317","0.0-44.0","44ED7AA909E34B8E9E2FFE6461E18F8D","44ED7AA909E34B8E9E2FFE6461E18F8D","43198963-8c08-42c7-9fca-24b8fd8caa13","e9cc2542-c7dc-4d8f-b94f-d088ad8989d1","{""part"":""2"",""participantId"":""44ED7AA909E34B8E9E2FFE6461E18F8D"",""assignmentId"":""43198963-8c08-42c7-9fca-24b8fd8caa13"",""projectId"":""e9cc2542-c7dc-4d8f-b94f-d088ad8989d1""}","https://test12345.live/?part=2&participantId=44ED7AA909E34B8E9E2FFE6461E18F8D&assignmentId=43198963-8c08-42c7-9fca-24b8fd8caa13&projectId=e9cc2542-c7dc-4d8f-b94f-d088ad8989d1","44ED7AA909E34B8E9E2FFE6461E18F8D-2025-05-16-21-12-11","","45761","","[""<span style=\""color: red; font-size: 24px\""> NOW RECORDING</span><p>Please say out loud all the images you saw in part 1 of the experiment, as many as you can remember. The images can be said in any order.</p>""]","","1","the_performance_causal"
"","","","","","image-button-response","47","1316333","0.0-45.0-0.0","44ED7AA909E34B8E9E2FFE6461E18F8D","44ED7AA909E34B8E9E2FFE6461E18F8D","43198963-8c08-42c7-9fca-24b8fd8caa13","e9cc2542-c7dc-4d8f-b94f-d088ad8989d1","{""part"":""2"",""participantId"":""44ED7AA909E34B8E9E2FFE6461E18F8D"",""assignmentId"":""43198963-8c08-42c7-9fca-24b8fd8caa13"",""projectId"":""e9cc2542-c7dc-4d8f-b94f-d088ad8989d1""}","https://test12345.live/?part=2&participantId=44ED7AA909E34B8E9E2FFE6461E18F8D&assignmentId=43198963-8c08-42c7-9fca-24b8fd8caa13&projectId=e9cc2542-c7dc-4d8f-b94f-d088ad8989d1","44ED7AA909E34B8E9E2FFE6461E18F8D-2025-05-16-21-12-11","","null","","images/causal_sequence/museum_causal/museum_causal_0.png","null","",""
"","","","","","html-audio-response","48","1383897","0.0-46.0","44ED7AA909E34B8E9E2FFE6461E18F8D","44ED7AA909E34B8E9E2FFE6461E18F8D","43198963-8c08-42c7-9fca-24b8fd8caa13","e9cc2542-c7dc-4d8f-b94f-d088ad8989d1","{""part"":""2"",""participantId"":""44ED7AA909E34B8E9E2FFE6461E18F8D"",""assignmentId"":""43198963-8c08-42c7-9fca-24b8fd8caa13"",""projectId"":""e9cc2542-c7dc-4d8f-b94f-d088ad8989d1""}","https://test12345.live/?part=2&participantId=44ED7AA909E34B8E9E2FFE6461E18F8D&assignmentId=43198963-8c08-42c7-9fca-24b8fd8caa13&projectId=e9cc2542-c7dc-4d8f-b94f-d088ad8989d1","44ED7AA909E34B8E9E2FFE6461E18F8D-2025-05-16-21-12-11","","41221","","[""<span style=\""color: red; font-size: 24px\""> NOW RECORDING</span><p>Please say out loud all the images you saw in part 1 of the experiment, as many as you can remember. The images can be said in any order.</p>""]","","6","museum_causal"
"","","","","","image-button-response","49","1389906","0.0-47.0-0.0","44ED7AA909E34B8E9E2FFE6461E18F8D","44ED7AA909E34B8E9E2FFE6461E18F8D","43198963-8c08-42c7-9fca-24b8fd8caa13","e9cc2542-c7dc-4d8f-b94f-d088ad8989d1","{""part"":""2"",""participantId"":""44ED7AA909E34B8E9E2FFE6461E18F8D"",""assignmentId"":""43198963-8c08-42c7-9fca-24b8fd8caa13"",""projectId"":""e9cc2542-c7dc-4d8f-b94f-d088ad8989d1""}","https://test12345.live/?part=2&participantId=44ED7AA909E34B8E9E2FFE6461E18F8D&assignmentId=43198963-8c08-42c7-9fca-24b8fd8caa13&projectId=e9cc2542-c7dc-4d8f-b94f-d088ad8989d1","44ED7AA909E34B8E9E2FFE6461E18F8D-2025-05-16-21-12-11","","null","","images/causal_sequence/dog_causal/dog_causal_0.png","null","",""
"","","","","","html-audio-response","50","1447279","0.0-48.0","44ED7AA909E34B8E9E2FFE6461E18F8D","44ED7AA909E34B8E9E2FFE6461E18F8D","43198963-8c08-42c7-9fca-24b8fd8caa13","e9cc2542-c7dc-4d8f-b94f-d088ad8989d1","{""part"":""2"",""participantId"":""44ED7AA909E34B8E9E2FFE6461E18F8D"",""assignmentId"":""43198963-8c08-42c7-9fca-24b8fd8caa13"",""projectId"":""e9cc2542-c7dc-4d8f-b94f-d088ad8989d1""}","https://test12345.live/?part=2&participantId=44ED7AA909E34B8E9E2FFE6461E18F8D&assignmentId=43198963-8c08-42c7-9fca-24b8fd8caa13&projectId=e9cc2542-c7dc-4d8f-b94f-d088ad8989d1","44ED7AA909E34B8E9E2FFE6461E18F8D-2025-05-16-21-12-11","","46550","","[""<span style=\""color: red; font-size: 24px\""> NOW RECORDING</span><p>Please say out loud all the images you saw in part 1 of the experiment, as many as you can remember. The images can be said in any order.</p>""]","","3","dog_causal"
"","","","","","image-button-response","51","1453291","0.0-49.0-0.0","44ED7AA909E34B8E9E2FFE6461E18F8D","44ED7AA909E34B8E9E2FFE6461E18F8D","43198963-8c08-42c7-9fca-24b8fd8caa13","e9cc2542-c7dc-4d8f-b94f-d088ad8989d1","{""part"":""2"",""participantId"":""44ED7AA909E34B8E9E2FFE6461E18F8D"",""assignmentId"":""43198963-8c08-42c7-9fca-24b8fd8caa13"",""projectId"":""e9cc2542-c7dc-4d8f-b94f-d088ad8989d1""}","https://test12345.live/?part=2&participantId=44ED7AA909E34B8E9E2FFE6461E18F8D&assignmentId=43198963-8c08-42c7-9fca-24b8fd8caa13&projectId=e9cc2542-c7dc-4d8f-b94f-d088ad8989d1","44ED7AA909E34B8E9E2FFE6461E18F8D-2025-05-16-21-12-11","","null","","images/semantic_sequence/kitchen_operations_semantic/kitchen_operations_semantic_0.png","null","",""
"","","","","","html-audio-response","52","1487647","0.0-50.0","44ED7AA909E34B8E9E2FFE6461E18F8D","44ED7AA909E34B8E9E2FFE6461E18F8D","43198963-8c08-42c7-9fca-24b8fd8caa13","e9cc2542-c7dc-4d8f-b94f-d088ad8989d1","{""part"":""2"",""participantId"":""44ED7AA909E34B8E9E2FFE6461E18F8D"",""assignmentId"":""43198963-8c08-42c7-9fca-24b8fd8caa13"",""projectId"":""e9cc2542-c7dc-4d8f-b94f-d088ad8989d1""}","https://test12345.live/?part=2&participantId=44ED7AA909E34B8E9E2FFE6461E18F8D&assignmentId=43198963-8c08-42c7-9fca-24b8fd8caa13&projectId=e9cc2542-c7dc-4d8f-b94f-d088ad8989d1","44ED7AA909E34B8E9E2FFE6461E18F8D-2025-05-16-21-12-11","","21687","","[""<span style=\""color: red; font-size: 24px\""> NOW RECORDING</span><p>Please say out loud all the images you saw in part 1 of the experiment, as many as you can remember. The images can be said in any order.</p>""]","","1","kitchen_operations_semantic"
"","","","","","image-button-response","53","1493658","0.0-51.0-0.0","44ED7AA909E34B8E9E2FFE6461E18F8D","44ED7AA909E34B8E9E2FFE6461E18F8D","43198963-8c08-42c7-9fca-24b8fd8caa13","e9cc2542-c7dc-4d8f-b94f-d088ad8989d1","{""part"":""2"",""participantId"":""44ED7AA909E34B8E9E2FFE6461E18F8D"",""assignmentId"":""43198963-8c08-42c7-9fca-24b8fd8caa13"",""projectId"":""e9cc2542-c7dc-4d8f-b94f-d088ad8989d1""}","https://test12345.live/?part=2&participantId=44ED7AA909E34B8E9E2FFE6461E18F8D&assignmentId=43198963-8c08-42c7-9fca-24b8fd8caa13&projectId=e9cc2542-c7dc-4d8f-b94f-d088ad8989d1","44ED7AA909E34B8E9E2FFE6461E18F8D-2025-05-16-21-12-11","","null","","images/semantic_sequence/creative_activities_semantic/creative_activities_semantic_0.png","null","",""
"","","","","","html-audio-response","54","1607935","0.0-52.0","44ED7AA909E34B8E9E2FFE6461E18F8D","44ED7AA909E34B8E9E2FFE6461E18F8D","43198963-8c08-42c7-9fca-24b8fd8caa13","e9cc2542-c7dc-4d8f-b94f-d088ad8989d1","{""part"":""2"",""participantId"":""44ED7AA909E34B8E9E2FFE6461E18F8D"",""assignmentId"":""43198963-8c08-42c7-9fca-24b8fd8caa13"",""projectId"":""e9cc2542-c7dc-4d8f-b94f-d088ad8989d1""}","https://test12345.live/?part=2&participantId=44ED7AA909E34B8E9E2FFE6461E18F8D&assignmentId=43198963-8c08-42c7-9fca-24b8fd8caa13&projectId=e9cc2542-c7dc-4d8f-b94f-d088ad8989d1","44ED7AA909E34B8E9E2FFE6461E18F8D-2025-05-16-21-12-11","","20500","","[""<span style=\""color: red; font-size: 24px\""> NOW RECORDING</span><p>Please say out loud all the images you saw in part 1 of the experiment, as many as you can remember. The images can be said in any order.</p>""]","","7","creative_activities_semantic"
"","","","","","image-button-response","55","1613945","0.0-53.0-0.0","44ED7AA909E34B8E9E2FFE6461E18F8D","44ED7AA909E34B8E9E2FFE6461E18F8D","43198963-8c08-42c7-9fca-24b8fd8caa13","e9cc2542-c7dc-4d8f-b94f-d088ad8989d1","{""part"":""2"",""participantId"":""44ED7AA909E34B8E9E2FFE6461E18F8D"",""assignmentId"":""43198963-8c08-42c7-9fca-24b8fd8caa13"",""projectId"":""e9cc2542-c7dc-4d8f-b94f-d088ad8989d1""}","https://test12345.live/?part=2&participantId=44ED7AA909E34B8E9E2FFE6461E18F8D&assignmentId=43198963-8c08-42c7-9fca-24b8fd8caa13&projectId=e9cc2542-c7dc-4d8f-b94f-d088ad8989d1","44ED7AA909E34B8E9E2FFE6461E18F8D-2025-05-16-21-12-11","","null","","images/schematic_sequence/supermarket_scheme/supermarket_scheme_0.png","null","",""
"","","","","","html-audio-response","56","1647912","0.0-54.0","44ED7AA909E34B8E9E2FFE6461E18F8D","44ED7AA909E34B8E9E2FFE6461E18F8D","43198963-8c08-42c7-9fca-24b8fd8caa13","e9cc2542-c7dc-4d8f-b94f-d088ad8989d1","{""part"":""2"",""participantId"":""44ED7AA909E34B8E9E2FFE6461E18F8D"",""assignmentId"":""43198963-8c08-42c7-9fca-24b8fd8caa13"",""projectId"":""e9cc2542-c7dc-4d8f-b94f-d088ad8989d1""}","https://test12345.live/?part=2&participantId=44ED7AA909E34B8E9E2FFE6461E18F8D&assignmentId=43198963-8c08-42c7-9fca-24b8fd8caa13&projectId=e9cc2542-c7dc-4d8f-b94f-d088ad8989d1","44ED7AA909E34B8E9E2FFE6461E18F8D-2025-05-16-21-12-11","","26945","","[""<span style=\""color: red; font-size: 24px\""> NOW RECORDING</span><p>Please say out loud all the images you saw in part 1 of the experiment, as many as you can remember. The images can be said in any order.</p>""]","","1","supermarket_scheme"
"","","","","","image-button-response","57","1653924","0.0-55.0-0.0","44ED7AA909E34B8E9E2FFE6461E18F8D","44ED7AA909E34B8E9E2FFE6461E18F8D","43198963-8c08-42c7-9fca-24b8fd8caa13","e9cc2542-c7dc-4d8f-b94f-d088ad8989d1","{""part"":""2"",""participantId"":""44ED7AA909E34B8E9E2FFE6461E18F8D"",""assignmentId"":""43198963-8c08-42c7-9fca-24b8fd8caa13"",""projectId"":""e9cc2542-c7dc-4d8f-b94f-d088ad8989d1""}","https://test12345.live/?part=2&participantId=44ED7AA909E34B8E9E2FFE6461E18F8D&assignmentId=43198963-8c08-42c7-9fca-24b8fd8caa13&projectId=e9cc2542-c7dc-4d8f-b94f-d088ad8989d1","44ED7AA909E34B8E9E2FFE6461E18F8D-2025-05-16-21-12-11","","null","","images/semantic_sequence/exploring_nature_semantic/exploring_nature_semantic_0.png","null","",""
"","","","","","html-audio-response","58","1693795","0.0-56.0","44ED7AA909E34B8E9E2FFE6461E18F8D","44ED7AA909E34B8E9E2FFE6461E18F8D","43198963-8c08-42c7-9fca-24b8fd8caa13","e9cc2542-c7dc-4d8f-b94f-d088ad8989d1","{""part"":""2"",""participantId"":""44ED7AA909E34B8E9E2FFE6461E18F8D"",""assignmentId"":""43198963-8c08-42c7-9fca-24b8fd8caa13"",""projectId"":""e9cc2542-c7dc-4d8f-b94f-d088ad8989d1""}","https://test12345.live/?part=2&participantId=44ED7AA909E34B8E9E2FFE6461E18F8D&assignmentId=43198963-8c08-42c7-9fca-24b8fd8caa13&projectId=e9cc2542-c7dc-4d8f-b94f-d088ad8989d1","44ED7AA909E34B8E9E2FFE6461E18F8D-2025-05-16-21-12-11","","27391","","[""<span style=\""color: red; font-size: 24px\""> NOW RECORDING</span><p>Please say out loud all the images you saw in part 1 of the experiment, as many as you can remember. The images can be said in any order.</p>""]","","1","exploring_nature_semantic"
"","","","","","survey-text","59","1703940","0.0-57.0","44ED7AA909E34B8E9E2FFE6461E18F8D","44ED7AA909E34B8E9E2FFE6461E18F8D","43198963-8c08-42c7-9fca-24b8fd8caa13","e9cc2542-c7dc-4d8f-b94f-d088ad8989d1","{""part"":""2"",""participantId"":""44ED7AA909E34B8E9E2FFE6461E18F8D"",""assignmentId"":""43198963-8c08-42c7-9fca-24b8fd8caa13"",""projectId"":""e9cc2542-c7dc-4d8f-b94f-d088ad8989d1""}","https://test12345.live/?part=2&participantId=44ED7AA909E34B8E9E2FFE6461E18F8D&assignmentId=43198963-8c08-42c7-9fca-24b8fd8caa13&projectId=e9cc2542-c7dc-4d8f-b94f-d088ad8989d1","44ED7AA909E34B8E9E2FFE6461E18F8D-2025-05-16-21-12-11","","10136","","","{""Q0"":""MALE"",""Q1"":""32""}","",""
"","","","","","instructions","60","1710319","0.0-58.0","44ED7AA909E34B8E9E2FFE6461E18F8D","44ED7AA909E34B8E9E2FFE6461E18F8D","43198963-8c08-42c7-9fca-24b8fd8caa13","e9cc2542-c7dc-4d8f-b94f-d088ad8989d1","{""part"":""2"",""participantId"":""44ED7AA909E34B8E9E2FFE6461E18F8D"",""assignmentId"":""43198963-8c08-42c7-9fca-24b8fd8caa13"",""projectId"":""e9cc2542-c7dc-4d8f-b94f-d088ad8989d1""}","https://test12345.live/?part=2&participantId=44ED7AA909E34B8E9E2FFE6461E18F8D&assignmentId=43198963-8c08-42c7-9fca-24b8fd8caa13&projectId=e9cc2542-c7dc-4d8f-b94f-d088ad8989d1","44ED7AA909E34B8E9E2FFE6461E18F8D-2025-05-16-21-12-11","[{""page_index"":0,""viewing_time"":6378}]","6378","","","","",""
"","","","","","survey-text","61","1716556","0.0-59.0","44ED7AA909E34B8E9E2FFE6461E18F8D","44ED7AA909E34B8E9E2FFE6461E18F8D","43198963-8c08-42c7-9fca-24b8fd8caa13","e9cc2542-c7dc-4d8f-b94f-d088ad8989d1","{""part"":""2"",""participantId"":""44ED7AA909E34B8E9E2FFE6461E18F8D"",""assignmentId"":""43198963-8c08-42c7-9fca-24b8fd8caa13"",""projectId"":""e9cc2542-c7dc-4d8f-b94f-d088ad8989d1""}","https://test12345.live/?part=2&participantId=44ED7AA909E34B8E9E2FFE6461E18F8D&assignmentId=43198963-8c08-42c7-9fca-24b8fd8caa13&projectId=e9cc2542-c7dc-4d8f-b94f-d088ad8989d1","44ED7AA909E34B8E9E2FFE6461E18F8D-2025-05-16-21-12-11","","6235","","","{""Q0"":""AJFHBG896""}","",""
