"success","timeout","failed_images","failed_audio","failed_video","trial_type","trial_index","time_elapsed","internal_node_id","subject","subject_id","study_id","session_id","urlvar","current_url","audio_id","view_history","rt","device_id","stimulus","response","estimated_stimulus_onset","seq_name"
"true","false","[]","[]","[]","preload","0","10421","0.0-0.0","45C186EE4B68442DA775A15CF9D6E6BF","45C186EE4B68442DA775A15CF9D6E6BF","0198bfdb-7c88-711e-8bbc-c4d81d3f4823","0198beef-981a-7243-9790-051e10551090","{""num_scrambled_semantic"":""8"",""num_scrambled_causal"":""4"",""num_scrambled_schematic"":""4"",""participantId"":""45C186EE4B68442DA775A15CF9D6E6BF"",""assignmentId"":""0198bfdb-7c88-711e-8bbc-c4d81d3f4823"",""projectId"":""0198beef-981a-7243-9790-051e10551090""}","https://test12345.live/?num_scrambled_semantic=8&num_scrambled_causal=4&num_scrambled_schematic=4&participantId=45C186EE4B68442DA775A15CF9D6E6BF&assignmentId=0198bfdb-7c88-711e-8bbc-c4d81d3f4823&projectId=0198beef-981a-7243-9790-051e10551090","45C186EE4B68442DA775A15CF9D6E6BF-2025-08-19-01-26-47","","","","","","",""
"","","","","","instructions","1","465338","0.0-1.0","45C186EE4B68442DA775A15CF9D6E6BF","45C186EE4B68442DA775A15CF9D6E6BF","0198bfdb-7c88-711e-8bbc-c4d81d3f4823","0198beef-981a-7243-9790-051e10551090","{""num_scrambled_semantic"":""8"",""num_scrambled_causal"":""4"",""num_scrambled_schematic"":""4"",""participantId"":""45C186EE4B68442DA775A15CF9D6E6BF"",""assignmentId"":""0198bfdb-7c88-711e-8bbc-c4d81d3f4823"",""projectId"":""0198beef-981a-7243-9790-051e10551090""}","https://test12345.live/?num_scrambled_semantic=8&num_scrambled_causal=4&num_scrambled_schematic=4&participantId=45C186EE4B68442DA775A15CF9D6E6BF&assignmentId=0198bfdb-7c88-711e-8bbc-c4d81d3f4823&projectId=0198beef-981a-7243-9790-051e10551090","45C186EE4B68442DA775A15CF9D6E6BF-2025-08-19-01-26-47","[{""page_index"":0,""viewing_time"":454916}]","454916","","","","",""
"","","","","","instructions","2","741766","0.0-2.0","45C186EE4B68442DA775A15CF9D6E6BF","45C186EE4B68442DA775A15CF9D6E6BF","0198bfdb-7c88-711e-8bbc-c4d81d3f4823","0198beef-981a-7243-9790-051e10551090","{""num_scrambled_semantic"":""8"",""num_scrambled_causal"":""4"",""num_scrambled_schematic"":""4"",""participantId"":""45C186EE4B68442DA775A15CF9D6E6BF"",""assignmentId"":""0198bfdb-7c88-711e-8bbc-c4d81d3f4823"",""projectId"":""0198beef-981a-7243-9790-051e10551090""}","https://test12345.live/?num_scrambled_semantic=8&num_scrambled_causal=4&num_scrambled_schematic=4&participantId=45C186EE4B68442DA775A15CF9D6E6BF&assignmentId=0198bfdb-7c88-711e-8bbc-c4d81d3f4823&projectId=0198beef-981a-7243-9790-051e10551090","45C186EE4B68442DA775A15CF9D6E6BF-2025-08-19-01-26-47","[{""page_index"":0,""viewing_time"":276427}]","276428","","","","",""
"true","","","","","fullscreen","3","744050","0.0-3.0","45C186EE4B68442DA775A15CF9D6E6BF","45C186EE4B68442DA775A15CF9D6E6BF","0198bfdb-7c88-711e-8bbc-c4d81d3f4823","0198beef-981a-7243-9790-051e10551090","{""num_scrambled_semantic"":""8"",""num_scrambled_causal"":""4"",""num_scrambled_schematic"":""4"",""participantId"":""45C186EE4B68442DA775A15CF9D6E6BF"",""assignmentId"":""0198bfdb-7c88-711e-8bbc-c4d81d3f4823"",""projectId"":""0198beef-981a-7243-9790-051e10551090""}","https://test12345.live/?num_scrambled_semantic=8&num_scrambled_causal=4&num_scrambled_schematic=4&participantId=45C186EE4B68442DA775A15CF9D6E6BF&assignmentId=0198bfdb-7c88-711e-8bbc-c4d81d3f4823&projectId=0198beef-981a-7243-9790-051e10551090","45C186EE4B68442DA775A15CF9D6E6BF-2025-08-19-01-26-47","","1282","","","","",""
"","","","","","initialize-microphone","4","751730","0.0-4.0-0.0","45C186EE4B68442DA775A15CF9D6E6BF","45C186EE4B68442DA775A15CF9D6E6BF","0198bfdb-7c88-711e-8bbc-c4d81d3f4823","0198beef-981a-7243-9790-051e10551090","{""num_scrambled_semantic"":""8"",""num_scrambled_causal"":""4"",""num_scrambled_schematic"":""4"",""participantId"":""45C186EE4B68442DA775A15CF9D6E6BF"",""assignmentId"":""0198bfdb-7c88-711e-8bbc-c4d81d3f4823"",""projectId"":""0198beef-981a-7243-9790-051e10551090""}","https://test12345.live/?num_scrambled_semantic=8&num_scrambled_causal=4&num_scrambled_schematic=4&participantId=45C186EE4B68442DA775A15CF9D6E6BF&assignmentId=0198bfdb-7c88-711e-8bbc-c4d81d3f4823&projectId=0198beef-981a-7243-9790-051e10551090","45C186EE4B68442DA775A15CF9D6E6BF-2025-08-19-01-26-47","","","dcf9f950fdd688a0070bae6f28838a599c882be653956fe3db6f6b82a176fc90","","","",""
"","","","","","html-audio-response","5","848525","0.0-4.0-1.0","45C186EE4B68442DA775A15CF9D6E6BF","45C186EE4B68442DA775A15CF9D6E6BF","0198bfdb-7c88-711e-8bbc-c4d81d3f4823","0198beef-981a-7243-9790-051e10551090","{""num_scrambled_semantic"":""8"",""num_scrambled_causal"":""4"",""num_scrambled_schematic"":""4"",""participantId"":""45C186EE4B68442DA775A15CF9D6E6BF"",""assignmentId"":""0198bfdb-7c88-711e-8bbc-c4d81d3f4823"",""projectId"":""0198beef-981a-7243-9790-051e10551090""}","https://test12345.live/?num_scrambled_semantic=8&num_scrambled_causal=4&num_scrambled_schematic=4&participantId=45C186EE4B68442DA775A15CF9D6E6BF&assignmentId=0198bfdb-7c88-711e-8bbc-c4d81d3f4823&projectId=0198beef-981a-7243-9790-051e10551090","45C186EE4B68442DA775A15CF9D6E6BF-2025-08-19-01-26-47","","5830","","<span style=""color: red; font-size: 24px""> NOW RECORDING</span>
        <p>Please test Microphone</p>","","12",""
"","","","","","html-button-response","6","852047","0.0-4.0-2.0","45C186EE4B68442DA775A15CF9D6E6BF","45C186EE4B68442DA775A15CF9D6E6BF","0198bfdb-7c88-711e-8bbc-c4d81d3f4823","0198beef-981a-7243-9790-051e10551090","{""num_scrambled_semantic"":""8"",""num_scrambled_causal"":""4"",""num_scrambled_schematic"":""4"",""participantId"":""45C186EE4B68442DA775A15CF9D6E6BF"",""assignmentId"":""0198bfdb-7c88-711e-8bbc-c4d81d3f4823"",""projectId"":""0198beef-981a-7243-9790-051e10551090""}","https://test12345.live/?num_scrambled_semantic=8&num_scrambled_causal=4&num_scrambled_schematic=4&participantId=45C186EE4B68442DA775A15CF9D6E6BF&assignmentId=0198bfdb-7c88-711e-8bbc-c4d81d3f4823&projectId=0198beef-981a-7243-9790-051e10551090","45C186EE4B68442DA775A15CF9D6E6BF-2025-08-19-01-26-47","","3521","","<p style=""font-size:48px; color:red;"">Is Microphone OK?</p>","1","",""
"","","","","","instructions","7","874856","0.0-5.0","45C186EE4B68442DA775A15CF9D6E6BF","45C186EE4B68442DA775A15CF9D6E6BF","0198bfdb-7c88-711e-8bbc-c4d81d3f4823","0198beef-981a-7243-9790-051e10551090","{""num_scrambled_semantic"":""8"",""num_scrambled_causal"":""4"",""num_scrambled_schematic"":""4"",""participantId"":""45C186EE4B68442DA775A15CF9D6E6BF"",""assignmentId"":""0198bfdb-7c88-711e-8bbc-c4d81d3f4823"",""projectId"":""0198beef-981a-7243-9790-051e10551090""}","https://test12345.live/?num_scrambled_semantic=8&num_scrambled_causal=4&num_scrambled_schematic=4&participantId=45C186EE4B68442DA775A15CF9D6E6BF&assignmentId=0198bfdb-7c88-711e-8bbc-c4d81d3f4823&projectId=0198beef-981a-7243-9790-051e10551090","45C186EE4B68442DA775A15CF9D6E6BF-2025-08-19-01-26-47","[{""page_index"":0,""viewing_time"":1088},{""page_index"":1,""viewing_time"":5350},{""page_index"":2,""viewing_time"":16371}]","22809","","","","",""
"","","","","","image-button-response","8","880858","0.0-6.0-0.0","45C186EE4B68442DA775A15CF9D6E6BF","45C186EE4B68442DA775A15CF9D6E6BF","0198bfdb-7c88-711e-8bbc-c4d81d3f4823","0198beef-981a-7243-9790-051e10551090","{""num_scrambled_semantic"":""8"",""num_scrambled_causal"":""4"",""num_scrambled_schematic"":""4"",""participantId"":""45C186EE4B68442DA775A15CF9D6E6BF"",""assignmentId"":""0198bfdb-7c88-711e-8bbc-c4d81d3f4823"",""projectId"":""0198beef-981a-7243-9790-051e10551090""}","https://test12345.live/?num_scrambled_semantic=8&num_scrambled_causal=4&num_scrambled_schematic=4&participantId=45C186EE4B68442DA775A15CF9D6E6BF&assignmentId=0198bfdb-7c88-711e-8bbc-c4d81d3f4823&projectId=0198beef-981a-7243-9790-051e10551090","45C186EE4B68442DA775A15CF9D6E6BF-2025-08-19-01-26-47","","null","","images/instructions/movie_0.png","null","",""
"","","","","","html-audio-response","9","917070","0.0-7.0","45C186EE4B68442DA775A15CF9D6E6BF","45C186EE4B68442DA775A15CF9D6E6BF","0198bfdb-7c88-711e-8bbc-c4d81d3f4823","0198beef-981a-7243-9790-051e10551090","{""num_scrambled_semantic"":""8"",""num_scrambled_causal"":""4"",""num_scrambled_schematic"":""4"",""participantId"":""45C186EE4B68442DA775A15CF9D6E6BF"",""assignmentId"":""0198bfdb-7c88-711e-8bbc-c4d81d3f4823"",""projectId"":""0198beef-981a-7243-9790-051e10551090""}","https://test12345.live/?num_scrambled_semantic=8&num_scrambled_causal=4&num_scrambled_schematic=4&participantId=45C186EE4B68442DA775A15CF9D6E6BF&assignmentId=0198bfdb-7c88-711e-8bbc-c4d81d3f4823&projectId=0198beef-981a-7243-9790-051e10551090","45C186EE4B68442DA775A15CF9D6E6BF-2025-08-19-01-26-47","","34365","","[""<span style=\""color: red; font-size: 24px\""> NOW RECORDING</span><p>Please say out loud all the images you saw in part 1 of the experiment, as many as you can remember. The images can be said in any order.</p>""]","","5",""
"","","","","","instructions","10","918758","0.0-8.0","45C186EE4B68442DA775A15CF9D6E6BF","45C186EE4B68442DA775A15CF9D6E6BF","0198bfdb-7c88-711e-8bbc-c4d81d3f4823","0198beef-981a-7243-9790-051e10551090","{""num_scrambled_semantic"":""8"",""num_scrambled_causal"":""4"",""num_scrambled_schematic"":""4"",""participantId"":""45C186EE4B68442DA775A15CF9D6E6BF"",""assignmentId"":""0198bfdb-7c88-711e-8bbc-c4d81d3f4823"",""projectId"":""0198beef-981a-7243-9790-051e10551090""}","https://test12345.live/?num_scrambled_semantic=8&num_scrambled_causal=4&num_scrambled_schematic=4&participantId=45C186EE4B68442DA775A15CF9D6E6BF&assignmentId=0198bfdb-7c88-711e-8bbc-c4d81d3f4823&projectId=0198beef-981a-7243-9790-051e10551090","45C186EE4B68442DA775A15CF9D6E6BF-2025-08-19-01-26-47","[{""page_index"":0,""viewing_time"":1682}]","1682","","","","",""
"","","","","","image-button-response","11","924759","0.0-9.0-0.0","45C186EE4B68442DA775A15CF9D6E6BF","45C186EE4B68442DA775A15CF9D6E6BF","0198bfdb-7c88-711e-8bbc-c4d81d3f4823","0198beef-981a-7243-9790-051e10551090","{""num_scrambled_semantic"":""8"",""num_scrambled_causal"":""4"",""num_scrambled_schematic"":""4"",""participantId"":""45C186EE4B68442DA775A15CF9D6E6BF"",""assignmentId"":""0198bfdb-7c88-711e-8bbc-c4d81d3f4823"",""projectId"":""0198beef-981a-7243-9790-051e10551090""}","https://test12345.live/?num_scrambled_semantic=8&num_scrambled_causal=4&num_scrambled_schematic=4&participantId=45C186EE4B68442DA775A15CF9D6E6BF&assignmentId=0198bfdb-7c88-711e-8bbc-c4d81d3f4823&projectId=0198beef-981a-7243-9790-051e10551090","45C186EE4B68442DA775A15CF9D6E6BF-2025-08-19-01-26-47","","null","","images/semantic_sequence/using_technology_semantic/using_technology_semantic_0.png","null","",""
"","","","","","html-audio-response","12","941546","0.0-10.0","45C186EE4B68442DA775A15CF9D6E6BF","45C186EE4B68442DA775A15CF9D6E6BF","0198bfdb-7c88-711e-8bbc-c4d81d3f4823","0198beef-981a-7243-9790-051e10551090","{""num_scrambled_semantic"":""8"",""num_scrambled_causal"":""4"",""num_scrambled_schematic"":""4"",""participantId"":""45C186EE4B68442DA775A15CF9D6E6BF"",""assignmentId"":""0198bfdb-7c88-711e-8bbc-c4d81d3f4823"",""projectId"":""0198beef-981a-7243-9790-051e10551090""}","https://test12345.live/?num_scrambled_semantic=8&num_scrambled_causal=4&num_scrambled_schematic=4&participantId=45C186EE4B68442DA775A15CF9D6E6BF&assignmentId=0198bfdb-7c88-711e-8bbc-c4d81d3f4823&projectId=0198beef-981a-7243-9790-051e10551090","45C186EE4B68442DA775A15CF9D6E6BF-2025-08-19-01-26-47","","16075","","[""<span style=\""color: red; font-size: 24px\""> NOW RECORDING</span><p>Please say out loud all the images you saw in part 1 of the experiment, as many as you can remember. The images can be said in any order.</p>""]","","1","using_technology_semantic"
"","","","","","image-button-response","13","947556","0.0-11.0-0.0","45C186EE4B68442DA775A15CF9D6E6BF","45C186EE4B68442DA775A15CF9D6E6BF","0198bfdb-7c88-711e-8bbc-c4d81d3f4823","0198beef-981a-7243-9790-051e10551090","{""num_scrambled_semantic"":""8"",""num_scrambled_causal"":""4"",""num_scrambled_schematic"":""4"",""participantId"":""45C186EE4B68442DA775A15CF9D6E6BF"",""assignmentId"":""0198bfdb-7c88-711e-8bbc-c4d81d3f4823"",""projectId"":""0198beef-981a-7243-9790-051e10551090""}","https://test12345.live/?num_scrambled_semantic=8&num_scrambled_causal=4&num_scrambled_schematic=4&participantId=45C186EE4B68442DA775A15CF9D6E6BF&assignmentId=0198bfdb-7c88-711e-8bbc-c4d81d3f4823&projectId=0198beef-981a-7243-9790-051e10551090","45C186EE4B68442DA775A15CF9D6E6BF-2025-08-19-01-26-47","","null","","images/semantic_sequence/maintaining_a_car_semantic/maintaining_a_car_semantic_0.png","null","",""
"","","","","","html-audio-response","14","966041","0.0-12.0","45C186EE4B68442DA775A15CF9D6E6BF","45C186EE4B68442DA775A15CF9D6E6BF","0198bfdb-7c88-711e-8bbc-c4d81d3f4823","0198beef-981a-7243-9790-051e10551090","{""num_scrambled_semantic"":""8"",""num_scrambled_causal"":""4"",""num_scrambled_schematic"":""4"",""participantId"":""45C186EE4B68442DA775A15CF9D6E6BF"",""assignmentId"":""0198bfdb-7c88-711e-8bbc-c4d81d3f4823"",""projectId"":""0198beef-981a-7243-9790-051e10551090""}","https://test12345.live/?num_scrambled_semantic=8&num_scrambled_causal=4&num_scrambled_schematic=4&participantId=45C186EE4B68442DA775A15CF9D6E6BF&assignmentId=0198bfdb-7c88-711e-8bbc-c4d81d3f4823&projectId=0198beef-981a-7243-9790-051e10551090","45C186EE4B68442DA775A15CF9D6E6BF-2025-08-19-01-26-47","","17749","","[""<span style=\""color: red; font-size: 24px\""> NOW RECORDING</span><p>Please say out loud all the images you saw in part 1 of the experiment, as many as you can remember. The images can be said in any order.</p>""]","","1","maintaining_a_car_semantic"
"","","","","","image-button-response","15","972045","0.0-13.0-0.0","45C186EE4B68442DA775A15CF9D6E6BF","45C186EE4B68442DA775A15CF9D6E6BF","0198bfdb-7c88-711e-8bbc-c4d81d3f4823","0198beef-981a-7243-9790-051e10551090","{""num_scrambled_semantic"":""8"",""num_scrambled_causal"":""4"",""num_scrambled_schematic"":""4"",""participantId"":""45C186EE4B68442DA775A15CF9D6E6BF"",""assignmentId"":""0198bfdb-7c88-711e-8bbc-c4d81d3f4823"",""projectId"":""0198beef-981a-7243-9790-051e10551090""}","https://test12345.live/?num_scrambled_semantic=8&num_scrambled_causal=4&num_scrambled_schematic=4&participantId=45C186EE4B68442DA775A15CF9D6E6BF&assignmentId=0198bfdb-7c88-711e-8bbc-c4d81d3f4823&projectId=0198beef-981a-7243-9790-051e10551090","45C186EE4B68442DA775A15CF9D6E6BF-2025-08-19-01-26-47","","null","","images/semantic_sequence/housework_semantic/housework_semantic_0.png","null","",""
"","","","","","html-audio-response","16","997071","0.0-14.0","45C186EE4B68442DA775A15CF9D6E6BF","45C186EE4B68442DA775A15CF9D6E6BF","0198bfdb-7c88-711e-8bbc-c4d81d3f4823","0198beef-981a-7243-9790-051e10551090","{""num_scrambled_semantic"":""8"",""num_scrambled_causal"":""4"",""num_scrambled_schematic"":""4"",""participantId"":""45C186EE4B68442DA775A15CF9D6E6BF"",""assignmentId"":""0198bfdb-7c88-711e-8bbc-c4d81d3f4823"",""projectId"":""0198beef-981a-7243-9790-051e10551090""}","https://test12345.live/?num_scrambled_semantic=8&num_scrambled_causal=4&num_scrambled_schematic=4&participantId=45C186EE4B68442DA775A15CF9D6E6BF&assignmentId=0198bfdb-7c88-711e-8bbc-c4d81d3f4823&projectId=0198beef-981a-7243-9790-051e10551090","45C186EE4B68442DA775A15CF9D6E6BF-2025-08-19-01-26-47","","24252","","[""<span style=\""color: red; font-size: 24px\""> NOW RECORDING</span><p>Please say out loud all the images you saw in part 1 of the experiment, as many as you can remember. The images can be said in any order.</p>""]","","11","housework_semantic"
"","","","","","image-button-response","17","1003076","0.0-15.0-0.0","45C186EE4B68442DA775A15CF9D6E6BF","45C186EE4B68442DA775A15CF9D6E6BF","0198bfdb-7c88-711e-8bbc-c4d81d3f4823","0198beef-981a-7243-9790-051e10551090","{""num_scrambled_semantic"":""8"",""num_scrambled_causal"":""4"",""num_scrambled_schematic"":""4"",""participantId"":""45C186EE4B68442DA775A15CF9D6E6BF"",""assignmentId"":""0198bfdb-7c88-711e-8bbc-c4d81d3f4823"",""projectId"":""0198beef-981a-7243-9790-051e10551090""}","https://test12345.live/?num_scrambled_semantic=8&num_scrambled_causal=4&num_scrambled_schematic=4&participantId=45C186EE4B68442DA775A15CF9D6E6BF&assignmentId=0198bfdb-7c88-711e-8bbc-c4d81d3f4823&projectId=0198beef-981a-7243-9790-051e10551090","45C186EE4B68442DA775A15CF9D6E6BF-2025-08-19-01-26-47","","null","","images/semantic_sequence/physical_activity_semantic/physical_activity_semantic_0.png","null","",""
"","","","","","html-audio-response","18","1035324","0.0-16.0","45C186EE4B68442DA775A15CF9D6E6BF","45C186EE4B68442DA775A15CF9D6E6BF","0198bfdb-7c88-711e-8bbc-c4d81d3f4823","0198beef-981a-7243-9790-051e10551090","{""num_scrambled_semantic"":""8"",""num_scrambled_causal"":""4"",""num_scrambled_schematic"":""4"",""participantId"":""45C186EE4B68442DA775A15CF9D6E6BF"",""assignmentId"":""0198bfdb-7c88-711e-8bbc-c4d81d3f4823"",""projectId"":""0198beef-981a-7243-9790-051e10551090""}","https://test12345.live/?num_scrambled_semantic=8&num_scrambled_causal=4&num_scrambled_schematic=4&participantId=45C186EE4B68442DA775A15CF9D6E6BF&assignmentId=0198bfdb-7c88-711e-8bbc-c4d81d3f4823&projectId=0198beef-981a-7243-9790-051e10551090","45C186EE4B68442DA775A15CF9D6E6BF-2025-08-19-01-26-47","","31465","","[""<span style=\""color: red; font-size: 24px\""> NOW RECORDING</span><p>Please say out loud all the images you saw in part 1 of the experiment, as many as you can remember. The images can be said in any order.</p>""]","","6","physical_activity_semantic"
"","","","","","image-button-response","19","1041330","0.0-17.0-0.0","45C186EE4B68442DA775A15CF9D6E6BF","45C186EE4B68442DA775A15CF9D6E6BF","0198bfdb-7c88-711e-8bbc-c4d81d3f4823","0198beef-981a-7243-9790-051e10551090","{""num_scrambled_semantic"":""8"",""num_scrambled_causal"":""4"",""num_scrambled_schematic"":""4"",""participantId"":""45C186EE4B68442DA775A15CF9D6E6BF"",""assignmentId"":""0198bfdb-7c88-711e-8bbc-c4d81d3f4823"",""projectId"":""0198beef-981a-7243-9790-051e10551090""}","https://test12345.live/?num_scrambled_semantic=8&num_scrambled_causal=4&num_scrambled_schematic=4&participantId=45C186EE4B68442DA775A15CF9D6E6BF&assignmentId=0198bfdb-7c88-711e-8bbc-c4d81d3f4823&projectId=0198beef-981a-7243-9790-051e10551090","45C186EE4B68442DA775A15CF9D6E6BF-2025-08-19-01-26-47","","null","","images/causal_sequence/saving_a_cat_causal/saving_a_cat_causal_0.png","null","",""
"","","","","","html-audio-response","20","1067565","0.0-18.0","45C186EE4B68442DA775A15CF9D6E6BF","45C186EE4B68442DA775A15CF9D6E6BF","0198bfdb-7c88-711e-8bbc-c4d81d3f4823","0198beef-981a-7243-9790-051e10551090","{""num_scrambled_semantic"":""8"",""num_scrambled_causal"":""4"",""num_scrambled_schematic"":""4"",""participantId"":""45C186EE4B68442DA775A15CF9D6E6BF"",""assignmentId"":""0198bfdb-7c88-711e-8bbc-c4d81d3f4823"",""projectId"":""0198beef-981a-7243-9790-051e10551090""}","https://test12345.live/?num_scrambled_semantic=8&num_scrambled_causal=4&num_scrambled_schematic=4&participantId=45C186EE4B68442DA775A15CF9D6E6BF&assignmentId=0198bfdb-7c88-711e-8bbc-c4d81d3f4823&projectId=0198beef-981a-7243-9790-051e10551090","45C186EE4B68442DA775A15CF9D6E6BF-2025-08-19-01-26-47","","25297","","[""<span style=\""color: red; font-size: 24px\""> NOW RECORDING</span><p>Please say out loud all the images you saw in part 1 of the experiment, as many as you can remember. The images can be said in any order.</p>""]","","8","saving_a_cat_causal"
"","","","","","image-button-response","21","1073571","0.0-19.0-0.0","45C186EE4B68442DA775A15CF9D6E6BF","45C186EE4B68442DA775A15CF9D6E6BF","0198bfdb-7c88-711e-8bbc-c4d81d3f4823","0198beef-981a-7243-9790-051e10551090","{""num_scrambled_semantic"":""8"",""num_scrambled_causal"":""4"",""num_scrambled_schematic"":""4"",""participantId"":""45C186EE4B68442DA775A15CF9D6E6BF"",""assignmentId"":""0198bfdb-7c88-711e-8bbc-c4d81d3f4823"",""projectId"":""0198beef-981a-7243-9790-051e10551090""}","https://test12345.live/?num_scrambled_semantic=8&num_scrambled_causal=4&num_scrambled_schematic=4&participantId=45C186EE4B68442DA775A15CF9D6E6BF&assignmentId=0198bfdb-7c88-711e-8bbc-c4d81d3f4823&projectId=0198beef-981a-7243-9790-051e10551090","45C186EE4B68442DA775A15CF9D6E6BF-2025-08-19-01-26-47","","null","","images/causal_sequence/coin_causal/coin_causal_0.png","null","",""
"","","","","","html-audio-response","22","1097587","0.0-20.0","45C186EE4B68442DA775A15CF9D6E6BF","45C186EE4B68442DA775A15CF9D6E6BF","0198bfdb-7c88-711e-8bbc-c4d81d3f4823","0198beef-981a-7243-9790-051e10551090","{""num_scrambled_semantic"":""8"",""num_scrambled_causal"":""4"",""num_scrambled_schematic"":""4"",""participantId"":""45C186EE4B68442DA775A15CF9D6E6BF"",""assignmentId"":""0198bfdb-7c88-711e-8bbc-c4d81d3f4823"",""projectId"":""0198beef-981a-7243-9790-051e10551090""}","https://test12345.live/?num_scrambled_semantic=8&num_scrambled_causal=4&num_scrambled_schematic=4&participantId=45C186EE4B68442DA775A15CF9D6E6BF&assignmentId=0198bfdb-7c88-711e-8bbc-c4d81d3f4823&projectId=0198beef-981a-7243-9790-051e10551090","45C186EE4B68442DA775A15CF9D6E6BF-2025-08-19-01-26-47","","23003","","[""<span style=\""color: red; font-size: 24px\""> NOW RECORDING</span><p>Please say out loud all the images you saw in part 1 of the experiment, as many as you can remember. The images can be said in any order.</p>""]","","14","coin_causal"
"","","","","","image-button-response","23","1103593","0.0-21.0-0.0","45C186EE4B68442DA775A15CF9D6E6BF","45C186EE4B68442DA775A15CF9D6E6BF","0198bfdb-7c88-711e-8bbc-c4d81d3f4823","0198beef-981a-7243-9790-051e10551090","{""num_scrambled_semantic"":""8"",""num_scrambled_causal"":""4"",""num_scrambled_schematic"":""4"",""participantId"":""45C186EE4B68442DA775A15CF9D6E6BF"",""assignmentId"":""0198bfdb-7c88-711e-8bbc-c4d81d3f4823"",""projectId"":""0198beef-981a-7243-9790-051e10551090""}","https://test12345.live/?num_scrambled_semantic=8&num_scrambled_causal=4&num_scrambled_schematic=4&participantId=45C186EE4B68442DA775A15CF9D6E6BF&assignmentId=0198bfdb-7c88-711e-8bbc-c4d81d3f4823&projectId=0198beef-981a-7243-9790-051e10551090","45C186EE4B68442DA775A15CF9D6E6BF-2025-08-19-01-26-47","","null","","images/causal_sequence/package_causal/package_causal_0.png","null","",""
"","","","","","html-audio-response","24","1119067","0.0-22.0","45C186EE4B68442DA775A15CF9D6E6BF","45C186EE4B68442DA775A15CF9D6E6BF","0198bfdb-7c88-711e-8bbc-c4d81d3f4823","0198beef-981a-7243-9790-051e10551090","{""num_scrambled_semantic"":""8"",""num_scrambled_causal"":""4"",""num_scrambled_schematic"":""4"",""participantId"":""45C186EE4B68442DA775A15CF9D6E6BF"",""assignmentId"":""0198bfdb-7c88-711e-8bbc-c4d81d3f4823"",""projectId"":""0198beef-981a-7243-9790-051e10551090""}","https://test12345.live/?num_scrambled_semantic=8&num_scrambled_causal=4&num_scrambled_schematic=4&participantId=45C186EE4B68442DA775A15CF9D6E6BF&assignmentId=0198bfdb-7c88-711e-8bbc-c4d81d3f4823&projectId=0198beef-981a-7243-9790-051e10551090","45C186EE4B68442DA775A15CF9D6E6BF-2025-08-19-01-26-47","","14694","","[""<span style=\""color: red; font-size: 24px\""> NOW RECORDING</span><p>Please say out loud all the images you saw in part 1 of the experiment, as many as you can remember. The images can be said in any order.</p>""]","","1","package_causal"
"","","","","","image-button-response","25","1125071","0.0-23.0-0.0","45C186EE4B68442DA775A15CF9D6E6BF","45C186EE4B68442DA775A15CF9D6E6BF","0198bfdb-7c88-711e-8bbc-c4d81d3f4823","0198beef-981a-7243-9790-051e10551090","{""num_scrambled_semantic"":""8"",""num_scrambled_causal"":""4"",""num_scrambled_schematic"":""4"",""participantId"":""45C186EE4B68442DA775A15CF9D6E6BF"",""assignmentId"":""0198bfdb-7c88-711e-8bbc-c4d81d3f4823"",""projectId"":""0198beef-981a-7243-9790-051e10551090""}","https://test12345.live/?num_scrambled_semantic=8&num_scrambled_causal=4&num_scrambled_schematic=4&participantId=45C186EE4B68442DA775A15CF9D6E6BF&assignmentId=0198bfdb-7c88-711e-8bbc-c4d81d3f4823&projectId=0198beef-981a-7243-9790-051e10551090","45C186EE4B68442DA775A15CF9D6E6BF-2025-08-19-01-26-47","","null","","images/causal_sequence/dog_causal/dog_causal_0.png","null","",""
"","","","","","html-audio-response","26","1150502","0.0-24.0","45C186EE4B68442DA775A15CF9D6E6BF","45C186EE4B68442DA775A15CF9D6E6BF","0198bfdb-7c88-711e-8bbc-c4d81d3f4823","0198beef-981a-7243-9790-051e10551090","{""num_scrambled_semantic"":""8"",""num_scrambled_causal"":""4"",""num_scrambled_schematic"":""4"",""participantId"":""45C186EE4B68442DA775A15CF9D6E6BF"",""assignmentId"":""0198bfdb-7c88-711e-8bbc-c4d81d3f4823"",""projectId"":""0198beef-981a-7243-9790-051e10551090""}","https://test12345.live/?num_scrambled_semantic=8&num_scrambled_causal=4&num_scrambled_schematic=4&participantId=45C186EE4B68442DA775A15CF9D6E6BF&assignmentId=0198bfdb-7c88-711e-8bbc-c4d81d3f4823&projectId=0198beef-981a-7243-9790-051e10551090","45C186EE4B68442DA775A15CF9D6E6BF-2025-08-19-01-26-47","","24781","","[""<span style=\""color: red; font-size: 24px\""> NOW RECORDING</span><p>Please say out loud all the images you saw in part 1 of the experiment, as many as you can remember. The images can be said in any order.</p>""]","","1","dog_causal"
"","","","","","image-button-response","27","1156508","0.0-25.0-0.0","45C186EE4B68442DA775A15CF9D6E6BF","45C186EE4B68442DA775A15CF9D6E6BF","0198bfdb-7c88-711e-8bbc-c4d81d3f4823","0198beef-981a-7243-9790-051e10551090","{""num_scrambled_semantic"":""8"",""num_scrambled_causal"":""4"",""num_scrambled_schematic"":""4"",""participantId"":""45C186EE4B68442DA775A15CF9D6E6BF"",""assignmentId"":""0198bfdb-7c88-711e-8bbc-c4d81d3f4823"",""projectId"":""0198beef-981a-7243-9790-051e10551090""}","https://test12345.live/?num_scrambled_semantic=8&num_scrambled_causal=4&num_scrambled_schematic=4&participantId=45C186EE4B68442DA775A15CF9D6E6BF&assignmentId=0198bfdb-7c88-711e-8bbc-c4d81d3f4823&projectId=0198beef-981a-7243-9790-051e10551090","45C186EE4B68442DA775A15CF9D6E6BF-2025-08-19-01-26-47","","null","","images/causal_sequence/the_performance_causal/the_performance_causal_0.png","null","",""
"","","","","","html-audio-response","28","1181850","0.0-26.0","45C186EE4B68442DA775A15CF9D6E6BF","45C186EE4B68442DA775A15CF9D6E6BF","0198bfdb-7c88-711e-8bbc-c4d81d3f4823","0198beef-981a-7243-9790-051e10551090","{""num_scrambled_semantic"":""8"",""num_scrambled_causal"":""4"",""num_scrambled_schematic"":""4"",""participantId"":""45C186EE4B68442DA775A15CF9D6E6BF"",""assignmentId"":""0198bfdb-7c88-711e-8bbc-c4d81d3f4823"",""projectId"":""0198beef-981a-7243-9790-051e10551090""}","https://test12345.live/?num_scrambled_semantic=8&num_scrambled_causal=4&num_scrambled_schematic=4&participantId=45C186EE4B68442DA775A15CF9D6E6BF&assignmentId=0198bfdb-7c88-711e-8bbc-c4d81d3f4823&projectId=0198beef-981a-7243-9790-051e10551090","45C186EE4B68442DA775A15CF9D6E6BF-2025-08-19-01-26-47","","24558","","[""<span style=\""color: red; font-size: 24px\""> NOW RECORDING</span><p>Please say out loud all the images you saw in part 1 of the experiment, as many as you can remember. The images can be said in any order.</p>""]","","8","the_performance_causal"
"","","","","","image-button-response","29","1187855","0.0-27.0-0.0","45C186EE4B68442DA775A15CF9D6E6BF","45C186EE4B68442DA775A15CF9D6E6BF","0198bfdb-7c88-711e-8bbc-c4d81d3f4823","0198beef-981a-7243-9790-051e10551090","{""num_scrambled_semantic"":""8"",""num_scrambled_causal"":""4"",""num_scrambled_schematic"":""4"",""participantId"":""45C186EE4B68442DA775A15CF9D6E6BF"",""assignmentId"":""0198bfdb-7c88-711e-8bbc-c4d81d3f4823"",""projectId"":""0198beef-981a-7243-9790-051e10551090""}","https://test12345.live/?num_scrambled_semantic=8&num_scrambled_causal=4&num_scrambled_schematic=4&participantId=45C186EE4B68442DA775A15CF9D6E6BF&assignmentId=0198bfdb-7c88-711e-8bbc-c4d81d3f4823&projectId=0198beef-981a-7243-9790-051e10551090","45C186EE4B68442DA775A15CF9D6E6BF-2025-08-19-01-26-47","","null","","images/causal_sequence/museum_causal/museum_causal_0.png","null","",""
"","","","","","html-audio-response","30","1216549","0.0-28.0","45C186EE4B68442DA775A15CF9D6E6BF","45C186EE4B68442DA775A15CF9D6E6BF","0198bfdb-7c88-711e-8bbc-c4d81d3f4823","0198beef-981a-7243-9790-051e10551090","{""num_scrambled_semantic"":""8"",""num_scrambled_causal"":""4"",""num_scrambled_schematic"":""4"",""participantId"":""45C186EE4B68442DA775A15CF9D6E6BF"",""assignmentId"":""0198bfdb-7c88-711e-8bbc-c4d81d3f4823"",""projectId"":""0198beef-981a-7243-9790-051e10551090""}","https://test12345.live/?num_scrambled_semantic=8&num_scrambled_causal=4&num_scrambled_schematic=4&participantId=45C186EE4B68442DA775A15CF9D6E6BF&assignmentId=0198bfdb-7c88-711e-8bbc-c4d81d3f4823&projectId=0198beef-981a-7243-9790-051e10551090","45C186EE4B68442DA775A15CF9D6E6BF-2025-08-19-01-26-47","","27780","","[""<span style=\""color: red; font-size: 24px\""> NOW RECORDING</span><p>Please say out loud all the images you saw in part 1 of the experiment, as many as you can remember. The images can be said in any order.</p>""]","","6","museum_causal"
"","","","","","image-button-response","31","1222564","0.0-29.0-0.0","45C186EE4B68442DA775A15CF9D6E6BF","45C186EE4B68442DA775A15CF9D6E6BF","0198bfdb-7c88-711e-8bbc-c4d81d3f4823","0198beef-981a-7243-9790-051e10551090","{""num_scrambled_semantic"":""8"",""num_scrambled_causal"":""4"",""num_scrambled_schematic"":""4"",""participantId"":""45C186EE4B68442DA775A15CF9D6E6BF"",""assignmentId"":""0198bfdb-7c88-711e-8bbc-c4d81d3f4823"",""projectId"":""0198beef-981a-7243-9790-051e10551090""}","https://test12345.live/?num_scrambled_semantic=8&num_scrambled_causal=4&num_scrambled_schematic=4&participantId=45C186EE4B68442DA775A15CF9D6E6BF&assignmentId=0198bfdb-7c88-711e-8bbc-c4d81d3f4823&projectId=0198beef-981a-7243-9790-051e10551090","45C186EE4B68442DA775A15CF9D6E6BF-2025-08-19-01-26-47","","null","","images/semantic_sequence/redecorating_semantic/redecorating_semantic_0.png","null","",""
"","","","","","html-audio-response","32","1250994","0.0-30.0","45C186EE4B68442DA775A15CF9D6E6BF","45C186EE4B68442DA775A15CF9D6E6BF","0198bfdb-7c88-711e-8bbc-c4d81d3f4823","0198beef-981a-7243-9790-051e10551090","{""num_scrambled_semantic"":""8"",""num_scrambled_causal"":""4"",""num_scrambled_schematic"":""4"",""participantId"":""45C186EE4B68442DA775A15CF9D6E6BF"",""assignmentId"":""0198bfdb-7c88-711e-8bbc-c4d81d3f4823"",""projectId"":""0198beef-981a-7243-9790-051e10551090""}","https://test12345.live/?num_scrambled_semantic=8&num_scrambled_causal=4&num_scrambled_schematic=4&participantId=45C186EE4B68442DA775A15CF9D6E6BF&assignmentId=0198bfdb-7c88-711e-8bbc-c4d81d3f4823&projectId=0198beef-981a-7243-9790-051e10551090","45C186EE4B68442DA775A15CF9D6E6BF-2025-08-19-01-26-47","","27695","","[""<span style=\""color: red; font-size: 24px\""> NOW RECORDING</span><p>Please say out loud all the images you saw in part 1 of the experiment, as many as you can remember. The images can be said in any order.</p>""]","","3","redecorating_semantic"
"","","","","","image-button-response","33","1257005","0.0-31.0-0.0","45C186EE4B68442DA775A15CF9D6E6BF","45C186EE4B68442DA775A15CF9D6E6BF","0198bfdb-7c88-711e-8bbc-c4d81d3f4823","0198beef-981a-7243-9790-051e10551090","{""num_scrambled_semantic"":""8"",""num_scrambled_causal"":""4"",""num_scrambled_schematic"":""4"",""participantId"":""45C186EE4B68442DA775A15CF9D6E6BF"",""assignmentId"":""0198bfdb-7c88-711e-8bbc-c4d81d3f4823"",""projectId"":""0198beef-981a-7243-9790-051e10551090""}","https://test12345.live/?num_scrambled_semantic=8&num_scrambled_causal=4&num_scrambled_schematic=4&participantId=45C186EE4B68442DA775A15CF9D6E6BF&assignmentId=0198bfdb-7c88-711e-8bbc-c4d81d3f4823&projectId=0198beef-981a-7243-9790-051e10551090","45C186EE4B68442DA775A15CF9D6E6BF-2025-08-19-01-26-47","","null","","images/semantic_sequence/cat_care_semantic/cat_care_semantic_0.png","null","",""
"","","","","","html-audio-response","34","1279735","0.0-32.0","45C186EE4B68442DA775A15CF9D6E6BF","45C186EE4B68442DA775A15CF9D6E6BF","0198bfdb-7c88-711e-8bbc-c4d81d3f4823","0198beef-981a-7243-9790-051e10551090","{""num_scrambled_semantic"":""8"",""num_scrambled_causal"":""4"",""num_scrambled_schematic"":""4"",""participantId"":""45C186EE4B68442DA775A15CF9D6E6BF"",""assignmentId"":""0198bfdb-7c88-711e-8bbc-c4d81d3f4823"",""projectId"":""0198beef-981a-7243-9790-051e10551090""}","https://test12345.live/?num_scrambled_semantic=8&num_scrambled_causal=4&num_scrambled_schematic=4&participantId=45C186EE4B68442DA775A15CF9D6E6BF&assignmentId=0198bfdb-7c88-711e-8bbc-c4d81d3f4823&projectId=0198beef-981a-7243-9790-051e10551090","45C186EE4B68442DA775A15CF9D6E6BF-2025-08-19-01-26-47","","21884","","[""<span style=\""color: red; font-size: 24px\""> NOW RECORDING</span><p>Please say out loud all the images you saw in part 1 of the experiment, as many as you can remember. The images can be said in any order.</p>""]","","4","cat_care_semantic"
"","","","","","image-button-response","35","1285741","0.0-33.0-0.0","45C186EE4B68442DA775A15CF9D6E6BF","45C186EE4B68442DA775A15CF9D6E6BF","0198bfdb-7c88-711e-8bbc-c4d81d3f4823","0198beef-981a-7243-9790-051e10551090","{""num_scrambled_semantic"":""8"",""num_scrambled_causal"":""4"",""num_scrambled_schematic"":""4"",""participantId"":""45C186EE4B68442DA775A15CF9D6E6BF"",""assignmentId"":""0198bfdb-7c88-711e-8bbc-c4d81d3f4823"",""projectId"":""0198beef-981a-7243-9790-051e10551090""}","https://test12345.live/?num_scrambled_semantic=8&num_scrambled_causal=4&num_scrambled_schematic=4&participantId=45C186EE4B68442DA775A15CF9D6E6BF&assignmentId=0198bfdb-7c88-711e-8bbc-c4d81d3f4823&projectId=0198beef-981a-7243-9790-051e10551090","45C186EE4B68442DA775A15CF9D6E6BF-2025-08-19-01-26-47","","null","","images/semantic_sequence/creative_activities_semantic/creative_activities_semantic_0.png","null","",""
"","","","","","html-audio-response","36","1311218","0.0-34.0","45C186EE4B68442DA775A15CF9D6E6BF","45C186EE4B68442DA775A15CF9D6E6BF","0198bfdb-7c88-711e-8bbc-c4d81d3f4823","0198beef-981a-7243-9790-051e10551090","{""num_scrambled_semantic"":""8"",""num_scrambled_causal"":""4"",""num_scrambled_schematic"":""4"",""participantId"":""45C186EE4B68442DA775A15CF9D6E6BF"",""assignmentId"":""0198bfdb-7c88-711e-8bbc-c4d81d3f4823"",""projectId"":""0198beef-981a-7243-9790-051e10551090""}","https://test12345.live/?num_scrambled_semantic=8&num_scrambled_causal=4&num_scrambled_schematic=4&participantId=45C186EE4B68442DA775A15CF9D6E6BF&assignmentId=0198bfdb-7c88-711e-8bbc-c4d81d3f4823&projectId=0198beef-981a-7243-9790-051e10551090","45C186EE4B68442DA775A15CF9D6E6BF-2025-08-19-01-26-47","","24462","","[""<span style=\""color: red; font-size: 24px\""> NOW RECORDING</span><p>Please say out loud all the images you saw in part 1 of the experiment, as many as you can remember. The images can be said in any order.</p>""]","","1","creative_activities_semantic"
"","","","","","survey-text","37","1319068","0.0-35.0","45C186EE4B68442DA775A15CF9D6E6BF","45C186EE4B68442DA775A15CF9D6E6BF","0198bfdb-7c88-711e-8bbc-c4d81d3f4823","0198beef-981a-7243-9790-051e10551090","{""num_scrambled_semantic"":""8"",""num_scrambled_causal"":""4"",""num_scrambled_schematic"":""4"",""participantId"":""45C186EE4B68442DA775A15CF9D6E6BF"",""assignmentId"":""0198bfdb-7c88-711e-8bbc-c4d81d3f4823"",""projectId"":""0198beef-981a-7243-9790-051e10551090""}","https://test12345.live/?num_scrambled_semantic=8&num_scrambled_causal=4&num_scrambled_schematic=4&participantId=45C186EE4B68442DA775A15CF9D6E6BF&assignmentId=0198bfdb-7c88-711e-8bbc-c4d81d3f4823&projectId=0198beef-981a-7243-9790-051e10551090","45C186EE4B68442DA775A15CF9D6E6BF-2025-08-19-01-26-47","","7842","","","{""Q0"":""male"",""Q1"":""27""}","",""
"","","","","","instructions","38","1332177","0.0-36.0","45C186EE4B68442DA775A15CF9D6E6BF","45C186EE4B68442DA775A15CF9D6E6BF","0198bfdb-7c88-711e-8bbc-c4d81d3f4823","0198beef-981a-7243-9790-051e10551090","{""num_scrambled_semantic"":""8"",""num_scrambled_causal"":""4"",""num_scrambled_schematic"":""4"",""participantId"":""45C186EE4B68442DA775A15CF9D6E6BF"",""assignmentId"":""0198bfdb-7c88-711e-8bbc-c4d81d3f4823"",""projectId"":""0198beef-981a-7243-9790-051e10551090""}","https://test12345.live/?num_scrambled_semantic=8&num_scrambled_causal=4&num_scrambled_schematic=4&participantId=45C186EE4B68442DA775A15CF9D6E6BF&assignmentId=0198bfdb-7c88-711e-8bbc-c4d81d3f4823&projectId=0198beef-981a-7243-9790-051e10551090","45C186EE4B68442DA775A15CF9D6E6BF-2025-08-19-01-26-47","[{""page_index"":0,""viewing_time"":13108}]","13109","","","","",""
"","","","","","survey-text","39","1337442","0.0-37.0","45C186EE4B68442DA775A15CF9D6E6BF","45C186EE4B68442DA775A15CF9D6E6BF","0198bfdb-7c88-711e-8bbc-c4d81d3f4823","0198beef-981a-7243-9790-051e10551090","{""num_scrambled_semantic"":""8"",""num_scrambled_causal"":""4"",""num_scrambled_schematic"":""4"",""participantId"":""45C186EE4B68442DA775A15CF9D6E6BF"",""assignmentId"":""0198bfdb-7c88-711e-8bbc-c4d81d3f4823"",""projectId"":""0198beef-981a-7243-9790-051e10551090""}","https://test12345.live/?num_scrambled_semantic=8&num_scrambled_causal=4&num_scrambled_schematic=4&participantId=45C186EE4B68442DA775A15CF9D6E6BF&assignmentId=0198bfdb-7c88-711e-8bbc-c4d81d3f4823&projectId=0198beef-981a-7243-9790-051e10551090","45C186EE4B68442DA775A15CF9D6E6BF-2025-08-19-01-26-47","","5264","","","{""Q0"":""AJFHBG896""}","",""
