"success","timeout","failed_images","failed_audio","failed_video","trial_type","trial_index","time_elapsed","internal_node_id","subject","subject_id","study_id","session_id","urlvar","current_url","audio_id","view_history","rt","device_id","stimulus","response","estimated_stimulus_onset","seq_name"
"true","false","[]","[]","[]","preload","0","79109","0.0-0.0","45F3B52EB83A49E49D4C7F95087F5681","45F3B52EB83A49E49D4C7F95087F5681","0198e1d1-c8de-73a5-9bf8-3ae4d4fbad75","0198c3e5-90db-7030-b026-3fe33584d632","{""num_scrambled_semantic"":""8"",""num_scrambled_causal"":""4"",""num_scrambled_schematic"":""4"",""participantId"":""45F3B52EB83A49E49D4C7F95087F5681"",""assignmentId"":""0198e1d1-c8de-73a5-9bf8-3ae4d4fbad75"",""projectId"":""0198c3e5-90db-7030-b026-3fe33584d632""}","https://test12345.live/?num_scrambled_semantic=8&num_scrambled_causal=4&num_scrambled_schematic=4&participantId=45F3B52EB83A49E49D4C7F95087F5681&assignmentId=0198e1d1-c8de-73a5-9bf8-3ae4d4fbad75&projectId=0198c3e5-90db-7030-b026-3fe33584d632","45F3B52EB83A49E49D4C7F95087F5681-2025-08-25-15-33-19","","","","","","",""
"","","","","","instructions","1","100993","0.0-1.0","45F3B52EB83A49E49D4C7F95087F5681","45F3B52EB83A49E49D4C7F95087F5681","0198e1d1-c8de-73a5-9bf8-3ae4d4fbad75","0198c3e5-90db-7030-b026-3fe33584d632","{""num_scrambled_semantic"":""8"",""num_scrambled_causal"":""4"",""num_scrambled_schematic"":""4"",""participantId"":""45F3B52EB83A49E49D4C7F95087F5681"",""assignmentId"":""0198e1d1-c8de-73a5-9bf8-3ae4d4fbad75"",""projectId"":""0198c3e5-90db-7030-b026-3fe33584d632""}","https://test12345.live/?num_scrambled_semantic=8&num_scrambled_causal=4&num_scrambled_schematic=4&participantId=45F3B52EB83A49E49D4C7F95087F5681&assignmentId=0198e1d1-c8de-73a5-9bf8-3ae4d4fbad75&projectId=0198c3e5-90db-7030-b026-3fe33584d632","45F3B52EB83A49E49D4C7F95087F5681-2025-08-25-15-33-19","[{""page_index"":0,""viewing_time"":21882}]","21882","","","","",""
"","","","","","instructions","2","122559","0.0-2.0","45F3B52EB83A49E49D4C7F95087F5681","45F3B52EB83A49E49D4C7F95087F5681","0198e1d1-c8de-73a5-9bf8-3ae4d4fbad75","0198c3e5-90db-7030-b026-3fe33584d632","{""num_scrambled_semantic"":""8"",""num_scrambled_causal"":""4"",""num_scrambled_schematic"":""4"",""participantId"":""45F3B52EB83A49E49D4C7F95087F5681"",""assignmentId"":""0198e1d1-c8de-73a5-9bf8-3ae4d4fbad75"",""projectId"":""0198c3e5-90db-7030-b026-3fe33584d632""}","https://test12345.live/?num_scrambled_semantic=8&num_scrambled_causal=4&num_scrambled_schematic=4&participantId=45F3B52EB83A49E49D4C7F95087F5681&assignmentId=0198e1d1-c8de-73a5-9bf8-3ae4d4fbad75&projectId=0198c3e5-90db-7030-b026-3fe33584d632","45F3B52EB83A49E49D4C7F95087F5681-2025-08-25-15-33-19","[{""page_index"":0,""viewing_time"":21565}]","21566","","","","",""
"true","","","","","fullscreen","3","127862","0.0-3.0","45F3B52EB83A49E49D4C7F95087F5681","45F3B52EB83A49E49D4C7F95087F5681","0198e1d1-c8de-73a5-9bf8-3ae4d4fbad75","0198c3e5-90db-7030-b026-3fe33584d632","{""num_scrambled_semantic"":""8"",""num_scrambled_causal"":""4"",""num_scrambled_schematic"":""4"",""participantId"":""45F3B52EB83A49E49D4C7F95087F5681"",""assignmentId"":""0198e1d1-c8de-73a5-9bf8-3ae4d4fbad75"",""projectId"":""0198c3e5-90db-7030-b026-3fe33584d632""}","https://test12345.live/?num_scrambled_semantic=8&num_scrambled_causal=4&num_scrambled_schematic=4&participantId=45F3B52EB83A49E49D4C7F95087F5681&assignmentId=0198e1d1-c8de-73a5-9bf8-3ae4d4fbad75&projectId=0198c3e5-90db-7030-b026-3fe33584d632","45F3B52EB83A49E49D4C7F95087F5681-2025-08-25-15-33-19","","4298","","","","",""
"","","","","","initialize-microphone","4","133365","0.0-4.0-0.0","45F3B52EB83A49E49D4C7F95087F5681","45F3B52EB83A49E49D4C7F95087F5681","0198e1d1-c8de-73a5-9bf8-3ae4d4fbad75","0198c3e5-90db-7030-b026-3fe33584d632","{""num_scrambled_semantic"":""8"",""num_scrambled_causal"":""4"",""num_scrambled_schematic"":""4"",""participantId"":""45F3B52EB83A49E49D4C7F95087F5681"",""assignmentId"":""0198e1d1-c8de-73a5-9bf8-3ae4d4fbad75"",""projectId"":""0198c3e5-90db-7030-b026-3fe33584d632""}","https://test12345.live/?num_scrambled_semantic=8&num_scrambled_causal=4&num_scrambled_schematic=4&participantId=45F3B52EB83A49E49D4C7F95087F5681&assignmentId=0198e1d1-c8de-73a5-9bf8-3ae4d4fbad75&projectId=0198c3e5-90db-7030-b026-3fe33584d632","45F3B52EB83A49E49D4C7F95087F5681-2025-08-25-15-33-19","","","c75886b2573626aa762da4bd2af09652bd1888d34e56ba2ff1e8de8b64d4992f","","","",""
"","","","","","html-audio-response","5","147542","0.0-4.0-1.0","45F3B52EB83A49E49D4C7F95087F5681","45F3B52EB83A49E49D4C7F95087F5681","0198e1d1-c8de-73a5-9bf8-3ae4d4fbad75","0198c3e5-90db-7030-b026-3fe33584d632","{""num_scrambled_semantic"":""8"",""num_scrambled_causal"":""4"",""num_scrambled_schematic"":""4"",""participantId"":""45F3B52EB83A49E49D4C7F95087F5681"",""assignmentId"":""0198e1d1-c8de-73a5-9bf8-3ae4d4fbad75"",""projectId"":""0198c3e5-90db-7030-b026-3fe33584d632""}","https://test12345.live/?num_scrambled_semantic=8&num_scrambled_causal=4&num_scrambled_schematic=4&participantId=45F3B52EB83A49E49D4C7F95087F5681&assignmentId=0198e1d1-c8de-73a5-9bf8-3ae4d4fbad75&projectId=0198c3e5-90db-7030-b026-3fe33584d632","45F3B52EB83A49E49D4C7F95087F5681-2025-08-25-15-33-19","","1473","","<span style=""color: red; font-size: 24px""> NOW RECORDING</span>
        <p>Please test Microphone</p>","","4",""
"","","","","","html-button-response","6","149242","0.0-4.0-2.0","45F3B52EB83A49E49D4C7F95087F5681","45F3B52EB83A49E49D4C7F95087F5681","0198e1d1-c8de-73a5-9bf8-3ae4d4fbad75","0198c3e5-90db-7030-b026-3fe33584d632","{""num_scrambled_semantic"":""8"",""num_scrambled_causal"":""4"",""num_scrambled_schematic"":""4"",""participantId"":""45F3B52EB83A49E49D4C7F95087F5681"",""assignmentId"":""0198e1d1-c8de-73a5-9bf8-3ae4d4fbad75"",""projectId"":""0198c3e5-90db-7030-b026-3fe33584d632""}","https://test12345.live/?num_scrambled_semantic=8&num_scrambled_causal=4&num_scrambled_schematic=4&participantId=45F3B52EB83A49E49D4C7F95087F5681&assignmentId=0198e1d1-c8de-73a5-9bf8-3ae4d4fbad75&projectId=0198c3e5-90db-7030-b026-3fe33584d632","45F3B52EB83A49E49D4C7F95087F5681-2025-08-25-15-33-19","","1698","","<p style=""font-size:48px; color:red;"">Is Microphone OK?</p>","1","",""
"","","","","","instructions","7","160043","0.0-5.0","45F3B52EB83A49E49D4C7F95087F5681","45F3B52EB83A49E49D4C7F95087F5681","0198e1d1-c8de-73a5-9bf8-3ae4d4fbad75","0198c3e5-90db-7030-b026-3fe33584d632","{""num_scrambled_semantic"":""8"",""num_scrambled_causal"":""4"",""num_scrambled_schematic"":""4"",""participantId"":""45F3B52EB83A49E49D4C7F95087F5681"",""assignmentId"":""0198e1d1-c8de-73a5-9bf8-3ae4d4fbad75"",""projectId"":""0198c3e5-90db-7030-b026-3fe33584d632""}","https://test12345.live/?num_scrambled_semantic=8&num_scrambled_causal=4&num_scrambled_schematic=4&participantId=45F3B52EB83A49E49D4C7F95087F5681&assignmentId=0198e1d1-c8de-73a5-9bf8-3ae4d4fbad75&projectId=0198c3e5-90db-7030-b026-3fe33584d632","45F3B52EB83A49E49D4C7F95087F5681-2025-08-25-15-33-19","[{""page_index"":0,""viewing_time"":1467},{""page_index"":1,""viewing_time"":5000},{""page_index"":2,""viewing_time"":4334}]","10801","","","","",""
"","","","","","image-button-response","8","166049","0.0-6.0-0.0","45F3B52EB83A49E49D4C7F95087F5681","45F3B52EB83A49E49D4C7F95087F5681","0198e1d1-c8de-73a5-9bf8-3ae4d4fbad75","0198c3e5-90db-7030-b026-3fe33584d632","{""num_scrambled_semantic"":""8"",""num_scrambled_causal"":""4"",""num_scrambled_schematic"":""4"",""participantId"":""45F3B52EB83A49E49D4C7F95087F5681"",""assignmentId"":""0198e1d1-c8de-73a5-9bf8-3ae4d4fbad75"",""projectId"":""0198c3e5-90db-7030-b026-3fe33584d632""}","https://test12345.live/?num_scrambled_semantic=8&num_scrambled_causal=4&num_scrambled_schematic=4&participantId=45F3B52EB83A49E49D4C7F95087F5681&assignmentId=0198e1d1-c8de-73a5-9bf8-3ae4d4fbad75&projectId=0198c3e5-90db-7030-b026-3fe33584d632","45F3B52EB83A49E49D4C7F95087F5681-2025-08-25-15-33-19","","null","","images/instructions/movie_0.png","null","",""
"","","","","","html-audio-response","9","177076","0.0-7.0","45F3B52EB83A49E49D4C7F95087F5681","45F3B52EB83A49E49D4C7F95087F5681","0198e1d1-c8de-73a5-9bf8-3ae4d4fbad75","0198c3e5-90db-7030-b026-3fe33584d632","{""num_scrambled_semantic"":""8"",""num_scrambled_causal"":""4"",""num_scrambled_schematic"":""4"",""participantId"":""45F3B52EB83A49E49D4C7F95087F5681"",""assignmentId"":""0198e1d1-c8de-73a5-9bf8-3ae4d4fbad75"",""projectId"":""0198c3e5-90db-7030-b026-3fe33584d632""}","https://test12345.live/?num_scrambled_semantic=8&num_scrambled_causal=4&num_scrambled_schematic=4&participantId=45F3B52EB83A49E49D4C7F95087F5681&assignmentId=0198e1d1-c8de-73a5-9bf8-3ae4d4fbad75&projectId=0198c3e5-90db-7030-b026-3fe33584d632","45F3B52EB83A49E49D4C7F95087F5681-2025-08-25-15-33-19","","5167","","[""<span style=\""color: red; font-size: 24px\""> NOW RECORDING</span><p>Please say out loud all the images you saw in part 1 of the experiment, as many as you can remember. The images can be said in any order.</p>""]","","3",""
"","","","","","instructions","10","178875","0.0-8.0","45F3B52EB83A49E49D4C7F95087F5681","45F3B52EB83A49E49D4C7F95087F5681","0198e1d1-c8de-73a5-9bf8-3ae4d4fbad75","0198c3e5-90db-7030-b026-3fe33584d632","{""num_scrambled_semantic"":""8"",""num_scrambled_causal"":""4"",""num_scrambled_schematic"":""4"",""participantId"":""45F3B52EB83A49E49D4C7F95087F5681"",""assignmentId"":""0198e1d1-c8de-73a5-9bf8-3ae4d4fbad75"",""projectId"":""0198c3e5-90db-7030-b026-3fe33584d632""}","https://test12345.live/?num_scrambled_semantic=8&num_scrambled_causal=4&num_scrambled_schematic=4&participantId=45F3B52EB83A49E49D4C7F95087F5681&assignmentId=0198e1d1-c8de-73a5-9bf8-3ae4d4fbad75&projectId=0198c3e5-90db-7030-b026-3fe33584d632","45F3B52EB83A49E49D4C7F95087F5681-2025-08-25-15-33-19","[{""page_index"":0,""viewing_time"":1797}]","1797","","","","",""
"","","","","","image-button-response","11","184878","0.0-9.0-0.0","45F3B52EB83A49E49D4C7F95087F5681","45F3B52EB83A49E49D4C7F95087F5681","0198e1d1-c8de-73a5-9bf8-3ae4d4fbad75","0198c3e5-90db-7030-b026-3fe33584d632","{""num_scrambled_semantic"":""8"",""num_scrambled_causal"":""4"",""num_scrambled_schematic"":""4"",""participantId"":""45F3B52EB83A49E49D4C7F95087F5681"",""assignmentId"":""0198e1d1-c8de-73a5-9bf8-3ae4d4fbad75"",""projectId"":""0198c3e5-90db-7030-b026-3fe33584d632""}","https://test12345.live/?num_scrambled_semantic=8&num_scrambled_causal=4&num_scrambled_schematic=4&participantId=45F3B52EB83A49E49D4C7F95087F5681&assignmentId=0198e1d1-c8de-73a5-9bf8-3ae4d4fbad75&projectId=0198c3e5-90db-7030-b026-3fe33584d632","45F3B52EB83A49E49D4C7F95087F5681-2025-08-25-15-33-19","","null","","images/semantic_sequence/using_technology_semantic/using_technology_semantic_0.png","null","",""
"","","","","","html-audio-response","12","209026","0.0-10.0","45F3B52EB83A49E49D4C7F95087F5681","45F3B52EB83A49E49D4C7F95087F5681","0198e1d1-c8de-73a5-9bf8-3ae4d4fbad75","0198c3e5-90db-7030-b026-3fe33584d632","{""num_scrambled_semantic"":""8"",""num_scrambled_causal"":""4"",""num_scrambled_schematic"":""4"",""participantId"":""45F3B52EB83A49E49D4C7F95087F5681"",""assignmentId"":""0198e1d1-c8de-73a5-9bf8-3ae4d4fbad75"",""projectId"":""0198c3e5-90db-7030-b026-3fe33584d632""}","https://test12345.live/?num_scrambled_semantic=8&num_scrambled_causal=4&num_scrambled_schematic=4&participantId=45F3B52EB83A49E49D4C7F95087F5681&assignmentId=0198e1d1-c8de-73a5-9bf8-3ae4d4fbad75&projectId=0198c3e5-90db-7030-b026-3fe33584d632","45F3B52EB83A49E49D4C7F95087F5681-2025-08-25-15-33-19","","3241","","[""<span style=\""color: red; font-size: 24px\""> NOW RECORDING</span><p>Please say out loud all the images you saw, following the storyline they create. Try to recall the sequence of events as they unfolded in the story, rather than the order in which they appeared on the screen.</p>""]","","3","using_technology_semantic"
"","","","","","image-button-response","13","215034","0.0-11.0-0.0","45F3B52EB83A49E49D4C7F95087F5681","45F3B52EB83A49E49D4C7F95087F5681","0198e1d1-c8de-73a5-9bf8-3ae4d4fbad75","0198c3e5-90db-7030-b026-3fe33584d632","{""num_scrambled_semantic"":""8"",""num_scrambled_causal"":""4"",""num_scrambled_schematic"":""4"",""participantId"":""45F3B52EB83A49E49D4C7F95087F5681"",""assignmentId"":""0198e1d1-c8de-73a5-9bf8-3ae4d4fbad75"",""projectId"":""0198c3e5-90db-7030-b026-3fe33584d632""}","https://test12345.live/?num_scrambled_semantic=8&num_scrambled_causal=4&num_scrambled_schematic=4&participantId=45F3B52EB83A49E49D4C7F95087F5681&assignmentId=0198e1d1-c8de-73a5-9bf8-3ae4d4fbad75&projectId=0198c3e5-90db-7030-b026-3fe33584d632","45F3B52EB83A49E49D4C7F95087F5681-2025-08-25-15-33-19","","null","","images/semantic_sequence/creative_activities_semantic/creative_activities_semantic_0.png","null","",""
"","","","","","html-audio-response","14","227027","0.0-12.0","45F3B52EB83A49E49D4C7F95087F5681","45F3B52EB83A49E49D4C7F95087F5681","0198e1d1-c8de-73a5-9bf8-3ae4d4fbad75","0198c3e5-90db-7030-b026-3fe33584d632","{""num_scrambled_semantic"":""8"",""num_scrambled_causal"":""4"",""num_scrambled_schematic"":""4"",""participantId"":""45F3B52EB83A49E49D4C7F95087F5681"",""assignmentId"":""0198e1d1-c8de-73a5-9bf8-3ae4d4fbad75"",""projectId"":""0198c3e5-90db-7030-b026-3fe33584d632""}","https://test12345.live/?num_scrambled_semantic=8&num_scrambled_causal=4&num_scrambled_schematic=4&participantId=45F3B52EB83A49E49D4C7F95087F5681&assignmentId=0198e1d1-c8de-73a5-9bf8-3ae4d4fbad75&projectId=0198c3e5-90db-7030-b026-3fe33584d632","45F3B52EB83A49E49D4C7F95087F5681-2025-08-25-15-33-19","","6712","","[""<span style=\""color: red; font-size: 24px\""> NOW RECORDING</span><p>Please say out loud all the images you saw, following the storyline they create. Try to recall the sequence of events as they unfolded in the story, rather than the order in which they appeared on the screen.</p>""]","","3","creative_activities_semantic"
"","","","","","image-button-response","15","233034","0.0-13.0-0.0","45F3B52EB83A49E49D4C7F95087F5681","45F3B52EB83A49E49D4C7F95087F5681","0198e1d1-c8de-73a5-9bf8-3ae4d4fbad75","0198c3e5-90db-7030-b026-3fe33584d632","{""num_scrambled_semantic"":""8"",""num_scrambled_causal"":""4"",""num_scrambled_schematic"":""4"",""participantId"":""45F3B52EB83A49E49D4C7F95087F5681"",""assignmentId"":""0198e1d1-c8de-73a5-9bf8-3ae4d4fbad75"",""projectId"":""0198c3e5-90db-7030-b026-3fe33584d632""}","https://test12345.live/?num_scrambled_semantic=8&num_scrambled_causal=4&num_scrambled_schematic=4&participantId=45F3B52EB83A49E49D4C7F95087F5681&assignmentId=0198e1d1-c8de-73a5-9bf8-3ae4d4fbad75&projectId=0198c3e5-90db-7030-b026-3fe33584d632","45F3B52EB83A49E49D4C7F95087F5681-2025-08-25-15-33-19","","null","","images/causal_sequence/dog_causal/dog_causal_0.png","null","",""
"","","","","","html-audio-response","16","243993","0.0-14.0","45F3B52EB83A49E49D4C7F95087F5681","45F3B52EB83A49E49D4C7F95087F5681","0198e1d1-c8de-73a5-9bf8-3ae4d4fbad75","0198c3e5-90db-7030-b026-3fe33584d632","{""num_scrambled_semantic"":""8"",""num_scrambled_causal"":""4"",""num_scrambled_schematic"":""4"",""participantId"":""45F3B52EB83A49E49D4C7F95087F5681"",""assignmentId"":""0198e1d1-c8de-73a5-9bf8-3ae4d4fbad75"",""projectId"":""0198c3e5-90db-7030-b026-3fe33584d632""}","https://test12345.live/?num_scrambled_semantic=8&num_scrambled_causal=4&num_scrambled_schematic=4&participantId=45F3B52EB83A49E49D4C7F95087F5681&assignmentId=0198e1d1-c8de-73a5-9bf8-3ae4d4fbad75&projectId=0198c3e5-90db-7030-b026-3fe33584d632","45F3B52EB83A49E49D4C7F95087F5681-2025-08-25-15-33-19","","6680","","[""<span style=\""color: red; font-size: 24px\""> NOW RECORDING</span><p>Please say out loud all the images you saw, following the storyline they create. Try to recall the sequence of events as they unfolded in the story, rather than the order in which they appeared on the screen.</p>""]","","3","dog_causal"
"","","","","","image-button-response","17","249997","0.0-15.0-0.0","45F3B52EB83A49E49D4C7F95087F5681","45F3B52EB83A49E49D4C7F95087F5681","0198e1d1-c8de-73a5-9bf8-3ae4d4fbad75","0198c3e5-90db-7030-b026-3fe33584d632","{""num_scrambled_semantic"":""8"",""num_scrambled_causal"":""4"",""num_scrambled_schematic"":""4"",""participantId"":""45F3B52EB83A49E49D4C7F95087F5681"",""assignmentId"":""0198e1d1-c8de-73a5-9bf8-3ae4d4fbad75"",""projectId"":""0198c3e5-90db-7030-b026-3fe33584d632""}","https://test12345.live/?num_scrambled_semantic=8&num_scrambled_causal=4&num_scrambled_schematic=4&participantId=45F3B52EB83A49E49D4C7F95087F5681&assignmentId=0198e1d1-c8de-73a5-9bf8-3ae4d4fbad75&projectId=0198c3e5-90db-7030-b026-3fe33584d632","45F3B52EB83A49E49D4C7F95087F5681-2025-08-25-15-33-19","","null","","images/causal_sequence/package_causal/package_causal_0.png","null","",""
"","","","","","html-audio-response","18","306442","0.0-16.0","45F3B52EB83A49E49D4C7F95087F5681","45F3B52EB83A49E49D4C7F95087F5681","0198e1d1-c8de-73a5-9bf8-3ae4d4fbad75","0198c3e5-90db-7030-b026-3fe33584d632","{""num_scrambled_semantic"":""8"",""num_scrambled_causal"":""4"",""num_scrambled_schematic"":""4"",""participantId"":""45F3B52EB83A49E49D4C7F95087F5681"",""assignmentId"":""0198e1d1-c8de-73a5-9bf8-3ae4d4fbad75"",""projectId"":""0198c3e5-90db-7030-b026-3fe33584d632""}","https://test12345.live/?num_scrambled_semantic=8&num_scrambled_causal=4&num_scrambled_schematic=4&participantId=45F3B52EB83A49E49D4C7F95087F5681&assignmentId=0198e1d1-c8de-73a5-9bf8-3ae4d4fbad75&projectId=0198c3e5-90db-7030-b026-3fe33584d632","45F3B52EB83A49E49D4C7F95087F5681-2025-08-25-15-33-19","","17895","","[""<span style=\""color: red; font-size: 24px\""> NOW RECORDING</span><p>Please say out loud all the images you saw, following the storyline they create. Try to recall the sequence of events as they unfolded in the story, rather than the order in which they appeared on the screen.</p>""]","","3","package_causal"
"","","","","","image-button-response","19","312449","0.0-17.0-0.0","45F3B52EB83A49E49D4C7F95087F5681","45F3B52EB83A49E49D4C7F95087F5681","0198e1d1-c8de-73a5-9bf8-3ae4d4fbad75","0198c3e5-90db-7030-b026-3fe33584d632","{""num_scrambled_semantic"":""8"",""num_scrambled_causal"":""4"",""num_scrambled_schematic"":""4"",""participantId"":""45F3B52EB83A49E49D4C7F95087F5681"",""assignmentId"":""0198e1d1-c8de-73a5-9bf8-3ae4d4fbad75"",""projectId"":""0198c3e5-90db-7030-b026-3fe33584d632""}","https://test12345.live/?num_scrambled_semantic=8&num_scrambled_causal=4&num_scrambled_schematic=4&participantId=45F3B52EB83A49E49D4C7F95087F5681&assignmentId=0198e1d1-c8de-73a5-9bf8-3ae4d4fbad75&projectId=0198c3e5-90db-7030-b026-3fe33584d632","45F3B52EB83A49E49D4C7F95087F5681-2025-08-25-15-33-19","","null","","images/semantic_sequence/physical_activity_semantic/physical_activity_semantic_0.png","null","",""
"","","","","","html-audio-response","20","328542","0.0-18.0","45F3B52EB83A49E49D4C7F95087F5681","45F3B52EB83A49E49D4C7F95087F5681","0198e1d1-c8de-73a5-9bf8-3ae4d4fbad75","0198c3e5-90db-7030-b026-3fe33584d632","{""num_scrambled_semantic"":""8"",""num_scrambled_causal"":""4"",""num_scrambled_schematic"":""4"",""participantId"":""45F3B52EB83A49E49D4C7F95087F5681"",""assignmentId"":""0198e1d1-c8de-73a5-9bf8-3ae4d4fbad75"",""projectId"":""0198c3e5-90db-7030-b026-3fe33584d632""}","https://test12345.live/?num_scrambled_semantic=8&num_scrambled_causal=4&num_scrambled_schematic=4&participantId=45F3B52EB83A49E49D4C7F95087F5681&assignmentId=0198e1d1-c8de-73a5-9bf8-3ae4d4fbad75&projectId=0198c3e5-90db-7030-b026-3fe33584d632","45F3B52EB83A49E49D4C7F95087F5681-2025-08-25-15-33-19","","7370","","[""<span style=\""color: red; font-size: 24px\""> NOW RECORDING</span><p>Please say out loud all the images you saw, following the storyline they create. Try to recall the sequence of events as they unfolded in the story, rather than the order in which they appeared on the screen.</p>""]","","4","physical_activity_semantic"
"","","","","","image-button-response","21","334550","0.0-19.0-0.0","45F3B52EB83A49E49D4C7F95087F5681","45F3B52EB83A49E49D4C7F95087F5681","0198e1d1-c8de-73a5-9bf8-3ae4d4fbad75","0198c3e5-90db-7030-b026-3fe33584d632","{""num_scrambled_semantic"":""8"",""num_scrambled_causal"":""4"",""num_scrambled_schematic"":""4"",""participantId"":""45F3B52EB83A49E49D4C7F95087F5681"",""assignmentId"":""0198e1d1-c8de-73a5-9bf8-3ae4d4fbad75"",""projectId"":""0198c3e5-90db-7030-b026-3fe33584d632""}","https://test12345.live/?num_scrambled_semantic=8&num_scrambled_causal=4&num_scrambled_schematic=4&participantId=45F3B52EB83A49E49D4C7F95087F5681&assignmentId=0198e1d1-c8de-73a5-9bf8-3ae4d4fbad75&projectId=0198c3e5-90db-7030-b026-3fe33584d632","45F3B52EB83A49E49D4C7F95087F5681-2025-08-25-15-33-19","","null","","images/semantic_sequence/redecorating_semantic/redecorating_semantic_0.png","null","",""
"","","","","","html-audio-response","22","358410","0.0-20.0","45F3B52EB83A49E49D4C7F95087F5681","45F3B52EB83A49E49D4C7F95087F5681","0198e1d1-c8de-73a5-9bf8-3ae4d4fbad75","0198c3e5-90db-7030-b026-3fe33584d632","{""num_scrambled_semantic"":""8"",""num_scrambled_causal"":""4"",""num_scrambled_schematic"":""4"",""participantId"":""45F3B52EB83A49E49D4C7F95087F5681"",""assignmentId"":""0198e1d1-c8de-73a5-9bf8-3ae4d4fbad75"",""projectId"":""0198c3e5-90db-7030-b026-3fe33584d632""}","https://test12345.live/?num_scrambled_semantic=8&num_scrambled_causal=4&num_scrambled_schematic=4&participantId=45F3B52EB83A49E49D4C7F95087F5681&assignmentId=0198e1d1-c8de-73a5-9bf8-3ae4d4fbad75&projectId=0198c3e5-90db-7030-b026-3fe33584d632","45F3B52EB83A49E49D4C7F95087F5681-2025-08-25-15-33-19","","11045","","[""<span style=\""color: red; font-size: 24px\""> NOW RECORDING</span><p>Please say out loud all the images you saw, following the storyline they create. Try to recall the sequence of events as they unfolded in the story, rather than the order in which they appeared on the screen.</p>""]","","3","redecorating_semantic"
"","","","","","image-button-response","23","364417","0.0-21.0-0.0","45F3B52EB83A49E49D4C7F95087F5681","45F3B52EB83A49E49D4C7F95087F5681","0198e1d1-c8de-73a5-9bf8-3ae4d4fbad75","0198c3e5-90db-7030-b026-3fe33584d632","{""num_scrambled_semantic"":""8"",""num_scrambled_causal"":""4"",""num_scrambled_schematic"":""4"",""participantId"":""45F3B52EB83A49E49D4C7F95087F5681"",""assignmentId"":""0198e1d1-c8de-73a5-9bf8-3ae4d4fbad75"",""projectId"":""0198c3e5-90db-7030-b026-3fe33584d632""}","https://test12345.live/?num_scrambled_semantic=8&num_scrambled_causal=4&num_scrambled_schematic=4&participantId=45F3B52EB83A49E49D4C7F95087F5681&assignmentId=0198e1d1-c8de-73a5-9bf8-3ae4d4fbad75&projectId=0198c3e5-90db-7030-b026-3fe33584d632","45F3B52EB83A49E49D4C7F95087F5681-2025-08-25-15-33-19","","null","","images/semantic_sequence/cat_care_semantic/cat_care_semantic_0.png","null","",""
"","","","","","html-audio-response","24","393443","0.0-22.0","45F3B52EB83A49E49D4C7F95087F5681","45F3B52EB83A49E49D4C7F95087F5681","0198e1d1-c8de-73a5-9bf8-3ae4d4fbad75","0198c3e5-90db-7030-b026-3fe33584d632","{""num_scrambled_semantic"":""8"",""num_scrambled_causal"":""4"",""num_scrambled_schematic"":""4"",""participantId"":""45F3B52EB83A49E49D4C7F95087F5681"",""assignmentId"":""0198e1d1-c8de-73a5-9bf8-3ae4d4fbad75"",""projectId"":""0198c3e5-90db-7030-b026-3fe33584d632""}","https://test12345.live/?num_scrambled_semantic=8&num_scrambled_causal=4&num_scrambled_schematic=4&participantId=45F3B52EB83A49E49D4C7F95087F5681&assignmentId=0198e1d1-c8de-73a5-9bf8-3ae4d4fbad75&projectId=0198c3e5-90db-7030-b026-3fe33584d632","45F3B52EB83A49E49D4C7F95087F5681-2025-08-25-15-33-19","","11638","","[""<span style=\""color: red; font-size: 24px\""> NOW RECORDING</span><p>Please say out loud all the images you saw, following the storyline they create. Try to recall the sequence of events as they unfolded in the story, rather than the order in which they appeared on the screen.</p>""]","","2","cat_care_semantic"
"","","","","","image-button-response","25","399448","0.0-23.0-0.0","45F3B52EB83A49E49D4C7F95087F5681","45F3B52EB83A49E49D4C7F95087F5681","0198e1d1-c8de-73a5-9bf8-3ae4d4fbad75","0198c3e5-90db-7030-b026-3fe33584d632","{""num_scrambled_semantic"":""8"",""num_scrambled_causal"":""4"",""num_scrambled_schematic"":""4"",""participantId"":""45F3B52EB83A49E49D4C7F95087F5681"",""assignmentId"":""0198e1d1-c8de-73a5-9bf8-3ae4d4fbad75"",""projectId"":""0198c3e5-90db-7030-b026-3fe33584d632""}","https://test12345.live/?num_scrambled_semantic=8&num_scrambled_causal=4&num_scrambled_schematic=4&participantId=45F3B52EB83A49E49D4C7F95087F5681&assignmentId=0198e1d1-c8de-73a5-9bf8-3ae4d4fbad75&projectId=0198c3e5-90db-7030-b026-3fe33584d632","45F3B52EB83A49E49D4C7F95087F5681-2025-08-25-15-33-19","","null","","images/semantic_sequence/housework_semantic/housework_semantic_0.png","null","",""
"","","","","","html-audio-response","26","435894","0.0-24.0","45F3B52EB83A49E49D4C7F95087F5681","45F3B52EB83A49E49D4C7F95087F5681","0198e1d1-c8de-73a5-9bf8-3ae4d4fbad75","0198c3e5-90db-7030-b026-3fe33584d632","{""num_scrambled_semantic"":""8"",""num_scrambled_causal"":""4"",""num_scrambled_schematic"":""4"",""participantId"":""45F3B52EB83A49E49D4C7F95087F5681"",""assignmentId"":""0198e1d1-c8de-73a5-9bf8-3ae4d4fbad75"",""projectId"":""0198c3e5-90db-7030-b026-3fe33584d632""}","https://test12345.live/?num_scrambled_semantic=8&num_scrambled_causal=4&num_scrambled_schematic=4&participantId=45F3B52EB83A49E49D4C7F95087F5681&assignmentId=0198e1d1-c8de-73a5-9bf8-3ae4d4fbad75&projectId=0198c3e5-90db-7030-b026-3fe33584d632","45F3B52EB83A49E49D4C7F95087F5681-2025-08-25-15-33-19","","21614","","[""<span style=\""color: red; font-size: 24px\""> NOW RECORDING</span><p>Please say out loud all the images you saw, following the storyline they create. Try to recall the sequence of events as they unfolded in the story, rather than the order in which they appeared on the screen.</p>""]","","3","housework_semantic"
"","","","","","image-button-response","27","441904","0.0-25.0-0.0","45F3B52EB83A49E49D4C7F95087F5681","45F3B52EB83A49E49D4C7F95087F5681","0198e1d1-c8de-73a5-9bf8-3ae4d4fbad75","0198c3e5-90db-7030-b026-3fe33584d632","{""num_scrambled_semantic"":""8"",""num_scrambled_causal"":""4"",""num_scrambled_schematic"":""4"",""participantId"":""45F3B52EB83A49E49D4C7F95087F5681"",""assignmentId"":""0198e1d1-c8de-73a5-9bf8-3ae4d4fbad75"",""projectId"":""0198c3e5-90db-7030-b026-3fe33584d632""}","https://test12345.live/?num_scrambled_semantic=8&num_scrambled_causal=4&num_scrambled_schematic=4&participantId=45F3B52EB83A49E49D4C7F95087F5681&assignmentId=0198e1d1-c8de-73a5-9bf8-3ae4d4fbad75&projectId=0198c3e5-90db-7030-b026-3fe33584d632","45F3B52EB83A49E49D4C7F95087F5681-2025-08-25-15-33-19","","null","","images/causal_sequence/saving_a_cat_causal/saving_a_cat_causal_0.png","null","",""
"","","","","","html-audio-response","28","477844","0.0-26.0","45F3B52EB83A49E49D4C7F95087F5681","45F3B52EB83A49E49D4C7F95087F5681","0198e1d1-c8de-73a5-9bf8-3ae4d4fbad75","0198c3e5-90db-7030-b026-3fe33584d632","{""num_scrambled_semantic"":""8"",""num_scrambled_causal"":""4"",""num_scrambled_schematic"":""4"",""participantId"":""45F3B52EB83A49E49D4C7F95087F5681"",""assignmentId"":""0198e1d1-c8de-73a5-9bf8-3ae4d4fbad75"",""projectId"":""0198c3e5-90db-7030-b026-3fe33584d632""}","https://test12345.live/?num_scrambled_semantic=8&num_scrambled_causal=4&num_scrambled_schematic=4&participantId=45F3B52EB83A49E49D4C7F95087F5681&assignmentId=0198e1d1-c8de-73a5-9bf8-3ae4d4fbad75&projectId=0198c3e5-90db-7030-b026-3fe33584d632","45F3B52EB83A49E49D4C7F95087F5681-2025-08-25-15-33-19","","14981","","[""<span style=\""color: red; font-size: 24px\""> NOW RECORDING</span><p>Please say out loud all the images you saw, following the storyline they create. Try to recall the sequence of events as they unfolded in the story, rather than the order in which they appeared on the screen.</p>""]","","3","saving_a_cat_causal"
"","","","","","image-button-response","29","483852","0.0-27.0-0.0","45F3B52EB83A49E49D4C7F95087F5681","45F3B52EB83A49E49D4C7F95087F5681","0198e1d1-c8de-73a5-9bf8-3ae4d4fbad75","0198c3e5-90db-7030-b026-3fe33584d632","{""num_scrambled_semantic"":""8"",""num_scrambled_causal"":""4"",""num_scrambled_schematic"":""4"",""participantId"":""45F3B52EB83A49E49D4C7F95087F5681"",""assignmentId"":""0198e1d1-c8de-73a5-9bf8-3ae4d4fbad75"",""projectId"":""0198c3e5-90db-7030-b026-3fe33584d632""}","https://test12345.live/?num_scrambled_semantic=8&num_scrambled_causal=4&num_scrambled_schematic=4&participantId=45F3B52EB83A49E49D4C7F95087F5681&assignmentId=0198e1d1-c8de-73a5-9bf8-3ae4d4fbad75&projectId=0198c3e5-90db-7030-b026-3fe33584d632","45F3B52EB83A49E49D4C7F95087F5681-2025-08-25-15-33-19","","null","","images/causal_sequence/coin_causal/coin_causal_0.png","null","",""
"","","","","","html-audio-response","30","557828","0.0-28.0","45F3B52EB83A49E49D4C7F95087F5681","45F3B52EB83A49E49D4C7F95087F5681","0198e1d1-c8de-73a5-9bf8-3ae4d4fbad75","0198c3e5-90db-7030-b026-3fe33584d632","{""num_scrambled_semantic"":""8"",""num_scrambled_causal"":""4"",""num_scrambled_schematic"":""4"",""participantId"":""45F3B52EB83A49E49D4C7F95087F5681"",""assignmentId"":""0198e1d1-c8de-73a5-9bf8-3ae4d4fbad75"",""projectId"":""0198c3e5-90db-7030-b026-3fe33584d632""}","https://test12345.live/?num_scrambled_semantic=8&num_scrambled_causal=4&num_scrambled_schematic=4&participantId=45F3B52EB83A49E49D4C7F95087F5681&assignmentId=0198e1d1-c8de-73a5-9bf8-3ae4d4fbad75&projectId=0198c3e5-90db-7030-b026-3fe33584d632","45F3B52EB83A49E49D4C7F95087F5681-2025-08-25-15-33-19","","20439","","[""<span style=\""color: red; font-size: 24px\""> NOW RECORDING</span><p>Please say out loud all the images you saw, following the storyline they create. Try to recall the sequence of events as they unfolded in the story, rather than the order in which they appeared on the screen.</p>""]","","3","coin_causal"
"","","","","","image-button-response","31","563839","0.0-29.0-0.0","45F3B52EB83A49E49D4C7F95087F5681","45F3B52EB83A49E49D4C7F95087F5681","0198e1d1-c8de-73a5-9bf8-3ae4d4fbad75","0198c3e5-90db-7030-b026-3fe33584d632","{""num_scrambled_semantic"":""8"",""num_scrambled_causal"":""4"",""num_scrambled_schematic"":""4"",""participantId"":""45F3B52EB83A49E49D4C7F95087F5681"",""assignmentId"":""0198e1d1-c8de-73a5-9bf8-3ae4d4fbad75"",""projectId"":""0198c3e5-90db-7030-b026-3fe33584d632""}","https://test12345.live/?num_scrambled_semantic=8&num_scrambled_causal=4&num_scrambled_schematic=4&participantId=45F3B52EB83A49E49D4C7F95087F5681&assignmentId=0198e1d1-c8de-73a5-9bf8-3ae4d4fbad75&projectId=0198c3e5-90db-7030-b026-3fe33584d632","45F3B52EB83A49E49D4C7F95087F5681-2025-08-25-15-33-19","","null","","images/causal_sequence/the_performance_causal/the_performance_causal_0.png","null","",""
"","","","","","html-audio-response","32","637278","0.0-30.0","45F3B52EB83A49E49D4C7F95087F5681","45F3B52EB83A49E49D4C7F95087F5681","0198e1d1-c8de-73a5-9bf8-3ae4d4fbad75","0198c3e5-90db-7030-b026-3fe33584d632","{""num_scrambled_semantic"":""8"",""num_scrambled_causal"":""4"",""num_scrambled_schematic"":""4"",""participantId"":""45F3B52EB83A49E49D4C7F95087F5681"",""assignmentId"":""0198e1d1-c8de-73a5-9bf8-3ae4d4fbad75"",""projectId"":""0198c3e5-90db-7030-b026-3fe33584d632""}","https://test12345.live/?num_scrambled_semantic=8&num_scrambled_causal=4&num_scrambled_schematic=4&participantId=45F3B52EB83A49E49D4C7F95087F5681&assignmentId=0198e1d1-c8de-73a5-9bf8-3ae4d4fbad75&projectId=0198c3e5-90db-7030-b026-3fe33584d632","45F3B52EB83A49E49D4C7F95087F5681-2025-08-25-15-33-19","","14129","","[""<span style=\""color: red; font-size: 24px\""> NOW RECORDING</span><p>Please say out loud all the images you saw, following the storyline they create. Try to recall the sequence of events as they unfolded in the story, rather than the order in which they appeared on the screen.</p>""]","","3","the_performance_causal"
"","","","","","image-button-response","33","643286","0.0-31.0-0.0","45F3B52EB83A49E49D4C7F95087F5681","45F3B52EB83A49E49D4C7F95087F5681","0198e1d1-c8de-73a5-9bf8-3ae4d4fbad75","0198c3e5-90db-7030-b026-3fe33584d632","{""num_scrambled_semantic"":""8"",""num_scrambled_causal"":""4"",""num_scrambled_schematic"":""4"",""participantId"":""45F3B52EB83A49E49D4C7F95087F5681"",""assignmentId"":""0198e1d1-c8de-73a5-9bf8-3ae4d4fbad75"",""projectId"":""0198c3e5-90db-7030-b026-3fe33584d632""}","https://test12345.live/?num_scrambled_semantic=8&num_scrambled_causal=4&num_scrambled_schematic=4&participantId=45F3B52EB83A49E49D4C7F95087F5681&assignmentId=0198e1d1-c8de-73a5-9bf8-3ae4d4fbad75&projectId=0198c3e5-90db-7030-b026-3fe33584d632","45F3B52EB83A49E49D4C7F95087F5681-2025-08-25-15-33-19","","null","","images/causal_sequence/museum_causal/museum_causal_0.png","null","",""
"","","","","","html-audio-response","34","679796","0.0-32.0","45F3B52EB83A49E49D4C7F95087F5681","45F3B52EB83A49E49D4C7F95087F5681","0198e1d1-c8de-73a5-9bf8-3ae4d4fbad75","0198c3e5-90db-7030-b026-3fe33584d632","{""num_scrambled_semantic"":""8"",""num_scrambled_causal"":""4"",""num_scrambled_schematic"":""4"",""participantId"":""45F3B52EB83A49E49D4C7F95087F5681"",""assignmentId"":""0198e1d1-c8de-73a5-9bf8-3ae4d4fbad75"",""projectId"":""0198c3e5-90db-7030-b026-3fe33584d632""}","https://test12345.live/?num_scrambled_semantic=8&num_scrambled_causal=4&num_scrambled_schematic=4&participantId=45F3B52EB83A49E49D4C7F95087F5681&assignmentId=0198e1d1-c8de-73a5-9bf8-3ae4d4fbad75&projectId=0198c3e5-90db-7030-b026-3fe33584d632","45F3B52EB83A49E49D4C7F95087F5681-2025-08-25-15-33-19","","13197","","[""<span style=\""color: red; font-size: 24px\""> NOW RECORDING</span><p>Please say out loud all the images you saw, following the storyline they create. Try to recall the sequence of events as they unfolded in the story, rather than the order in which they appeared on the screen.</p>""]","","13","museum_causal"
"","","","","","image-button-response","35","685806","0.0-33.0-0.0","45F3B52EB83A49E49D4C7F95087F5681","45F3B52EB83A49E49D4C7F95087F5681","0198e1d1-c8de-73a5-9bf8-3ae4d4fbad75","0198c3e5-90db-7030-b026-3fe33584d632","{""num_scrambled_semantic"":""8"",""num_scrambled_causal"":""4"",""num_scrambled_schematic"":""4"",""participantId"":""45F3B52EB83A49E49D4C7F95087F5681"",""assignmentId"":""0198e1d1-c8de-73a5-9bf8-3ae4d4fbad75"",""projectId"":""0198c3e5-90db-7030-b026-3fe33584d632""}","https://test12345.live/?num_scrambled_semantic=8&num_scrambled_causal=4&num_scrambled_schematic=4&participantId=45F3B52EB83A49E49D4C7F95087F5681&assignmentId=0198e1d1-c8de-73a5-9bf8-3ae4d4fbad75&projectId=0198c3e5-90db-7030-b026-3fe33584d632","45F3B52EB83A49E49D4C7F95087F5681-2025-08-25-15-33-19","","null","","images/semantic_sequence/maintaining_a_car_semantic/maintaining_a_car_semantic_0.png","null","",""
"","","","","","html-audio-response","36","703545","0.0-34.0","45F3B52EB83A49E49D4C7F95087F5681","45F3B52EB83A49E49D4C7F95087F5681","0198e1d1-c8de-73a5-9bf8-3ae4d4fbad75","0198c3e5-90db-7030-b026-3fe33584d632","{""num_scrambled_semantic"":""8"",""num_scrambled_causal"":""4"",""num_scrambled_schematic"":""4"",""participantId"":""45F3B52EB83A49E49D4C7F95087F5681"",""assignmentId"":""0198e1d1-c8de-73a5-9bf8-3ae4d4fbad75"",""projectId"":""0198c3e5-90db-7030-b026-3fe33584d632""}","https://test12345.live/?num_scrambled_semantic=8&num_scrambled_causal=4&num_scrambled_schematic=4&participantId=45F3B52EB83A49E49D4C7F95087F5681&assignmentId=0198e1d1-c8de-73a5-9bf8-3ae4d4fbad75&projectId=0198c3e5-90db-7030-b026-3fe33584d632","45F3B52EB83A49E49D4C7F95087F5681-2025-08-25-15-33-19","","8060","","[""<span style=\""color: red; font-size: 24px\""> NOW RECORDING</span><p>Please say out loud all the images you saw, following the storyline they create. Try to recall the sequence of events as they unfolded in the story, rather than the order in which they appeared on the screen.</p>""]","","3","maintaining_a_car_semantic"
"","","","","","survey-text","37","709743","0.0-35.0","45F3B52EB83A49E49D4C7F95087F5681","45F3B52EB83A49E49D4C7F95087F5681","0198e1d1-c8de-73a5-9bf8-3ae4d4fbad75","0198c3e5-90db-7030-b026-3fe33584d632","{""num_scrambled_semantic"":""8"",""num_scrambled_causal"":""4"",""num_scrambled_schematic"":""4"",""participantId"":""45F3B52EB83A49E49D4C7F95087F5681"",""assignmentId"":""0198e1d1-c8de-73a5-9bf8-3ae4d4fbad75"",""projectId"":""0198c3e5-90db-7030-b026-3fe33584d632""}","https://test12345.live/?num_scrambled_semantic=8&num_scrambled_causal=4&num_scrambled_schematic=4&participantId=45F3B52EB83A49E49D4C7F95087F5681&assignmentId=0198e1d1-c8de-73a5-9bf8-3ae4d4fbad75&projectId=0198c3e5-90db-7030-b026-3fe33584d632","45F3B52EB83A49E49D4C7F95087F5681-2025-08-25-15-33-19","","6192","","","{""Q0"":""FEMALE"",""Q1"":""28""}","",""
"","","","","","instructions","38","723596","0.0-36.0","45F3B52EB83A49E49D4C7F95087F5681","45F3B52EB83A49E49D4C7F95087F5681","0198e1d1-c8de-73a5-9bf8-3ae4d4fbad75","0198c3e5-90db-7030-b026-3fe33584d632","{""num_scrambled_semantic"":""8"",""num_scrambled_causal"":""4"",""num_scrambled_schematic"":""4"",""participantId"":""45F3B52EB83A49E49D4C7F95087F5681"",""assignmentId"":""0198e1d1-c8de-73a5-9bf8-3ae4d4fbad75"",""projectId"":""0198c3e5-90db-7030-b026-3fe33584d632""}","https://test12345.live/?num_scrambled_semantic=8&num_scrambled_causal=4&num_scrambled_schematic=4&participantId=45F3B52EB83A49E49D4C7F95087F5681&assignmentId=0198e1d1-c8de-73a5-9bf8-3ae4d4fbad75&projectId=0198c3e5-90db-7030-b026-3fe33584d632","45F3B52EB83A49E49D4C7F95087F5681-2025-08-25-15-33-19","[{""page_index"":0,""viewing_time"":13852}]","13853","","","","",""
"","","","","","survey-text","39","726020","0.0-37.0","45F3B52EB83A49E49D4C7F95087F5681","45F3B52EB83A49E49D4C7F95087F5681","0198e1d1-c8de-73a5-9bf8-3ae4d4fbad75","0198c3e5-90db-7030-b026-3fe33584d632","{""num_scrambled_semantic"":""8"",""num_scrambled_causal"":""4"",""num_scrambled_schematic"":""4"",""participantId"":""45F3B52EB83A49E49D4C7F95087F5681"",""assignmentId"":""0198e1d1-c8de-73a5-9bf8-3ae4d4fbad75"",""projectId"":""0198c3e5-90db-7030-b026-3fe33584d632""}","https://test12345.live/?num_scrambled_semantic=8&num_scrambled_causal=4&num_scrambled_schematic=4&participantId=45F3B52EB83A49E49D4C7F95087F5681&assignmentId=0198e1d1-c8de-73a5-9bf8-3ae4d4fbad75&projectId=0198c3e5-90db-7030-b026-3fe33584d632","45F3B52EB83A49E49D4C7F95087F5681-2025-08-25-15-33-19","","2422","","","{""Q0"":""AJFHBG896""}","",""
