"success","timeout","failed_images","failed_audio","failed_video","trial_type","trial_index","time_elapsed","internal_node_id","subject","subject_id","study_id","session_id","urlvar","current_url","audio_id","view_history","rt","device_id","stimulus","response","estimated_stimulus_onset","seq_name"
"true","false","[]","[]","[]","preload","0","16440","0.0-0.0","47058B1F57CF4F96AF7814DEFB0D66C2","47058B1F57CF4F96AF7814DEFB0D66C2","463d45cb-9bd2-4929-8267-cbc8b557b7c5","9596d7a2-d401-47b1-aedd-70105f5f2f42","{""part"":""2"",""participantId"":""47058B1F57CF4F96AF7814DEFB0D66C2"",""assignmentId"":""463d45cb-9bd2-4929-8267-cbc8b557b7c5"",""projectId"":""9596d7a2-d401-47b1-aedd-70105f5f2f42""}","https://test12345.live/?part=2&participantId=47058B1F57CF4F96AF7814DEFB0D66C2&assignmentId=463d45cb-9bd2-4929-8267-cbc8b557b7c5&projectId=9596d7a2-d401-47b1-aedd-70105f5f2f42","47058B1F57CF4F96AF7814DEFB0D66C2-2025-05-28-17-32-31","","","","","","",""
"","","","","","instructions","1","25718","0.0-1.0","47058B1F57CF4F96AF7814DEFB0D66C2","47058B1F57CF4F96AF7814DEFB0D66C2","463d45cb-9bd2-4929-8267-cbc8b557b7c5","9596d7a2-d401-47b1-aedd-70105f5f2f42","{""part"":""2"",""participantId"":""47058B1F57CF4F96AF7814DEFB0D66C2"",""assignmentId"":""463d45cb-9bd2-4929-8267-cbc8b557b7c5"",""projectId"":""9596d7a2-d401-47b1-aedd-70105f5f2f42""}","https://test12345.live/?part=2&participantId=47058B1F57CF4F96AF7814DEFB0D66C2&assignmentId=463d45cb-9bd2-4929-8267-cbc8b557b7c5&projectId=9596d7a2-d401-47b1-aedd-70105f5f2f42","47058B1F57CF4F96AF7814DEFB0D66C2-2025-05-28-17-32-31","[{""page_index"":0,""viewing_time"":9277}]","9277","","","","",""
"","","","","","instructions","2","36230","0.0-2.0","47058B1F57CF4F96AF7814DEFB0D66C2","47058B1F57CF4F96AF7814DEFB0D66C2","463d45cb-9bd2-4929-8267-cbc8b557b7c5","9596d7a2-d401-47b1-aedd-70105f5f2f42","{""part"":""2"",""participantId"":""47058B1F57CF4F96AF7814DEFB0D66C2"",""assignmentId"":""463d45cb-9bd2-4929-8267-cbc8b557b7c5"",""projectId"":""9596d7a2-d401-47b1-aedd-70105f5f2f42""}","https://test12345.live/?part=2&participantId=47058B1F57CF4F96AF7814DEFB0D66C2&assignmentId=463d45cb-9bd2-4929-8267-cbc8b557b7c5&projectId=9596d7a2-d401-47b1-aedd-70105f5f2f42","47058B1F57CF4F96AF7814DEFB0D66C2-2025-05-28-17-32-31","[{""page_index"":0,""viewing_time"":10511}]","10511","","","","",""
"true","","","","","fullscreen","3","38583","0.0-3.0","47058B1F57CF4F96AF7814DEFB0D66C2","47058B1F57CF4F96AF7814DEFB0D66C2","463d45cb-9bd2-4929-8267-cbc8b557b7c5","9596d7a2-d401-47b1-aedd-70105f5f2f42","{""part"":""2"",""participantId"":""47058B1F57CF4F96AF7814DEFB0D66C2"",""assignmentId"":""463d45cb-9bd2-4929-8267-cbc8b557b7c5"",""projectId"":""9596d7a2-d401-47b1-aedd-70105f5f2f42""}","https://test12345.live/?part=2&participantId=47058B1F57CF4F96AF7814DEFB0D66C2&assignmentId=463d45cb-9bd2-4929-8267-cbc8b557b7c5&projectId=9596d7a2-d401-47b1-aedd-70105f5f2f42","47058B1F57CF4F96AF7814DEFB0D66C2-2025-05-28-17-32-31","","1349","","","","",""
"","","","","","initialize-microphone","4","40434","0.0-4.0-0.0","47058B1F57CF4F96AF7814DEFB0D66C2","47058B1F57CF4F96AF7814DEFB0D66C2","463d45cb-9bd2-4929-8267-cbc8b557b7c5","9596d7a2-d401-47b1-aedd-70105f5f2f42","{""part"":""2"",""participantId"":""47058B1F57CF4F96AF7814DEFB0D66C2"",""assignmentId"":""463d45cb-9bd2-4929-8267-cbc8b557b7c5"",""projectId"":""9596d7a2-d401-47b1-aedd-70105f5f2f42""}","https://test12345.live/?part=2&participantId=47058B1F57CF4F96AF7814DEFB0D66C2&assignmentId=463d45cb-9bd2-4929-8267-cbc8b557b7c5&projectId=9596d7a2-d401-47b1-aedd-70105f5f2f42","47058B1F57CF4F96AF7814DEFB0D66C2-2025-05-28-17-32-31","","","bdc68546de9746c4c4d4e682a923b02b77aaf2f92ea3767e632adffde5785f99","","","",""
"","","","","","html-audio-response","5","47615","0.0-4.0-1.0","47058B1F57CF4F96AF7814DEFB0D66C2","47058B1F57CF4F96AF7814DEFB0D66C2","463d45cb-9bd2-4929-8267-cbc8b557b7c5","9596d7a2-d401-47b1-aedd-70105f5f2f42","{""part"":""2"",""participantId"":""47058B1F57CF4F96AF7814DEFB0D66C2"",""assignmentId"":""463d45cb-9bd2-4929-8267-cbc8b557b7c5"",""projectId"":""9596d7a2-d401-47b1-aedd-70105f5f2f42""}","https://test12345.live/?part=2&participantId=47058B1F57CF4F96AF7814DEFB0D66C2&assignmentId=463d45cb-9bd2-4929-8267-cbc8b557b7c5&projectId=9596d7a2-d401-47b1-aedd-70105f5f2f42","47058B1F57CF4F96AF7814DEFB0D66C2-2025-05-28-17-32-31","","2082","","<span style=""color: red; font-size: 24px""> NOW RECORDING</span>
        <p>Please test Microphone</p>","","5",""
"","","","","","html-button-response","6","49051","0.0-4.0-2.0","47058B1F57CF4F96AF7814DEFB0D66C2","47058B1F57CF4F96AF7814DEFB0D66C2","463d45cb-9bd2-4929-8267-cbc8b557b7c5","9596d7a2-d401-47b1-aedd-70105f5f2f42","{""part"":""2"",""participantId"":""47058B1F57CF4F96AF7814DEFB0D66C2"",""assignmentId"":""463d45cb-9bd2-4929-8267-cbc8b557b7c5"",""projectId"":""9596d7a2-d401-47b1-aedd-70105f5f2f42""}","https://test12345.live/?part=2&participantId=47058B1F57CF4F96AF7814DEFB0D66C2&assignmentId=463d45cb-9bd2-4929-8267-cbc8b557b7c5&projectId=9596d7a2-d401-47b1-aedd-70105f5f2f42","47058B1F57CF4F96AF7814DEFB0D66C2-2025-05-28-17-32-31","","1433","","<p style=""font-size:48px; color:red;"">Is Microphone OK?</p>","1","",""
"","","","","","instructions","7","61634","0.0-5.0","47058B1F57CF4F96AF7814DEFB0D66C2","47058B1F57CF4F96AF7814DEFB0D66C2","463d45cb-9bd2-4929-8267-cbc8b557b7c5","9596d7a2-d401-47b1-aedd-70105f5f2f42","{""part"":""2"",""participantId"":""47058B1F57CF4F96AF7814DEFB0D66C2"",""assignmentId"":""463d45cb-9bd2-4929-8267-cbc8b557b7c5"",""projectId"":""9596d7a2-d401-47b1-aedd-70105f5f2f42""}","https://test12345.live/?part=2&participantId=47058B1F57CF4F96AF7814DEFB0D66C2&assignmentId=463d45cb-9bd2-4929-8267-cbc8b557b7c5&projectId=9596d7a2-d401-47b1-aedd-70105f5f2f42","47058B1F57CF4F96AF7814DEFB0D66C2-2025-05-28-17-32-31","[{""page_index"":0,""viewing_time"":1193},{""page_index"":1,""viewing_time"":2052},{""page_index"":2,""viewing_time"":9337}]","12582","","","","",""
"","","","","","image-button-response","8","67639","0.0-6.0-0.0","47058B1F57CF4F96AF7814DEFB0D66C2","47058B1F57CF4F96AF7814DEFB0D66C2","463d45cb-9bd2-4929-8267-cbc8b557b7c5","9596d7a2-d401-47b1-aedd-70105f5f2f42","{""part"":""2"",""participantId"":""47058B1F57CF4F96AF7814DEFB0D66C2"",""assignmentId"":""463d45cb-9bd2-4929-8267-cbc8b557b7c5"",""projectId"":""9596d7a2-d401-47b1-aedd-70105f5f2f42""}","https://test12345.live/?part=2&participantId=47058B1F57CF4F96AF7814DEFB0D66C2&assignmentId=463d45cb-9bd2-4929-8267-cbc8b557b7c5&projectId=9596d7a2-d401-47b1-aedd-70105f5f2f42","47058B1F57CF4F96AF7814DEFB0D66C2-2025-05-28-17-32-31","","null","","images/instructions/movie_0.png","null","",""
"","","","","","html-audio-response","9","73698","0.0-7.0","47058B1F57CF4F96AF7814DEFB0D66C2","47058B1F57CF4F96AF7814DEFB0D66C2","463d45cb-9bd2-4929-8267-cbc8b557b7c5","9596d7a2-d401-47b1-aedd-70105f5f2f42","{""part"":""2"",""participantId"":""47058B1F57CF4F96AF7814DEFB0D66C2"",""assignmentId"":""463d45cb-9bd2-4929-8267-cbc8b557b7c5"",""projectId"":""9596d7a2-d401-47b1-aedd-70105f5f2f42""}","https://test12345.live/?part=2&participantId=47058B1F57CF4F96AF7814DEFB0D66C2&assignmentId=463d45cb-9bd2-4929-8267-cbc8b557b7c5&projectId=9596d7a2-d401-47b1-aedd-70105f5f2f42","47058B1F57CF4F96AF7814DEFB0D66C2-2025-05-28-17-32-31","","4445","","[""<span style=\""color: red; font-size: 24px\""> NOW RECORDING</span><p>Please say out loud all the images you saw in part 1 of the experiment, in the exact order you saw them. Try to recall as many images as you can, but remember: getting the order right is more important than the number of images you recall.</p>""]","","6",""
"","","","","","instructions","10","74963","0.0-8.0","47058B1F57CF4F96AF7814DEFB0D66C2","47058B1F57CF4F96AF7814DEFB0D66C2","463d45cb-9bd2-4929-8267-cbc8b557b7c5","9596d7a2-d401-47b1-aedd-70105f5f2f42","{""part"":""2"",""participantId"":""47058B1F57CF4F96AF7814DEFB0D66C2"",""assignmentId"":""463d45cb-9bd2-4929-8267-cbc8b557b7c5"",""projectId"":""9596d7a2-d401-47b1-aedd-70105f5f2f42""}","https://test12345.live/?part=2&participantId=47058B1F57CF4F96AF7814DEFB0D66C2&assignmentId=463d45cb-9bd2-4929-8267-cbc8b557b7c5&projectId=9596d7a2-d401-47b1-aedd-70105f5f2f42","47058B1F57CF4F96AF7814DEFB0D66C2-2025-05-28-17-32-31","[{""page_index"":0,""viewing_time"":1262}]","1262","","","","",""
"","","","","","image-button-response","11","80966","0.0-9.0-0.0","47058B1F57CF4F96AF7814DEFB0D66C2","47058B1F57CF4F96AF7814DEFB0D66C2","463d45cb-9bd2-4929-8267-cbc8b557b7c5","9596d7a2-d401-47b1-aedd-70105f5f2f42","{""part"":""2"",""participantId"":""47058B1F57CF4F96AF7814DEFB0D66C2"",""assignmentId"":""463d45cb-9bd2-4929-8267-cbc8b557b7c5"",""projectId"":""9596d7a2-d401-47b1-aedd-70105f5f2f42""}","https://test12345.live/?part=2&participantId=47058B1F57CF4F96AF7814DEFB0D66C2&assignmentId=463d45cb-9bd2-4929-8267-cbc8b557b7c5&projectId=9596d7a2-d401-47b1-aedd-70105f5f2f42","47058B1F57CF4F96AF7814DEFB0D66C2-2025-05-28-17-32-31","","null","","images/schematic_sequence/dinner_party_scheme/dinner_party_scheme_0.png","null","",""
"","","","","","html-audio-response","12","155563","0.0-10.0","47058B1F57CF4F96AF7814DEFB0D66C2","47058B1F57CF4F96AF7814DEFB0D66C2","463d45cb-9bd2-4929-8267-cbc8b557b7c5","9596d7a2-d401-47b1-aedd-70105f5f2f42","{""part"":""2"",""participantId"":""47058B1F57CF4F96AF7814DEFB0D66C2"",""assignmentId"":""463d45cb-9bd2-4929-8267-cbc8b557b7c5"",""projectId"":""9596d7a2-d401-47b1-aedd-70105f5f2f42""}","https://test12345.live/?part=2&participantId=47058B1F57CF4F96AF7814DEFB0D66C2&assignmentId=463d45cb-9bd2-4929-8267-cbc8b557b7c5&projectId=9596d7a2-d401-47b1-aedd-70105f5f2f42","47058B1F57CF4F96AF7814DEFB0D66C2-2025-05-28-17-32-31","","14489","","[""<span style=\""color: red; font-size: 24px\""> NOW RECORDING</span><p>Please say out loud all the images you saw in part 1 of the experiment, in the exact order you saw them. Try to recall as many images as you can, but remember: getting the order right is more important than the number of images you recall. </p>""]","","15","dinner_party_scheme"
"","","","","","image-button-response","13","161567","0.0-11.0-0.0","47058B1F57CF4F96AF7814DEFB0D66C2","47058B1F57CF4F96AF7814DEFB0D66C2","463d45cb-9bd2-4929-8267-cbc8b557b7c5","9596d7a2-d401-47b1-aedd-70105f5f2f42","{""part"":""2"",""participantId"":""47058B1F57CF4F96AF7814DEFB0D66C2"",""assignmentId"":""463d45cb-9bd2-4929-8267-cbc8b557b7c5"",""projectId"":""9596d7a2-d401-47b1-aedd-70105f5f2f42""}","https://test12345.live/?part=2&participantId=47058B1F57CF4F96AF7814DEFB0D66C2&assignmentId=463d45cb-9bd2-4929-8267-cbc8b557b7c5&projectId=9596d7a2-d401-47b1-aedd-70105f5f2f42","47058B1F57CF4F96AF7814DEFB0D66C2-2025-05-28-17-32-31","","null","","images/semantic_sequence/maintaining_a_car_semantic/maintaining_a_car_semantic_0.png","null","",""
"","","","","","html-audio-response","14","192966","0.0-12.0","47058B1F57CF4F96AF7814DEFB0D66C2","47058B1F57CF4F96AF7814DEFB0D66C2","463d45cb-9bd2-4929-8267-cbc8b557b7c5","9596d7a2-d401-47b1-aedd-70105f5f2f42","{""part"":""2"",""participantId"":""47058B1F57CF4F96AF7814DEFB0D66C2"",""assignmentId"":""463d45cb-9bd2-4929-8267-cbc8b557b7c5"",""projectId"":""9596d7a2-d401-47b1-aedd-70105f5f2f42""}","https://test12345.live/?part=2&participantId=47058B1F57CF4F96AF7814DEFB0D66C2&assignmentId=463d45cb-9bd2-4929-8267-cbc8b557b7c5&projectId=9596d7a2-d401-47b1-aedd-70105f5f2f42","47058B1F57CF4F96AF7814DEFB0D66C2-2025-05-28-17-32-31","","21110","","[""<span style=\""color: red; font-size: 24px\""> NOW RECORDING</span><p>Please say out loud all the images you saw in part 1 of the experiment, in the exact order you saw them. Try to recall as many images as you can, but remember: getting the order right is more important than the number of images you recall. </p>""]","","16","maintaining_a_car_semantic"
"","","","","","image-button-response","15","198972","0.0-13.0-0.0","47058B1F57CF4F96AF7814DEFB0D66C2","47058B1F57CF4F96AF7814DEFB0D66C2","463d45cb-9bd2-4929-8267-cbc8b557b7c5","9596d7a2-d401-47b1-aedd-70105f5f2f42","{""part"":""2"",""participantId"":""47058B1F57CF4F96AF7814DEFB0D66C2"",""assignmentId"":""463d45cb-9bd2-4929-8267-cbc8b557b7c5"",""projectId"":""9596d7a2-d401-47b1-aedd-70105f5f2f42""}","https://test12345.live/?part=2&participantId=47058B1F57CF4F96AF7814DEFB0D66C2&assignmentId=463d45cb-9bd2-4929-8267-cbc8b557b7c5&projectId=9596d7a2-d401-47b1-aedd-70105f5f2f42","47058B1F57CF4F96AF7814DEFB0D66C2-2025-05-28-17-32-31","","null","","images/semantic_sequence/market_semantic/market_semantic_0.png","null","",""
"","","","","","html-audio-response","16","218833","0.0-14.0","47058B1F57CF4F96AF7814DEFB0D66C2","47058B1F57CF4F96AF7814DEFB0D66C2","463d45cb-9bd2-4929-8267-cbc8b557b7c5","9596d7a2-d401-47b1-aedd-70105f5f2f42","{""part"":""2"",""participantId"":""47058B1F57CF4F96AF7814DEFB0D66C2"",""assignmentId"":""463d45cb-9bd2-4929-8267-cbc8b557b7c5"",""projectId"":""9596d7a2-d401-47b1-aedd-70105f5f2f42""}","https://test12345.live/?part=2&participantId=47058B1F57CF4F96AF7814DEFB0D66C2&assignmentId=463d45cb-9bd2-4929-8267-cbc8b557b7c5&projectId=9596d7a2-d401-47b1-aedd-70105f5f2f42","47058B1F57CF4F96AF7814DEFB0D66C2-2025-05-28-17-32-31","","18197","","[""<span style=\""color: red; font-size: 24px\""> NOW RECORDING</span><p>Please say out loud all the images you saw in part 1 of the experiment, in the exact order you saw them. Try to recall as many images as you can, but remember: getting the order right is more important than the number of images you recall. </p>""]","","10","market_semantic"
"","","","","","image-button-response","17","224840","0.0-15.0-0.0","47058B1F57CF4F96AF7814DEFB0D66C2","47058B1F57CF4F96AF7814DEFB0D66C2","463d45cb-9bd2-4929-8267-cbc8b557b7c5","9596d7a2-d401-47b1-aedd-70105f5f2f42","{""part"":""2"",""participantId"":""47058B1F57CF4F96AF7814DEFB0D66C2"",""assignmentId"":""463d45cb-9bd2-4929-8267-cbc8b557b7c5"",""projectId"":""9596d7a2-d401-47b1-aedd-70105f5f2f42""}","https://test12345.live/?part=2&participantId=47058B1F57CF4F96AF7814DEFB0D66C2&assignmentId=463d45cb-9bd2-4929-8267-cbc8b557b7c5&projectId=9596d7a2-d401-47b1-aedd-70105f5f2f42","47058B1F57CF4F96AF7814DEFB0D66C2-2025-05-28-17-32-31","","null","","images/causal_sequence/coin_causal/coin_causal_0.png","null","",""
"","","","","","html-audio-response","18","247380","0.0-16.0","47058B1F57CF4F96AF7814DEFB0D66C2","47058B1F57CF4F96AF7814DEFB0D66C2","463d45cb-9bd2-4929-8267-cbc8b557b7c5","9596d7a2-d401-47b1-aedd-70105f5f2f42","{""part"":""2"",""participantId"":""47058B1F57CF4F96AF7814DEFB0D66C2"",""assignmentId"":""463d45cb-9bd2-4929-8267-cbc8b557b7c5"",""projectId"":""9596d7a2-d401-47b1-aedd-70105f5f2f42""}","https://test12345.live/?part=2&participantId=47058B1F57CF4F96AF7814DEFB0D66C2&assignmentId=463d45cb-9bd2-4929-8267-cbc8b557b7c5&projectId=9596d7a2-d401-47b1-aedd-70105f5f2f42","47058B1F57CF4F96AF7814DEFB0D66C2-2025-05-28-17-32-31","","21266","","[""<span style=\""color: red; font-size: 24px\""> NOW RECORDING</span><p>Please say out loud all the images you saw in part 1 of the experiment, in the exact order you saw them. Try to recall as many images as you can, but remember: getting the order right is more important than the number of images you recall. </p>""]","","5","coin_causal"
"","","","","","image-button-response","19","253385","0.0-17.0-0.0","47058B1F57CF4F96AF7814DEFB0D66C2","47058B1F57CF4F96AF7814DEFB0D66C2","463d45cb-9bd2-4929-8267-cbc8b557b7c5","9596d7a2-d401-47b1-aedd-70105f5f2f42","{""part"":""2"",""participantId"":""47058B1F57CF4F96AF7814DEFB0D66C2"",""assignmentId"":""463d45cb-9bd2-4929-8267-cbc8b557b7c5"",""projectId"":""9596d7a2-d401-47b1-aedd-70105f5f2f42""}","https://test12345.live/?part=2&participantId=47058B1F57CF4F96AF7814DEFB0D66C2&assignmentId=463d45cb-9bd2-4929-8267-cbc8b557b7c5&projectId=9596d7a2-d401-47b1-aedd-70105f5f2f42","47058B1F57CF4F96AF7814DEFB0D66C2-2025-05-28-17-32-31","","null","","images/semantic_sequence/redecorating_semantic/redecorating_semantic_0.png","null","",""
"","","","","","html-audio-response","20","273163","0.0-18.0","47058B1F57CF4F96AF7814DEFB0D66C2","47058B1F57CF4F96AF7814DEFB0D66C2","463d45cb-9bd2-4929-8267-cbc8b557b7c5","9596d7a2-d401-47b1-aedd-70105f5f2f42","{""part"":""2"",""participantId"":""47058B1F57CF4F96AF7814DEFB0D66C2"",""assignmentId"":""463d45cb-9bd2-4929-8267-cbc8b557b7c5"",""projectId"":""9596d7a2-d401-47b1-aedd-70105f5f2f42""}","https://test12345.live/?part=2&participantId=47058B1F57CF4F96AF7814DEFB0D66C2&assignmentId=463d45cb-9bd2-4929-8267-cbc8b557b7c5&projectId=9596d7a2-d401-47b1-aedd-70105f5f2f42","47058B1F57CF4F96AF7814DEFB0D66C2-2025-05-28-17-32-31","","18629","","[""<span style=\""color: red; font-size: 24px\""> NOW RECORDING</span><p>Please say out loud all the images you saw in part 1 of the experiment, in the exact order you saw them. Try to recall as many images as you can, but remember: getting the order right is more important than the number of images you recall. </p>""]","","6","redecorating_semantic"
"","","","","","image-button-response","21","279167","0.0-19.0-0.0","47058B1F57CF4F96AF7814DEFB0D66C2","47058B1F57CF4F96AF7814DEFB0D66C2","463d45cb-9bd2-4929-8267-cbc8b557b7c5","9596d7a2-d401-47b1-aedd-70105f5f2f42","{""part"":""2"",""participantId"":""47058B1F57CF4F96AF7814DEFB0D66C2"",""assignmentId"":""463d45cb-9bd2-4929-8267-cbc8b557b7c5"",""projectId"":""9596d7a2-d401-47b1-aedd-70105f5f2f42""}","https://test12345.live/?part=2&participantId=47058B1F57CF4F96AF7814DEFB0D66C2&assignmentId=463d45cb-9bd2-4929-8267-cbc8b557b7c5&projectId=9596d7a2-d401-47b1-aedd-70105f5f2f42","47058B1F57CF4F96AF7814DEFB0D66C2-2025-05-28-17-32-31","","null","","images/schematic_sequence/restaurant_scheme/restaurant_scheme_0.png","null","",""
"","","","","","html-audio-response","22","293114","0.0-20.0","47058B1F57CF4F96AF7814DEFB0D66C2","47058B1F57CF4F96AF7814DEFB0D66C2","463d45cb-9bd2-4929-8267-cbc8b557b7c5","9596d7a2-d401-47b1-aedd-70105f5f2f42","{""part"":""2"",""participantId"":""47058B1F57CF4F96AF7814DEFB0D66C2"",""assignmentId"":""463d45cb-9bd2-4929-8267-cbc8b557b7c5"",""projectId"":""9596d7a2-d401-47b1-aedd-70105f5f2f42""}","https://test12345.live/?part=2&participantId=47058B1F57CF4F96AF7814DEFB0D66C2&assignmentId=463d45cb-9bd2-4929-8267-cbc8b557b7c5&projectId=9596d7a2-d401-47b1-aedd-70105f5f2f42","47058B1F57CF4F96AF7814DEFB0D66C2-2025-05-28-17-32-31","","12782","","[""<span style=\""color: red; font-size: 24px\""> NOW RECORDING</span><p>Please say out loud all the images you saw in part 1 of the experiment, in the exact order you saw them. Try to recall as many images as you can, but remember: getting the order right is more important than the number of images you recall. </p>""]","","9","restaurant_scheme"
"","","","","","image-button-response","23","299119","0.0-21.0-0.0","47058B1F57CF4F96AF7814DEFB0D66C2","47058B1F57CF4F96AF7814DEFB0D66C2","463d45cb-9bd2-4929-8267-cbc8b557b7c5","9596d7a2-d401-47b1-aedd-70105f5f2f42","{""part"":""2"",""participantId"":""47058B1F57CF4F96AF7814DEFB0D66C2"",""assignmentId"":""463d45cb-9bd2-4929-8267-cbc8b557b7c5"",""projectId"":""9596d7a2-d401-47b1-aedd-70105f5f2f42""}","https://test12345.live/?part=2&participantId=47058B1F57CF4F96AF7814DEFB0D66C2&assignmentId=463d45cb-9bd2-4929-8267-cbc8b557b7c5&projectId=9596d7a2-d401-47b1-aedd-70105f5f2f42","47058B1F57CF4F96AF7814DEFB0D66C2-2025-05-28-17-32-31","","null","","images/schematic_sequence/hotel_scheme/hotel_scheme_0.png","null","",""
"","","","","","html-audio-response","24","311551","0.0-22.0","47058B1F57CF4F96AF7814DEFB0D66C2","47058B1F57CF4F96AF7814DEFB0D66C2","463d45cb-9bd2-4929-8267-cbc8b557b7c5","9596d7a2-d401-47b1-aedd-70105f5f2f42","{""part"":""2"",""participantId"":""47058B1F57CF4F96AF7814DEFB0D66C2"",""assignmentId"":""463d45cb-9bd2-4929-8267-cbc8b557b7c5"",""projectId"":""9596d7a2-d401-47b1-aedd-70105f5f2f42""}","https://test12345.live/?part=2&participantId=47058B1F57CF4F96AF7814DEFB0D66C2&assignmentId=463d45cb-9bd2-4929-8267-cbc8b557b7c5&projectId=9596d7a2-d401-47b1-aedd-70105f5f2f42","47058B1F57CF4F96AF7814DEFB0D66C2-2025-05-28-17-32-31","","11394","","[""<span style=\""color: red; font-size: 24px\""> NOW RECORDING</span><p>Please say out loud all the images you saw in part 1 of the experiment, in the exact order you saw them. Try to recall as many images as you can, but remember: getting the order right is more important than the number of images you recall. </p>""]","","8","hotel_scheme"
"","","","","","image-button-response","25","317555","0.0-23.0-0.0","47058B1F57CF4F96AF7814DEFB0D66C2","47058B1F57CF4F96AF7814DEFB0D66C2","463d45cb-9bd2-4929-8267-cbc8b557b7c5","9596d7a2-d401-47b1-aedd-70105f5f2f42","{""part"":""2"",""participantId"":""47058B1F57CF4F96AF7814DEFB0D66C2"",""assignmentId"":""463d45cb-9bd2-4929-8267-cbc8b557b7c5"",""projectId"":""9596d7a2-d401-47b1-aedd-70105f5f2f42""}","https://test12345.live/?part=2&participantId=47058B1F57CF4F96AF7814DEFB0D66C2&assignmentId=463d45cb-9bd2-4929-8267-cbc8b557b7c5&projectId=9596d7a2-d401-47b1-aedd-70105f5f2f42","47058B1F57CF4F96AF7814DEFB0D66C2-2025-05-28-17-32-31","","null","","images/causal_sequence/museum_causal/museum_causal_0.png","null","",""
"","","","","","html-audio-response","26","335764","0.0-24.0","47058B1F57CF4F96AF7814DEFB0D66C2","47058B1F57CF4F96AF7814DEFB0D66C2","463d45cb-9bd2-4929-8267-cbc8b557b7c5","9596d7a2-d401-47b1-aedd-70105f5f2f42","{""part"":""2"",""participantId"":""47058B1F57CF4F96AF7814DEFB0D66C2"",""assignmentId"":""463d45cb-9bd2-4929-8267-cbc8b557b7c5"",""projectId"":""9596d7a2-d401-47b1-aedd-70105f5f2f42""}","https://test12345.live/?part=2&participantId=47058B1F57CF4F96AF7814DEFB0D66C2&assignmentId=463d45cb-9bd2-4929-8267-cbc8b557b7c5&projectId=9596d7a2-d401-47b1-aedd-70105f5f2f42","47058B1F57CF4F96AF7814DEFB0D66C2-2025-05-28-17-32-31","","16776","","[""<span style=\""color: red; font-size: 24px\""> NOW RECORDING</span><p>Please say out loud all the images you saw in part 1 of the experiment, in the exact order you saw them. Try to recall as many images as you can, but remember: getting the order right is more important than the number of images you recall. </p>""]","","18","museum_causal"
"","","","","","image-button-response","27","341770","0.0-25.0-0.0","47058B1F57CF4F96AF7814DEFB0D66C2","47058B1F57CF4F96AF7814DEFB0D66C2","463d45cb-9bd2-4929-8267-cbc8b557b7c5","9596d7a2-d401-47b1-aedd-70105f5f2f42","{""part"":""2"",""participantId"":""47058B1F57CF4F96AF7814DEFB0D66C2"",""assignmentId"":""463d45cb-9bd2-4929-8267-cbc8b557b7c5"",""projectId"":""9596d7a2-d401-47b1-aedd-70105f5f2f42""}","https://test12345.live/?part=2&participantId=47058B1F57CF4F96AF7814DEFB0D66C2&assignmentId=463d45cb-9bd2-4929-8267-cbc8b557b7c5&projectId=9596d7a2-d401-47b1-aedd-70105f5f2f42","47058B1F57CF4F96AF7814DEFB0D66C2-2025-05-28-17-32-31","","null","","images/semantic_sequence/physical_activity_semantic/physical_activity_semantic_0.png","null","",""
"","","","","","html-audio-response","28","354231","0.0-26.0","47058B1F57CF4F96AF7814DEFB0D66C2","47058B1F57CF4F96AF7814DEFB0D66C2","463d45cb-9bd2-4929-8267-cbc8b557b7c5","9596d7a2-d401-47b1-aedd-70105f5f2f42","{""part"":""2"",""participantId"":""47058B1F57CF4F96AF7814DEFB0D66C2"",""assignmentId"":""463d45cb-9bd2-4929-8267-cbc8b557b7c5"",""projectId"":""9596d7a2-d401-47b1-aedd-70105f5f2f42""}","https://test12345.live/?part=2&participantId=47058B1F57CF4F96AF7814DEFB0D66C2&assignmentId=463d45cb-9bd2-4929-8267-cbc8b557b7c5&projectId=9596d7a2-d401-47b1-aedd-70105f5f2f42","47058B1F57CF4F96AF7814DEFB0D66C2-2025-05-28-17-32-31","","11716","","[""<span style=\""color: red; font-size: 24px\""> NOW RECORDING</span><p>Please say out loud all the images you saw in part 1 of the experiment, in the exact order you saw them. Try to recall as many images as you can, but remember: getting the order right is more important than the number of images you recall. </p>""]","","8","physical_activity_semantic"
"","","","","","image-button-response","29","360236","0.0-27.0-0.0","47058B1F57CF4F96AF7814DEFB0D66C2","47058B1F57CF4F96AF7814DEFB0D66C2","463d45cb-9bd2-4929-8267-cbc8b557b7c5","9596d7a2-d401-47b1-aedd-70105f5f2f42","{""part"":""2"",""participantId"":""47058B1F57CF4F96AF7814DEFB0D66C2"",""assignmentId"":""463d45cb-9bd2-4929-8267-cbc8b557b7c5"",""projectId"":""9596d7a2-d401-47b1-aedd-70105f5f2f42""}","https://test12345.live/?part=2&participantId=47058B1F57CF4F96AF7814DEFB0D66C2&assignmentId=463d45cb-9bd2-4929-8267-cbc8b557b7c5&projectId=9596d7a2-d401-47b1-aedd-70105f5f2f42","47058B1F57CF4F96AF7814DEFB0D66C2-2025-05-28-17-32-31","","null","","images/causal_sequence/package_causal/package_causal_0.png","null","",""
"","","","","","html-audio-response","30","386698","0.0-28.0","47058B1F57CF4F96AF7814DEFB0D66C2","47058B1F57CF4F96AF7814DEFB0D66C2","463d45cb-9bd2-4929-8267-cbc8b557b7c5","9596d7a2-d401-47b1-aedd-70105f5f2f42","{""part"":""2"",""participantId"":""47058B1F57CF4F96AF7814DEFB0D66C2"",""assignmentId"":""463d45cb-9bd2-4929-8267-cbc8b557b7c5"",""projectId"":""9596d7a2-d401-47b1-aedd-70105f5f2f42""}","https://test12345.live/?part=2&participantId=47058B1F57CF4F96AF7814DEFB0D66C2&assignmentId=463d45cb-9bd2-4929-8267-cbc8b557b7c5&projectId=9596d7a2-d401-47b1-aedd-70105f5f2f42","47058B1F57CF4F96AF7814DEFB0D66C2-2025-05-28-17-32-31","","25647","","[""<span style=\""color: red; font-size: 24px\""> NOW RECORDING</span><p>Please say out loud all the images you saw in part 1 of the experiment, in the exact order you saw them. Try to recall as many images as you can, but remember: getting the order right is more important than the number of images you recall. </p>""]","","4","package_causal"
"","","","","","image-button-response","31","392704","0.0-29.0-0.0","47058B1F57CF4F96AF7814DEFB0D66C2","47058B1F57CF4F96AF7814DEFB0D66C2","463d45cb-9bd2-4929-8267-cbc8b557b7c5","9596d7a2-d401-47b1-aedd-70105f5f2f42","{""part"":""2"",""participantId"":""47058B1F57CF4F96AF7814DEFB0D66C2"",""assignmentId"":""463d45cb-9bd2-4929-8267-cbc8b557b7c5"",""projectId"":""9596d7a2-d401-47b1-aedd-70105f5f2f42""}","https://test12345.live/?part=2&participantId=47058B1F57CF4F96AF7814DEFB0D66C2&assignmentId=463d45cb-9bd2-4929-8267-cbc8b557b7c5&projectId=9596d7a2-d401-47b1-aedd-70105f5f2f42","47058B1F57CF4F96AF7814DEFB0D66C2-2025-05-28-17-32-31","","null","","images/semantic_sequence/creative_activities_semantic/creative_activities_semantic_0.png","null","",""
"","","","","","html-audio-response","32","403116","0.0-30.0","47058B1F57CF4F96AF7814DEFB0D66C2","47058B1F57CF4F96AF7814DEFB0D66C2","463d45cb-9bd2-4929-8267-cbc8b557b7c5","9596d7a2-d401-47b1-aedd-70105f5f2f42","{""part"":""2"",""participantId"":""47058B1F57CF4F96AF7814DEFB0D66C2"",""assignmentId"":""463d45cb-9bd2-4929-8267-cbc8b557b7c5"",""projectId"":""9596d7a2-d401-47b1-aedd-70105f5f2f42""}","https://test12345.live/?part=2&participantId=47058B1F57CF4F96AF7814DEFB0D66C2&assignmentId=463d45cb-9bd2-4929-8267-cbc8b557b7c5&projectId=9596d7a2-d401-47b1-aedd-70105f5f2f42","47058B1F57CF4F96AF7814DEFB0D66C2-2025-05-28-17-32-31","","9611","","[""<span style=\""color: red; font-size: 24px\""> NOW RECORDING</span><p>Please say out loud all the images you saw in part 1 of the experiment, in the exact order you saw them. Try to recall as many images as you can, but remember: getting the order right is more important than the number of images you recall. </p>""]","","17","creative_activities_semantic"
"","","","","","image-button-response","33","409120","0.0-31.0-0.0","47058B1F57CF4F96AF7814DEFB0D66C2","47058B1F57CF4F96AF7814DEFB0D66C2","463d45cb-9bd2-4929-8267-cbc8b557b7c5","9596d7a2-d401-47b1-aedd-70105f5f2f42","{""part"":""2"",""participantId"":""47058B1F57CF4F96AF7814DEFB0D66C2"",""assignmentId"":""463d45cb-9bd2-4929-8267-cbc8b557b7c5"",""projectId"":""9596d7a2-d401-47b1-aedd-70105f5f2f42""}","https://test12345.live/?part=2&participantId=47058B1F57CF4F96AF7814DEFB0D66C2&assignmentId=463d45cb-9bd2-4929-8267-cbc8b557b7c5&projectId=9596d7a2-d401-47b1-aedd-70105f5f2f42","47058B1F57CF4F96AF7814DEFB0D66C2-2025-05-28-17-32-31","","null","","images/semantic_sequence/exploring_nature_semantic/exploring_nature_semantic_0.png","null","",""
"","","","","","html-audio-response","34","423734","0.0-32.0","47058B1F57CF4F96AF7814DEFB0D66C2","47058B1F57CF4F96AF7814DEFB0D66C2","463d45cb-9bd2-4929-8267-cbc8b557b7c5","9596d7a2-d401-47b1-aedd-70105f5f2f42","{""part"":""2"",""participantId"":""47058B1F57CF4F96AF7814DEFB0D66C2"",""assignmentId"":""463d45cb-9bd2-4929-8267-cbc8b557b7c5"",""projectId"":""9596d7a2-d401-47b1-aedd-70105f5f2f42""}","https://test12345.live/?part=2&participantId=47058B1F57CF4F96AF7814DEFB0D66C2&assignmentId=463d45cb-9bd2-4929-8267-cbc8b557b7c5&projectId=9596d7a2-d401-47b1-aedd-70105f5f2f42","47058B1F57CF4F96AF7814DEFB0D66C2-2025-05-28-17-32-31","","13628","","[""<span style=\""color: red; font-size: 24px\""> NOW RECORDING</span><p>Please say out loud all the images you saw in part 1 of the experiment, in the exact order you saw them. Try to recall as many images as you can, but remember: getting the order right is more important than the number of images you recall. </p>""]","","8","exploring_nature_semantic"
"","","","","","image-button-response","35","429740","0.0-33.0-0.0","47058B1F57CF4F96AF7814DEFB0D66C2","47058B1F57CF4F96AF7814DEFB0D66C2","463d45cb-9bd2-4929-8267-cbc8b557b7c5","9596d7a2-d401-47b1-aedd-70105f5f2f42","{""part"":""2"",""participantId"":""47058B1F57CF4F96AF7814DEFB0D66C2"",""assignmentId"":""463d45cb-9bd2-4929-8267-cbc8b557b7c5"",""projectId"":""9596d7a2-d401-47b1-aedd-70105f5f2f42""}","https://test12345.live/?part=2&participantId=47058B1F57CF4F96AF7814DEFB0D66C2&assignmentId=463d45cb-9bd2-4929-8267-cbc8b557b7c5&projectId=9596d7a2-d401-47b1-aedd-70105f5f2f42","47058B1F57CF4F96AF7814DEFB0D66C2-2025-05-28-17-32-31","","null","","images/semantic_sequence/using_technology_semantic/using_technology_semantic_0.png","null","",""
"","","","","","html-audio-response","36","456348","0.0-34.0","47058B1F57CF4F96AF7814DEFB0D66C2","47058B1F57CF4F96AF7814DEFB0D66C2","463d45cb-9bd2-4929-8267-cbc8b557b7c5","9596d7a2-d401-47b1-aedd-70105f5f2f42","{""part"":""2"",""participantId"":""47058B1F57CF4F96AF7814DEFB0D66C2"",""assignmentId"":""463d45cb-9bd2-4929-8267-cbc8b557b7c5"",""projectId"":""9596d7a2-d401-47b1-aedd-70105f5f2f42""}","https://test12345.live/?part=2&participantId=47058B1F57CF4F96AF7814DEFB0D66C2&assignmentId=463d45cb-9bd2-4929-8267-cbc8b557b7c5&projectId=9596d7a2-d401-47b1-aedd-70105f5f2f42","47058B1F57CF4F96AF7814DEFB0D66C2-2025-05-28-17-32-31","","25879","","[""<span style=\""color: red; font-size: 24px\""> NOW RECORDING</span><p>Please say out loud all the images you saw in part 1 of the experiment, in the exact order you saw them. Try to recall as many images as you can, but remember: getting the order right is more important than the number of images you recall. </p>""]","","6","using_technology_semantic"
"","","","","","instructions","37","530212","0.0-35.0","47058B1F57CF4F96AF7814DEFB0D66C2","47058B1F57CF4F96AF7814DEFB0D66C2","463d45cb-9bd2-4929-8267-cbc8b557b7c5","9596d7a2-d401-47b1-aedd-70105f5f2f42","{""part"":""2"",""participantId"":""47058B1F57CF4F96AF7814DEFB0D66C2"",""assignmentId"":""463d45cb-9bd2-4929-8267-cbc8b557b7c5"",""projectId"":""9596d7a2-d401-47b1-aedd-70105f5f2f42""}","https://test12345.live/?part=2&participantId=47058B1F57CF4F96AF7814DEFB0D66C2&assignmentId=463d45cb-9bd2-4929-8267-cbc8b557b7c5&projectId=9596d7a2-d401-47b1-aedd-70105f5f2f42","47058B1F57CF4F96AF7814DEFB0D66C2-2025-05-28-17-32-31","[{""page_index"":0,""viewing_time"":73859}]","73859","","","","",""
"","","","","","image-button-response","38","536217","0.0-36.0-0.0","47058B1F57CF4F96AF7814DEFB0D66C2","47058B1F57CF4F96AF7814DEFB0D66C2","463d45cb-9bd2-4929-8267-cbc8b557b7c5","9596d7a2-d401-47b1-aedd-70105f5f2f42","{""part"":""2"",""participantId"":""47058B1F57CF4F96AF7814DEFB0D66C2"",""assignmentId"":""463d45cb-9bd2-4929-8267-cbc8b557b7c5"",""projectId"":""9596d7a2-d401-47b1-aedd-70105f5f2f42""}","https://test12345.live/?part=2&participantId=47058B1F57CF4F96AF7814DEFB0D66C2&assignmentId=463d45cb-9bd2-4929-8267-cbc8b557b7c5&projectId=9596d7a2-d401-47b1-aedd-70105f5f2f42","47058B1F57CF4F96AF7814DEFB0D66C2-2025-05-28-17-32-31","","null","","images/semantic_sequence/cat_care_semantic/cat_care_semantic_0.png","null","",""
"","","","","","html-audio-response","39","552014","0.0-37.0","47058B1F57CF4F96AF7814DEFB0D66C2","47058B1F57CF4F96AF7814DEFB0D66C2","463d45cb-9bd2-4929-8267-cbc8b557b7c5","9596d7a2-d401-47b1-aedd-70105f5f2f42","{""part"":""2"",""participantId"":""47058B1F57CF4F96AF7814DEFB0D66C2"",""assignmentId"":""463d45cb-9bd2-4929-8267-cbc8b557b7c5"",""projectId"":""9596d7a2-d401-47b1-aedd-70105f5f2f42""}","https://test12345.live/?part=2&participantId=47058B1F57CF4F96AF7814DEFB0D66C2&assignmentId=463d45cb-9bd2-4929-8267-cbc8b557b7c5&projectId=9596d7a2-d401-47b1-aedd-70105f5f2f42","47058B1F57CF4F96AF7814DEFB0D66C2-2025-05-28-17-32-31","","15110","","[""<span style=\""color: red; font-size: 24px\""> NOW RECORDING</span><p>Please say out loud all the images you saw in part 1 of the experiment, in the exact order you saw them. Try to recall as many images as you can, but remember: getting the order right is more important than the number of images you recall. </p>""]","","11","cat_care_semantic"
"","","","","","image-button-response","40","558017","0.0-38.0-0.0","47058B1F57CF4F96AF7814DEFB0D66C2","47058B1F57CF4F96AF7814DEFB0D66C2","463d45cb-9bd2-4929-8267-cbc8b557b7c5","9596d7a2-d401-47b1-aedd-70105f5f2f42","{""part"":""2"",""participantId"":""47058B1F57CF4F96AF7814DEFB0D66C2"",""assignmentId"":""463d45cb-9bd2-4929-8267-cbc8b557b7c5"",""projectId"":""9596d7a2-d401-47b1-aedd-70105f5f2f42""}","https://test12345.live/?part=2&participantId=47058B1F57CF4F96AF7814DEFB0D66C2&assignmentId=463d45cb-9bd2-4929-8267-cbc8b557b7c5&projectId=9596d7a2-d401-47b1-aedd-70105f5f2f42","47058B1F57CF4F96AF7814DEFB0D66C2-2025-05-28-17-32-31","","null","","images/schematic_sequence/flight_scheme/flight_scheme_0.png","null","",""
"","","","","","html-audio-response","41","572714","0.0-39.0","47058B1F57CF4F96AF7814DEFB0D66C2","47058B1F57CF4F96AF7814DEFB0D66C2","463d45cb-9bd2-4929-8267-cbc8b557b7c5","9596d7a2-d401-47b1-aedd-70105f5f2f42","{""part"":""2"",""participantId"":""47058B1F57CF4F96AF7814DEFB0D66C2"",""assignmentId"":""463d45cb-9bd2-4929-8267-cbc8b557b7c5"",""projectId"":""9596d7a2-d401-47b1-aedd-70105f5f2f42""}","https://test12345.live/?part=2&participantId=47058B1F57CF4F96AF7814DEFB0D66C2&assignmentId=463d45cb-9bd2-4929-8267-cbc8b557b7c5&projectId=9596d7a2-d401-47b1-aedd-70105f5f2f42","47058B1F57CF4F96AF7814DEFB0D66C2-2025-05-28-17-32-31","","13728","","[""<span style=\""color: red; font-size: 24px\""> NOW RECORDING</span><p>Please say out loud all the images you saw in part 1 of the experiment, in the exact order you saw them. Try to recall as many images as you can, but remember: getting the order right is more important than the number of images you recall. </p>""]","","8","flight_scheme"
"","","","","","image-button-response","42","578719","0.0-40.0-0.0","47058B1F57CF4F96AF7814DEFB0D66C2","47058B1F57CF4F96AF7814DEFB0D66C2","463d45cb-9bd2-4929-8267-cbc8b557b7c5","9596d7a2-d401-47b1-aedd-70105f5f2f42","{""part"":""2"",""participantId"":""47058B1F57CF4F96AF7814DEFB0D66C2"",""assignmentId"":""463d45cb-9bd2-4929-8267-cbc8b557b7c5"",""projectId"":""9596d7a2-d401-47b1-aedd-70105f5f2f42""}","https://test12345.live/?part=2&participantId=47058B1F57CF4F96AF7814DEFB0D66C2&assignmentId=463d45cb-9bd2-4929-8267-cbc8b557b7c5&projectId=9596d7a2-d401-47b1-aedd-70105f5f2f42","47058B1F57CF4F96AF7814DEFB0D66C2-2025-05-28-17-32-31","","null","","images/semantic_sequence/visiting_cities_semantic/visiting_cities_semantic_0.png","null","",""
"","","","","","html-audio-response","43","588834","0.0-41.0","47058B1F57CF4F96AF7814DEFB0D66C2","47058B1F57CF4F96AF7814DEFB0D66C2","463d45cb-9bd2-4929-8267-cbc8b557b7c5","9596d7a2-d401-47b1-aedd-70105f5f2f42","{""part"":""2"",""participantId"":""47058B1F57CF4F96AF7814DEFB0D66C2"",""assignmentId"":""463d45cb-9bd2-4929-8267-cbc8b557b7c5"",""projectId"":""9596d7a2-d401-47b1-aedd-70105f5f2f42""}","https://test12345.live/?part=2&participantId=47058B1F57CF4F96AF7814DEFB0D66C2&assignmentId=463d45cb-9bd2-4929-8267-cbc8b557b7c5&projectId=9596d7a2-d401-47b1-aedd-70105f5f2f42","47058B1F57CF4F96AF7814DEFB0D66C2-2025-05-28-17-32-31","","9147","","[""<span style=\""color: red; font-size: 24px\""> NOW RECORDING</span><p>Please say out loud all the images you saw in part 1 of the experiment, in the exact order you saw them. Try to recall as many images as you can, but remember: getting the order right is more important than the number of images you recall. </p>""]","","8","visiting_cities_semantic"
"","","","","","image-button-response","44","594839","0.0-42.0-0.0","47058B1F57CF4F96AF7814DEFB0D66C2","47058B1F57CF4F96AF7814DEFB0D66C2","463d45cb-9bd2-4929-8267-cbc8b557b7c5","9596d7a2-d401-47b1-aedd-70105f5f2f42","{""part"":""2"",""participantId"":""47058B1F57CF4F96AF7814DEFB0D66C2"",""assignmentId"":""463d45cb-9bd2-4929-8267-cbc8b557b7c5"",""projectId"":""9596d7a2-d401-47b1-aedd-70105f5f2f42""}","https://test12345.live/?part=2&participantId=47058B1F57CF4F96AF7814DEFB0D66C2&assignmentId=463d45cb-9bd2-4929-8267-cbc8b557b7c5&projectId=9596d7a2-d401-47b1-aedd-70105f5f2f42","47058B1F57CF4F96AF7814DEFB0D66C2-2025-05-28-17-32-31","","null","","images/semantic_sequence/kitchen_operations_semantic/kitchen_operations_semantic_0.png","null","",""
"","","","","","html-audio-response","45","612449","0.0-43.0","47058B1F57CF4F96AF7814DEFB0D66C2","47058B1F57CF4F96AF7814DEFB0D66C2","463d45cb-9bd2-4929-8267-cbc8b557b7c5","9596d7a2-d401-47b1-aedd-70105f5f2f42","{""part"":""2"",""participantId"":""47058B1F57CF4F96AF7814DEFB0D66C2"",""assignmentId"":""463d45cb-9bd2-4929-8267-cbc8b557b7c5"",""projectId"":""9596d7a2-d401-47b1-aedd-70105f5f2f42""}","https://test12345.live/?part=2&participantId=47058B1F57CF4F96AF7814DEFB0D66C2&assignmentId=463d45cb-9bd2-4929-8267-cbc8b557b7c5&projectId=9596d7a2-d401-47b1-aedd-70105f5f2f42","47058B1F57CF4F96AF7814DEFB0D66C2-2025-05-28-17-32-31","","16917","","[""<span style=\""color: red; font-size: 24px\""> NOW RECORDING</span><p>Please say out loud all the images you saw in part 1 of the experiment, in the exact order you saw them. Try to recall as many images as you can, but remember: getting the order right is more important than the number of images you recall. </p>""]","","4","kitchen_operations_semantic"
"","","","","","image-button-response","46","618454","0.0-44.0-0.0","47058B1F57CF4F96AF7814DEFB0D66C2","47058B1F57CF4F96AF7814DEFB0D66C2","463d45cb-9bd2-4929-8267-cbc8b557b7c5","9596d7a2-d401-47b1-aedd-70105f5f2f42","{""part"":""2"",""participantId"":""47058B1F57CF4F96AF7814DEFB0D66C2"",""assignmentId"":""463d45cb-9bd2-4929-8267-cbc8b557b7c5"",""projectId"":""9596d7a2-d401-47b1-aedd-70105f5f2f42""}","https://test12345.live/?part=2&participantId=47058B1F57CF4F96AF7814DEFB0D66C2&assignmentId=463d45cb-9bd2-4929-8267-cbc8b557b7c5&projectId=9596d7a2-d401-47b1-aedd-70105f5f2f42","47058B1F57CF4F96AF7814DEFB0D66C2-2025-05-28-17-32-31","","null","","images/causal_sequence/dog_causal/dog_causal_0.png","null","",""
"","","","","","html-audio-response","47","637864","0.0-45.0","47058B1F57CF4F96AF7814DEFB0D66C2","47058B1F57CF4F96AF7814DEFB0D66C2","463d45cb-9bd2-4929-8267-cbc8b557b7c5","9596d7a2-d401-47b1-aedd-70105f5f2f42","{""part"":""2"",""participantId"":""47058B1F57CF4F96AF7814DEFB0D66C2"",""assignmentId"":""463d45cb-9bd2-4929-8267-cbc8b557b7c5"",""projectId"":""9596d7a2-d401-47b1-aedd-70105f5f2f42""}","https://test12345.live/?part=2&participantId=47058B1F57CF4F96AF7814DEFB0D66C2&assignmentId=463d45cb-9bd2-4929-8267-cbc8b557b7c5&projectId=9596d7a2-d401-47b1-aedd-70105f5f2f42","47058B1F57CF4F96AF7814DEFB0D66C2-2025-05-28-17-32-31","","18479","","[""<span style=\""color: red; font-size: 24px\""> NOW RECORDING</span><p>Please say out loud all the images you saw in part 1 of the experiment, in the exact order you saw them. Try to recall as many images as you can, but remember: getting the order right is more important than the number of images you recall. </p>""]","","10","dog_causal"
"","","","","","image-button-response","48","643870","0.0-46.0-0.0","47058B1F57CF4F96AF7814DEFB0D66C2","47058B1F57CF4F96AF7814DEFB0D66C2","463d45cb-9bd2-4929-8267-cbc8b557b7c5","9596d7a2-d401-47b1-aedd-70105f5f2f42","{""part"":""2"",""participantId"":""47058B1F57CF4F96AF7814DEFB0D66C2"",""assignmentId"":""463d45cb-9bd2-4929-8267-cbc8b557b7c5"",""projectId"":""9596d7a2-d401-47b1-aedd-70105f5f2f42""}","https://test12345.live/?part=2&participantId=47058B1F57CF4F96AF7814DEFB0D66C2&assignmentId=463d45cb-9bd2-4929-8267-cbc8b557b7c5&projectId=9596d7a2-d401-47b1-aedd-70105f5f2f42","47058B1F57CF4F96AF7814DEFB0D66C2-2025-05-28-17-32-31","","null","","images/semantic_sequence/self_care_activities_semantic/self_care_activities_semantic_0.png","null","",""
"","","","","","html-audio-response","49","656449","0.0-47.0","47058B1F57CF4F96AF7814DEFB0D66C2","47058B1F57CF4F96AF7814DEFB0D66C2","463d45cb-9bd2-4929-8267-cbc8b557b7c5","9596d7a2-d401-47b1-aedd-70105f5f2f42","{""part"":""2"",""participantId"":""47058B1F57CF4F96AF7814DEFB0D66C2"",""assignmentId"":""463d45cb-9bd2-4929-8267-cbc8b557b7c5"",""projectId"":""9596d7a2-d401-47b1-aedd-70105f5f2f42""}","https://test12345.live/?part=2&participantId=47058B1F57CF4F96AF7814DEFB0D66C2&assignmentId=463d45cb-9bd2-4929-8267-cbc8b557b7c5&projectId=9596d7a2-d401-47b1-aedd-70105f5f2f42","47058B1F57CF4F96AF7814DEFB0D66C2-2025-05-28-17-32-31","","11564","","[""<span style=\""color: red; font-size: 24px\""> NOW RECORDING</span><p>Please say out loud all the images you saw in part 1 of the experiment, in the exact order you saw them. Try to recall as many images as you can, but remember: getting the order right is more important than the number of images you recall. </p>""]","","7","self_care_activities_semantic"
"","","","","","image-button-response","50","662453","0.0-48.0-0.0","47058B1F57CF4F96AF7814DEFB0D66C2","47058B1F57CF4F96AF7814DEFB0D66C2","463d45cb-9bd2-4929-8267-cbc8b557b7c5","9596d7a2-d401-47b1-aedd-70105f5f2f42","{""part"":""2"",""participantId"":""47058B1F57CF4F96AF7814DEFB0D66C2"",""assignmentId"":""463d45cb-9bd2-4929-8267-cbc8b557b7c5"",""projectId"":""9596d7a2-d401-47b1-aedd-70105f5f2f42""}","https://test12345.live/?part=2&participantId=47058B1F57CF4F96AF7814DEFB0D66C2&assignmentId=463d45cb-9bd2-4929-8267-cbc8b557b7c5&projectId=9596d7a2-d401-47b1-aedd-70105f5f2f42","47058B1F57CF4F96AF7814DEFB0D66C2-2025-05-28-17-32-31","","null","","images/schematic_sequence/interview_scheme/interview_scheme_0.png","null","",""
"","","","","","html-audio-response","51","683463","0.0-49.0","47058B1F57CF4F96AF7814DEFB0D66C2","47058B1F57CF4F96AF7814DEFB0D66C2","463d45cb-9bd2-4929-8267-cbc8b557b7c5","9596d7a2-d401-47b1-aedd-70105f5f2f42","{""part"":""2"",""participantId"":""47058B1F57CF4F96AF7814DEFB0D66C2"",""assignmentId"":""463d45cb-9bd2-4929-8267-cbc8b557b7c5"",""projectId"":""9596d7a2-d401-47b1-aedd-70105f5f2f42""}","https://test12345.live/?part=2&participantId=47058B1F57CF4F96AF7814DEFB0D66C2&assignmentId=463d45cb-9bd2-4929-8267-cbc8b557b7c5&projectId=9596d7a2-d401-47b1-aedd-70105f5f2f42","47058B1F57CF4F96AF7814DEFB0D66C2-2025-05-28-17-32-31","","19944","","[""<span style=\""color: red; font-size: 24px\""> NOW RECORDING</span><p>Please say out loud all the images you saw in part 1 of the experiment, in the exact order you saw them. Try to recall as many images as you can, but remember: getting the order right is more important than the number of images you recall. </p>""]","","10","interview_scheme"
"","","","","","image-button-response","52","689468","0.0-50.0-0.0","47058B1F57CF4F96AF7814DEFB0D66C2","47058B1F57CF4F96AF7814DEFB0D66C2","463d45cb-9bd2-4929-8267-cbc8b557b7c5","9596d7a2-d401-47b1-aedd-70105f5f2f42","{""part"":""2"",""participantId"":""47058B1F57CF4F96AF7814DEFB0D66C2"",""assignmentId"":""463d45cb-9bd2-4929-8267-cbc8b557b7c5"",""projectId"":""9596d7a2-d401-47b1-aedd-70105f5f2f42""}","https://test12345.live/?part=2&participantId=47058B1F57CF4F96AF7814DEFB0D66C2&assignmentId=463d45cb-9bd2-4929-8267-cbc8b557b7c5&projectId=9596d7a2-d401-47b1-aedd-70105f5f2f42","47058B1F57CF4F96AF7814DEFB0D66C2-2025-05-28-17-32-31","","null","","images/causal_sequence/saving_a_cat_causal/saving_a_cat_causal_0.png","null","",""
"","","","","","html-audio-response","53","721998","0.0-51.0","47058B1F57CF4F96AF7814DEFB0D66C2","47058B1F57CF4F96AF7814DEFB0D66C2","463d45cb-9bd2-4929-8267-cbc8b557b7c5","9596d7a2-d401-47b1-aedd-70105f5f2f42","{""part"":""2"",""participantId"":""47058B1F57CF4F96AF7814DEFB0D66C2"",""assignmentId"":""463d45cb-9bd2-4929-8267-cbc8b557b7c5"",""projectId"":""9596d7a2-d401-47b1-aedd-70105f5f2f42""}","https://test12345.live/?part=2&participantId=47058B1F57CF4F96AF7814DEFB0D66C2&assignmentId=463d45cb-9bd2-4929-8267-cbc8b557b7c5&projectId=9596d7a2-d401-47b1-aedd-70105f5f2f42","47058B1F57CF4F96AF7814DEFB0D66C2-2025-05-28-17-32-31","","31799","","[""<span style=\""color: red; font-size: 24px\""> NOW RECORDING</span><p>Please say out loud all the images you saw in part 1 of the experiment, in the exact order you saw them. Try to recall as many images as you can, but remember: getting the order right is more important than the number of images you recall. </p>""]","","7","saving_a_cat_causal"
"","","","","","image-button-response","54","728004","0.0-52.0-0.0","47058B1F57CF4F96AF7814DEFB0D66C2","47058B1F57CF4F96AF7814DEFB0D66C2","463d45cb-9bd2-4929-8267-cbc8b557b7c5","9596d7a2-d401-47b1-aedd-70105f5f2f42","{""part"":""2"",""participantId"":""47058B1F57CF4F96AF7814DEFB0D66C2"",""assignmentId"":""463d45cb-9bd2-4929-8267-cbc8b557b7c5"",""projectId"":""9596d7a2-d401-47b1-aedd-70105f5f2f42""}","https://test12345.live/?part=2&participantId=47058B1F57CF4F96AF7814DEFB0D66C2&assignmentId=463d45cb-9bd2-4929-8267-cbc8b557b7c5&projectId=9596d7a2-d401-47b1-aedd-70105f5f2f42","47058B1F57CF4F96AF7814DEFB0D66C2-2025-05-28-17-32-31","","null","","images/semantic_sequence/housework_semantic/housework_semantic_0.png","null","",""
"","","","","","html-audio-response","55","741314","0.0-53.0","47058B1F57CF4F96AF7814DEFB0D66C2","47058B1F57CF4F96AF7814DEFB0D66C2","463d45cb-9bd2-4929-8267-cbc8b557b7c5","9596d7a2-d401-47b1-aedd-70105f5f2f42","{""part"":""2"",""participantId"":""47058B1F57CF4F96AF7814DEFB0D66C2"",""assignmentId"":""463d45cb-9bd2-4929-8267-cbc8b557b7c5"",""projectId"":""9596d7a2-d401-47b1-aedd-70105f5f2f42""}","https://test12345.live/?part=2&participantId=47058B1F57CF4F96AF7814DEFB0D66C2&assignmentId=463d45cb-9bd2-4929-8267-cbc8b557b7c5&projectId=9596d7a2-d401-47b1-aedd-70105f5f2f42","47058B1F57CF4F96AF7814DEFB0D66C2-2025-05-28-17-32-31","","12426","","[""<span style=\""color: red; font-size: 24px\""> NOW RECORDING</span><p>Please say out loud all the images you saw in part 1 of the experiment, in the exact order you saw them. Try to recall as many images as you can, but remember: getting the order right is more important than the number of images you recall. </p>""]","","10","housework_semantic"
"","","","","","image-button-response","56","747317","0.0-54.0-0.0","47058B1F57CF4F96AF7814DEFB0D66C2","47058B1F57CF4F96AF7814DEFB0D66C2","463d45cb-9bd2-4929-8267-cbc8b557b7c5","9596d7a2-d401-47b1-aedd-70105f5f2f42","{""part"":""2"",""participantId"":""47058B1F57CF4F96AF7814DEFB0D66C2"",""assignmentId"":""463d45cb-9bd2-4929-8267-cbc8b557b7c5"",""projectId"":""9596d7a2-d401-47b1-aedd-70105f5f2f42""}","https://test12345.live/?part=2&participantId=47058B1F57CF4F96AF7814DEFB0D66C2&assignmentId=463d45cb-9bd2-4929-8267-cbc8b557b7c5&projectId=9596d7a2-d401-47b1-aedd-70105f5f2f42","47058B1F57CF4F96AF7814DEFB0D66C2-2025-05-28-17-32-31","","null","","images/causal_sequence/the_performance_causal/the_performance_causal_0.png","null","",""
"","","","","","html-audio-response","57","766848","0.0-55.0","47058B1F57CF4F96AF7814DEFB0D66C2","47058B1F57CF4F96AF7814DEFB0D66C2","463d45cb-9bd2-4929-8267-cbc8b557b7c5","9596d7a2-d401-47b1-aedd-70105f5f2f42","{""part"":""2"",""participantId"":""47058B1F57CF4F96AF7814DEFB0D66C2"",""assignmentId"":""463d45cb-9bd2-4929-8267-cbc8b557b7c5"",""projectId"":""9596d7a2-d401-47b1-aedd-70105f5f2f42""}","https://test12345.live/?part=2&participantId=47058B1F57CF4F96AF7814DEFB0D66C2&assignmentId=463d45cb-9bd2-4929-8267-cbc8b557b7c5&projectId=9596d7a2-d401-47b1-aedd-70105f5f2f42","47058B1F57CF4F96AF7814DEFB0D66C2-2025-05-28-17-32-31","","18792","","[""<span style=\""color: red; font-size: 24px\""> NOW RECORDING</span><p>Please say out loud all the images you saw in part 1 of the experiment, in the exact order you saw them. Try to recall as many images as you can, but remember: getting the order right is more important than the number of images you recall. </p>""]","","7","the_performance_causal"
"","","","","","image-button-response","58","772854","0.0-56.0-0.0","47058B1F57CF4F96AF7814DEFB0D66C2","47058B1F57CF4F96AF7814DEFB0D66C2","463d45cb-9bd2-4929-8267-cbc8b557b7c5","9596d7a2-d401-47b1-aedd-70105f5f2f42","{""part"":""2"",""participantId"":""47058B1F57CF4F96AF7814DEFB0D66C2"",""assignmentId"":""463d45cb-9bd2-4929-8267-cbc8b557b7c5"",""projectId"":""9596d7a2-d401-47b1-aedd-70105f5f2f42""}","https://test12345.live/?part=2&participantId=47058B1F57CF4F96AF7814DEFB0D66C2&assignmentId=463d45cb-9bd2-4929-8267-cbc8b557b7c5&projectId=9596d7a2-d401-47b1-aedd-70105f5f2f42","47058B1F57CF4F96AF7814DEFB0D66C2-2025-05-28-17-32-31","","null","","images/schematic_sequence/supermarket_scheme/supermarket_scheme_0.png","null","",""
"","","","","","html-audio-response","59","801552","0.0-57.0","47058B1F57CF4F96AF7814DEFB0D66C2","47058B1F57CF4F96AF7814DEFB0D66C2","463d45cb-9bd2-4929-8267-cbc8b557b7c5","9596d7a2-d401-47b1-aedd-70105f5f2f42","{""part"":""2"",""participantId"":""47058B1F57CF4F96AF7814DEFB0D66C2"",""assignmentId"":""463d45cb-9bd2-4929-8267-cbc8b557b7c5"",""projectId"":""9596d7a2-d401-47b1-aedd-70105f5f2f42""}","https://test12345.live/?part=2&participantId=47058B1F57CF4F96AF7814DEFB0D66C2&assignmentId=463d45cb-9bd2-4929-8267-cbc8b557b7c5&projectId=9596d7a2-d401-47b1-aedd-70105f5f2f42","47058B1F57CF4F96AF7814DEFB0D66C2-2025-05-28-17-32-31","","27728","","[""<span style=\""color: red; font-size: 24px\""> NOW RECORDING</span><p>Please say out loud all the images you saw in part 1 of the experiment, in the exact order you saw them. Try to recall as many images as you can, but remember: getting the order right is more important than the number of images you recall. </p>""]","","11","supermarket_scheme"
"","","","","","survey-text","60","805668","0.0-58.0","47058B1F57CF4F96AF7814DEFB0D66C2","47058B1F57CF4F96AF7814DEFB0D66C2","463d45cb-9bd2-4929-8267-cbc8b557b7c5","9596d7a2-d401-47b1-aedd-70105f5f2f42","{""part"":""2"",""participantId"":""47058B1F57CF4F96AF7814DEFB0D66C2"",""assignmentId"":""463d45cb-9bd2-4929-8267-cbc8b557b7c5"",""projectId"":""9596d7a2-d401-47b1-aedd-70105f5f2f42""}","https://test12345.live/?part=2&participantId=47058B1F57CF4F96AF7814DEFB0D66C2&assignmentId=463d45cb-9bd2-4929-8267-cbc8b557b7c5&projectId=9596d7a2-d401-47b1-aedd-70105f5f2f42","47058B1F57CF4F96AF7814DEFB0D66C2-2025-05-28-17-32-31","","4110","","","{""Q0"":""Male"",""Q1"":""19""}","",""
"","","","","","instructions","61","811296","0.0-59.0","47058B1F57CF4F96AF7814DEFB0D66C2","47058B1F57CF4F96AF7814DEFB0D66C2","463d45cb-9bd2-4929-8267-cbc8b557b7c5","9596d7a2-d401-47b1-aedd-70105f5f2f42","{""part"":""2"",""participantId"":""47058B1F57CF4F96AF7814DEFB0D66C2"",""assignmentId"":""463d45cb-9bd2-4929-8267-cbc8b557b7c5"",""projectId"":""9596d7a2-d401-47b1-aedd-70105f5f2f42""}","https://test12345.live/?part=2&participantId=47058B1F57CF4F96AF7814DEFB0D66C2&assignmentId=463d45cb-9bd2-4929-8267-cbc8b557b7c5&projectId=9596d7a2-d401-47b1-aedd-70105f5f2f42","47058B1F57CF4F96AF7814DEFB0D66C2-2025-05-28-17-32-31","[{""page_index"":0,""viewing_time"":5627}]","5627","","","","",""
"","","","","","survey-text","62","813280","0.0-60.0","47058B1F57CF4F96AF7814DEFB0D66C2","47058B1F57CF4F96AF7814DEFB0D66C2","463d45cb-9bd2-4929-8267-cbc8b557b7c5","9596d7a2-d401-47b1-aedd-70105f5f2f42","{""part"":""2"",""participantId"":""47058B1F57CF4F96AF7814DEFB0D66C2"",""assignmentId"":""463d45cb-9bd2-4929-8267-cbc8b557b7c5"",""projectId"":""9596d7a2-d401-47b1-aedd-70105f5f2f42""}","https://test12345.live/?part=2&participantId=47058B1F57CF4F96AF7814DEFB0D66C2&assignmentId=463d45cb-9bd2-4929-8267-cbc8b557b7c5&projectId=9596d7a2-d401-47b1-aedd-70105f5f2f42","47058B1F57CF4F96AF7814DEFB0D66C2-2025-05-28-17-32-31","","1983","","","{""Q0"":""AJFHBG896""}","",""
