"success","timeout","failed_images","failed_audio","failed_video","trial_type","trial_index","time_elapsed","internal_node_id","subject","subject_id","study_id","session_id","urlvar","current_url","audio_id","view_history","rt","device_id","stimulus","response","estimated_stimulus_onset","seq_name"
"true","false","[]","[]","[]","preload","0","118331","0.0-0.0","49E1F7CBD56F4A70A8905D4966AF6BB8","49E1F7CBD56F4A70A8905D4966AF6BB8","0198c323-f0d0-7f1c-a0d5-af97c2a34252","0198c320-653a-770c-93e4-41e10e7faa5f","{""num_scrambled_semantic"":""8"",""num_scrambled_causal"":""4"",""num_scrambled_schematic"":""4"",""participantId"":""49E1F7CBD56F4A70A8905D4966AF6BB8"",""assignmentId"":""0198c323-f0d0-7f1c-a0d5-af97c2a34252"",""projectId"":""0198c320-653a-770c-93e4-41e10e7faa5f""}","https://test12345.live/?num_scrambled_semantic=8&num_scrambled_causal=4&num_scrambled_schematic=4&participantId=49E1F7CBD56F4A70A8905D4966AF6BB8&assignmentId=0198c323-f0d0-7f1c-a0d5-af97c2a34252&projectId=0198c320-653a-770c-93e4-41e10e7faa5f","49E1F7CBD56F4A70A8905D4966AF6BB8-2025-08-19-16-36-28","","","","","","",""
"","","","","","instructions","1","140970","0.0-1.0","49E1F7CBD56F4A70A8905D4966AF6BB8","49E1F7CBD56F4A70A8905D4966AF6BB8","0198c323-f0d0-7f1c-a0d5-af97c2a34252","0198c320-653a-770c-93e4-41e10e7faa5f","{""num_scrambled_semantic"":""8"",""num_scrambled_causal"":""4"",""num_scrambled_schematic"":""4"",""participantId"":""49E1F7CBD56F4A70A8905D4966AF6BB8"",""assignmentId"":""0198c323-f0d0-7f1c-a0d5-af97c2a34252"",""projectId"":""0198c320-653a-770c-93e4-41e10e7faa5f""}","https://test12345.live/?num_scrambled_semantic=8&num_scrambled_causal=4&num_scrambled_schematic=4&participantId=49E1F7CBD56F4A70A8905D4966AF6BB8&assignmentId=0198c323-f0d0-7f1c-a0d5-af97c2a34252&projectId=0198c320-653a-770c-93e4-41e10e7faa5f","49E1F7CBD56F4A70A8905D4966AF6BB8-2025-08-19-16-36-28","[{""page_index"":0,""viewing_time"":22637}]","22638","","","","",""
"","","","","","instructions","2","146220","0.0-2.0","49E1F7CBD56F4A70A8905D4966AF6BB8","49E1F7CBD56F4A70A8905D4966AF6BB8","0198c323-f0d0-7f1c-a0d5-af97c2a34252","0198c320-653a-770c-93e4-41e10e7faa5f","{""num_scrambled_semantic"":""8"",""num_scrambled_causal"":""4"",""num_scrambled_schematic"":""4"",""participantId"":""49E1F7CBD56F4A70A8905D4966AF6BB8"",""assignmentId"":""0198c323-f0d0-7f1c-a0d5-af97c2a34252"",""projectId"":""0198c320-653a-770c-93e4-41e10e7faa5f""}","https://test12345.live/?num_scrambled_semantic=8&num_scrambled_causal=4&num_scrambled_schematic=4&participantId=49E1F7CBD56F4A70A8905D4966AF6BB8&assignmentId=0198c323-f0d0-7f1c-a0d5-af97c2a34252&projectId=0198c320-653a-770c-93e4-41e10e7faa5f","49E1F7CBD56F4A70A8905D4966AF6BB8-2025-08-19-16-36-28","[{""page_index"":0,""viewing_time"":5248}]","5248","","","","",""
"true","","","","","fullscreen","3","156451","0.0-3.0","49E1F7CBD56F4A70A8905D4966AF6BB8","49E1F7CBD56F4A70A8905D4966AF6BB8","0198c323-f0d0-7f1c-a0d5-af97c2a34252","0198c320-653a-770c-93e4-41e10e7faa5f","{""num_scrambled_semantic"":""8"",""num_scrambled_causal"":""4"",""num_scrambled_schematic"":""4"",""participantId"":""49E1F7CBD56F4A70A8905D4966AF6BB8"",""assignmentId"":""0198c323-f0d0-7f1c-a0d5-af97c2a34252"",""projectId"":""0198c320-653a-770c-93e4-41e10e7faa5f""}","https://test12345.live/?num_scrambled_semantic=8&num_scrambled_causal=4&num_scrambled_schematic=4&participantId=49E1F7CBD56F4A70A8905D4966AF6BB8&assignmentId=0198c323-f0d0-7f1c-a0d5-af97c2a34252&projectId=0198c320-653a-770c-93e4-41e10e7faa5f","49E1F7CBD56F4A70A8905D4966AF6BB8-2025-08-19-16-36-28","","9211","","","","",""
"","","","","","initialize-microphone","4","172923","0.0-4.0-0.0","49E1F7CBD56F4A70A8905D4966AF6BB8","49E1F7CBD56F4A70A8905D4966AF6BB8","0198c323-f0d0-7f1c-a0d5-af97c2a34252","0198c320-653a-770c-93e4-41e10e7faa5f","{""num_scrambled_semantic"":""8"",""num_scrambled_causal"":""4"",""num_scrambled_schematic"":""4"",""participantId"":""49E1F7CBD56F4A70A8905D4966AF6BB8"",""assignmentId"":""0198c323-f0d0-7f1c-a0d5-af97c2a34252"",""projectId"":""0198c320-653a-770c-93e4-41e10e7faa5f""}","https://test12345.live/?num_scrambled_semantic=8&num_scrambled_causal=4&num_scrambled_schematic=4&participantId=49E1F7CBD56F4A70A8905D4966AF6BB8&assignmentId=0198c323-f0d0-7f1c-a0d5-af97c2a34252&projectId=0198c320-653a-770c-93e4-41e10e7faa5f","49E1F7CBD56F4A70A8905D4966AF6BB8-2025-08-19-16-36-28","","","06402f63500ddfcd0eede879410389d114be380c94e39852b6887b7728e66b16","","","",""
"","","","","","html-audio-response","5","191337","0.0-4.0-1.0","49E1F7CBD56F4A70A8905D4966AF6BB8","49E1F7CBD56F4A70A8905D4966AF6BB8","0198c323-f0d0-7f1c-a0d5-af97c2a34252","0198c320-653a-770c-93e4-41e10e7faa5f","{""num_scrambled_semantic"":""8"",""num_scrambled_causal"":""4"",""num_scrambled_schematic"":""4"",""participantId"":""49E1F7CBD56F4A70A8905D4966AF6BB8"",""assignmentId"":""0198c323-f0d0-7f1c-a0d5-af97c2a34252"",""projectId"":""0198c320-653a-770c-93e4-41e10e7faa5f""}","https://test12345.live/?num_scrambled_semantic=8&num_scrambled_causal=4&num_scrambled_schematic=4&participantId=49E1F7CBD56F4A70A8905D4966AF6BB8&assignmentId=0198c323-f0d0-7f1c-a0d5-af97c2a34252&projectId=0198c320-653a-770c-93e4-41e10e7faa5f","49E1F7CBD56F4A70A8905D4966AF6BB8-2025-08-19-16-36-28","","2886","","<span style=""color: red; font-size: 24px""> NOW RECORDING</span>
        <p>Please test Microphone</p>","","3",""
"","","","","","html-button-response","6","195159","0.0-4.0-2.0","49E1F7CBD56F4A70A8905D4966AF6BB8","49E1F7CBD56F4A70A8905D4966AF6BB8","0198c323-f0d0-7f1c-a0d5-af97c2a34252","0198c320-653a-770c-93e4-41e10e7faa5f","{""num_scrambled_semantic"":""8"",""num_scrambled_causal"":""4"",""num_scrambled_schematic"":""4"",""participantId"":""49E1F7CBD56F4A70A8905D4966AF6BB8"",""assignmentId"":""0198c323-f0d0-7f1c-a0d5-af97c2a34252"",""projectId"":""0198c320-653a-770c-93e4-41e10e7faa5f""}","https://test12345.live/?num_scrambled_semantic=8&num_scrambled_causal=4&num_scrambled_schematic=4&participantId=49E1F7CBD56F4A70A8905D4966AF6BB8&assignmentId=0198c323-f0d0-7f1c-a0d5-af97c2a34252&projectId=0198c320-653a-770c-93e4-41e10e7faa5f","49E1F7CBD56F4A70A8905D4966AF6BB8-2025-08-19-16-36-28","","3818","","<p style=""font-size:48px; color:red;"">Is Microphone OK?</p>","1","",""
"","","","","","instructions","7","222018","0.0-5.0","49E1F7CBD56F4A70A8905D4966AF6BB8","49E1F7CBD56F4A70A8905D4966AF6BB8","0198c323-f0d0-7f1c-a0d5-af97c2a34252","0198c320-653a-770c-93e4-41e10e7faa5f","{""num_scrambled_semantic"":""8"",""num_scrambled_causal"":""4"",""num_scrambled_schematic"":""4"",""participantId"":""49E1F7CBD56F4A70A8905D4966AF6BB8"",""assignmentId"":""0198c323-f0d0-7f1c-a0d5-af97c2a34252"",""projectId"":""0198c320-653a-770c-93e4-41e10e7faa5f""}","https://test12345.live/?num_scrambled_semantic=8&num_scrambled_causal=4&num_scrambled_schematic=4&participantId=49E1F7CBD56F4A70A8905D4966AF6BB8&assignmentId=0198c323-f0d0-7f1c-a0d5-af97c2a34252&projectId=0198c320-653a-770c-93e4-41e10e7faa5f","49E1F7CBD56F4A70A8905D4966AF6BB8-2025-08-19-16-36-28","[{""page_index"":0,""viewing_time"":1576},{""page_index"":1,""viewing_time"":6320},{""page_index"":2,""viewing_time"":18960}]","26857","","","","",""
"","","","","","image-button-response","8","228045","0.0-6.0-0.0","49E1F7CBD56F4A70A8905D4966AF6BB8","49E1F7CBD56F4A70A8905D4966AF6BB8","0198c323-f0d0-7f1c-a0d5-af97c2a34252","0198c320-653a-770c-93e4-41e10e7faa5f","{""num_scrambled_semantic"":""8"",""num_scrambled_causal"":""4"",""num_scrambled_schematic"":""4"",""participantId"":""49E1F7CBD56F4A70A8905D4966AF6BB8"",""assignmentId"":""0198c323-f0d0-7f1c-a0d5-af97c2a34252"",""projectId"":""0198c320-653a-770c-93e4-41e10e7faa5f""}","https://test12345.live/?num_scrambled_semantic=8&num_scrambled_causal=4&num_scrambled_schematic=4&participantId=49E1F7CBD56F4A70A8905D4966AF6BB8&assignmentId=0198c323-f0d0-7f1c-a0d5-af97c2a34252&projectId=0198c320-653a-770c-93e4-41e10e7faa5f","49E1F7CBD56F4A70A8905D4966AF6BB8-2025-08-19-16-36-28","","null","","images/instructions/movie_0.png","null","",""
"","","","","","html-audio-response","9","300559","0.0-7.0","49E1F7CBD56F4A70A8905D4966AF6BB8","49E1F7CBD56F4A70A8905D4966AF6BB8","0198c323-f0d0-7f1c-a0d5-af97c2a34252","0198c320-653a-770c-93e4-41e10e7faa5f","{""num_scrambled_semantic"":""8"",""num_scrambled_causal"":""4"",""num_scrambled_schematic"":""4"",""participantId"":""49E1F7CBD56F4A70A8905D4966AF6BB8"",""assignmentId"":""0198c323-f0d0-7f1c-a0d5-af97c2a34252"",""projectId"":""0198c320-653a-770c-93e4-41e10e7faa5f""}","https://test12345.live/?num_scrambled_semantic=8&num_scrambled_causal=4&num_scrambled_schematic=4&participantId=49E1F7CBD56F4A70A8905D4966AF6BB8&assignmentId=0198c323-f0d0-7f1c-a0d5-af97c2a34252&projectId=0198c320-653a-770c-93e4-41e10e7faa5f","49E1F7CBD56F4A70A8905D4966AF6BB8-2025-08-19-16-36-28","","13018","","[""<span style=\""color: red; font-size: 24px\""> NOW RECORDING</span><p>Please say out loud all the images you saw in part 1 of the experiment, as many as you can remember. The images can be said in any order.</p>""]","","3",""
"","","","","","instructions","10","306388","0.0-8.0","49E1F7CBD56F4A70A8905D4966AF6BB8","49E1F7CBD56F4A70A8905D4966AF6BB8","0198c323-f0d0-7f1c-a0d5-af97c2a34252","0198c320-653a-770c-93e4-41e10e7faa5f","{""num_scrambled_semantic"":""8"",""num_scrambled_causal"":""4"",""num_scrambled_schematic"":""4"",""participantId"":""49E1F7CBD56F4A70A8905D4966AF6BB8"",""assignmentId"":""0198c323-f0d0-7f1c-a0d5-af97c2a34252"",""projectId"":""0198c320-653a-770c-93e4-41e10e7faa5f""}","https://test12345.live/?num_scrambled_semantic=8&num_scrambled_causal=4&num_scrambled_schematic=4&participantId=49E1F7CBD56F4A70A8905D4966AF6BB8&assignmentId=0198c323-f0d0-7f1c-a0d5-af97c2a34252&projectId=0198c320-653a-770c-93e4-41e10e7faa5f","49E1F7CBD56F4A70A8905D4966AF6BB8-2025-08-19-16-36-28","[{""page_index"":0,""viewing_time"":5790}]","5791","","","","",""
"","","","","","image-button-response","11","312395","0.0-9.0-0.0","49E1F7CBD56F4A70A8905D4966AF6BB8","49E1F7CBD56F4A70A8905D4966AF6BB8","0198c323-f0d0-7f1c-a0d5-af97c2a34252","0198c320-653a-770c-93e4-41e10e7faa5f","{""num_scrambled_semantic"":""8"",""num_scrambled_causal"":""4"",""num_scrambled_schematic"":""4"",""participantId"":""49E1F7CBD56F4A70A8905D4966AF6BB8"",""assignmentId"":""0198c323-f0d0-7f1c-a0d5-af97c2a34252"",""projectId"":""0198c320-653a-770c-93e4-41e10e7faa5f""}","https://test12345.live/?num_scrambled_semantic=8&num_scrambled_causal=4&num_scrambled_schematic=4&participantId=49E1F7CBD56F4A70A8905D4966AF6BB8&assignmentId=0198c323-f0d0-7f1c-a0d5-af97c2a34252&projectId=0198c320-653a-770c-93e4-41e10e7faa5f","49E1F7CBD56F4A70A8905D4966AF6BB8-2025-08-19-16-36-28","","null","","images/causal_sequence/coin_causal/coin_causal_0.png","null","",""
"","","","","","html-audio-response","12","416738","0.0-10.0","49E1F7CBD56F4A70A8905D4966AF6BB8","49E1F7CBD56F4A70A8905D4966AF6BB8","0198c323-f0d0-7f1c-a0d5-af97c2a34252","0198c320-653a-770c-93e4-41e10e7faa5f","{""num_scrambled_semantic"":""8"",""num_scrambled_causal"":""4"",""num_scrambled_schematic"":""4"",""participantId"":""49E1F7CBD56F4A70A8905D4966AF6BB8"",""assignmentId"":""0198c323-f0d0-7f1c-a0d5-af97c2a34252"",""projectId"":""0198c320-653a-770c-93e4-41e10e7faa5f""}","https://test12345.live/?num_scrambled_semantic=8&num_scrambled_causal=4&num_scrambled_schematic=4&participantId=49E1F7CBD56F4A70A8905D4966AF6BB8&assignmentId=0198c323-f0d0-7f1c-a0d5-af97c2a34252&projectId=0198c320-653a-770c-93e4-41e10e7faa5f","49E1F7CBD56F4A70A8905D4966AF6BB8-2025-08-19-16-36-28","","20196","","[""<span style=\""color: red; font-size: 24px\""> NOW RECORDING</span><p>Please say out loud all the images you saw in part 1 of the experiment, as many as you can remember. The images can be said in any order.</p>""]","","3","coin_causal"
"","","","","","image-button-response","13","422774","0.0-11.0-0.0","49E1F7CBD56F4A70A8905D4966AF6BB8","49E1F7CBD56F4A70A8905D4966AF6BB8","0198c323-f0d0-7f1c-a0d5-af97c2a34252","0198c320-653a-770c-93e4-41e10e7faa5f","{""num_scrambled_semantic"":""8"",""num_scrambled_causal"":""4"",""num_scrambled_schematic"":""4"",""participantId"":""49E1F7CBD56F4A70A8905D4966AF6BB8"",""assignmentId"":""0198c323-f0d0-7f1c-a0d5-af97c2a34252"",""projectId"":""0198c320-653a-770c-93e4-41e10e7faa5f""}","https://test12345.live/?num_scrambled_semantic=8&num_scrambled_causal=4&num_scrambled_schematic=4&participantId=49E1F7CBD56F4A70A8905D4966AF6BB8&assignmentId=0198c323-f0d0-7f1c-a0d5-af97c2a34252&projectId=0198c320-653a-770c-93e4-41e10e7faa5f","49E1F7CBD56F4A70A8905D4966AF6BB8-2025-08-19-16-36-28","","null","","images/causal_sequence/the_performance_causal/the_performance_causal_0.png","null","",""
"","","","","","html-audio-response","14","461838","0.0-12.0","49E1F7CBD56F4A70A8905D4966AF6BB8","49E1F7CBD56F4A70A8905D4966AF6BB8","0198c323-f0d0-7f1c-a0d5-af97c2a34252","0198c320-653a-770c-93e4-41e10e7faa5f","{""num_scrambled_semantic"":""8"",""num_scrambled_causal"":""4"",""num_scrambled_schematic"":""4"",""participantId"":""49E1F7CBD56F4A70A8905D4966AF6BB8"",""assignmentId"":""0198c323-f0d0-7f1c-a0d5-af97c2a34252"",""projectId"":""0198c320-653a-770c-93e4-41e10e7faa5f""}","https://test12345.live/?num_scrambled_semantic=8&num_scrambled_causal=4&num_scrambled_schematic=4&participantId=49E1F7CBD56F4A70A8905D4966AF6BB8&assignmentId=0198c323-f0d0-7f1c-a0d5-af97c2a34252&projectId=0198c320-653a-770c-93e4-41e10e7faa5f","49E1F7CBD56F4A70A8905D4966AF6BB8-2025-08-19-16-36-28","","26194","","[""<span style=\""color: red; font-size: 24px\""> NOW RECORDING</span><p>Please say out loud all the images you saw in part 1 of the experiment, as many as you can remember. The images can be said in any order.</p>""]","","4","the_performance_causal"
"","","","","","image-button-response","15","467895","0.0-13.0-0.0","49E1F7CBD56F4A70A8905D4966AF6BB8","49E1F7CBD56F4A70A8905D4966AF6BB8","0198c323-f0d0-7f1c-a0d5-af97c2a34252","0198c320-653a-770c-93e4-41e10e7faa5f","{""num_scrambled_semantic"":""8"",""num_scrambled_causal"":""4"",""num_scrambled_schematic"":""4"",""participantId"":""49E1F7CBD56F4A70A8905D4966AF6BB8"",""assignmentId"":""0198c323-f0d0-7f1c-a0d5-af97c2a34252"",""projectId"":""0198c320-653a-770c-93e4-41e10e7faa5f""}","https://test12345.live/?num_scrambled_semantic=8&num_scrambled_causal=4&num_scrambled_schematic=4&participantId=49E1F7CBD56F4A70A8905D4966AF6BB8&assignmentId=0198c323-f0d0-7f1c-a0d5-af97c2a34252&projectId=0198c320-653a-770c-93e4-41e10e7faa5f","49E1F7CBD56F4A70A8905D4966AF6BB8-2025-08-19-16-36-28","","null","","images/semantic_sequence/cat_care_semantic/cat_care_semantic_0.png","null","",""
"","","","","","html-audio-response","16","572248","0.0-14.0","49E1F7CBD56F4A70A8905D4966AF6BB8","49E1F7CBD56F4A70A8905D4966AF6BB8","0198c323-f0d0-7f1c-a0d5-af97c2a34252","0198c320-653a-770c-93e4-41e10e7faa5f","{""num_scrambled_semantic"":""8"",""num_scrambled_causal"":""4"",""num_scrambled_schematic"":""4"",""participantId"":""49E1F7CBD56F4A70A8905D4966AF6BB8"",""assignmentId"":""0198c323-f0d0-7f1c-a0d5-af97c2a34252"",""projectId"":""0198c320-653a-770c-93e4-41e10e7faa5f""}","https://test12345.live/?num_scrambled_semantic=8&num_scrambled_causal=4&num_scrambled_schematic=4&participantId=49E1F7CBD56F4A70A8905D4966AF6BB8&assignmentId=0198c323-f0d0-7f1c-a0d5-af97c2a34252&projectId=0198c320-653a-770c-93e4-41e10e7faa5f","49E1F7CBD56F4A70A8905D4966AF6BB8-2025-08-19-16-36-28","","7105","","[""<span style=\""color: red; font-size: 24px\""> NOW RECORDING</span><p>Please say out loud all the images you saw in part 1 of the experiment, as many as you can remember. The images can be said in any order.</p>""]","","3","cat_care_semantic"
"","","","","","image-button-response","17","578275","0.0-15.0-0.0","49E1F7CBD56F4A70A8905D4966AF6BB8","49E1F7CBD56F4A70A8905D4966AF6BB8","0198c323-f0d0-7f1c-a0d5-af97c2a34252","0198c320-653a-770c-93e4-41e10e7faa5f","{""num_scrambled_semantic"":""8"",""num_scrambled_causal"":""4"",""num_scrambled_schematic"":""4"",""participantId"":""49E1F7CBD56F4A70A8905D4966AF6BB8"",""assignmentId"":""0198c323-f0d0-7f1c-a0d5-af97c2a34252"",""projectId"":""0198c320-653a-770c-93e4-41e10e7faa5f""}","https://test12345.live/?num_scrambled_semantic=8&num_scrambled_causal=4&num_scrambled_schematic=4&participantId=49E1F7CBD56F4A70A8905D4966AF6BB8&assignmentId=0198c323-f0d0-7f1c-a0d5-af97c2a34252&projectId=0198c320-653a-770c-93e4-41e10e7faa5f","49E1F7CBD56F4A70A8905D4966AF6BB8-2025-08-19-16-36-28","","null","","images/semantic_sequence/housework_semantic/housework_semantic_0.png","null","",""
"","","","","","html-audio-response","18","590258","0.0-16.0","49E1F7CBD56F4A70A8905D4966AF6BB8","49E1F7CBD56F4A70A8905D4966AF6BB8","0198c323-f0d0-7f1c-a0d5-af97c2a34252","0198c320-653a-770c-93e4-41e10e7faa5f","{""num_scrambled_semantic"":""8"",""num_scrambled_causal"":""4"",""num_scrambled_schematic"":""4"",""participantId"":""49E1F7CBD56F4A70A8905D4966AF6BB8"",""assignmentId"":""0198c323-f0d0-7f1c-a0d5-af97c2a34252"",""projectId"":""0198c320-653a-770c-93e4-41e10e7faa5f""}","https://test12345.live/?num_scrambled_semantic=8&num_scrambled_causal=4&num_scrambled_schematic=4&participantId=49E1F7CBD56F4A70A8905D4966AF6BB8&assignmentId=0198c323-f0d0-7f1c-a0d5-af97c2a34252&projectId=0198c320-653a-770c-93e4-41e10e7faa5f","49E1F7CBD56F4A70A8905D4966AF6BB8-2025-08-19-16-36-28","","11106","","[""<span style=\""color: red; font-size: 24px\""> NOW RECORDING</span><p>Please say out loud all the images you saw in part 1 of the experiment, as many as you can remember. The images can be said in any order.</p>""]","","3","housework_semantic"
"","","","","","image-button-response","19","596285","0.0-17.0-0.0","49E1F7CBD56F4A70A8905D4966AF6BB8","49E1F7CBD56F4A70A8905D4966AF6BB8","0198c323-f0d0-7f1c-a0d5-af97c2a34252","0198c320-653a-770c-93e4-41e10e7faa5f","{""num_scrambled_semantic"":""8"",""num_scrambled_causal"":""4"",""num_scrambled_schematic"":""4"",""participantId"":""49E1F7CBD56F4A70A8905D4966AF6BB8"",""assignmentId"":""0198c323-f0d0-7f1c-a0d5-af97c2a34252"",""projectId"":""0198c320-653a-770c-93e4-41e10e7faa5f""}","https://test12345.live/?num_scrambled_semantic=8&num_scrambled_causal=4&num_scrambled_schematic=4&participantId=49E1F7CBD56F4A70A8905D4966AF6BB8&assignmentId=0198c323-f0d0-7f1c-a0d5-af97c2a34252&projectId=0198c320-653a-770c-93e4-41e10e7faa5f","49E1F7CBD56F4A70A8905D4966AF6BB8-2025-08-19-16-36-28","","null","","images/semantic_sequence/physical_activity_semantic/physical_activity_semantic_0.png","null","",""
"","","","","","html-audio-response","20","636118","0.0-18.0","49E1F7CBD56F4A70A8905D4966AF6BB8","49E1F7CBD56F4A70A8905D4966AF6BB8","0198c323-f0d0-7f1c-a0d5-af97c2a34252","0198c320-653a-770c-93e4-41e10e7faa5f","{""num_scrambled_semantic"":""8"",""num_scrambled_causal"":""4"",""num_scrambled_schematic"":""4"",""participantId"":""49E1F7CBD56F4A70A8905D4966AF6BB8"",""assignmentId"":""0198c323-f0d0-7f1c-a0d5-af97c2a34252"",""projectId"":""0198c320-653a-770c-93e4-41e10e7faa5f""}","https://test12345.live/?num_scrambled_semantic=8&num_scrambled_causal=4&num_scrambled_schematic=4&participantId=49E1F7CBD56F4A70A8905D4966AF6BB8&assignmentId=0198c323-f0d0-7f1c-a0d5-af97c2a34252&projectId=0198c320-653a-770c-93e4-41e10e7faa5f","49E1F7CBD56F4A70A8905D4966AF6BB8-2025-08-19-16-36-28","","17815","","[""<span style=\""color: red; font-size: 24px\""> NOW RECORDING</span><p>Please say out loud all the images you saw in part 1 of the experiment, as many as you can remember. The images can be said in any order.</p>""]","","4","physical_activity_semantic"
"","","","","","image-button-response","21","642154","0.0-19.0-0.0","49E1F7CBD56F4A70A8905D4966AF6BB8","49E1F7CBD56F4A70A8905D4966AF6BB8","0198c323-f0d0-7f1c-a0d5-af97c2a34252","0198c320-653a-770c-93e4-41e10e7faa5f","{""num_scrambled_semantic"":""8"",""num_scrambled_causal"":""4"",""num_scrambled_schematic"":""4"",""participantId"":""49E1F7CBD56F4A70A8905D4966AF6BB8"",""assignmentId"":""0198c323-f0d0-7f1c-a0d5-af97c2a34252"",""projectId"":""0198c320-653a-770c-93e4-41e10e7faa5f""}","https://test12345.live/?num_scrambled_semantic=8&num_scrambled_causal=4&num_scrambled_schematic=4&participantId=49E1F7CBD56F4A70A8905D4966AF6BB8&assignmentId=0198c323-f0d0-7f1c-a0d5-af97c2a34252&projectId=0198c320-653a-770c-93e4-41e10e7faa5f","49E1F7CBD56F4A70A8905D4966AF6BB8-2025-08-19-16-36-28","","null","","images/semantic_sequence/maintaining_a_car_semantic/maintaining_a_car_semantic_0.png","null","",""
"","","","","","html-audio-response","22","644859","0.0-20.0","49E1F7CBD56F4A70A8905D4966AF6BB8","49E1F7CBD56F4A70A8905D4966AF6BB8","0198c323-f0d0-7f1c-a0d5-af97c2a34252","0198c320-653a-770c-93e4-41e10e7faa5f","{""num_scrambled_semantic"":""8"",""num_scrambled_causal"":""4"",""num_scrambled_schematic"":""4"",""participantId"":""49E1F7CBD56F4A70A8905D4966AF6BB8"",""assignmentId"":""0198c323-f0d0-7f1c-a0d5-af97c2a34252"",""projectId"":""0198c320-653a-770c-93e4-41e10e7faa5f""}","https://test12345.live/?num_scrambled_semantic=8&num_scrambled_causal=4&num_scrambled_schematic=4&participantId=49E1F7CBD56F4A70A8905D4966AF6BB8&assignmentId=0198c323-f0d0-7f1c-a0d5-af97c2a34252&projectId=0198c320-653a-770c-93e4-41e10e7faa5f","49E1F7CBD56F4A70A8905D4966AF6BB8-2025-08-19-16-36-28","","956","","[""<span style=\""color: red; font-size: 24px\""> NOW RECORDING</span><p>Please say out loud all the images you saw in part 1 of the experiment, as many as you can remember. The images can be said in any order.</p>""]","","3","maintaining_a_car_semantic"
"","","","","","image-button-response","23","650885","0.0-21.0-0.0","49E1F7CBD56F4A70A8905D4966AF6BB8","49E1F7CBD56F4A70A8905D4966AF6BB8","0198c323-f0d0-7f1c-a0d5-af97c2a34252","0198c320-653a-770c-93e4-41e10e7faa5f","{""num_scrambled_semantic"":""8"",""num_scrambled_causal"":""4"",""num_scrambled_schematic"":""4"",""participantId"":""49E1F7CBD56F4A70A8905D4966AF6BB8"",""assignmentId"":""0198c323-f0d0-7f1c-a0d5-af97c2a34252"",""projectId"":""0198c320-653a-770c-93e4-41e10e7faa5f""}","https://test12345.live/?num_scrambled_semantic=8&num_scrambled_causal=4&num_scrambled_schematic=4&participantId=49E1F7CBD56F4A70A8905D4966AF6BB8&assignmentId=0198c323-f0d0-7f1c-a0d5-af97c2a34252&projectId=0198c320-653a-770c-93e4-41e10e7faa5f","49E1F7CBD56F4A70A8905D4966AF6BB8-2025-08-19-16-36-28","","null","","images/semantic_sequence/using_technology_semantic/using_technology_semantic_0.png","null","",""
"","","","","","html-audio-response","24","659459","0.0-22.0","49E1F7CBD56F4A70A8905D4966AF6BB8","49E1F7CBD56F4A70A8905D4966AF6BB8","0198c323-f0d0-7f1c-a0d5-af97c2a34252","0198c320-653a-770c-93e4-41e10e7faa5f","{""num_scrambled_semantic"":""8"",""num_scrambled_causal"":""4"",""num_scrambled_schematic"":""4"",""participantId"":""49E1F7CBD56F4A70A8905D4966AF6BB8"",""assignmentId"":""0198c323-f0d0-7f1c-a0d5-af97c2a34252"",""projectId"":""0198c320-653a-770c-93e4-41e10e7faa5f""}","https://test12345.live/?num_scrambled_semantic=8&num_scrambled_causal=4&num_scrambled_schematic=4&participantId=49E1F7CBD56F4A70A8905D4966AF6BB8&assignmentId=0198c323-f0d0-7f1c-a0d5-af97c2a34252&projectId=0198c320-653a-770c-93e4-41e10e7faa5f","49E1F7CBD56F4A70A8905D4966AF6BB8-2025-08-19-16-36-28","","1545","","[""<span style=\""color: red; font-size: 24px\""> NOW RECORDING</span><p>Please say out loud all the images you saw in part 1 of the experiment, as many as you can remember. The images can be said in any order.</p>""]","","4","using_technology_semantic"
"","","","","","image-button-response","25","665476","0.0-23.0-0.0","49E1F7CBD56F4A70A8905D4966AF6BB8","49E1F7CBD56F4A70A8905D4966AF6BB8","0198c323-f0d0-7f1c-a0d5-af97c2a34252","0198c320-653a-770c-93e4-41e10e7faa5f","{""num_scrambled_semantic"":""8"",""num_scrambled_causal"":""4"",""num_scrambled_schematic"":""4"",""participantId"":""49E1F7CBD56F4A70A8905D4966AF6BB8"",""assignmentId"":""0198c323-f0d0-7f1c-a0d5-af97c2a34252"",""projectId"":""0198c320-653a-770c-93e4-41e10e7faa5f""}","https://test12345.live/?num_scrambled_semantic=8&num_scrambled_causal=4&num_scrambled_schematic=4&participantId=49E1F7CBD56F4A70A8905D4966AF6BB8&assignmentId=0198c323-f0d0-7f1c-a0d5-af97c2a34252&projectId=0198c320-653a-770c-93e4-41e10e7faa5f","49E1F7CBD56F4A70A8905D4966AF6BB8-2025-08-19-16-36-28","","null","","images/causal_sequence/package_causal/package_causal_0.png","null","",""
"","","","","","html-audio-response","26","683218","0.0-24.0","49E1F7CBD56F4A70A8905D4966AF6BB8","49E1F7CBD56F4A70A8905D4966AF6BB8","0198c323-f0d0-7f1c-a0d5-af97c2a34252","0198c320-653a-770c-93e4-41e10e7faa5f","{""num_scrambled_semantic"":""8"",""num_scrambled_causal"":""4"",""num_scrambled_schematic"":""4"",""participantId"":""49E1F7CBD56F4A70A8905D4966AF6BB8"",""assignmentId"":""0198c323-f0d0-7f1c-a0d5-af97c2a34252"",""projectId"":""0198c320-653a-770c-93e4-41e10e7faa5f""}","https://test12345.live/?num_scrambled_semantic=8&num_scrambled_causal=4&num_scrambled_schematic=4&participantId=49E1F7CBD56F4A70A8905D4966AF6BB8&assignmentId=0198c323-f0d0-7f1c-a0d5-af97c2a34252&projectId=0198c320-653a-770c-93e4-41e10e7faa5f","49E1F7CBD56F4A70A8905D4966AF6BB8-2025-08-19-16-36-28","","16735","","[""<span style=\""color: red; font-size: 24px\""> NOW RECORDING</span><p>Please say out loud all the images you saw in part 1 of the experiment, as many as you can remember. The images can be said in any order.</p>""]","","4","package_causal"
"","","","","","image-button-response","27","689253","0.0-25.0-0.0","49E1F7CBD56F4A70A8905D4966AF6BB8","49E1F7CBD56F4A70A8905D4966AF6BB8","0198c323-f0d0-7f1c-a0d5-af97c2a34252","0198c320-653a-770c-93e4-41e10e7faa5f","{""num_scrambled_semantic"":""8"",""num_scrambled_causal"":""4"",""num_scrambled_schematic"":""4"",""participantId"":""49E1F7CBD56F4A70A8905D4966AF6BB8"",""assignmentId"":""0198c323-f0d0-7f1c-a0d5-af97c2a34252"",""projectId"":""0198c320-653a-770c-93e4-41e10e7faa5f""}","https://test12345.live/?num_scrambled_semantic=8&num_scrambled_causal=4&num_scrambled_schematic=4&participantId=49E1F7CBD56F4A70A8905D4966AF6BB8&assignmentId=0198c323-f0d0-7f1c-a0d5-af97c2a34252&projectId=0198c320-653a-770c-93e4-41e10e7faa5f","49E1F7CBD56F4A70A8905D4966AF6BB8-2025-08-19-16-36-28","","null","","images/causal_sequence/saving_a_cat_causal/saving_a_cat_causal_0.png","null","",""
"","","","","","html-audio-response","28","702839","0.0-26.0","49E1F7CBD56F4A70A8905D4966AF6BB8","49E1F7CBD56F4A70A8905D4966AF6BB8","0198c323-f0d0-7f1c-a0d5-af97c2a34252","0198c320-653a-770c-93e4-41e10e7faa5f","{""num_scrambled_semantic"":""8"",""num_scrambled_causal"":""4"",""num_scrambled_schematic"":""4"",""participantId"":""49E1F7CBD56F4A70A8905D4966AF6BB8"",""assignmentId"":""0198c323-f0d0-7f1c-a0d5-af97c2a34252"",""projectId"":""0198c320-653a-770c-93e4-41e10e7faa5f""}","https://test12345.live/?num_scrambled_semantic=8&num_scrambled_causal=4&num_scrambled_schematic=4&participantId=49E1F7CBD56F4A70A8905D4966AF6BB8&assignmentId=0198c323-f0d0-7f1c-a0d5-af97c2a34252&projectId=0198c320-653a-770c-93e4-41e10e7faa5f","49E1F7CBD56F4A70A8905D4966AF6BB8-2025-08-19-16-36-28","","4206","","[""<span style=\""color: red; font-size: 24px\""> NOW RECORDING</span><p>Please say out loud all the images you saw in part 1 of the experiment, as many as you can remember. The images can be said in any order.</p>""]","","3","saving_a_cat_causal"
"","","","","","image-button-response","29","708864","0.0-27.0-0.0","49E1F7CBD56F4A70A8905D4966AF6BB8","49E1F7CBD56F4A70A8905D4966AF6BB8","0198c323-f0d0-7f1c-a0d5-af97c2a34252","0198c320-653a-770c-93e4-41e10e7faa5f","{""num_scrambled_semantic"":""8"",""num_scrambled_causal"":""4"",""num_scrambled_schematic"":""4"",""participantId"":""49E1F7CBD56F4A70A8905D4966AF6BB8"",""assignmentId"":""0198c323-f0d0-7f1c-a0d5-af97c2a34252"",""projectId"":""0198c320-653a-770c-93e4-41e10e7faa5f""}","https://test12345.live/?num_scrambled_semantic=8&num_scrambled_causal=4&num_scrambled_schematic=4&participantId=49E1F7CBD56F4A70A8905D4966AF6BB8&assignmentId=0198c323-f0d0-7f1c-a0d5-af97c2a34252&projectId=0198c320-653a-770c-93e4-41e10e7faa5f","49E1F7CBD56F4A70A8905D4966AF6BB8-2025-08-19-16-36-28","","null","","images/semantic_sequence/redecorating_semantic/redecorating_semantic_0.png","null","",""
"","","","","","html-audio-response","30","722438","0.0-28.0","49E1F7CBD56F4A70A8905D4966AF6BB8","49E1F7CBD56F4A70A8905D4966AF6BB8","0198c323-f0d0-7f1c-a0d5-af97c2a34252","0198c320-653a-770c-93e4-41e10e7faa5f","{""num_scrambled_semantic"":""8"",""num_scrambled_causal"":""4"",""num_scrambled_schematic"":""4"",""participantId"":""49E1F7CBD56F4A70A8905D4966AF6BB8"",""assignmentId"":""0198c323-f0d0-7f1c-a0d5-af97c2a34252"",""projectId"":""0198c320-653a-770c-93e4-41e10e7faa5f""}","https://test12345.live/?num_scrambled_semantic=8&num_scrambled_causal=4&num_scrambled_schematic=4&participantId=49E1F7CBD56F4A70A8905D4966AF6BB8&assignmentId=0198c323-f0d0-7f1c-a0d5-af97c2a34252&projectId=0198c320-653a-770c-93e4-41e10e7faa5f","49E1F7CBD56F4A70A8905D4966AF6BB8-2025-08-19-16-36-28","","12423","","[""<span style=\""color: red; font-size: 24px\""> NOW RECORDING</span><p>Please say out loud all the images you saw in part 1 of the experiment, as many as you can remember. The images can be said in any order.</p>""]","","4","redecorating_semantic"
"","","","","","image-button-response","31","728474","0.0-29.0-0.0","49E1F7CBD56F4A70A8905D4966AF6BB8","49E1F7CBD56F4A70A8905D4966AF6BB8","0198c323-f0d0-7f1c-a0d5-af97c2a34252","0198c320-653a-770c-93e4-41e10e7faa5f","{""num_scrambled_semantic"":""8"",""num_scrambled_causal"":""4"",""num_scrambled_schematic"":""4"",""participantId"":""49E1F7CBD56F4A70A8905D4966AF6BB8"",""assignmentId"":""0198c323-f0d0-7f1c-a0d5-af97c2a34252"",""projectId"":""0198c320-653a-770c-93e4-41e10e7faa5f""}","https://test12345.live/?num_scrambled_semantic=8&num_scrambled_causal=4&num_scrambled_schematic=4&participantId=49E1F7CBD56F4A70A8905D4966AF6BB8&assignmentId=0198c323-f0d0-7f1c-a0d5-af97c2a34252&projectId=0198c320-653a-770c-93e4-41e10e7faa5f","49E1F7CBD56F4A70A8905D4966AF6BB8-2025-08-19-16-36-28","","null","","images/causal_sequence/museum_causal/museum_causal_0.png","null","",""
"","","","","","html-audio-response","32","730768","0.0-30.0","49E1F7CBD56F4A70A8905D4966AF6BB8","49E1F7CBD56F4A70A8905D4966AF6BB8","0198c323-f0d0-7f1c-a0d5-af97c2a34252","0198c320-653a-770c-93e4-41e10e7faa5f","{""num_scrambled_semantic"":""8"",""num_scrambled_causal"":""4"",""num_scrambled_schematic"":""4"",""participantId"":""49E1F7CBD56F4A70A8905D4966AF6BB8"",""assignmentId"":""0198c323-f0d0-7f1c-a0d5-af97c2a34252"",""projectId"":""0198c320-653a-770c-93e4-41e10e7faa5f""}","https://test12345.live/?num_scrambled_semantic=8&num_scrambled_causal=4&num_scrambled_schematic=4&participantId=49E1F7CBD56F4A70A8905D4966AF6BB8&assignmentId=0198c323-f0d0-7f1c-a0d5-af97c2a34252&projectId=0198c320-653a-770c-93e4-41e10e7faa5f","49E1F7CBD56F4A70A8905D4966AF6BB8-2025-08-19-16-36-28","","1176","","[""<span style=\""color: red; font-size: 24px\""> NOW RECORDING</span><p>Please say out loud all the images you saw in part 1 of the experiment, as many as you can remember. The images can be said in any order.</p>""]","","3","museum_causal"
"","","","","","image-button-response","33","736795","0.0-31.0-0.0","49E1F7CBD56F4A70A8905D4966AF6BB8","49E1F7CBD56F4A70A8905D4966AF6BB8","0198c323-f0d0-7f1c-a0d5-af97c2a34252","0198c320-653a-770c-93e4-41e10e7faa5f","{""num_scrambled_semantic"":""8"",""num_scrambled_causal"":""4"",""num_scrambled_schematic"":""4"",""participantId"":""49E1F7CBD56F4A70A8905D4966AF6BB8"",""assignmentId"":""0198c323-f0d0-7f1c-a0d5-af97c2a34252"",""projectId"":""0198c320-653a-770c-93e4-41e10e7faa5f""}","https://test12345.live/?num_scrambled_semantic=8&num_scrambled_causal=4&num_scrambled_schematic=4&participantId=49E1F7CBD56F4A70A8905D4966AF6BB8&assignmentId=0198c323-f0d0-7f1c-a0d5-af97c2a34252&projectId=0198c320-653a-770c-93e4-41e10e7faa5f","49E1F7CBD56F4A70A8905D4966AF6BB8-2025-08-19-16-36-28","","null","","images/causal_sequence/dog_causal/dog_causal_0.png","null","",""
"","","","","","html-audio-response","34","767034","0.0-32.0","49E1F7CBD56F4A70A8905D4966AF6BB8","49E1F7CBD56F4A70A8905D4966AF6BB8","0198c323-f0d0-7f1c-a0d5-af97c2a34252","0198c320-653a-770c-93e4-41e10e7faa5f","{""num_scrambled_semantic"":""8"",""num_scrambled_causal"":""4"",""num_scrambled_schematic"":""4"",""participantId"":""49E1F7CBD56F4A70A8905D4966AF6BB8"",""assignmentId"":""0198c323-f0d0-7f1c-a0d5-af97c2a34252"",""projectId"":""0198c320-653a-770c-93e4-41e10e7faa5f""}","https://test12345.live/?num_scrambled_semantic=8&num_scrambled_causal=4&num_scrambled_schematic=4&participantId=49E1F7CBD56F4A70A8905D4966AF6BB8&assignmentId=0198c323-f0d0-7f1c-a0d5-af97c2a34252&projectId=0198c320-653a-770c-93e4-41e10e7faa5f","49E1F7CBD56F4A70A8905D4966AF6BB8-2025-08-19-16-36-28","","1265","","[""<span style=\""color: red; font-size: 24px\""> NOW RECORDING</span><p>Please say out loud all the images you saw in part 1 of the experiment, as many as you can remember. The images can be said in any order.</p>""]","","4","dog_causal"
"","","","","","image-button-response","35","773047","0.0-33.0-0.0","49E1F7CBD56F4A70A8905D4966AF6BB8","49E1F7CBD56F4A70A8905D4966AF6BB8","0198c323-f0d0-7f1c-a0d5-af97c2a34252","0198c320-653a-770c-93e4-41e10e7faa5f","{""num_scrambled_semantic"":""8"",""num_scrambled_causal"":""4"",""num_scrambled_schematic"":""4"",""participantId"":""49E1F7CBD56F4A70A8905D4966AF6BB8"",""assignmentId"":""0198c323-f0d0-7f1c-a0d5-af97c2a34252"",""projectId"":""0198c320-653a-770c-93e4-41e10e7faa5f""}","https://test12345.live/?num_scrambled_semantic=8&num_scrambled_causal=4&num_scrambled_schematic=4&participantId=49E1F7CBD56F4A70A8905D4966AF6BB8&assignmentId=0198c323-f0d0-7f1c-a0d5-af97c2a34252&projectId=0198c320-653a-770c-93e4-41e10e7faa5f","49E1F7CBD56F4A70A8905D4966AF6BB8-2025-08-19-16-36-28","","null","","images/semantic_sequence/creative_activities_semantic/creative_activities_semantic_0.png","null","",""
"","","","","","html-audio-response","36","801074","0.0-34.0","49E1F7CBD56F4A70A8905D4966AF6BB8","49E1F7CBD56F4A70A8905D4966AF6BB8","0198c323-f0d0-7f1c-a0d5-af97c2a34252","0198c320-653a-770c-93e4-41e10e7faa5f","{""num_scrambled_semantic"":""8"",""num_scrambled_causal"":""4"",""num_scrambled_schematic"":""4"",""participantId"":""49E1F7CBD56F4A70A8905D4966AF6BB8"",""assignmentId"":""0198c323-f0d0-7f1c-a0d5-af97c2a34252"",""projectId"":""0198c320-653a-770c-93e4-41e10e7faa5f""}","https://test12345.live/?num_scrambled_semantic=8&num_scrambled_causal=4&num_scrambled_schematic=4&participantId=49E1F7CBD56F4A70A8905D4966AF6BB8&assignmentId=0198c323-f0d0-7f1c-a0d5-af97c2a34252&projectId=0198c320-653a-770c-93e4-41e10e7faa5f","49E1F7CBD56F4A70A8905D4966AF6BB8-2025-08-19-16-36-28","","944","","[""<span style=\""color: red; font-size: 24px\""> NOW RECORDING</span><p>Please say out loud all the images you saw in part 1 of the experiment, as many as you can remember. The images can be said in any order.</p>""]","","4","creative_activities_semantic"
"","","","","","survey-text","37","815558","0.0-35.0","49E1F7CBD56F4A70A8905D4966AF6BB8","49E1F7CBD56F4A70A8905D4966AF6BB8","0198c323-f0d0-7f1c-a0d5-af97c2a34252","0198c320-653a-770c-93e4-41e10e7faa5f","{""num_scrambled_semantic"":""8"",""num_scrambled_causal"":""4"",""num_scrambled_schematic"":""4"",""participantId"":""49E1F7CBD56F4A70A8905D4966AF6BB8"",""assignmentId"":""0198c323-f0d0-7f1c-a0d5-af97c2a34252"",""projectId"":""0198c320-653a-770c-93e4-41e10e7faa5f""}","https://test12345.live/?num_scrambled_semantic=8&num_scrambled_causal=4&num_scrambled_schematic=4&participantId=49E1F7CBD56F4A70A8905D4966AF6BB8&assignmentId=0198c323-f0d0-7f1c-a0d5-af97c2a34252&projectId=0198c320-653a-770c-93e4-41e10e7faa5f","49E1F7CBD56F4A70A8905D4966AF6BB8-2025-08-19-16-36-28","","14457","","","{""Q0"":""MALE"",""Q1"":""34""}","",""
"","","","","","instructions","38","821021","0.0-36.0","49E1F7CBD56F4A70A8905D4966AF6BB8","49E1F7CBD56F4A70A8905D4966AF6BB8","0198c323-f0d0-7f1c-a0d5-af97c2a34252","0198c320-653a-770c-93e4-41e10e7faa5f","{""num_scrambled_semantic"":""8"",""num_scrambled_causal"":""4"",""num_scrambled_schematic"":""4"",""participantId"":""49E1F7CBD56F4A70A8905D4966AF6BB8"",""assignmentId"":""0198c323-f0d0-7f1c-a0d5-af97c2a34252"",""projectId"":""0198c320-653a-770c-93e4-41e10e7faa5f""}","https://test12345.live/?num_scrambled_semantic=8&num_scrambled_causal=4&num_scrambled_schematic=4&participantId=49E1F7CBD56F4A70A8905D4966AF6BB8&assignmentId=0198c323-f0d0-7f1c-a0d5-af97c2a34252&projectId=0198c320-653a-770c-93e4-41e10e7faa5f","49E1F7CBD56F4A70A8905D4966AF6BB8-2025-08-19-16-36-28","[{""page_index"":0,""viewing_time"":5460}]","5461","","","","",""
"","","","","","survey-text","39","823667","0.0-37.0","49E1F7CBD56F4A70A8905D4966AF6BB8","49E1F7CBD56F4A70A8905D4966AF6BB8","0198c323-f0d0-7f1c-a0d5-af97c2a34252","0198c320-653a-770c-93e4-41e10e7faa5f","{""num_scrambled_semantic"":""8"",""num_scrambled_causal"":""4"",""num_scrambled_schematic"":""4"",""participantId"":""49E1F7CBD56F4A70A8905D4966AF6BB8"",""assignmentId"":""0198c323-f0d0-7f1c-a0d5-af97c2a34252"",""projectId"":""0198c320-653a-770c-93e4-41e10e7faa5f""}","https://test12345.live/?num_scrambled_semantic=8&num_scrambled_causal=4&num_scrambled_schematic=4&participantId=49E1F7CBD56F4A70A8905D4966AF6BB8&assignmentId=0198c323-f0d0-7f1c-a0d5-af97c2a34252&projectId=0198c320-653a-770c-93e4-41e10e7faa5f","49E1F7CBD56F4A70A8905D4966AF6BB8-2025-08-19-16-36-28","","2640","","","{""Q0"":""AJFHBG896""}","",""
