"success","timeout","failed_images","failed_audio","failed_video","trial_type","trial_index","time_elapsed","internal_node_id","subject","subject_id","study_id","session_id","urlvar","current_url","audio_id","view_history","rt","device_id","stimulus","response","estimated_stimulus_onset","seq_name"
"true","false","[]","[]","[]","preload","0","644","0.0-0.0","4A4F931CF9F941C4BD5C090C09FFC3D0","4A4F931CF9F941C4BD5C090C09FFC3D0","a0d95a6d-165b-466f-9e3b-a219755d6db2","9596d7a2-d401-47b1-aedd-70105f5f2f42","{""part"":""2"",""participantId"":""4A4F931CF9F941C4BD5C090C09FFC3D0"",""assignmentId"":""a0d95a6d-165b-466f-9e3b-a219755d6db2"",""projectId"":""9596d7a2-d401-47b1-aedd-70105f5f2f42""}","https://test12345.live/?part=2&participantId=4A4F931CF9F941C4BD5C090C09FFC3D0&assignmentId=a0d95a6d-165b-466f-9e3b-a219755d6db2&projectId=9596d7a2-d401-47b1-aedd-70105f5f2f42","4A4F931CF9F941C4BD5C090C09FFC3D0-2025-05-28-19-10-07","","","","","","",""
"","","","","","instructions","1","18576","0.0-1.0","4A4F931CF9F941C4BD5C090C09FFC3D0","4A4F931CF9F941C4BD5C090C09FFC3D0","a0d95a6d-165b-466f-9e3b-a219755d6db2","9596d7a2-d401-47b1-aedd-70105f5f2f42","{""part"":""2"",""participantId"":""4A4F931CF9F941C4BD5C090C09FFC3D0"",""assignmentId"":""a0d95a6d-165b-466f-9e3b-a219755d6db2"",""projectId"":""9596d7a2-d401-47b1-aedd-70105f5f2f42""}","https://test12345.live/?part=2&participantId=4A4F931CF9F941C4BD5C090C09FFC3D0&assignmentId=a0d95a6d-165b-466f-9e3b-a219755d6db2&projectId=9596d7a2-d401-47b1-aedd-70105f5f2f42","4A4F931CF9F941C4BD5C090C09FFC3D0-2025-05-28-19-10-07","[{""page_index"":0,""viewing_time"":17928}]","17929","","","","",""
"","","","","","instructions","2","41357","0.0-2.0","4A4F931CF9F941C4BD5C090C09FFC3D0","4A4F931CF9F941C4BD5C090C09FFC3D0","a0d95a6d-165b-466f-9e3b-a219755d6db2","9596d7a2-d401-47b1-aedd-70105f5f2f42","{""part"":""2"",""participantId"":""4A4F931CF9F941C4BD5C090C09FFC3D0"",""assignmentId"":""a0d95a6d-165b-466f-9e3b-a219755d6db2"",""projectId"":""9596d7a2-d401-47b1-aedd-70105f5f2f42""}","https://test12345.live/?part=2&participantId=4A4F931CF9F941C4BD5C090C09FFC3D0&assignmentId=a0d95a6d-165b-466f-9e3b-a219755d6db2&projectId=9596d7a2-d401-47b1-aedd-70105f5f2f42","4A4F931CF9F941C4BD5C090C09FFC3D0-2025-05-28-19-10-07","[{""page_index"":0,""viewing_time"":22780}]","22780","","","","",""
"true","","","","","fullscreen","3","43893","0.0-3.0","4A4F931CF9F941C4BD5C090C09FFC3D0","4A4F931CF9F941C4BD5C090C09FFC3D0","a0d95a6d-165b-466f-9e3b-a219755d6db2","9596d7a2-d401-47b1-aedd-70105f5f2f42","{""part"":""2"",""participantId"":""4A4F931CF9F941C4BD5C090C09FFC3D0"",""assignmentId"":""a0d95a6d-165b-466f-9e3b-a219755d6db2"",""projectId"":""9596d7a2-d401-47b1-aedd-70105f5f2f42""}","https://test12345.live/?part=2&participantId=4A4F931CF9F941C4BD5C090C09FFC3D0&assignmentId=a0d95a6d-165b-466f-9e3b-a219755d6db2&projectId=9596d7a2-d401-47b1-aedd-70105f5f2f42","4A4F931CF9F941C4BD5C090C09FFC3D0-2025-05-28-19-10-07","","1532","","","","",""
"","","","","","initialize-microphone","4","47851","0.0-4.0-0.0","4A4F931CF9F941C4BD5C090C09FFC3D0","4A4F931CF9F941C4BD5C090C09FFC3D0","a0d95a6d-165b-466f-9e3b-a219755d6db2","9596d7a2-d401-47b1-aedd-70105f5f2f42","{""part"":""2"",""participantId"":""4A4F931CF9F941C4BD5C090C09FFC3D0"",""assignmentId"":""a0d95a6d-165b-466f-9e3b-a219755d6db2"",""projectId"":""9596d7a2-d401-47b1-aedd-70105f5f2f42""}","https://test12345.live/?part=2&participantId=4A4F931CF9F941C4BD5C090C09FFC3D0&assignmentId=a0d95a6d-165b-466f-9e3b-a219755d6db2&projectId=9596d7a2-d401-47b1-aedd-70105f5f2f42","4A4F931CF9F941C4BD5C090C09FFC3D0-2025-05-28-19-10-07","","","a7dfb545bef414fedb7e01d35515b0da57a3256899a3375d40939aeb7715f634","","","",""
"","","","","","html-audio-response","5","59173","0.0-4.0-1.0","4A4F931CF9F941C4BD5C090C09FFC3D0","4A4F931CF9F941C4BD5C090C09FFC3D0","a0d95a6d-165b-466f-9e3b-a219755d6db2","9596d7a2-d401-47b1-aedd-70105f5f2f42","{""part"":""2"",""participantId"":""4A4F931CF9F941C4BD5C090C09FFC3D0"",""assignmentId"":""a0d95a6d-165b-466f-9e3b-a219755d6db2"",""projectId"":""9596d7a2-d401-47b1-aedd-70105f5f2f42""}","https://test12345.live/?part=2&participantId=4A4F931CF9F941C4BD5C090C09FFC3D0&assignmentId=a0d95a6d-165b-466f-9e3b-a219755d6db2&projectId=9596d7a2-d401-47b1-aedd-70105f5f2f42","4A4F931CF9F941C4BD5C090C09FFC3D0-2025-05-28-19-10-07","","5406","","<span style=""color: red; font-size: 24px""> NOW RECORDING</span>
        <p>Please test Microphone</p>","","14",""
"","","","","","html-button-response","6","60810","0.0-4.0-2.0","4A4F931CF9F941C4BD5C090C09FFC3D0","4A4F931CF9F941C4BD5C090C09FFC3D0","a0d95a6d-165b-466f-9e3b-a219755d6db2","9596d7a2-d401-47b1-aedd-70105f5f2f42","{""part"":""2"",""participantId"":""4A4F931CF9F941C4BD5C090C09FFC3D0"",""assignmentId"":""a0d95a6d-165b-466f-9e3b-a219755d6db2"",""projectId"":""9596d7a2-d401-47b1-aedd-70105f5f2f42""}","https://test12345.live/?part=2&participantId=4A4F931CF9F941C4BD5C090C09FFC3D0&assignmentId=a0d95a6d-165b-466f-9e3b-a219755d6db2&projectId=9596d7a2-d401-47b1-aedd-70105f5f2f42","4A4F931CF9F941C4BD5C090C09FFC3D0-2025-05-28-19-10-07","","1636","","<p style=""font-size:48px; color:red;"">Is Microphone OK?</p>","1","",""
"","","","","","instructions","7","109725","0.0-5.0","4A4F931CF9F941C4BD5C090C09FFC3D0","4A4F931CF9F941C4BD5C090C09FFC3D0","a0d95a6d-165b-466f-9e3b-a219755d6db2","9596d7a2-d401-47b1-aedd-70105f5f2f42","{""part"":""2"",""participantId"":""4A4F931CF9F941C4BD5C090C09FFC3D0"",""assignmentId"":""a0d95a6d-165b-466f-9e3b-a219755d6db2"",""projectId"":""9596d7a2-d401-47b1-aedd-70105f5f2f42""}","https://test12345.live/?part=2&participantId=4A4F931CF9F941C4BD5C090C09FFC3D0&assignmentId=a0d95a6d-165b-466f-9e3b-a219755d6db2&projectId=9596d7a2-d401-47b1-aedd-70105f5f2f42","4A4F931CF9F941C4BD5C090C09FFC3D0-2025-05-28-19-10-07","[{""page_index"":0,""viewing_time"":1379},{""page_index"":1,""viewing_time"":21402},{""page_index"":2,""viewing_time"":26135}]","48916","","","","",""
"","","","","","image-button-response","8","115733","0.0-6.0-0.0","4A4F931CF9F941C4BD5C090C09FFC3D0","4A4F931CF9F941C4BD5C090C09FFC3D0","a0d95a6d-165b-466f-9e3b-a219755d6db2","9596d7a2-d401-47b1-aedd-70105f5f2f42","{""part"":""2"",""participantId"":""4A4F931CF9F941C4BD5C090C09FFC3D0"",""assignmentId"":""a0d95a6d-165b-466f-9e3b-a219755d6db2"",""projectId"":""9596d7a2-d401-47b1-aedd-70105f5f2f42""}","https://test12345.live/?part=2&participantId=4A4F931CF9F941C4BD5C090C09FFC3D0&assignmentId=a0d95a6d-165b-466f-9e3b-a219755d6db2&projectId=9596d7a2-d401-47b1-aedd-70105f5f2f42","4A4F931CF9F941C4BD5C090C09FFC3D0-2025-05-28-19-10-07","","null","","images/instructions/movie_0.png","null","",""
"","","","","","html-audio-response","9","169958","0.0-7.0","4A4F931CF9F941C4BD5C090C09FFC3D0","4A4F931CF9F941C4BD5C090C09FFC3D0","a0d95a6d-165b-466f-9e3b-a219755d6db2","9596d7a2-d401-47b1-aedd-70105f5f2f42","{""part"":""2"",""participantId"":""4A4F931CF9F941C4BD5C090C09FFC3D0"",""assignmentId"":""a0d95a6d-165b-466f-9e3b-a219755d6db2"",""projectId"":""9596d7a2-d401-47b1-aedd-70105f5f2f42""}","https://test12345.live/?part=2&participantId=4A4F931CF9F941C4BD5C090C09FFC3D0&assignmentId=a0d95a6d-165b-466f-9e3b-a219755d6db2&projectId=9596d7a2-d401-47b1-aedd-70105f5f2f42","4A4F931CF9F941C4BD5C090C09FFC3D0-2025-05-28-19-10-07","","21632","","[""<span style=\""color: red; font-size: 24px\""> NOW RECORDING</span><p>Please say out loud all the images you saw in part 1 of the experiment, in the exact order you saw them. Try to recall as many images as you can, but remember: getting the order right is more important than the number of images you recall.</p>""]","","11",""
"","","","","","instructions","10","171190","0.0-8.0","4A4F931CF9F941C4BD5C090C09FFC3D0","4A4F931CF9F941C4BD5C090C09FFC3D0","a0d95a6d-165b-466f-9e3b-a219755d6db2","9596d7a2-d401-47b1-aedd-70105f5f2f42","{""part"":""2"",""participantId"":""4A4F931CF9F941C4BD5C090C09FFC3D0"",""assignmentId"":""a0d95a6d-165b-466f-9e3b-a219755d6db2"",""projectId"":""9596d7a2-d401-47b1-aedd-70105f5f2f42""}","https://test12345.live/?part=2&participantId=4A4F931CF9F941C4BD5C090C09FFC3D0&assignmentId=a0d95a6d-165b-466f-9e3b-a219755d6db2&projectId=9596d7a2-d401-47b1-aedd-70105f5f2f42","4A4F931CF9F941C4BD5C090C09FFC3D0-2025-05-28-19-10-07","[{""page_index"":0,""viewing_time"":1228}]","1228","","","","",""
"","","","","","image-button-response","11","177197","0.0-9.0-0.0","4A4F931CF9F941C4BD5C090C09FFC3D0","4A4F931CF9F941C4BD5C090C09FFC3D0","a0d95a6d-165b-466f-9e3b-a219755d6db2","9596d7a2-d401-47b1-aedd-70105f5f2f42","{""part"":""2"",""participantId"":""4A4F931CF9F941C4BD5C090C09FFC3D0"",""assignmentId"":""a0d95a6d-165b-466f-9e3b-a219755d6db2"",""projectId"":""9596d7a2-d401-47b1-aedd-70105f5f2f42""}","https://test12345.live/?part=2&participantId=4A4F931CF9F941C4BD5C090C09FFC3D0&assignmentId=a0d95a6d-165b-466f-9e3b-a219755d6db2&projectId=9596d7a2-d401-47b1-aedd-70105f5f2f42","4A4F931CF9F941C4BD5C090C09FFC3D0-2025-05-28-19-10-07","","null","","images/semantic_sequence/redecorating_semantic/redecorating_semantic_0.png","null","",""
"","","","","","html-audio-response","12","240674","0.0-10.0","4A4F931CF9F941C4BD5C090C09FFC3D0","4A4F931CF9F941C4BD5C090C09FFC3D0","a0d95a6d-165b-466f-9e3b-a219755d6db2","9596d7a2-d401-47b1-aedd-70105f5f2f42","{""part"":""2"",""participantId"":""4A4F931CF9F941C4BD5C090C09FFC3D0"",""assignmentId"":""a0d95a6d-165b-466f-9e3b-a219755d6db2"",""projectId"":""9596d7a2-d401-47b1-aedd-70105f5f2f42""}","https://test12345.live/?part=2&participantId=4A4F931CF9F941C4BD5C090C09FFC3D0&assignmentId=a0d95a6d-165b-466f-9e3b-a219755d6db2&projectId=9596d7a2-d401-47b1-aedd-70105f5f2f42","4A4F931CF9F941C4BD5C090C09FFC3D0-2025-05-28-19-10-07","","35031","","[""<span style=\""color: red; font-size: 24px\""> NOW RECORDING</span><p>Please say out loud all the images you saw in part 1 of the experiment, in the exact order you saw them. Try to recall as many images as you can, but remember: getting the order right is more important than the number of images you recall. </p>""]","","2","redecorating_semantic"
"","","","","","image-button-response","13","246684","0.0-11.0-0.0","4A4F931CF9F941C4BD5C090C09FFC3D0","4A4F931CF9F941C4BD5C090C09FFC3D0","a0d95a6d-165b-466f-9e3b-a219755d6db2","9596d7a2-d401-47b1-aedd-70105f5f2f42","{""part"":""2"",""participantId"":""4A4F931CF9F941C4BD5C090C09FFC3D0"",""assignmentId"":""a0d95a6d-165b-466f-9e3b-a219755d6db2"",""projectId"":""9596d7a2-d401-47b1-aedd-70105f5f2f42""}","https://test12345.live/?part=2&participantId=4A4F931CF9F941C4BD5C090C09FFC3D0&assignmentId=a0d95a6d-165b-466f-9e3b-a219755d6db2&projectId=9596d7a2-d401-47b1-aedd-70105f5f2f42","4A4F931CF9F941C4BD5C090C09FFC3D0-2025-05-28-19-10-07","","null","","images/semantic_sequence/using_technology_semantic/using_technology_semantic_0.png","null","",""
"","","","","","html-audio-response","14","319157","0.0-12.0","4A4F931CF9F941C4BD5C090C09FFC3D0","4A4F931CF9F941C4BD5C090C09FFC3D0","a0d95a6d-165b-466f-9e3b-a219755d6db2","9596d7a2-d401-47b1-aedd-70105f5f2f42","{""part"":""2"",""participantId"":""4A4F931CF9F941C4BD5C090C09FFC3D0"",""assignmentId"":""a0d95a6d-165b-466f-9e3b-a219755d6db2"",""projectId"":""9596d7a2-d401-47b1-aedd-70105f5f2f42""}","https://test12345.live/?part=2&participantId=4A4F931CF9F941C4BD5C090C09FFC3D0&assignmentId=a0d95a6d-165b-466f-9e3b-a219755d6db2&projectId=9596d7a2-d401-47b1-aedd-70105f5f2f42","4A4F931CF9F941C4BD5C090C09FFC3D0-2025-05-28-19-10-07","","47402","","[""<span style=\""color: red; font-size: 24px\""> NOW RECORDING</span><p>Please say out loud all the images you saw in part 1 of the experiment, in the exact order you saw them. Try to recall as many images as you can, but remember: getting the order right is more important than the number of images you recall. </p>""]","","2","using_technology_semantic"
"","","","","","image-button-response","15","325165","0.0-13.0-0.0","4A4F931CF9F941C4BD5C090C09FFC3D0","4A4F931CF9F941C4BD5C090C09FFC3D0","a0d95a6d-165b-466f-9e3b-a219755d6db2","9596d7a2-d401-47b1-aedd-70105f5f2f42","{""part"":""2"",""participantId"":""4A4F931CF9F941C4BD5C090C09FFC3D0"",""assignmentId"":""a0d95a6d-165b-466f-9e3b-a219755d6db2"",""projectId"":""9596d7a2-d401-47b1-aedd-70105f5f2f42""}","https://test12345.live/?part=2&participantId=4A4F931CF9F941C4BD5C090C09FFC3D0&assignmentId=a0d95a6d-165b-466f-9e3b-a219755d6db2&projectId=9596d7a2-d401-47b1-aedd-70105f5f2f42","4A4F931CF9F941C4BD5C090C09FFC3D0-2025-05-28-19-10-07","","null","","images/semantic_sequence/market_semantic/market_semantic_0.png","null","",""
"","","","","","html-audio-response","16","368241","0.0-14.0","4A4F931CF9F941C4BD5C090C09FFC3D0","4A4F931CF9F941C4BD5C090C09FFC3D0","a0d95a6d-165b-466f-9e3b-a219755d6db2","9596d7a2-d401-47b1-aedd-70105f5f2f42","{""part"":""2"",""participantId"":""4A4F931CF9F941C4BD5C090C09FFC3D0"",""assignmentId"":""a0d95a6d-165b-466f-9e3b-a219755d6db2"",""projectId"":""9596d7a2-d401-47b1-aedd-70105f5f2f42""}","https://test12345.live/?part=2&participantId=4A4F931CF9F941C4BD5C090C09FFC3D0&assignmentId=a0d95a6d-165b-466f-9e3b-a219755d6db2&projectId=9596d7a2-d401-47b1-aedd-70105f5f2f42","4A4F931CF9F941C4BD5C090C09FFC3D0-2025-05-28-19-10-07","","29682","","[""<span style=\""color: red; font-size: 24px\""> NOW RECORDING</span><p>Please say out loud all the images you saw in part 1 of the experiment, in the exact order you saw them. Try to recall as many images as you can, but remember: getting the order right is more important than the number of images you recall. </p>""]","","15","market_semantic"
"","","","","","image-button-response","17","374251","0.0-15.0-0.0","4A4F931CF9F941C4BD5C090C09FFC3D0","4A4F931CF9F941C4BD5C090C09FFC3D0","a0d95a6d-165b-466f-9e3b-a219755d6db2","9596d7a2-d401-47b1-aedd-70105f5f2f42","{""part"":""2"",""participantId"":""4A4F931CF9F941C4BD5C090C09FFC3D0"",""assignmentId"":""a0d95a6d-165b-466f-9e3b-a219755d6db2"",""projectId"":""9596d7a2-d401-47b1-aedd-70105f5f2f42""}","https://test12345.live/?part=2&participantId=4A4F931CF9F941C4BD5C090C09FFC3D0&assignmentId=a0d95a6d-165b-466f-9e3b-a219755d6db2&projectId=9596d7a2-d401-47b1-aedd-70105f5f2f42","4A4F931CF9F941C4BD5C090C09FFC3D0-2025-05-28-19-10-07","","null","","images/semantic_sequence/visiting_cities_semantic/visiting_cities_semantic_0.png","null","",""
"","","","","","html-audio-response","18","432673","0.0-16.0","4A4F931CF9F941C4BD5C090C09FFC3D0","4A4F931CF9F941C4BD5C090C09FFC3D0","a0d95a6d-165b-466f-9e3b-a219755d6db2","9596d7a2-d401-47b1-aedd-70105f5f2f42","{""part"":""2"",""participantId"":""4A4F931CF9F941C4BD5C090C09FFC3D0"",""assignmentId"":""a0d95a6d-165b-466f-9e3b-a219755d6db2"",""projectId"":""9596d7a2-d401-47b1-aedd-70105f5f2f42""}","https://test12345.live/?part=2&participantId=4A4F931CF9F941C4BD5C090C09FFC3D0&assignmentId=a0d95a6d-165b-466f-9e3b-a219755d6db2&projectId=9596d7a2-d401-47b1-aedd-70105f5f2f42","4A4F931CF9F941C4BD5C090C09FFC3D0-2025-05-28-19-10-07","","29964","","[""<span style=\""color: red; font-size: 24px\""> NOW RECORDING</span><p>Please say out loud all the images you saw in part 1 of the experiment, in the exact order you saw them. Try to recall as many images as you can, but remember: getting the order right is more important than the number of images you recall. </p>""]","","2","visiting_cities_semantic"
"","","","","","image-button-response","19","438682","0.0-17.0-0.0","4A4F931CF9F941C4BD5C090C09FFC3D0","4A4F931CF9F941C4BD5C090C09FFC3D0","a0d95a6d-165b-466f-9e3b-a219755d6db2","9596d7a2-d401-47b1-aedd-70105f5f2f42","{""part"":""2"",""participantId"":""4A4F931CF9F941C4BD5C090C09FFC3D0"",""assignmentId"":""a0d95a6d-165b-466f-9e3b-a219755d6db2"",""projectId"":""9596d7a2-d401-47b1-aedd-70105f5f2f42""}","https://test12345.live/?part=2&participantId=4A4F931CF9F941C4BD5C090C09FFC3D0&assignmentId=a0d95a6d-165b-466f-9e3b-a219755d6db2&projectId=9596d7a2-d401-47b1-aedd-70105f5f2f42","4A4F931CF9F941C4BD5C090C09FFC3D0-2025-05-28-19-10-07","","null","","images/schematic_sequence/interview_scheme/interview_scheme_0.png","null","",""
"","","","","","html-audio-response","20","485556","0.0-18.0","4A4F931CF9F941C4BD5C090C09FFC3D0","4A4F931CF9F941C4BD5C090C09FFC3D0","a0d95a6d-165b-466f-9e3b-a219755d6db2","9596d7a2-d401-47b1-aedd-70105f5f2f42","{""part"":""2"",""participantId"":""4A4F931CF9F941C4BD5C090C09FFC3D0"",""assignmentId"":""a0d95a6d-165b-466f-9e3b-a219755d6db2"",""projectId"":""9596d7a2-d401-47b1-aedd-70105f5f2f42""}","https://test12345.live/?part=2&participantId=4A4F931CF9F941C4BD5C090C09FFC3D0&assignmentId=a0d95a6d-165b-466f-9e3b-a219755d6db2&projectId=9596d7a2-d401-47b1-aedd-70105f5f2f42","4A4F931CF9F941C4BD5C090C09FFC3D0-2025-05-28-19-10-07","","40836","","[""<span style=\""color: red; font-size: 24px\""> NOW RECORDING</span><p>Please say out loud all the images you saw in part 1 of the experiment, in the exact order you saw them. Try to recall as many images as you can, but remember: getting the order right is more important than the number of images you recall. </p>""]","","2","interview_scheme"
"","","","","","image-button-response","21","491566","0.0-19.0-0.0","4A4F931CF9F941C4BD5C090C09FFC3D0","4A4F931CF9F941C4BD5C090C09FFC3D0","a0d95a6d-165b-466f-9e3b-a219755d6db2","9596d7a2-d401-47b1-aedd-70105f5f2f42","{""part"":""2"",""participantId"":""4A4F931CF9F941C4BD5C090C09FFC3D0"",""assignmentId"":""a0d95a6d-165b-466f-9e3b-a219755d6db2"",""projectId"":""9596d7a2-d401-47b1-aedd-70105f5f2f42""}","https://test12345.live/?part=2&participantId=4A4F931CF9F941C4BD5C090C09FFC3D0&assignmentId=a0d95a6d-165b-466f-9e3b-a219755d6db2&projectId=9596d7a2-d401-47b1-aedd-70105f5f2f42","4A4F931CF9F941C4BD5C090C09FFC3D0-2025-05-28-19-10-07","","null","","images/semantic_sequence/housework_semantic/housework_semantic_0.png","null","",""
"","","","","","html-audio-response","22","570576","0.0-20.0","4A4F931CF9F941C4BD5C090C09FFC3D0","4A4F931CF9F941C4BD5C090C09FFC3D0","a0d95a6d-165b-466f-9e3b-a219755d6db2","9596d7a2-d401-47b1-aedd-70105f5f2f42","{""part"":""2"",""participantId"":""4A4F931CF9F941C4BD5C090C09FFC3D0"",""assignmentId"":""a0d95a6d-165b-466f-9e3b-a219755d6db2"",""projectId"":""9596d7a2-d401-47b1-aedd-70105f5f2f42""}","https://test12345.live/?part=2&participantId=4A4F931CF9F941C4BD5C090C09FFC3D0&assignmentId=a0d95a6d-165b-466f-9e3b-a219755d6db2&projectId=9596d7a2-d401-47b1-aedd-70105f5f2f42","4A4F931CF9F941C4BD5C090C09FFC3D0-2025-05-28-19-10-07","","39565","","[""<span style=\""color: red; font-size: 24px\""> NOW RECORDING</span><p>Please say out loud all the images you saw in part 1 of the experiment, in the exact order you saw them. Try to recall as many images as you can, but remember: getting the order right is more important than the number of images you recall. </p>""]","","16","housework_semantic"
"","","","","","image-button-response","23","576582","0.0-21.0-0.0","4A4F931CF9F941C4BD5C090C09FFC3D0","4A4F931CF9F941C4BD5C090C09FFC3D0","a0d95a6d-165b-466f-9e3b-a219755d6db2","9596d7a2-d401-47b1-aedd-70105f5f2f42","{""part"":""2"",""participantId"":""4A4F931CF9F941C4BD5C090C09FFC3D0"",""assignmentId"":""a0d95a6d-165b-466f-9e3b-a219755d6db2"",""projectId"":""9596d7a2-d401-47b1-aedd-70105f5f2f42""}","https://test12345.live/?part=2&participantId=4A4F931CF9F941C4BD5C090C09FFC3D0&assignmentId=a0d95a6d-165b-466f-9e3b-a219755d6db2&projectId=9596d7a2-d401-47b1-aedd-70105f5f2f42","4A4F931CF9F941C4BD5C090C09FFC3D0-2025-05-28-19-10-07","","null","","images/causal_sequence/the_performance_causal/the_performance_causal_0.png","null","",""
"","","","","","html-audio-response","24","638876","0.0-22.0","4A4F931CF9F941C4BD5C090C09FFC3D0","4A4F931CF9F941C4BD5C090C09FFC3D0","a0d95a6d-165b-466f-9e3b-a219755d6db2","9596d7a2-d401-47b1-aedd-70105f5f2f42","{""part"":""2"",""participantId"":""4A4F931CF9F941C4BD5C090C09FFC3D0"",""assignmentId"":""a0d95a6d-165b-466f-9e3b-a219755d6db2"",""projectId"":""9596d7a2-d401-47b1-aedd-70105f5f2f42""}","https://test12345.live/?part=2&participantId=4A4F931CF9F941C4BD5C090C09FFC3D0&assignmentId=a0d95a6d-165b-466f-9e3b-a219755d6db2&projectId=9596d7a2-d401-47b1-aedd-70105f5f2f42","4A4F931CF9F941C4BD5C090C09FFC3D0-2025-05-28-19-10-07","","38887","","[""<span style=\""color: red; font-size: 24px\""> NOW RECORDING</span><p>Please say out loud all the images you saw in part 1 of the experiment, in the exact order you saw them. Try to recall as many images as you can, but remember: getting the order right is more important than the number of images you recall. </p>""]","","2","the_performance_causal"
"","","","","","image-button-response","25","644881","0.0-23.0-0.0","4A4F931CF9F941C4BD5C090C09FFC3D0","4A4F931CF9F941C4BD5C090C09FFC3D0","a0d95a6d-165b-466f-9e3b-a219755d6db2","9596d7a2-d401-47b1-aedd-70105f5f2f42","{""part"":""2"",""participantId"":""4A4F931CF9F941C4BD5C090C09FFC3D0"",""assignmentId"":""a0d95a6d-165b-466f-9e3b-a219755d6db2"",""projectId"":""9596d7a2-d401-47b1-aedd-70105f5f2f42""}","https://test12345.live/?part=2&participantId=4A4F931CF9F941C4BD5C090C09FFC3D0&assignmentId=a0d95a6d-165b-466f-9e3b-a219755d6db2&projectId=9596d7a2-d401-47b1-aedd-70105f5f2f42","4A4F931CF9F941C4BD5C090C09FFC3D0-2025-05-28-19-10-07","","null","","images/causal_sequence/dog_causal/dog_causal_0.png","null","",""
"","","","","","html-audio-response","26","711875","0.0-24.0","4A4F931CF9F941C4BD5C090C09FFC3D0","4A4F931CF9F941C4BD5C090C09FFC3D0","a0d95a6d-165b-466f-9e3b-a219755d6db2","9596d7a2-d401-47b1-aedd-70105f5f2f42","{""part"":""2"",""participantId"":""4A4F931CF9F941C4BD5C090C09FFC3D0"",""assignmentId"":""a0d95a6d-165b-466f-9e3b-a219755d6db2"",""projectId"":""9596d7a2-d401-47b1-aedd-70105f5f2f42""}","https://test12345.live/?part=2&participantId=4A4F931CF9F941C4BD5C090C09FFC3D0&assignmentId=a0d95a6d-165b-466f-9e3b-a219755d6db2&projectId=9596d7a2-d401-47b1-aedd-70105f5f2f42","4A4F931CF9F941C4BD5C090C09FFC3D0-2025-05-28-19-10-07","","34653","","[""<span style=\""color: red; font-size: 24px\""> NOW RECORDING</span><p>Please say out loud all the images you saw in part 1 of the experiment, in the exact order you saw them. Try to recall as many images as you can, but remember: getting the order right is more important than the number of images you recall. </p>""]","","2","dog_causal"
"","","","","","image-button-response","27","717880","0.0-25.0-0.0","4A4F931CF9F941C4BD5C090C09FFC3D0","4A4F931CF9F941C4BD5C090C09FFC3D0","a0d95a6d-165b-466f-9e3b-a219755d6db2","9596d7a2-d401-47b1-aedd-70105f5f2f42","{""part"":""2"",""participantId"":""4A4F931CF9F941C4BD5C090C09FFC3D0"",""assignmentId"":""a0d95a6d-165b-466f-9e3b-a219755d6db2"",""projectId"":""9596d7a2-d401-47b1-aedd-70105f5f2f42""}","https://test12345.live/?part=2&participantId=4A4F931CF9F941C4BD5C090C09FFC3D0&assignmentId=a0d95a6d-165b-466f-9e3b-a219755d6db2&projectId=9596d7a2-d401-47b1-aedd-70105f5f2f42","4A4F931CF9F941C4BD5C090C09FFC3D0-2025-05-28-19-10-07","","null","","images/semantic_sequence/cat_care_semantic/cat_care_semantic_0.png","null","",""
"","","","","","html-audio-response","28","831791","0.0-26.0","4A4F931CF9F941C4BD5C090C09FFC3D0","4A4F931CF9F941C4BD5C090C09FFC3D0","a0d95a6d-165b-466f-9e3b-a219755d6db2","9596d7a2-d401-47b1-aedd-70105f5f2f42","{""part"":""2"",""participantId"":""4A4F931CF9F941C4BD5C090C09FFC3D0"",""assignmentId"":""a0d95a6d-165b-466f-9e3b-a219755d6db2"",""projectId"":""9596d7a2-d401-47b1-aedd-70105f5f2f42""}","https://test12345.live/?part=2&participantId=4A4F931CF9F941C4BD5C090C09FFC3D0&assignmentId=a0d95a6d-165b-466f-9e3b-a219755d6db2&projectId=9596d7a2-d401-47b1-aedd-70105f5f2f42","4A4F931CF9F941C4BD5C090C09FFC3D0-2025-05-28-19-10-07","","null","","[""<span style=\""color: red; font-size: 24px\""> NOW RECORDING</span><p>Please say out loud all the images you saw in part 1 of the experiment, in the exact order you saw them. Try to recall as many images as you can, but remember: getting the order right is more important than the number of images you recall. </p>""]","","5","cat_care_semantic"
"","","","","","image-button-response","29","837801","0.0-27.0-0.0","4A4F931CF9F941C4BD5C090C09FFC3D0","4A4F931CF9F941C4BD5C090C09FFC3D0","a0d95a6d-165b-466f-9e3b-a219755d6db2","9596d7a2-d401-47b1-aedd-70105f5f2f42","{""part"":""2"",""participantId"":""4A4F931CF9F941C4BD5C090C09FFC3D0"",""assignmentId"":""a0d95a6d-165b-466f-9e3b-a219755d6db2"",""projectId"":""9596d7a2-d401-47b1-aedd-70105f5f2f42""}","https://test12345.live/?part=2&participantId=4A4F931CF9F941C4BD5C090C09FFC3D0&assignmentId=a0d95a6d-165b-466f-9e3b-a219755d6db2&projectId=9596d7a2-d401-47b1-aedd-70105f5f2f42","4A4F931CF9F941C4BD5C090C09FFC3D0-2025-05-28-19-10-07","","null","","images/causal_sequence/museum_causal/museum_causal_0.png","null","",""
"","","","","","html-audio-response","30","977189","0.0-28.0","4A4F931CF9F941C4BD5C090C09FFC3D0","4A4F931CF9F941C4BD5C090C09FFC3D0","a0d95a6d-165b-466f-9e3b-a219755d6db2","9596d7a2-d401-47b1-aedd-70105f5f2f42","{""part"":""2"",""participantId"":""4A4F931CF9F941C4BD5C090C09FFC3D0"",""assignmentId"":""a0d95a6d-165b-466f-9e3b-a219755d6db2"",""projectId"":""9596d7a2-d401-47b1-aedd-70105f5f2f42""}","https://test12345.live/?part=2&participantId=4A4F931CF9F941C4BD5C090C09FFC3D0&assignmentId=a0d95a6d-165b-466f-9e3b-a219755d6db2&projectId=9596d7a2-d401-47b1-aedd-70105f5f2f42","4A4F931CF9F941C4BD5C090C09FFC3D0-2025-05-28-19-10-07","","40217","","[""<span style=\""color: red; font-size: 24px\""> NOW RECORDING</span><p>Please say out loud all the images you saw in part 1 of the experiment, in the exact order you saw them. Try to recall as many images as you can, but remember: getting the order right is more important than the number of images you recall. </p>""]","","3","museum_causal"
"","","","","","image-button-response","31","983198","0.0-29.0-0.0","4A4F931CF9F941C4BD5C090C09FFC3D0","4A4F931CF9F941C4BD5C090C09FFC3D0","a0d95a6d-165b-466f-9e3b-a219755d6db2","9596d7a2-d401-47b1-aedd-70105f5f2f42","{""part"":""2"",""participantId"":""4A4F931CF9F941C4BD5C090C09FFC3D0"",""assignmentId"":""a0d95a6d-165b-466f-9e3b-a219755d6db2"",""projectId"":""9596d7a2-d401-47b1-aedd-70105f5f2f42""}","https://test12345.live/?part=2&participantId=4A4F931CF9F941C4BD5C090C09FFC3D0&assignmentId=a0d95a6d-165b-466f-9e3b-a219755d6db2&projectId=9596d7a2-d401-47b1-aedd-70105f5f2f42","4A4F931CF9F941C4BD5C090C09FFC3D0-2025-05-28-19-10-07","","null","","images/semantic_sequence/exploring_nature_semantic/exploring_nature_semantic_0.png","null","",""
"","","","","","html-audio-response","32","1059192","0.0-30.0","4A4F931CF9F941C4BD5C090C09FFC3D0","4A4F931CF9F941C4BD5C090C09FFC3D0","a0d95a6d-165b-466f-9e3b-a219755d6db2","9596d7a2-d401-47b1-aedd-70105f5f2f42","{""part"":""2"",""participantId"":""4A4F931CF9F941C4BD5C090C09FFC3D0"",""assignmentId"":""a0d95a6d-165b-466f-9e3b-a219755d6db2"",""projectId"":""9596d7a2-d401-47b1-aedd-70105f5f2f42""}","https://test12345.live/?part=2&participantId=4A4F931CF9F941C4BD5C090C09FFC3D0&assignmentId=a0d95a6d-165b-466f-9e3b-a219755d6db2&projectId=9596d7a2-d401-47b1-aedd-70105f5f2f42","4A4F931CF9F941C4BD5C090C09FFC3D0-2025-05-28-19-10-07","","38734","","[""<span style=\""color: red; font-size: 24px\""> NOW RECORDING</span><p>Please say out loud all the images you saw in part 1 of the experiment, in the exact order you saw them. Try to recall as many images as you can, but remember: getting the order right is more important than the number of images you recall. </p>""]","","2","exploring_nature_semantic"
"","","","","","image-button-response","33","1065198","0.0-31.0-0.0","4A4F931CF9F941C4BD5C090C09FFC3D0","4A4F931CF9F941C4BD5C090C09FFC3D0","a0d95a6d-165b-466f-9e3b-a219755d6db2","9596d7a2-d401-47b1-aedd-70105f5f2f42","{""part"":""2"",""participantId"":""4A4F931CF9F941C4BD5C090C09FFC3D0"",""assignmentId"":""a0d95a6d-165b-466f-9e3b-a219755d6db2"",""projectId"":""9596d7a2-d401-47b1-aedd-70105f5f2f42""}","https://test12345.live/?part=2&participantId=4A4F931CF9F941C4BD5C090C09FFC3D0&assignmentId=a0d95a6d-165b-466f-9e3b-a219755d6db2&projectId=9596d7a2-d401-47b1-aedd-70105f5f2f42","4A4F931CF9F941C4BD5C090C09FFC3D0-2025-05-28-19-10-07","","null","","images/schematic_sequence/restaurant_scheme/restaurant_scheme_0.png","null","",""
"","","","","","html-audio-response","34","1102355","0.0-32.0","4A4F931CF9F941C4BD5C090C09FFC3D0","4A4F931CF9F941C4BD5C090C09FFC3D0","a0d95a6d-165b-466f-9e3b-a219755d6db2","9596d7a2-d401-47b1-aedd-70105f5f2f42","{""part"":""2"",""participantId"":""4A4F931CF9F941C4BD5C090C09FFC3D0"",""assignmentId"":""a0d95a6d-165b-466f-9e3b-a219755d6db2"",""projectId"":""9596d7a2-d401-47b1-aedd-70105f5f2f42""}","https://test12345.live/?part=2&participantId=4A4F931CF9F941C4BD5C090C09FFC3D0&assignmentId=a0d95a6d-165b-466f-9e3b-a219755d6db2&projectId=9596d7a2-d401-47b1-aedd-70105f5f2f42","4A4F931CF9F941C4BD5C090C09FFC3D0-2025-05-28-19-10-07","","25233","","[""<span style=\""color: red; font-size: 24px\""> NOW RECORDING</span><p>Please say out loud all the images you saw in part 1 of the experiment, in the exact order you saw them. Try to recall as many images as you can, but remember: getting the order right is more important than the number of images you recall. </p>""]","","2","restaurant_scheme"
"","","","","","image-button-response","35","1108364","0.0-33.0-0.0","4A4F931CF9F941C4BD5C090C09FFC3D0","4A4F931CF9F941C4BD5C090C09FFC3D0","a0d95a6d-165b-466f-9e3b-a219755d6db2","9596d7a2-d401-47b1-aedd-70105f5f2f42","{""part"":""2"",""participantId"":""4A4F931CF9F941C4BD5C090C09FFC3D0"",""assignmentId"":""a0d95a6d-165b-466f-9e3b-a219755d6db2"",""projectId"":""9596d7a2-d401-47b1-aedd-70105f5f2f42""}","https://test12345.live/?part=2&participantId=4A4F931CF9F941C4BD5C090C09FFC3D0&assignmentId=a0d95a6d-165b-466f-9e3b-a219755d6db2&projectId=9596d7a2-d401-47b1-aedd-70105f5f2f42","4A4F931CF9F941C4BD5C090C09FFC3D0-2025-05-28-19-10-07","","null","","images/causal_sequence/coin_causal/coin_causal_0.png","null","",""
"","","","","","html-audio-response","36","1213338","0.0-34.0","4A4F931CF9F941C4BD5C090C09FFC3D0","4A4F931CF9F941C4BD5C090C09FFC3D0","a0d95a6d-165b-466f-9e3b-a219755d6db2","9596d7a2-d401-47b1-aedd-70105f5f2f42","{""part"":""2"",""participantId"":""4A4F931CF9F941C4BD5C090C09FFC3D0"",""assignmentId"":""a0d95a6d-165b-466f-9e3b-a219755d6db2"",""projectId"":""9596d7a2-d401-47b1-aedd-70105f5f2f42""}","https://test12345.live/?part=2&participantId=4A4F931CF9F941C4BD5C090C09FFC3D0&assignmentId=a0d95a6d-165b-466f-9e3b-a219755d6db2&projectId=9596d7a2-d401-47b1-aedd-70105f5f2f42","4A4F931CF9F941C4BD5C090C09FFC3D0-2025-05-28-19-10-07","","47266","","[""<span style=\""color: red; font-size: 24px\""> NOW RECORDING</span><p>Please say out loud all the images you saw in part 1 of the experiment, in the exact order you saw them. Try to recall as many images as you can, but remember: getting the order right is more important than the number of images you recall. </p>""]","","16","coin_causal"
"","","","","","instructions","37","1410705","0.0-35.0","4A4F931CF9F941C4BD5C090C09FFC3D0","4A4F931CF9F941C4BD5C090C09FFC3D0","a0d95a6d-165b-466f-9e3b-a219755d6db2","9596d7a2-d401-47b1-aedd-70105f5f2f42","{""part"":""2"",""participantId"":""4A4F931CF9F941C4BD5C090C09FFC3D0"",""assignmentId"":""a0d95a6d-165b-466f-9e3b-a219755d6db2"",""projectId"":""9596d7a2-d401-47b1-aedd-70105f5f2f42""}","https://test12345.live/?part=2&participantId=4A4F931CF9F941C4BD5C090C09FFC3D0&assignmentId=a0d95a6d-165b-466f-9e3b-a219755d6db2&projectId=9596d7a2-d401-47b1-aedd-70105f5f2f42","4A4F931CF9F941C4BD5C090C09FFC3D0-2025-05-28-19-10-07","[{""page_index"":0,""viewing_time"":197369}]","197369","","","","",""
"","","","","","image-button-response","38","1416710","0.0-36.0-0.0","4A4F931CF9F941C4BD5C090C09FFC3D0","4A4F931CF9F941C4BD5C090C09FFC3D0","a0d95a6d-165b-466f-9e3b-a219755d6db2","9596d7a2-d401-47b1-aedd-70105f5f2f42","{""part"":""2"",""participantId"":""4A4F931CF9F941C4BD5C090C09FFC3D0"",""assignmentId"":""a0d95a6d-165b-466f-9e3b-a219755d6db2"",""projectId"":""9596d7a2-d401-47b1-aedd-70105f5f2f42""}","https://test12345.live/?part=2&participantId=4A4F931CF9F941C4BD5C090C09FFC3D0&assignmentId=a0d95a6d-165b-466f-9e3b-a219755d6db2&projectId=9596d7a2-d401-47b1-aedd-70105f5f2f42","4A4F931CF9F941C4BD5C090C09FFC3D0-2025-05-28-19-10-07","","null","","images/causal_sequence/saving_a_cat_causal/saving_a_cat_causal_0.png","null","",""
"","","","","","html-audio-response","39","1483975","0.0-37.0","4A4F931CF9F941C4BD5C090C09FFC3D0","4A4F931CF9F941C4BD5C090C09FFC3D0","a0d95a6d-165b-466f-9e3b-a219755d6db2","9596d7a2-d401-47b1-aedd-70105f5f2f42","{""part"":""2"",""participantId"":""4A4F931CF9F941C4BD5C090C09FFC3D0"",""assignmentId"":""a0d95a6d-165b-466f-9e3b-a219755d6db2"",""projectId"":""9596d7a2-d401-47b1-aedd-70105f5f2f42""}","https://test12345.live/?part=2&participantId=4A4F931CF9F941C4BD5C090C09FFC3D0&assignmentId=a0d95a6d-165b-466f-9e3b-a219755d6db2&projectId=9596d7a2-d401-47b1-aedd-70105f5f2f42","4A4F931CF9F941C4BD5C090C09FFC3D0-2025-05-28-19-10-07","","48332","","[""<span style=\""color: red; font-size: 24px\""> NOW RECORDING</span><p>Please say out loud all the images you saw in part 1 of the experiment, in the exact order you saw them. Try to recall as many images as you can, but remember: getting the order right is more important than the number of images you recall. </p>""]","","2","saving_a_cat_causal"
"","","","","","image-button-response","40","1489982","0.0-38.0-0.0","4A4F931CF9F941C4BD5C090C09FFC3D0","4A4F931CF9F941C4BD5C090C09FFC3D0","a0d95a6d-165b-466f-9e3b-a219755d6db2","9596d7a2-d401-47b1-aedd-70105f5f2f42","{""part"":""2"",""participantId"":""4A4F931CF9F941C4BD5C090C09FFC3D0"",""assignmentId"":""a0d95a6d-165b-466f-9e3b-a219755d6db2"",""projectId"":""9596d7a2-d401-47b1-aedd-70105f5f2f42""}","https://test12345.live/?part=2&participantId=4A4F931CF9F941C4BD5C090C09FFC3D0&assignmentId=a0d95a6d-165b-466f-9e3b-a219755d6db2&projectId=9596d7a2-d401-47b1-aedd-70105f5f2f42","4A4F931CF9F941C4BD5C090C09FFC3D0-2025-05-28-19-10-07","","null","","images/semantic_sequence/creative_activities_semantic/creative_activities_semantic_0.png","null","",""
"","","","","","html-audio-response","41","1539672","0.0-39.0","4A4F931CF9F941C4BD5C090C09FFC3D0","4A4F931CF9F941C4BD5C090C09FFC3D0","a0d95a6d-165b-466f-9e3b-a219755d6db2","9596d7a2-d401-47b1-aedd-70105f5f2f42","{""part"":""2"",""participantId"":""4A4F931CF9F941C4BD5C090C09FFC3D0"",""assignmentId"":""a0d95a6d-165b-466f-9e3b-a219755d6db2"",""projectId"":""9596d7a2-d401-47b1-aedd-70105f5f2f42""}","https://test12345.live/?part=2&participantId=4A4F931CF9F941C4BD5C090C09FFC3D0&assignmentId=a0d95a6d-165b-466f-9e3b-a219755d6db2&projectId=9596d7a2-d401-47b1-aedd-70105f5f2f42","4A4F931CF9F941C4BD5C090C09FFC3D0-2025-05-28-19-10-07","","27899","","[""<span style=\""color: red; font-size: 24px\""> NOW RECORDING</span><p>Please say out loud all the images you saw in part 1 of the experiment, in the exact order you saw them. Try to recall as many images as you can, but remember: getting the order right is more important than the number of images you recall. </p>""]","","15","creative_activities_semantic"
"","","","","","image-button-response","42","1545681","0.0-40.0-0.0","4A4F931CF9F941C4BD5C090C09FFC3D0","4A4F931CF9F941C4BD5C090C09FFC3D0","a0d95a6d-165b-466f-9e3b-a219755d6db2","9596d7a2-d401-47b1-aedd-70105f5f2f42","{""part"":""2"",""participantId"":""4A4F931CF9F941C4BD5C090C09FFC3D0"",""assignmentId"":""a0d95a6d-165b-466f-9e3b-a219755d6db2"",""projectId"":""9596d7a2-d401-47b1-aedd-70105f5f2f42""}","https://test12345.live/?part=2&participantId=4A4F931CF9F941C4BD5C090C09FFC3D0&assignmentId=a0d95a6d-165b-466f-9e3b-a219755d6db2&projectId=9596d7a2-d401-47b1-aedd-70105f5f2f42","4A4F931CF9F941C4BD5C090C09FFC3D0-2025-05-28-19-10-07","","null","","images/semantic_sequence/maintaining_a_car_semantic/maintaining_a_car_semantic_0.png","null","",""
"","","","","","html-audio-response","43","1594088","0.0-41.0","4A4F931CF9F941C4BD5C090C09FFC3D0","4A4F931CF9F941C4BD5C090C09FFC3D0","a0d95a6d-165b-466f-9e3b-a219755d6db2","9596d7a2-d401-47b1-aedd-70105f5f2f42","{""part"":""2"",""participantId"":""4A4F931CF9F941C4BD5C090C09FFC3D0"",""assignmentId"":""a0d95a6d-165b-466f-9e3b-a219755d6db2"",""projectId"":""9596d7a2-d401-47b1-aedd-70105f5f2f42""}","https://test12345.live/?part=2&participantId=4A4F931CF9F941C4BD5C090C09FFC3D0&assignmentId=a0d95a6d-165b-466f-9e3b-a219755d6db2&projectId=9596d7a2-d401-47b1-aedd-70105f5f2f42","4A4F931CF9F941C4BD5C090C09FFC3D0-2025-05-28-19-10-07","","26098","","[""<span style=\""color: red; font-size: 24px\""> NOW RECORDING</span><p>Please say out loud all the images you saw in part 1 of the experiment, in the exact order you saw them. Try to recall as many images as you can, but remember: getting the order right is more important than the number of images you recall. </p>""]","","15","maintaining_a_car_semantic"
"","","","","","image-button-response","44","1600097","0.0-42.0-0.0","4A4F931CF9F941C4BD5C090C09FFC3D0","4A4F931CF9F941C4BD5C090C09FFC3D0","a0d95a6d-165b-466f-9e3b-a219755d6db2","9596d7a2-d401-47b1-aedd-70105f5f2f42","{""part"":""2"",""participantId"":""4A4F931CF9F941C4BD5C090C09FFC3D0"",""assignmentId"":""a0d95a6d-165b-466f-9e3b-a219755d6db2"",""projectId"":""9596d7a2-d401-47b1-aedd-70105f5f2f42""}","https://test12345.live/?part=2&participantId=4A4F931CF9F941C4BD5C090C09FFC3D0&assignmentId=a0d95a6d-165b-466f-9e3b-a219755d6db2&projectId=9596d7a2-d401-47b1-aedd-70105f5f2f42","4A4F931CF9F941C4BD5C090C09FFC3D0-2025-05-28-19-10-07","","null","","images/schematic_sequence/supermarket_scheme/supermarket_scheme_0.png","null","",""
"","","","","","html-audio-response","45","1655187","0.0-43.0","4A4F931CF9F941C4BD5C090C09FFC3D0","4A4F931CF9F941C4BD5C090C09FFC3D0","a0d95a6d-165b-466f-9e3b-a219755d6db2","9596d7a2-d401-47b1-aedd-70105f5f2f42","{""part"":""2"",""participantId"":""4A4F931CF9F941C4BD5C090C09FFC3D0"",""assignmentId"":""a0d95a6d-165b-466f-9e3b-a219755d6db2"",""projectId"":""9596d7a2-d401-47b1-aedd-70105f5f2f42""}","https://test12345.live/?part=2&participantId=4A4F931CF9F941C4BD5C090C09FFC3D0&assignmentId=a0d95a6d-165b-466f-9e3b-a219755d6db2&projectId=9596d7a2-d401-47b1-aedd-70105f5f2f42","4A4F931CF9F941C4BD5C090C09FFC3D0-2025-05-28-19-10-07","","36601","","[""<span style=\""color: red; font-size: 24px\""> NOW RECORDING</span><p>Please say out loud all the images you saw in part 1 of the experiment, in the exact order you saw them. Try to recall as many images as you can, but remember: getting the order right is more important than the number of images you recall. </p>""]","","2","supermarket_scheme"
"","","","","","image-button-response","46","1661197","0.0-44.0-0.0","4A4F931CF9F941C4BD5C090C09FFC3D0","4A4F931CF9F941C4BD5C090C09FFC3D0","a0d95a6d-165b-466f-9e3b-a219755d6db2","9596d7a2-d401-47b1-aedd-70105f5f2f42","{""part"":""2"",""participantId"":""4A4F931CF9F941C4BD5C090C09FFC3D0"",""assignmentId"":""a0d95a6d-165b-466f-9e3b-a219755d6db2"",""projectId"":""9596d7a2-d401-47b1-aedd-70105f5f2f42""}","https://test12345.live/?part=2&participantId=4A4F931CF9F941C4BD5C090C09FFC3D0&assignmentId=a0d95a6d-165b-466f-9e3b-a219755d6db2&projectId=9596d7a2-d401-47b1-aedd-70105f5f2f42","4A4F931CF9F941C4BD5C090C09FFC3D0-2025-05-28-19-10-07","","null","","images/schematic_sequence/flight_scheme/flight_scheme_0.png","null","",""
"","","","","","html-audio-response","47","1691055","0.0-45.0","4A4F931CF9F941C4BD5C090C09FFC3D0","4A4F931CF9F941C4BD5C090C09FFC3D0","a0d95a6d-165b-466f-9e3b-a219755d6db2","9596d7a2-d401-47b1-aedd-70105f5f2f42","{""part"":""2"",""participantId"":""4A4F931CF9F941C4BD5C090C09FFC3D0"",""assignmentId"":""a0d95a6d-165b-466f-9e3b-a219755d6db2"",""projectId"":""9596d7a2-d401-47b1-aedd-70105f5f2f42""}","https://test12345.live/?part=2&participantId=4A4F931CF9F941C4BD5C090C09FFC3D0&assignmentId=a0d95a6d-165b-466f-9e3b-a219755d6db2&projectId=9596d7a2-d401-47b1-aedd-70105f5f2f42","4A4F931CF9F941C4BD5C090C09FFC3D0-2025-05-28-19-10-07","","25518","","[""<span style=\""color: red; font-size: 24px\""> NOW RECORDING</span><p>Please say out loud all the images you saw in part 1 of the experiment, in the exact order you saw them. Try to recall as many images as you can, but remember: getting the order right is more important than the number of images you recall. </p>""]","","2","flight_scheme"
"","","","","","image-button-response","48","1697062","0.0-46.0-0.0","4A4F931CF9F941C4BD5C090C09FFC3D0","4A4F931CF9F941C4BD5C090C09FFC3D0","a0d95a6d-165b-466f-9e3b-a219755d6db2","9596d7a2-d401-47b1-aedd-70105f5f2f42","{""part"":""2"",""participantId"":""4A4F931CF9F941C4BD5C090C09FFC3D0"",""assignmentId"":""a0d95a6d-165b-466f-9e3b-a219755d6db2"",""projectId"":""9596d7a2-d401-47b1-aedd-70105f5f2f42""}","https://test12345.live/?part=2&participantId=4A4F931CF9F941C4BD5C090C09FFC3D0&assignmentId=a0d95a6d-165b-466f-9e3b-a219755d6db2&projectId=9596d7a2-d401-47b1-aedd-70105f5f2f42","4A4F931CF9F941C4BD5C090C09FFC3D0-2025-05-28-19-10-07","","null","","images/semantic_sequence/kitchen_operations_semantic/kitchen_operations_semantic_0.png","null","",""
"","","","","","html-audio-response","49","1772576","0.0-47.0","4A4F931CF9F941C4BD5C090C09FFC3D0","4A4F931CF9F941C4BD5C090C09FFC3D0","a0d95a6d-165b-466f-9e3b-a219755d6db2","9596d7a2-d401-47b1-aedd-70105f5f2f42","{""part"":""2"",""participantId"":""4A4F931CF9F941C4BD5C090C09FFC3D0"",""assignmentId"":""a0d95a6d-165b-466f-9e3b-a219755d6db2"",""projectId"":""9596d7a2-d401-47b1-aedd-70105f5f2f42""}","https://test12345.live/?part=2&participantId=4A4F931CF9F941C4BD5C090C09FFC3D0&assignmentId=a0d95a6d-165b-466f-9e3b-a219755d6db2&projectId=9596d7a2-d401-47b1-aedd-70105f5f2f42","4A4F931CF9F941C4BD5C090C09FFC3D0-2025-05-28-19-10-07","","39715","","[""<span style=\""color: red; font-size: 24px\""> NOW RECORDING</span><p>Please say out loud all the images you saw in part 1 of the experiment, in the exact order you saw them. Try to recall as many images as you can, but remember: getting the order right is more important than the number of images you recall. </p>""]","","2","kitchen_operations_semantic"
"","","","","","image-button-response","50","1778584","0.0-48.0-0.0","4A4F931CF9F941C4BD5C090C09FFC3D0","4A4F931CF9F941C4BD5C090C09FFC3D0","a0d95a6d-165b-466f-9e3b-a219755d6db2","9596d7a2-d401-47b1-aedd-70105f5f2f42","{""part"":""2"",""participantId"":""4A4F931CF9F941C4BD5C090C09FFC3D0"",""assignmentId"":""a0d95a6d-165b-466f-9e3b-a219755d6db2"",""projectId"":""9596d7a2-d401-47b1-aedd-70105f5f2f42""}","https://test12345.live/?part=2&participantId=4A4F931CF9F941C4BD5C090C09FFC3D0&assignmentId=a0d95a6d-165b-466f-9e3b-a219755d6db2&projectId=9596d7a2-d401-47b1-aedd-70105f5f2f42","4A4F931CF9F941C4BD5C090C09FFC3D0-2025-05-28-19-10-07","","null","","images/schematic_sequence/hotel_scheme/hotel_scheme_0.png","null","",""
"","","","","","html-audio-response","51","1821452","0.0-49.0","4A4F931CF9F941C4BD5C090C09FFC3D0","4A4F931CF9F941C4BD5C090C09FFC3D0","a0d95a6d-165b-466f-9e3b-a219755d6db2","9596d7a2-d401-47b1-aedd-70105f5f2f42","{""part"":""2"",""participantId"":""4A4F931CF9F941C4BD5C090C09FFC3D0"",""assignmentId"":""a0d95a6d-165b-466f-9e3b-a219755d6db2"",""projectId"":""9596d7a2-d401-47b1-aedd-70105f5f2f42""}","https://test12345.live/?part=2&participantId=4A4F931CF9F941C4BD5C090C09FFC3D0&assignmentId=a0d95a6d-165b-466f-9e3b-a219755d6db2&projectId=9596d7a2-d401-47b1-aedd-70105f5f2f42","4A4F931CF9F941C4BD5C090C09FFC3D0-2025-05-28-19-10-07","","35719","","[""<span style=\""color: red; font-size: 24px\""> NOW RECORDING</span><p>Please say out loud all the images you saw in part 1 of the experiment, in the exact order you saw them. Try to recall as many images as you can, but remember: getting the order right is more important than the number of images you recall. </p>""]","","2","hotel_scheme"
"","","","","","image-button-response","52","1827460","0.0-50.0-0.0","4A4F931CF9F941C4BD5C090C09FFC3D0","4A4F931CF9F941C4BD5C090C09FFC3D0","a0d95a6d-165b-466f-9e3b-a219755d6db2","9596d7a2-d401-47b1-aedd-70105f5f2f42","{""part"":""2"",""participantId"":""4A4F931CF9F941C4BD5C090C09FFC3D0"",""assignmentId"":""a0d95a6d-165b-466f-9e3b-a219755d6db2"",""projectId"":""9596d7a2-d401-47b1-aedd-70105f5f2f42""}","https://test12345.live/?part=2&participantId=4A4F931CF9F941C4BD5C090C09FFC3D0&assignmentId=a0d95a6d-165b-466f-9e3b-a219755d6db2&projectId=9596d7a2-d401-47b1-aedd-70105f5f2f42","4A4F931CF9F941C4BD5C090C09FFC3D0-2025-05-28-19-10-07","","null","","images/causal_sequence/package_causal/package_causal_0.png","null","",""
"","","","","","html-audio-response","53","1881304","0.0-51.0","4A4F931CF9F941C4BD5C090C09FFC3D0","4A4F931CF9F941C4BD5C090C09FFC3D0","a0d95a6d-165b-466f-9e3b-a219755d6db2","9596d7a2-d401-47b1-aedd-70105f5f2f42","{""part"":""2"",""participantId"":""4A4F931CF9F941C4BD5C090C09FFC3D0"",""assignmentId"":""a0d95a6d-165b-466f-9e3b-a219755d6db2"",""projectId"":""9596d7a2-d401-47b1-aedd-70105f5f2f42""}","https://test12345.live/?part=2&participantId=4A4F931CF9F941C4BD5C090C09FFC3D0&assignmentId=a0d95a6d-165b-466f-9e3b-a219755d6db2&projectId=9596d7a2-d401-47b1-aedd-70105f5f2f42","4A4F931CF9F941C4BD5C090C09FFC3D0-2025-05-28-19-10-07","","36229","","[""<span style=\""color: red; font-size: 24px\""> NOW RECORDING</span><p>Please say out loud all the images you saw in part 1 of the experiment, in the exact order you saw them. Try to recall as many images as you can, but remember: getting the order right is more important than the number of images you recall. </p>""]","","2","package_causal"
"","","","","","image-button-response","54","1887311","0.0-52.0-0.0","4A4F931CF9F941C4BD5C090C09FFC3D0","4A4F931CF9F941C4BD5C090C09FFC3D0","a0d95a6d-165b-466f-9e3b-a219755d6db2","9596d7a2-d401-47b1-aedd-70105f5f2f42","{""part"":""2"",""participantId"":""4A4F931CF9F941C4BD5C090C09FFC3D0"",""assignmentId"":""a0d95a6d-165b-466f-9e3b-a219755d6db2"",""projectId"":""9596d7a2-d401-47b1-aedd-70105f5f2f42""}","https://test12345.live/?part=2&participantId=4A4F931CF9F941C4BD5C090C09FFC3D0&assignmentId=a0d95a6d-165b-466f-9e3b-a219755d6db2&projectId=9596d7a2-d401-47b1-aedd-70105f5f2f42","4A4F931CF9F941C4BD5C090C09FFC3D0-2025-05-28-19-10-07","","null","","images/semantic_sequence/self_care_activities_semantic/self_care_activities_semantic_0.png","null","",""
"","","","","","html-audio-response","55","1938251","0.0-53.0","4A4F931CF9F941C4BD5C090C09FFC3D0","4A4F931CF9F941C4BD5C090C09FFC3D0","a0d95a6d-165b-466f-9e3b-a219755d6db2","9596d7a2-d401-47b1-aedd-70105f5f2f42","{""part"":""2"",""participantId"":""4A4F931CF9F941C4BD5C090C09FFC3D0"",""assignmentId"":""a0d95a6d-165b-466f-9e3b-a219755d6db2"",""projectId"":""9596d7a2-d401-47b1-aedd-70105f5f2f42""}","https://test12345.live/?part=2&participantId=4A4F931CF9F941C4BD5C090C09FFC3D0&assignmentId=a0d95a6d-165b-466f-9e3b-a219755d6db2&projectId=9596d7a2-d401-47b1-aedd-70105f5f2f42","4A4F931CF9F941C4BD5C090C09FFC3D0-2025-05-28-19-10-07","","28566","","[""<span style=\""color: red; font-size: 24px\""> NOW RECORDING</span><p>Please say out loud all the images you saw in part 1 of the experiment, in the exact order you saw them. Try to recall as many images as you can, but remember: getting the order right is more important than the number of images you recall. </p>""]","","16","self_care_activities_semantic"
"","","","","","image-button-response","56","1944259","0.0-54.0-0.0","4A4F931CF9F941C4BD5C090C09FFC3D0","4A4F931CF9F941C4BD5C090C09FFC3D0","a0d95a6d-165b-466f-9e3b-a219755d6db2","9596d7a2-d401-47b1-aedd-70105f5f2f42","{""part"":""2"",""participantId"":""4A4F931CF9F941C4BD5C090C09FFC3D0"",""assignmentId"":""a0d95a6d-165b-466f-9e3b-a219755d6db2"",""projectId"":""9596d7a2-d401-47b1-aedd-70105f5f2f42""}","https://test12345.live/?part=2&participantId=4A4F931CF9F941C4BD5C090C09FFC3D0&assignmentId=a0d95a6d-165b-466f-9e3b-a219755d6db2&projectId=9596d7a2-d401-47b1-aedd-70105f5f2f42","4A4F931CF9F941C4BD5C090C09FFC3D0-2025-05-28-19-10-07","","null","","images/schematic_sequence/dinner_party_scheme/dinner_party_scheme_0.png","null","",""
"","","","","","html-audio-response","57","1988001","0.0-55.0","4A4F931CF9F941C4BD5C090C09FFC3D0","4A4F931CF9F941C4BD5C090C09FFC3D0","a0d95a6d-165b-466f-9e3b-a219755d6db2","9596d7a2-d401-47b1-aedd-70105f5f2f42","{""part"":""2"",""participantId"":""4A4F931CF9F941C4BD5C090C09FFC3D0"",""assignmentId"":""a0d95a6d-165b-466f-9e3b-a219755d6db2"",""projectId"":""9596d7a2-d401-47b1-aedd-70105f5f2f42""}","https://test12345.live/?part=2&participantId=4A4F931CF9F941C4BD5C090C09FFC3D0&assignmentId=a0d95a6d-165b-466f-9e3b-a219755d6db2&projectId=9596d7a2-d401-47b1-aedd-70105f5f2f42","4A4F931CF9F941C4BD5C090C09FFC3D0-2025-05-28-19-10-07","","31399","","[""<span style=\""color: red; font-size: 24px\""> NOW RECORDING</span><p>Please say out loud all the images you saw in part 1 of the experiment, in the exact order you saw them. Try to recall as many images as you can, but remember: getting the order right is more important than the number of images you recall. </p>""]","","16","dinner_party_scheme"
"","","","","","image-button-response","58","1994005","0.0-56.0-0.0","4A4F931CF9F941C4BD5C090C09FFC3D0","4A4F931CF9F941C4BD5C090C09FFC3D0","a0d95a6d-165b-466f-9e3b-a219755d6db2","9596d7a2-d401-47b1-aedd-70105f5f2f42","{""part"":""2"",""participantId"":""4A4F931CF9F941C4BD5C090C09FFC3D0"",""assignmentId"":""a0d95a6d-165b-466f-9e3b-a219755d6db2"",""projectId"":""9596d7a2-d401-47b1-aedd-70105f5f2f42""}","https://test12345.live/?part=2&participantId=4A4F931CF9F941C4BD5C090C09FFC3D0&assignmentId=a0d95a6d-165b-466f-9e3b-a219755d6db2&projectId=9596d7a2-d401-47b1-aedd-70105f5f2f42","4A4F931CF9F941C4BD5C090C09FFC3D0-2025-05-28-19-10-07","","null","","images/semantic_sequence/physical_activity_semantic/physical_activity_semantic_0.png","null","",""
"","","","","","html-audio-response","59","2027600","0.0-57.0","4A4F931CF9F941C4BD5C090C09FFC3D0","4A4F931CF9F941C4BD5C090C09FFC3D0","a0d95a6d-165b-466f-9e3b-a219755d6db2","9596d7a2-d401-47b1-aedd-70105f5f2f42","{""part"":""2"",""participantId"":""4A4F931CF9F941C4BD5C090C09FFC3D0"",""assignmentId"":""a0d95a6d-165b-466f-9e3b-a219755d6db2"",""projectId"":""9596d7a2-d401-47b1-aedd-70105f5f2f42""}","https://test12345.live/?part=2&participantId=4A4F931CF9F941C4BD5C090C09FFC3D0&assignmentId=a0d95a6d-165b-466f-9e3b-a219755d6db2&projectId=9596d7a2-d401-47b1-aedd-70105f5f2f42","4A4F931CF9F941C4BD5C090C09FFC3D0-2025-05-28-19-10-07","","28700","","[""<span style=\""color: red; font-size: 24px\""> NOW RECORDING</span><p>Please say out loud all the images you saw in part 1 of the experiment, in the exact order you saw them. Try to recall as many images as you can, but remember: getting the order right is more important than the number of images you recall. </p>""]","","9","physical_activity_semantic"
"","","","","","survey-text","60","2033152","0.0-58.0","4A4F931CF9F941C4BD5C090C09FFC3D0","4A4F931CF9F941C4BD5C090C09FFC3D0","a0d95a6d-165b-466f-9e3b-a219755d6db2","9596d7a2-d401-47b1-aedd-70105f5f2f42","{""part"":""2"",""participantId"":""4A4F931CF9F941C4BD5C090C09FFC3D0"",""assignmentId"":""a0d95a6d-165b-466f-9e3b-a219755d6db2"",""projectId"":""9596d7a2-d401-47b1-aedd-70105f5f2f42""}","https://test12345.live/?part=2&participantId=4A4F931CF9F941C4BD5C090C09FFC3D0&assignmentId=a0d95a6d-165b-466f-9e3b-a219755d6db2&projectId=9596d7a2-d401-47b1-aedd-70105f5f2f42","4A4F931CF9F941C4BD5C090C09FFC3D0-2025-05-28-19-10-07","","5544","","","{""Q0"":""Female"",""Q1"":""24""}","",""
"","","","","","instructions","61","2058186","0.0-59.0","4A4F931CF9F941C4BD5C090C09FFC3D0","4A4F931CF9F941C4BD5C090C09FFC3D0","a0d95a6d-165b-466f-9e3b-a219755d6db2","9596d7a2-d401-47b1-aedd-70105f5f2f42","{""part"":""2"",""participantId"":""4A4F931CF9F941C4BD5C090C09FFC3D0"",""assignmentId"":""a0d95a6d-165b-466f-9e3b-a219755d6db2"",""projectId"":""9596d7a2-d401-47b1-aedd-70105f5f2f42""}","https://test12345.live/?part=2&participantId=4A4F931CF9F941C4BD5C090C09FFC3D0&assignmentId=a0d95a6d-165b-466f-9e3b-a219755d6db2&projectId=9596d7a2-d401-47b1-aedd-70105f5f2f42","4A4F931CF9F941C4BD5C090C09FFC3D0-2025-05-28-19-10-07","[{""page_index"":0,""viewing_time"":25035}]","25035","","","","",""
"","","","","","survey-text","62","2061835","0.0-60.0","4A4F931CF9F941C4BD5C090C09FFC3D0","4A4F931CF9F941C4BD5C090C09FFC3D0","a0d95a6d-165b-466f-9e3b-a219755d6db2","9596d7a2-d401-47b1-aedd-70105f5f2f42","{""part"":""2"",""participantId"":""4A4F931CF9F941C4BD5C090C09FFC3D0"",""assignmentId"":""a0d95a6d-165b-466f-9e3b-a219755d6db2"",""projectId"":""9596d7a2-d401-47b1-aedd-70105f5f2f42""}","https://test12345.live/?part=2&participantId=4A4F931CF9F941C4BD5C090C09FFC3D0&assignmentId=a0d95a6d-165b-466f-9e3b-a219755d6db2&projectId=9596d7a2-d401-47b1-aedd-70105f5f2f42","4A4F931CF9F941C4BD5C090C09FFC3D0-2025-05-28-19-10-07","","3646","","","{""Q0"":""AJFHBG896""}","",""
