"success","timeout","failed_images","failed_audio","failed_video","trial_type","trial_index","time_elapsed","internal_node_id","subject","subject_id","study_id","session_id","urlvar","current_url","audio_id","view_history","rt","device_id","stimulus","response","estimated_stimulus_onset","seq_name"
"true","false","[]","[]","[]","preload","0","3330","0.0-0.0","51C85922649E452E93432E0B84CA4D5B","51C85922649E452E93432E0B84CA4D5B","64d34c6a-3a30-4fdf-99f0-ac262c8822ba","e9cc2542-c7dc-4d8f-b94f-d088ad8989d1","{""part"":""2"",""participantId"":""51C85922649E452E93432E0B84CA4D5B"",""assignmentId"":""64d34c6a-3a30-4fdf-99f0-ac262c8822ba"",""projectId"":""e9cc2542-c7dc-4d8f-b94f-d088ad8989d1""}","https://test12345.live/?part=2&participantId=51C85922649E452E93432E0B84CA4D5B&assignmentId=64d34c6a-3a30-4fdf-99f0-ac262c8822ba&projectId=e9cc2542-c7dc-4d8f-b94f-d088ad8989d1","51C85922649E452E93432E0B84CA4D5B-2025-05-16-18-17-20","","","","","","",""
"","","","","","instructions","1","142699","0.0-1.0","51C85922649E452E93432E0B84CA4D5B","51C85922649E452E93432E0B84CA4D5B","64d34c6a-3a30-4fdf-99f0-ac262c8822ba","e9cc2542-c7dc-4d8f-b94f-d088ad8989d1","{""part"":""2"",""participantId"":""51C85922649E452E93432E0B84CA4D5B"",""assignmentId"":""64d34c6a-3a30-4fdf-99f0-ac262c8822ba"",""projectId"":""e9cc2542-c7dc-4d8f-b94f-d088ad8989d1""}","https://test12345.live/?part=2&participantId=51C85922649E452E93432E0B84CA4D5B&assignmentId=64d34c6a-3a30-4fdf-99f0-ac262c8822ba&projectId=e9cc2542-c7dc-4d8f-b94f-d088ad8989d1","51C85922649E452E93432E0B84CA4D5B-2025-05-16-18-17-20","[{""page_index"":0,""viewing_time"":139369}]","139370","","","","",""
"","","","","","instructions","2","149539","0.0-2.0","51C85922649E452E93432E0B84CA4D5B","51C85922649E452E93432E0B84CA4D5B","64d34c6a-3a30-4fdf-99f0-ac262c8822ba","e9cc2542-c7dc-4d8f-b94f-d088ad8989d1","{""part"":""2"",""participantId"":""51C85922649E452E93432E0B84CA4D5B"",""assignmentId"":""64d34c6a-3a30-4fdf-99f0-ac262c8822ba"",""projectId"":""e9cc2542-c7dc-4d8f-b94f-d088ad8989d1""}","https://test12345.live/?part=2&participantId=51C85922649E452E93432E0B84CA4D5B&assignmentId=64d34c6a-3a30-4fdf-99f0-ac262c8822ba&projectId=e9cc2542-c7dc-4d8f-b94f-d088ad8989d1","51C85922649E452E93432E0B84CA4D5B-2025-05-16-18-17-20","[{""page_index"":0,""viewing_time"":6839}]","6839","","","","",""
"true","","","","","fullscreen","3","152994","0.0-3.0","51C85922649E452E93432E0B84CA4D5B","51C85922649E452E93432E0B84CA4D5B","64d34c6a-3a30-4fdf-99f0-ac262c8822ba","e9cc2542-c7dc-4d8f-b94f-d088ad8989d1","{""part"":""2"",""participantId"":""51C85922649E452E93432E0B84CA4D5B"",""assignmentId"":""64d34c6a-3a30-4fdf-99f0-ac262c8822ba"",""projectId"":""e9cc2542-c7dc-4d8f-b94f-d088ad8989d1""}","https://test12345.live/?part=2&participantId=51C85922649E452E93432E0B84CA4D5B&assignmentId=64d34c6a-3a30-4fdf-99f0-ac262c8822ba&projectId=e9cc2542-c7dc-4d8f-b94f-d088ad8989d1","51C85922649E452E93432E0B84CA4D5B-2025-05-16-18-17-20","","2450","","","","",""
"","","","","","initialize-microphone","4","155679","0.0-4.0-0.0","51C85922649E452E93432E0B84CA4D5B","51C85922649E452E93432E0B84CA4D5B","64d34c6a-3a30-4fdf-99f0-ac262c8822ba","e9cc2542-c7dc-4d8f-b94f-d088ad8989d1","{""part"":""2"",""participantId"":""51C85922649E452E93432E0B84CA4D5B"",""assignmentId"":""64d34c6a-3a30-4fdf-99f0-ac262c8822ba"",""projectId"":""e9cc2542-c7dc-4d8f-b94f-d088ad8989d1""}","https://test12345.live/?part=2&participantId=51C85922649E452E93432E0B84CA4D5B&assignmentId=64d34c6a-3a30-4fdf-99f0-ac262c8822ba&projectId=e9cc2542-c7dc-4d8f-b94f-d088ad8989d1","51C85922649E452E93432E0B84CA4D5B-2025-05-16-18-17-20","","","d2b52a3864a2b016b052af9439a18f3c8a12f33e751847a2e3ea68cfceca2b64","","","",""
"","","","","","html-audio-response","5","169797","0.0-4.0-1.0","51C85922649E452E93432E0B84CA4D5B","51C85922649E452E93432E0B84CA4D5B","64d34c6a-3a30-4fdf-99f0-ac262c8822ba","e9cc2542-c7dc-4d8f-b94f-d088ad8989d1","{""part"":""2"",""participantId"":""51C85922649E452E93432E0B84CA4D5B"",""assignmentId"":""64d34c6a-3a30-4fdf-99f0-ac262c8822ba"",""projectId"":""e9cc2542-c7dc-4d8f-b94f-d088ad8989d1""}","https://test12345.live/?part=2&participantId=51C85922649E452E93432E0B84CA4D5B&assignmentId=64d34c6a-3a30-4fdf-99f0-ac262c8822ba&projectId=e9cc2542-c7dc-4d8f-b94f-d088ad8989d1","51C85922649E452E93432E0B84CA4D5B-2025-05-16-18-17-20","","5046","","<span style=""color: red; font-size: 24px""> NOW RECORDING</span>
        <p>Please test Microphone</p>","","23",""
"","","","","","html-button-response","6","171148","0.0-4.0-2.0","51C85922649E452E93432E0B84CA4D5B","51C85922649E452E93432E0B84CA4D5B","64d34c6a-3a30-4fdf-99f0-ac262c8822ba","e9cc2542-c7dc-4d8f-b94f-d088ad8989d1","{""part"":""2"",""participantId"":""51C85922649E452E93432E0B84CA4D5B"",""assignmentId"":""64d34c6a-3a30-4fdf-99f0-ac262c8822ba"",""projectId"":""e9cc2542-c7dc-4d8f-b94f-d088ad8989d1""}","https://test12345.live/?part=2&participantId=51C85922649E452E93432E0B84CA4D5B&assignmentId=64d34c6a-3a30-4fdf-99f0-ac262c8822ba&projectId=e9cc2542-c7dc-4d8f-b94f-d088ad8989d1","51C85922649E452E93432E0B84CA4D5B-2025-05-16-18-17-20","","1350","","<p style=""font-size:48px; color:red;"">Is Microphone OK?</p>","1","",""
"","","","","","instructions","7","229025","0.0-5.0","51C85922649E452E93432E0B84CA4D5B","51C85922649E452E93432E0B84CA4D5B","64d34c6a-3a30-4fdf-99f0-ac262c8822ba","e9cc2542-c7dc-4d8f-b94f-d088ad8989d1","{""part"":""2"",""participantId"":""51C85922649E452E93432E0B84CA4D5B"",""assignmentId"":""64d34c6a-3a30-4fdf-99f0-ac262c8822ba"",""projectId"":""e9cc2542-c7dc-4d8f-b94f-d088ad8989d1""}","https://test12345.live/?part=2&participantId=51C85922649E452E93432E0B84CA4D5B&assignmentId=64d34c6a-3a30-4fdf-99f0-ac262c8822ba&projectId=e9cc2542-c7dc-4d8f-b94f-d088ad8989d1","51C85922649E452E93432E0B84CA4D5B-2025-05-16-18-17-20","[{""page_index"":0,""viewing_time"":1180},{""page_index"":1,""viewing_time"":10564},{""page_index"":2,""viewing_time"":46132}]","57876","","","","",""
"","","","","","image-button-response","8","235032","0.0-6.0-0.0","51C85922649E452E93432E0B84CA4D5B","51C85922649E452E93432E0B84CA4D5B","64d34c6a-3a30-4fdf-99f0-ac262c8822ba","e9cc2542-c7dc-4d8f-b94f-d088ad8989d1","{""part"":""2"",""participantId"":""51C85922649E452E93432E0B84CA4D5B"",""assignmentId"":""64d34c6a-3a30-4fdf-99f0-ac262c8822ba"",""projectId"":""e9cc2542-c7dc-4d8f-b94f-d088ad8989d1""}","https://test12345.live/?part=2&participantId=51C85922649E452E93432E0B84CA4D5B&assignmentId=64d34c6a-3a30-4fdf-99f0-ac262c8822ba&projectId=e9cc2542-c7dc-4d8f-b94f-d088ad8989d1","51C85922649E452E93432E0B84CA4D5B-2025-05-16-18-17-20","","null","","images/instructions/movie_0.png","null","",""
"","","","","","html-audio-response","9","266735","0.0-7.0","51C85922649E452E93432E0B84CA4D5B","51C85922649E452E93432E0B84CA4D5B","64d34c6a-3a30-4fdf-99f0-ac262c8822ba","e9cc2542-c7dc-4d8f-b94f-d088ad8989d1","{""part"":""2"",""participantId"":""51C85922649E452E93432E0B84CA4D5B"",""assignmentId"":""64d34c6a-3a30-4fdf-99f0-ac262c8822ba"",""projectId"":""e9cc2542-c7dc-4d8f-b94f-d088ad8989d1""}","https://test12345.live/?part=2&participantId=51C85922649E452E93432E0B84CA4D5B&assignmentId=64d34c6a-3a30-4fdf-99f0-ac262c8822ba&projectId=e9cc2542-c7dc-4d8f-b94f-d088ad8989d1","51C85922649E452E93432E0B84CA4D5B-2025-05-16-18-17-20","","30555","","[""<span style=\""color: red; font-size: 24px\""> NOW RECORDING</span><p>Please say out loud all the images you saw in part 1 of the experiment, as many as you can remember. The images can be said in any order.</p>""]","","30",""
"","","","","","instructions","10","269236","0.0-8.0","51C85922649E452E93432E0B84CA4D5B","51C85922649E452E93432E0B84CA4D5B","64d34c6a-3a30-4fdf-99f0-ac262c8822ba","e9cc2542-c7dc-4d8f-b94f-d088ad8989d1","{""part"":""2"",""participantId"":""51C85922649E452E93432E0B84CA4D5B"",""assignmentId"":""64d34c6a-3a30-4fdf-99f0-ac262c8822ba"",""projectId"":""e9cc2542-c7dc-4d8f-b94f-d088ad8989d1""}","https://test12345.live/?part=2&participantId=51C85922649E452E93432E0B84CA4D5B&assignmentId=64d34c6a-3a30-4fdf-99f0-ac262c8822ba&projectId=e9cc2542-c7dc-4d8f-b94f-d088ad8989d1","51C85922649E452E93432E0B84CA4D5B-2025-05-16-18-17-20","[{""page_index"":0,""viewing_time"":2495}]","2495","","","","",""
"","","","","","image-button-response","11","275239","0.0-9.0-0.0","51C85922649E452E93432E0B84CA4D5B","51C85922649E452E93432E0B84CA4D5B","64d34c6a-3a30-4fdf-99f0-ac262c8822ba","e9cc2542-c7dc-4d8f-b94f-d088ad8989d1","{""part"":""2"",""participantId"":""51C85922649E452E93432E0B84CA4D5B"",""assignmentId"":""64d34c6a-3a30-4fdf-99f0-ac262c8822ba"",""projectId"":""e9cc2542-c7dc-4d8f-b94f-d088ad8989d1""}","https://test12345.live/?part=2&participantId=51C85922649E452E93432E0B84CA4D5B&assignmentId=64d34c6a-3a30-4fdf-99f0-ac262c8822ba&projectId=e9cc2542-c7dc-4d8f-b94f-d088ad8989d1","51C85922649E452E93432E0B84CA4D5B-2025-05-16-18-17-20","","null","","images/causal_sequence/the_performance_causal/the_performance_causal_0.png","null","",""
"","","","","","html-audio-response","12","305931","0.0-10.0","51C85922649E452E93432E0B84CA4D5B","51C85922649E452E93432E0B84CA4D5B","64d34c6a-3a30-4fdf-99f0-ac262c8822ba","e9cc2542-c7dc-4d8f-b94f-d088ad8989d1","{""part"":""2"",""participantId"":""51C85922649E452E93432E0B84CA4D5B"",""assignmentId"":""64d34c6a-3a30-4fdf-99f0-ac262c8822ba"",""projectId"":""e9cc2542-c7dc-4d8f-b94f-d088ad8989d1""}","https://test12345.live/?part=2&participantId=51C85922649E452E93432E0B84CA4D5B&assignmentId=64d34c6a-3a30-4fdf-99f0-ac262c8822ba&projectId=e9cc2542-c7dc-4d8f-b94f-d088ad8989d1","51C85922649E452E93432E0B84CA4D5B-2025-05-16-18-17-20","","29353","","[""<span style=\""color: red; font-size: 24px\""> NOW RECORDING</span><p>Please say out loud all the images you saw in part 1 of the experiment, as many as you can remember. The images can be said in any order.</p>""]","","3","the_performance_causal"
"","","","","","image-button-response","13","311939","0.0-11.0-0.0","51C85922649E452E93432E0B84CA4D5B","51C85922649E452E93432E0B84CA4D5B","64d34c6a-3a30-4fdf-99f0-ac262c8822ba","e9cc2542-c7dc-4d8f-b94f-d088ad8989d1","{""part"":""2"",""participantId"":""51C85922649E452E93432E0B84CA4D5B"",""assignmentId"":""64d34c6a-3a30-4fdf-99f0-ac262c8822ba"",""projectId"":""e9cc2542-c7dc-4d8f-b94f-d088ad8989d1""}","https://test12345.live/?part=2&participantId=51C85922649E452E93432E0B84CA4D5B&assignmentId=64d34c6a-3a30-4fdf-99f0-ac262c8822ba&projectId=e9cc2542-c7dc-4d8f-b94f-d088ad8989d1","51C85922649E452E93432E0B84CA4D5B-2025-05-16-18-17-20","","null","","images/semantic_sequence/kitchen_operations_semantic/kitchen_operations_semantic_0.png","null","",""
"","","","","","html-audio-response","14","332468","0.0-12.0","51C85922649E452E93432E0B84CA4D5B","51C85922649E452E93432E0B84CA4D5B","64d34c6a-3a30-4fdf-99f0-ac262c8822ba","e9cc2542-c7dc-4d8f-b94f-d088ad8989d1","{""part"":""2"",""participantId"":""51C85922649E452E93432E0B84CA4D5B"",""assignmentId"":""64d34c6a-3a30-4fdf-99f0-ac262c8822ba"",""projectId"":""e9cc2542-c7dc-4d8f-b94f-d088ad8989d1""}","https://test12345.live/?part=2&participantId=51C85922649E452E93432E0B84CA4D5B&assignmentId=64d34c6a-3a30-4fdf-99f0-ac262c8822ba&projectId=e9cc2542-c7dc-4d8f-b94f-d088ad8989d1","51C85922649E452E93432E0B84CA4D5B-2025-05-16-18-17-20","","19235","","[""<span style=\""color: red; font-size: 24px\""> NOW RECORDING</span><p>Please say out loud all the images you saw in part 1 of the experiment, as many as you can remember. The images can be said in any order.</p>""]","","6","kitchen_operations_semantic"
"","","","","","image-button-response","15","338479","0.0-13.0-0.0","51C85922649E452E93432E0B84CA4D5B","51C85922649E452E93432E0B84CA4D5B","64d34c6a-3a30-4fdf-99f0-ac262c8822ba","e9cc2542-c7dc-4d8f-b94f-d088ad8989d1","{""part"":""2"",""participantId"":""51C85922649E452E93432E0B84CA4D5B"",""assignmentId"":""64d34c6a-3a30-4fdf-99f0-ac262c8822ba"",""projectId"":""e9cc2542-c7dc-4d8f-b94f-d088ad8989d1""}","https://test12345.live/?part=2&participantId=51C85922649E452E93432E0B84CA4D5B&assignmentId=64d34c6a-3a30-4fdf-99f0-ac262c8822ba&projectId=e9cc2542-c7dc-4d8f-b94f-d088ad8989d1","51C85922649E452E93432E0B84CA4D5B-2025-05-16-18-17-20","","null","","images/causal_sequence/package_causal/package_causal_0.png","null","",""
"","","","","","html-audio-response","16","368421","0.0-14.0","51C85922649E452E93432E0B84CA4D5B","51C85922649E452E93432E0B84CA4D5B","64d34c6a-3a30-4fdf-99f0-ac262c8822ba","e9cc2542-c7dc-4d8f-b94f-d088ad8989d1","{""part"":""2"",""participantId"":""51C85922649E452E93432E0B84CA4D5B"",""assignmentId"":""64d34c6a-3a30-4fdf-99f0-ac262c8822ba"",""projectId"":""e9cc2542-c7dc-4d8f-b94f-d088ad8989d1""}","https://test12345.live/?part=2&participantId=51C85922649E452E93432E0B84CA4D5B&assignmentId=64d34c6a-3a30-4fdf-99f0-ac262c8822ba&projectId=e9cc2542-c7dc-4d8f-b94f-d088ad8989d1","51C85922649E452E93432E0B84CA4D5B-2025-05-16-18-17-20","","28606","","[""<span style=\""color: red; font-size: 24px\""> NOW RECORDING</span><p>Please say out loud all the images you saw in part 1 of the experiment, as many as you can remember. The images can be said in any order.</p>""]","","1","package_causal"
"","","","","","image-button-response","17","374430","0.0-15.0-0.0","51C85922649E452E93432E0B84CA4D5B","51C85922649E452E93432E0B84CA4D5B","64d34c6a-3a30-4fdf-99f0-ac262c8822ba","e9cc2542-c7dc-4d8f-b94f-d088ad8989d1","{""part"":""2"",""participantId"":""51C85922649E452E93432E0B84CA4D5B"",""assignmentId"":""64d34c6a-3a30-4fdf-99f0-ac262c8822ba"",""projectId"":""e9cc2542-c7dc-4d8f-b94f-d088ad8989d1""}","https://test12345.live/?part=2&participantId=51C85922649E452E93432E0B84CA4D5B&assignmentId=64d34c6a-3a30-4fdf-99f0-ac262c8822ba&projectId=e9cc2542-c7dc-4d8f-b94f-d088ad8989d1","51C85922649E452E93432E0B84CA4D5B-2025-05-16-18-17-20","","null","","images/causal_sequence/coin_causal/coin_causal_0.png","null","",""
"","","","","","html-audio-response","18","407040","0.0-16.0","51C85922649E452E93432E0B84CA4D5B","51C85922649E452E93432E0B84CA4D5B","64d34c6a-3a30-4fdf-99f0-ac262c8822ba","e9cc2542-c7dc-4d8f-b94f-d088ad8989d1","{""part"":""2"",""participantId"":""51C85922649E452E93432E0B84CA4D5B"",""assignmentId"":""64d34c6a-3a30-4fdf-99f0-ac262c8822ba"",""projectId"":""e9cc2542-c7dc-4d8f-b94f-d088ad8989d1""}","https://test12345.live/?part=2&participantId=51C85922649E452E93432E0B84CA4D5B&assignmentId=64d34c6a-3a30-4fdf-99f0-ac262c8822ba&projectId=e9cc2542-c7dc-4d8f-b94f-d088ad8989d1","51C85922649E452E93432E0B84CA4D5B-2025-05-16-18-17-20","","31252","","[""<span style=\""color: red; font-size: 24px\""> NOW RECORDING</span><p>Please say out loud all the images you saw in part 1 of the experiment, as many as you can remember. The images can be said in any order.</p>""]","","1","coin_causal"
"","","","","","image-button-response","19","413048","0.0-17.0-0.0","51C85922649E452E93432E0B84CA4D5B","51C85922649E452E93432E0B84CA4D5B","64d34c6a-3a30-4fdf-99f0-ac262c8822ba","e9cc2542-c7dc-4d8f-b94f-d088ad8989d1","{""part"":""2"",""participantId"":""51C85922649E452E93432E0B84CA4D5B"",""assignmentId"":""64d34c6a-3a30-4fdf-99f0-ac262c8822ba"",""projectId"":""e9cc2542-c7dc-4d8f-b94f-d088ad8989d1""}","https://test12345.live/?part=2&participantId=51C85922649E452E93432E0B84CA4D5B&assignmentId=64d34c6a-3a30-4fdf-99f0-ac262c8822ba&projectId=e9cc2542-c7dc-4d8f-b94f-d088ad8989d1","51C85922649E452E93432E0B84CA4D5B-2025-05-16-18-17-20","","null","","images/semantic_sequence/market_semantic/market_semantic_0.png","null","",""
"","","","","","html-audio-response","20","431913","0.0-18.0","51C85922649E452E93432E0B84CA4D5B","51C85922649E452E93432E0B84CA4D5B","64d34c6a-3a30-4fdf-99f0-ac262c8822ba","e9cc2542-c7dc-4d8f-b94f-d088ad8989d1","{""part"":""2"",""participantId"":""51C85922649E452E93432E0B84CA4D5B"",""assignmentId"":""64d34c6a-3a30-4fdf-99f0-ac262c8822ba"",""projectId"":""e9cc2542-c7dc-4d8f-b94f-d088ad8989d1""}","https://test12345.live/?part=2&participantId=51C85922649E452E93432E0B84CA4D5B&assignmentId=64d34c6a-3a30-4fdf-99f0-ac262c8822ba&projectId=e9cc2542-c7dc-4d8f-b94f-d088ad8989d1","51C85922649E452E93432E0B84CA4D5B-2025-05-16-18-17-20","","17098","","[""<span style=\""color: red; font-size: 24px\""> NOW RECORDING</span><p>Please say out loud all the images you saw in part 1 of the experiment, as many as you can remember. The images can be said in any order.</p>""]","","1","market_semantic"
"","","","","","image-button-response","21","437917","0.0-19.0-0.0","51C85922649E452E93432E0B84CA4D5B","51C85922649E452E93432E0B84CA4D5B","64d34c6a-3a30-4fdf-99f0-ac262c8822ba","e9cc2542-c7dc-4d8f-b94f-d088ad8989d1","{""part"":""2"",""participantId"":""51C85922649E452E93432E0B84CA4D5B"",""assignmentId"":""64d34c6a-3a30-4fdf-99f0-ac262c8822ba"",""projectId"":""e9cc2542-c7dc-4d8f-b94f-d088ad8989d1""}","https://test12345.live/?part=2&participantId=51C85922649E452E93432E0B84CA4D5B&assignmentId=64d34c6a-3a30-4fdf-99f0-ac262c8822ba&projectId=e9cc2542-c7dc-4d8f-b94f-d088ad8989d1","51C85922649E452E93432E0B84CA4D5B-2025-05-16-18-17-20","","null","","images/semantic_sequence/cat_care_semantic/cat_care_semantic_0.png","null","",""
"","","","","","html-audio-response","22","460565","0.0-20.0","51C85922649E452E93432E0B84CA4D5B","51C85922649E452E93432E0B84CA4D5B","64d34c6a-3a30-4fdf-99f0-ac262c8822ba","e9cc2542-c7dc-4d8f-b94f-d088ad8989d1","{""part"":""2"",""participantId"":""51C85922649E452E93432E0B84CA4D5B"",""assignmentId"":""64d34c6a-3a30-4fdf-99f0-ac262c8822ba"",""projectId"":""e9cc2542-c7dc-4d8f-b94f-d088ad8989d1""}","https://test12345.live/?part=2&participantId=51C85922649E452E93432E0B84CA4D5B&assignmentId=64d34c6a-3a30-4fdf-99f0-ac262c8822ba&projectId=e9cc2542-c7dc-4d8f-b94f-d088ad8989d1","51C85922649E452E93432E0B84CA4D5B-2025-05-16-18-17-20","","21758","","[""<span style=\""color: red; font-size: 24px\""> NOW RECORDING</span><p>Please say out loud all the images you saw in part 1 of the experiment, as many as you can remember. The images can be said in any order.</p>""]","","2","cat_care_semantic"
"","","","","","image-button-response","23","466572","0.0-21.0-0.0","51C85922649E452E93432E0B84CA4D5B","51C85922649E452E93432E0B84CA4D5B","64d34c6a-3a30-4fdf-99f0-ac262c8822ba","e9cc2542-c7dc-4d8f-b94f-d088ad8989d1","{""part"":""2"",""participantId"":""51C85922649E452E93432E0B84CA4D5B"",""assignmentId"":""64d34c6a-3a30-4fdf-99f0-ac262c8822ba"",""projectId"":""e9cc2542-c7dc-4d8f-b94f-d088ad8989d1""}","https://test12345.live/?part=2&participantId=51C85922649E452E93432E0B84CA4D5B&assignmentId=64d34c6a-3a30-4fdf-99f0-ac262c8822ba&projectId=e9cc2542-c7dc-4d8f-b94f-d088ad8989d1","51C85922649E452E93432E0B84CA4D5B-2025-05-16-18-17-20","","null","","images/semantic_sequence/creative_activities_semantic/creative_activities_semantic_0.png","null","",""
"","","","","","html-audio-response","24","483877","0.0-22.0","51C85922649E452E93432E0B84CA4D5B","51C85922649E452E93432E0B84CA4D5B","64d34c6a-3a30-4fdf-99f0-ac262c8822ba","e9cc2542-c7dc-4d8f-b94f-d088ad8989d1","{""part"":""2"",""participantId"":""51C85922649E452E93432E0B84CA4D5B"",""assignmentId"":""64d34c6a-3a30-4fdf-99f0-ac262c8822ba"",""projectId"":""e9cc2542-c7dc-4d8f-b94f-d088ad8989d1""}","https://test12345.live/?part=2&participantId=51C85922649E452E93432E0B84CA4D5B&assignmentId=64d34c6a-3a30-4fdf-99f0-ac262c8822ba&projectId=e9cc2542-c7dc-4d8f-b94f-d088ad8989d1","51C85922649E452E93432E0B84CA4D5B-2025-05-16-18-17-20","","16462","","[""<span style=\""color: red; font-size: 24px\""> NOW RECORDING</span><p>Please say out loud all the images you saw in part 1 of the experiment, as many as you can remember. The images can be said in any order.</p>""]","","1","creative_activities_semantic"
"","","","","","image-button-response","25","489882","0.0-23.0-0.0","51C85922649E452E93432E0B84CA4D5B","51C85922649E452E93432E0B84CA4D5B","64d34c6a-3a30-4fdf-99f0-ac262c8822ba","e9cc2542-c7dc-4d8f-b94f-d088ad8989d1","{""part"":""2"",""participantId"":""51C85922649E452E93432E0B84CA4D5B"",""assignmentId"":""64d34c6a-3a30-4fdf-99f0-ac262c8822ba"",""projectId"":""e9cc2542-c7dc-4d8f-b94f-d088ad8989d1""}","https://test12345.live/?part=2&participantId=51C85922649E452E93432E0B84CA4D5B&assignmentId=64d34c6a-3a30-4fdf-99f0-ac262c8822ba&projectId=e9cc2542-c7dc-4d8f-b94f-d088ad8989d1","51C85922649E452E93432E0B84CA4D5B-2025-05-16-18-17-20","","null","","images/semantic_sequence/visiting_cities_semantic/visiting_cities_semantic_0.png","null","",""
"","","","","","html-audio-response","26","507467","0.0-24.0","51C85922649E452E93432E0B84CA4D5B","51C85922649E452E93432E0B84CA4D5B","64d34c6a-3a30-4fdf-99f0-ac262c8822ba","e9cc2542-c7dc-4d8f-b94f-d088ad8989d1","{""part"":""2"",""participantId"":""51C85922649E452E93432E0B84CA4D5B"",""assignmentId"":""64d34c6a-3a30-4fdf-99f0-ac262c8822ba"",""projectId"":""e9cc2542-c7dc-4d8f-b94f-d088ad8989d1""}","https://test12345.live/?part=2&participantId=51C85922649E452E93432E0B84CA4D5B&assignmentId=64d34c6a-3a30-4fdf-99f0-ac262c8822ba&projectId=e9cc2542-c7dc-4d8f-b94f-d088ad8989d1","51C85922649E452E93432E0B84CA4D5B-2025-05-16-18-17-20","","16499","","[""<span style=\""color: red; font-size: 24px\""> NOW RECORDING</span><p>Please say out loud all the images you saw in part 1 of the experiment, as many as you can remember. The images can be said in any order.</p>""]","","1","visiting_cities_semantic"
"","","","","","image-button-response","27","513475","0.0-25.0-0.0","51C85922649E452E93432E0B84CA4D5B","51C85922649E452E93432E0B84CA4D5B","64d34c6a-3a30-4fdf-99f0-ac262c8822ba","e9cc2542-c7dc-4d8f-b94f-d088ad8989d1","{""part"":""2"",""participantId"":""51C85922649E452E93432E0B84CA4D5B"",""assignmentId"":""64d34c6a-3a30-4fdf-99f0-ac262c8822ba"",""projectId"":""e9cc2542-c7dc-4d8f-b94f-d088ad8989d1""}","https://test12345.live/?part=2&participantId=51C85922649E452E93432E0B84CA4D5B&assignmentId=64d34c6a-3a30-4fdf-99f0-ac262c8822ba&projectId=e9cc2542-c7dc-4d8f-b94f-d088ad8989d1","51C85922649E452E93432E0B84CA4D5B-2025-05-16-18-17-20","","null","","images/schematic_sequence/restaurant_scheme/restaurant_scheme_0.png","null","",""
"","","","","","html-audio-response","28","541133","0.0-26.0","51C85922649E452E93432E0B84CA4D5B","51C85922649E452E93432E0B84CA4D5B","64d34c6a-3a30-4fdf-99f0-ac262c8822ba","e9cc2542-c7dc-4d8f-b94f-d088ad8989d1","{""part"":""2"",""participantId"":""51C85922649E452E93432E0B84CA4D5B"",""assignmentId"":""64d34c6a-3a30-4fdf-99f0-ac262c8822ba"",""projectId"":""e9cc2542-c7dc-4d8f-b94f-d088ad8989d1""}","https://test12345.live/?part=2&participantId=51C85922649E452E93432E0B84CA4D5B&assignmentId=64d34c6a-3a30-4fdf-99f0-ac262c8822ba&projectId=e9cc2542-c7dc-4d8f-b94f-d088ad8989d1","51C85922649E452E93432E0B84CA4D5B-2025-05-16-18-17-20","","26760","","[""<span style=\""color: red; font-size: 24px\""> NOW RECORDING</span><p>Please say out loud all the images you saw in part 1 of the experiment, as many as you can remember. The images can be said in any order.</p>""]","","5","restaurant_scheme"
"","","","","","image-button-response","29","547141","0.0-27.0-0.0","51C85922649E452E93432E0B84CA4D5B","51C85922649E452E93432E0B84CA4D5B","64d34c6a-3a30-4fdf-99f0-ac262c8822ba","e9cc2542-c7dc-4d8f-b94f-d088ad8989d1","{""part"":""2"",""participantId"":""51C85922649E452E93432E0B84CA4D5B"",""assignmentId"":""64d34c6a-3a30-4fdf-99f0-ac262c8822ba"",""projectId"":""e9cc2542-c7dc-4d8f-b94f-d088ad8989d1""}","https://test12345.live/?part=2&participantId=51C85922649E452E93432E0B84CA4D5B&assignmentId=64d34c6a-3a30-4fdf-99f0-ac262c8822ba&projectId=e9cc2542-c7dc-4d8f-b94f-d088ad8989d1","51C85922649E452E93432E0B84CA4D5B-2025-05-16-18-17-20","","null","","images/semantic_sequence/redecorating_semantic/redecorating_semantic_0.png","null","",""
"","","","","","html-audio-response","30","566489","0.0-28.0","51C85922649E452E93432E0B84CA4D5B","51C85922649E452E93432E0B84CA4D5B","64d34c6a-3a30-4fdf-99f0-ac262c8822ba","e9cc2542-c7dc-4d8f-b94f-d088ad8989d1","{""part"":""2"",""participantId"":""51C85922649E452E93432E0B84CA4D5B"",""assignmentId"":""64d34c6a-3a30-4fdf-99f0-ac262c8822ba"",""projectId"":""e9cc2542-c7dc-4d8f-b94f-d088ad8989d1""}","https://test12345.live/?part=2&participantId=51C85922649E452E93432E0B84CA4D5B&assignmentId=64d34c6a-3a30-4fdf-99f0-ac262c8822ba&projectId=e9cc2542-c7dc-4d8f-b94f-d088ad8989d1","51C85922649E452E93432E0B84CA4D5B-2025-05-16-18-17-20","","18453","","[""<span style=\""color: red; font-size: 24px\""> NOW RECORDING</span><p>Please say out loud all the images you saw in part 1 of the experiment, as many as you can remember. The images can be said in any order.</p>""]","","1","redecorating_semantic"
"","","","","","image-button-response","31","572498","0.0-29.0-0.0","51C85922649E452E93432E0B84CA4D5B","51C85922649E452E93432E0B84CA4D5B","64d34c6a-3a30-4fdf-99f0-ac262c8822ba","e9cc2542-c7dc-4d8f-b94f-d088ad8989d1","{""part"":""2"",""participantId"":""51C85922649E452E93432E0B84CA4D5B"",""assignmentId"":""64d34c6a-3a30-4fdf-99f0-ac262c8822ba"",""projectId"":""e9cc2542-c7dc-4d8f-b94f-d088ad8989d1""}","https://test12345.live/?part=2&participantId=51C85922649E452E93432E0B84CA4D5B&assignmentId=64d34c6a-3a30-4fdf-99f0-ac262c8822ba&projectId=e9cc2542-c7dc-4d8f-b94f-d088ad8989d1","51C85922649E452E93432E0B84CA4D5B-2025-05-16-18-17-20","","null","","images/causal_sequence/dog_causal/dog_causal_0.png","null","",""
"","","","","","html-audio-response","32","603073","0.0-30.0","51C85922649E452E93432E0B84CA4D5B","51C85922649E452E93432E0B84CA4D5B","64d34c6a-3a30-4fdf-99f0-ac262c8822ba","e9cc2542-c7dc-4d8f-b94f-d088ad8989d1","{""part"":""2"",""participantId"":""51C85922649E452E93432E0B84CA4D5B"",""assignmentId"":""64d34c6a-3a30-4fdf-99f0-ac262c8822ba"",""projectId"":""e9cc2542-c7dc-4d8f-b94f-d088ad8989d1""}","https://test12345.live/?part=2&participantId=51C85922649E452E93432E0B84CA4D5B&assignmentId=64d34c6a-3a30-4fdf-99f0-ac262c8822ba&projectId=e9cc2542-c7dc-4d8f-b94f-d088ad8989d1","51C85922649E452E93432E0B84CA4D5B-2025-05-16-18-17-20","","29827","","[""<span style=\""color: red; font-size: 24px\""> NOW RECORDING</span><p>Please say out loud all the images you saw in part 1 of the experiment, as many as you can remember. The images can be said in any order.</p>""]","","18","dog_causal"
"","","","","","image-button-response","33","609082","0.0-31.0-0.0","51C85922649E452E93432E0B84CA4D5B","51C85922649E452E93432E0B84CA4D5B","64d34c6a-3a30-4fdf-99f0-ac262c8822ba","e9cc2542-c7dc-4d8f-b94f-d088ad8989d1","{""part"":""2"",""participantId"":""51C85922649E452E93432E0B84CA4D5B"",""assignmentId"":""64d34c6a-3a30-4fdf-99f0-ac262c8822ba"",""projectId"":""e9cc2542-c7dc-4d8f-b94f-d088ad8989d1""}","https://test12345.live/?part=2&participantId=51C85922649E452E93432E0B84CA4D5B&assignmentId=64d34c6a-3a30-4fdf-99f0-ac262c8822ba&projectId=e9cc2542-c7dc-4d8f-b94f-d088ad8989d1","51C85922649E452E93432E0B84CA4D5B-2025-05-16-18-17-20","","null","","images/schematic_sequence/hotel_scheme/hotel_scheme_0.png","null","",""
"","","","","","html-audio-response","34","631366","0.0-32.0","51C85922649E452E93432E0B84CA4D5B","51C85922649E452E93432E0B84CA4D5B","64d34c6a-3a30-4fdf-99f0-ac262c8822ba","e9cc2542-c7dc-4d8f-b94f-d088ad8989d1","{""part"":""2"",""participantId"":""51C85922649E452E93432E0B84CA4D5B"",""assignmentId"":""64d34c6a-3a30-4fdf-99f0-ac262c8822ba"",""projectId"":""e9cc2542-c7dc-4d8f-b94f-d088ad8989d1""}","https://test12345.live/?part=2&participantId=51C85922649E452E93432E0B84CA4D5B&assignmentId=64d34c6a-3a30-4fdf-99f0-ac262c8822ba&projectId=e9cc2542-c7dc-4d8f-b94f-d088ad8989d1","51C85922649E452E93432E0B84CA4D5B-2025-05-16-18-17-20","","21508","","[""<span style=\""color: red; font-size: 24px\""> NOW RECORDING</span><p>Please say out loud all the images you saw in part 1 of the experiment, as many as you can remember. The images can be said in any order.</p>""]","","1","hotel_scheme"
"","","","","","image-button-response","35","637372","0.0-33.0-0.0","51C85922649E452E93432E0B84CA4D5B","51C85922649E452E93432E0B84CA4D5B","64d34c6a-3a30-4fdf-99f0-ac262c8822ba","e9cc2542-c7dc-4d8f-b94f-d088ad8989d1","{""part"":""2"",""participantId"":""51C85922649E452E93432E0B84CA4D5B"",""assignmentId"":""64d34c6a-3a30-4fdf-99f0-ac262c8822ba"",""projectId"":""e9cc2542-c7dc-4d8f-b94f-d088ad8989d1""}","https://test12345.live/?part=2&participantId=51C85922649E452E93432E0B84CA4D5B&assignmentId=64d34c6a-3a30-4fdf-99f0-ac262c8822ba&projectId=e9cc2542-c7dc-4d8f-b94f-d088ad8989d1","51C85922649E452E93432E0B84CA4D5B-2025-05-16-18-17-20","","null","","images/semantic_sequence/housework_semantic/housework_semantic_0.png","null","",""
"","","","","","html-audio-response","36","653030","0.0-34.0","51C85922649E452E93432E0B84CA4D5B","51C85922649E452E93432E0B84CA4D5B","64d34c6a-3a30-4fdf-99f0-ac262c8822ba","e9cc2542-c7dc-4d8f-b94f-d088ad8989d1","{""part"":""2"",""participantId"":""51C85922649E452E93432E0B84CA4D5B"",""assignmentId"":""64d34c6a-3a30-4fdf-99f0-ac262c8822ba"",""projectId"":""e9cc2542-c7dc-4d8f-b94f-d088ad8989d1""}","https://test12345.live/?part=2&participantId=51C85922649E452E93432E0B84CA4D5B&assignmentId=64d34c6a-3a30-4fdf-99f0-ac262c8822ba&projectId=e9cc2542-c7dc-4d8f-b94f-d088ad8989d1","51C85922649E452E93432E0B84CA4D5B-2025-05-16-18-17-20","","14776","","[""<span style=\""color: red; font-size: 24px\""> NOW RECORDING</span><p>Please say out loud all the images you saw in part 1 of the experiment, as many as you can remember. The images can be said in any order.</p>""]","","1","housework_semantic"
"","","","","","image-button-response","37","659038","0.0-35.0-0.0","51C85922649E452E93432E0B84CA4D5B","51C85922649E452E93432E0B84CA4D5B","64d34c6a-3a30-4fdf-99f0-ac262c8822ba","e9cc2542-c7dc-4d8f-b94f-d088ad8989d1","{""part"":""2"",""participantId"":""51C85922649E452E93432E0B84CA4D5B"",""assignmentId"":""64d34c6a-3a30-4fdf-99f0-ac262c8822ba"",""projectId"":""e9cc2542-c7dc-4d8f-b94f-d088ad8989d1""}","https://test12345.live/?part=2&participantId=51C85922649E452E93432E0B84CA4D5B&assignmentId=64d34c6a-3a30-4fdf-99f0-ac262c8822ba&projectId=e9cc2542-c7dc-4d8f-b94f-d088ad8989d1","51C85922649E452E93432E0B84CA4D5B-2025-05-16-18-17-20","","null","","images/schematic_sequence/supermarket_scheme/supermarket_scheme_0.png","null","",""
"","","","","","html-audio-response","38","678814","0.0-36.0","51C85922649E452E93432E0B84CA4D5B","51C85922649E452E93432E0B84CA4D5B","64d34c6a-3a30-4fdf-99f0-ac262c8822ba","e9cc2542-c7dc-4d8f-b94f-d088ad8989d1","{""part"":""2"",""participantId"":""51C85922649E452E93432E0B84CA4D5B"",""assignmentId"":""64d34c6a-3a30-4fdf-99f0-ac262c8822ba"",""projectId"":""e9cc2542-c7dc-4d8f-b94f-d088ad8989d1""}","https://test12345.live/?part=2&participantId=51C85922649E452E93432E0B84CA4D5B&assignmentId=64d34c6a-3a30-4fdf-99f0-ac262c8822ba&projectId=e9cc2542-c7dc-4d8f-b94f-d088ad8989d1","51C85922649E452E93432E0B84CA4D5B-2025-05-16-18-17-20","","19014","","[""<span style=\""color: red; font-size: 24px\""> NOW RECORDING</span><p>Please say out loud all the images you saw in part 1 of the experiment, as many as you can remember. The images can be said in any order.</p>""]","","1","supermarket_scheme"
"","","","","","image-button-response","39","684817","0.0-37.0-0.0","51C85922649E452E93432E0B84CA4D5B","51C85922649E452E93432E0B84CA4D5B","64d34c6a-3a30-4fdf-99f0-ac262c8822ba","e9cc2542-c7dc-4d8f-b94f-d088ad8989d1","{""part"":""2"",""participantId"":""51C85922649E452E93432E0B84CA4D5B"",""assignmentId"":""64d34c6a-3a30-4fdf-99f0-ac262c8822ba"",""projectId"":""e9cc2542-c7dc-4d8f-b94f-d088ad8989d1""}","https://test12345.live/?part=2&participantId=51C85922649E452E93432E0B84CA4D5B&assignmentId=64d34c6a-3a30-4fdf-99f0-ac262c8822ba&projectId=e9cc2542-c7dc-4d8f-b94f-d088ad8989d1","51C85922649E452E93432E0B84CA4D5B-2025-05-16-18-17-20","","null","","images/schematic_sequence/interview_scheme/interview_scheme_0.png","null","",""
"","","","","","html-audio-response","40","704610","0.0-38.0","51C85922649E452E93432E0B84CA4D5B","51C85922649E452E93432E0B84CA4D5B","64d34c6a-3a30-4fdf-99f0-ac262c8822ba","e9cc2542-c7dc-4d8f-b94f-d088ad8989d1","{""part"":""2"",""participantId"":""51C85922649E452E93432E0B84CA4D5B"",""assignmentId"":""64d34c6a-3a30-4fdf-99f0-ac262c8822ba"",""projectId"":""e9cc2542-c7dc-4d8f-b94f-d088ad8989d1""}","https://test12345.live/?part=2&participantId=51C85922649E452E93432E0B84CA4D5B&assignmentId=64d34c6a-3a30-4fdf-99f0-ac262c8822ba&projectId=e9cc2542-c7dc-4d8f-b94f-d088ad8989d1","51C85922649E452E93432E0B84CA4D5B-2025-05-16-18-17-20","","18838","","[""<span style=\""color: red; font-size: 24px\""> NOW RECORDING</span><p>Please say out loud all the images you saw in part 1 of the experiment, as many as you can remember. The images can be said in any order.</p>""]","","6","interview_scheme"
"","","","","","image-button-response","41","710618","0.0-39.0-0.0","51C85922649E452E93432E0B84CA4D5B","51C85922649E452E93432E0B84CA4D5B","64d34c6a-3a30-4fdf-99f0-ac262c8822ba","e9cc2542-c7dc-4d8f-b94f-d088ad8989d1","{""part"":""2"",""participantId"":""51C85922649E452E93432E0B84CA4D5B"",""assignmentId"":""64d34c6a-3a30-4fdf-99f0-ac262c8822ba"",""projectId"":""e9cc2542-c7dc-4d8f-b94f-d088ad8989d1""}","https://test12345.live/?part=2&participantId=51C85922649E452E93432E0B84CA4D5B&assignmentId=64d34c6a-3a30-4fdf-99f0-ac262c8822ba&projectId=e9cc2542-c7dc-4d8f-b94f-d088ad8989d1","51C85922649E452E93432E0B84CA4D5B-2025-05-16-18-17-20","","null","","images/semantic_sequence/using_technology_semantic/using_technology_semantic_0.png","null","",""
"","","","","","html-audio-response","42","730610","0.0-40.0","51C85922649E452E93432E0B84CA4D5B","51C85922649E452E93432E0B84CA4D5B","64d34c6a-3a30-4fdf-99f0-ac262c8822ba","e9cc2542-c7dc-4d8f-b94f-d088ad8989d1","{""part"":""2"",""participantId"":""51C85922649E452E93432E0B84CA4D5B"",""assignmentId"":""64d34c6a-3a30-4fdf-99f0-ac262c8822ba"",""projectId"":""e9cc2542-c7dc-4d8f-b94f-d088ad8989d1""}","https://test12345.live/?part=2&participantId=51C85922649E452E93432E0B84CA4D5B&assignmentId=64d34c6a-3a30-4fdf-99f0-ac262c8822ba&projectId=e9cc2542-c7dc-4d8f-b94f-d088ad8989d1","51C85922649E452E93432E0B84CA4D5B-2025-05-16-18-17-20","","18808","","[""<span style=\""color: red; font-size: 24px\""> NOW RECORDING</span><p>Please say out loud all the images you saw in part 1 of the experiment, as many as you can remember. The images can be said in any order.</p>""]","","10","using_technology_semantic"
"","","","","","image-button-response","43","736616","0.0-41.0-0.0","51C85922649E452E93432E0B84CA4D5B","51C85922649E452E93432E0B84CA4D5B","64d34c6a-3a30-4fdf-99f0-ac262c8822ba","e9cc2542-c7dc-4d8f-b94f-d088ad8989d1","{""part"":""2"",""participantId"":""51C85922649E452E93432E0B84CA4D5B"",""assignmentId"":""64d34c6a-3a30-4fdf-99f0-ac262c8822ba"",""projectId"":""e9cc2542-c7dc-4d8f-b94f-d088ad8989d1""}","https://test12345.live/?part=2&participantId=51C85922649E452E93432E0B84CA4D5B&assignmentId=64d34c6a-3a30-4fdf-99f0-ac262c8822ba&projectId=e9cc2542-c7dc-4d8f-b94f-d088ad8989d1","51C85922649E452E93432E0B84CA4D5B-2025-05-16-18-17-20","","null","","images/semantic_sequence/physical_activity_semantic/physical_activity_semantic_0.png","null","",""
"","","","","","html-audio-response","44","753751","0.0-42.0","51C85922649E452E93432E0B84CA4D5B","51C85922649E452E93432E0B84CA4D5B","64d34c6a-3a30-4fdf-99f0-ac262c8822ba","e9cc2542-c7dc-4d8f-b94f-d088ad8989d1","{""part"":""2"",""participantId"":""51C85922649E452E93432E0B84CA4D5B"",""assignmentId"":""64d34c6a-3a30-4fdf-99f0-ac262c8822ba"",""projectId"":""e9cc2542-c7dc-4d8f-b94f-d088ad8989d1""}","https://test12345.live/?part=2&participantId=51C85922649E452E93432E0B84CA4D5B&assignmentId=64d34c6a-3a30-4fdf-99f0-ac262c8822ba&projectId=e9cc2542-c7dc-4d8f-b94f-d088ad8989d1","51C85922649E452E93432E0B84CA4D5B-2025-05-16-18-17-20","","16362","","[""<span style=\""color: red; font-size: 24px\""> NOW RECORDING</span><p>Please say out loud all the images you saw in part 1 of the experiment, as many as you can remember. The images can be said in any order.</p>""]","","1","physical_activity_semantic"
"","","","","","image-button-response","45","759757","0.0-43.0-0.0","51C85922649E452E93432E0B84CA4D5B","51C85922649E452E93432E0B84CA4D5B","64d34c6a-3a30-4fdf-99f0-ac262c8822ba","e9cc2542-c7dc-4d8f-b94f-d088ad8989d1","{""part"":""2"",""participantId"":""51C85922649E452E93432E0B84CA4D5B"",""assignmentId"":""64d34c6a-3a30-4fdf-99f0-ac262c8822ba"",""projectId"":""e9cc2542-c7dc-4d8f-b94f-d088ad8989d1""}","https://test12345.live/?part=2&participantId=51C85922649E452E93432E0B84CA4D5B&assignmentId=64d34c6a-3a30-4fdf-99f0-ac262c8822ba&projectId=e9cc2542-c7dc-4d8f-b94f-d088ad8989d1","51C85922649E452E93432E0B84CA4D5B-2025-05-16-18-17-20","","null","","images/semantic_sequence/exploring_nature_semantic/exploring_nature_semantic_0.png","null","",""
"","","","","","html-audio-response","46","775124","0.0-44.0","51C85922649E452E93432E0B84CA4D5B","51C85922649E452E93432E0B84CA4D5B","64d34c6a-3a30-4fdf-99f0-ac262c8822ba","e9cc2542-c7dc-4d8f-b94f-d088ad8989d1","{""part"":""2"",""participantId"":""51C85922649E452E93432E0B84CA4D5B"",""assignmentId"":""64d34c6a-3a30-4fdf-99f0-ac262c8822ba"",""projectId"":""e9cc2542-c7dc-4d8f-b94f-d088ad8989d1""}","https://test12345.live/?part=2&participantId=51C85922649E452E93432E0B84CA4D5B&assignmentId=64d34c6a-3a30-4fdf-99f0-ac262c8822ba&projectId=e9cc2542-c7dc-4d8f-b94f-d088ad8989d1","51C85922649E452E93432E0B84CA4D5B-2025-05-16-18-17-20","","14587","","[""<span style=\""color: red; font-size: 24px\""> NOW RECORDING</span><p>Please say out loud all the images you saw in part 1 of the experiment, as many as you can remember. The images can be said in any order.</p>""]","","1","exploring_nature_semantic"
"","","","","","image-button-response","47","781131","0.0-45.0-0.0","51C85922649E452E93432E0B84CA4D5B","51C85922649E452E93432E0B84CA4D5B","64d34c6a-3a30-4fdf-99f0-ac262c8822ba","e9cc2542-c7dc-4d8f-b94f-d088ad8989d1","{""part"":""2"",""participantId"":""51C85922649E452E93432E0B84CA4D5B"",""assignmentId"":""64d34c6a-3a30-4fdf-99f0-ac262c8822ba"",""projectId"":""e9cc2542-c7dc-4d8f-b94f-d088ad8989d1""}","https://test12345.live/?part=2&participantId=51C85922649E452E93432E0B84CA4D5B&assignmentId=64d34c6a-3a30-4fdf-99f0-ac262c8822ba&projectId=e9cc2542-c7dc-4d8f-b94f-d088ad8989d1","51C85922649E452E93432E0B84CA4D5B-2025-05-16-18-17-20","","null","","images/schematic_sequence/dinner_party_scheme/dinner_party_scheme_0.png","null","",""
"","","","","","html-audio-response","48","811805","0.0-46.0","51C85922649E452E93432E0B84CA4D5B","51C85922649E452E93432E0B84CA4D5B","64d34c6a-3a30-4fdf-99f0-ac262c8822ba","e9cc2542-c7dc-4d8f-b94f-d088ad8989d1","{""part"":""2"",""participantId"":""51C85922649E452E93432E0B84CA4D5B"",""assignmentId"":""64d34c6a-3a30-4fdf-99f0-ac262c8822ba"",""projectId"":""e9cc2542-c7dc-4d8f-b94f-d088ad8989d1""}","https://test12345.live/?part=2&participantId=51C85922649E452E93432E0B84CA4D5B&assignmentId=64d34c6a-3a30-4fdf-99f0-ac262c8822ba&projectId=e9cc2542-c7dc-4d8f-b94f-d088ad8989d1","51C85922649E452E93432E0B84CA4D5B-2025-05-16-18-17-20","","30049","","[""<span style=\""color: red; font-size: 24px\""> NOW RECORDING</span><p>Please say out loud all the images you saw in part 1 of the experiment, as many as you can remember. The images can be said in any order.</p>""]","","1","dinner_party_scheme"
"","","","","","image-button-response","49","817813","0.0-47.0-0.0","51C85922649E452E93432E0B84CA4D5B","51C85922649E452E93432E0B84CA4D5B","64d34c6a-3a30-4fdf-99f0-ac262c8822ba","e9cc2542-c7dc-4d8f-b94f-d088ad8989d1","{""part"":""2"",""participantId"":""51C85922649E452E93432E0B84CA4D5B"",""assignmentId"":""64d34c6a-3a30-4fdf-99f0-ac262c8822ba"",""projectId"":""e9cc2542-c7dc-4d8f-b94f-d088ad8989d1""}","https://test12345.live/?part=2&participantId=51C85922649E452E93432E0B84CA4D5B&assignmentId=64d34c6a-3a30-4fdf-99f0-ac262c8822ba&projectId=e9cc2542-c7dc-4d8f-b94f-d088ad8989d1","51C85922649E452E93432E0B84CA4D5B-2025-05-16-18-17-20","","null","","images/causal_sequence/saving_a_cat_causal/saving_a_cat_causal_0.png","null","",""
"","","","","","html-audio-response","50","836308","0.0-48.0","51C85922649E452E93432E0B84CA4D5B","51C85922649E452E93432E0B84CA4D5B","64d34c6a-3a30-4fdf-99f0-ac262c8822ba","e9cc2542-c7dc-4d8f-b94f-d088ad8989d1","{""part"":""2"",""participantId"":""51C85922649E452E93432E0B84CA4D5B"",""assignmentId"":""64d34c6a-3a30-4fdf-99f0-ac262c8822ba"",""projectId"":""e9cc2542-c7dc-4d8f-b94f-d088ad8989d1""}","https://test12345.live/?part=2&participantId=51C85922649E452E93432E0B84CA4D5B&assignmentId=64d34c6a-3a30-4fdf-99f0-ac262c8822ba&projectId=e9cc2542-c7dc-4d8f-b94f-d088ad8989d1","51C85922649E452E93432E0B84CA4D5B-2025-05-16-18-17-20","","17721","","[""<span style=\""color: red; font-size: 24px\""> NOW RECORDING</span><p>Please say out loud all the images you saw in part 1 of the experiment, as many as you can remember. The images can be said in any order.</p>""]","","1","saving_a_cat_causal"
"","","","","","image-button-response","51","842313","0.0-49.0-0.0","51C85922649E452E93432E0B84CA4D5B","51C85922649E452E93432E0B84CA4D5B","64d34c6a-3a30-4fdf-99f0-ac262c8822ba","e9cc2542-c7dc-4d8f-b94f-d088ad8989d1","{""part"":""2"",""participantId"":""51C85922649E452E93432E0B84CA4D5B"",""assignmentId"":""64d34c6a-3a30-4fdf-99f0-ac262c8822ba"",""projectId"":""e9cc2542-c7dc-4d8f-b94f-d088ad8989d1""}","https://test12345.live/?part=2&participantId=51C85922649E452E93432E0B84CA4D5B&assignmentId=64d34c6a-3a30-4fdf-99f0-ac262c8822ba&projectId=e9cc2542-c7dc-4d8f-b94f-d088ad8989d1","51C85922649E452E93432E0B84CA4D5B-2025-05-16-18-17-20","","null","","images/semantic_sequence/self_care_activities_semantic/self_care_activities_semantic_0.png","null","",""
"","","","","","html-audio-response","52","865970","0.0-50.0","51C85922649E452E93432E0B84CA4D5B","51C85922649E452E93432E0B84CA4D5B","64d34c6a-3a30-4fdf-99f0-ac262c8822ba","e9cc2542-c7dc-4d8f-b94f-d088ad8989d1","{""part"":""2"",""participantId"":""51C85922649E452E93432E0B84CA4D5B"",""assignmentId"":""64d34c6a-3a30-4fdf-99f0-ac262c8822ba"",""projectId"":""e9cc2542-c7dc-4d8f-b94f-d088ad8989d1""}","https://test12345.live/?part=2&participantId=51C85922649E452E93432E0B84CA4D5B&assignmentId=64d34c6a-3a30-4fdf-99f0-ac262c8822ba&projectId=e9cc2542-c7dc-4d8f-b94f-d088ad8989d1","51C85922649E452E93432E0B84CA4D5B-2025-05-16-18-17-20","","22938","","[""<span style=\""color: red; font-size: 24px\""> NOW RECORDING</span><p>Please say out loud all the images you saw in part 1 of the experiment, as many as you can remember. The images can be said in any order.</p>""]","","1","self_care_activities_semantic"
"","","","","","image-button-response","53","871974","0.0-51.0-0.0","51C85922649E452E93432E0B84CA4D5B","51C85922649E452E93432E0B84CA4D5B","64d34c6a-3a30-4fdf-99f0-ac262c8822ba","e9cc2542-c7dc-4d8f-b94f-d088ad8989d1","{""part"":""2"",""participantId"":""51C85922649E452E93432E0B84CA4D5B"",""assignmentId"":""64d34c6a-3a30-4fdf-99f0-ac262c8822ba"",""projectId"":""e9cc2542-c7dc-4d8f-b94f-d088ad8989d1""}","https://test12345.live/?part=2&participantId=51C85922649E452E93432E0B84CA4D5B&assignmentId=64d34c6a-3a30-4fdf-99f0-ac262c8822ba&projectId=e9cc2542-c7dc-4d8f-b94f-d088ad8989d1","51C85922649E452E93432E0B84CA4D5B-2025-05-16-18-17-20","","null","","images/semantic_sequence/maintaining_a_car_semantic/maintaining_a_car_semantic_0.png","null","",""
"","","","","","html-audio-response","54","891596","0.0-52.0","51C85922649E452E93432E0B84CA4D5B","51C85922649E452E93432E0B84CA4D5B","64d34c6a-3a30-4fdf-99f0-ac262c8822ba","e9cc2542-c7dc-4d8f-b94f-d088ad8989d1","{""part"":""2"",""participantId"":""51C85922649E452E93432E0B84CA4D5B"",""assignmentId"":""64d34c6a-3a30-4fdf-99f0-ac262c8822ba"",""projectId"":""e9cc2542-c7dc-4d8f-b94f-d088ad8989d1""}","https://test12345.live/?part=2&participantId=51C85922649E452E93432E0B84CA4D5B&assignmentId=64d34c6a-3a30-4fdf-99f0-ac262c8822ba&projectId=e9cc2542-c7dc-4d8f-b94f-d088ad8989d1","51C85922649E452E93432E0B84CA4D5B-2025-05-16-18-17-20","","18895","","[""<span style=\""color: red; font-size: 24px\""> NOW RECORDING</span><p>Please say out loud all the images you saw in part 1 of the experiment, as many as you can remember. The images can be said in any order.</p>""]","","1","maintaining_a_car_semantic"
"","","","","","image-button-response","55","897604","0.0-53.0-0.0","51C85922649E452E93432E0B84CA4D5B","51C85922649E452E93432E0B84CA4D5B","64d34c6a-3a30-4fdf-99f0-ac262c8822ba","e9cc2542-c7dc-4d8f-b94f-d088ad8989d1","{""part"":""2"",""participantId"":""51C85922649E452E93432E0B84CA4D5B"",""assignmentId"":""64d34c6a-3a30-4fdf-99f0-ac262c8822ba"",""projectId"":""e9cc2542-c7dc-4d8f-b94f-d088ad8989d1""}","https://test12345.live/?part=2&participantId=51C85922649E452E93432E0B84CA4D5B&assignmentId=64d34c6a-3a30-4fdf-99f0-ac262c8822ba&projectId=e9cc2542-c7dc-4d8f-b94f-d088ad8989d1","51C85922649E452E93432E0B84CA4D5B-2025-05-16-18-17-20","","null","","images/schematic_sequence/flight_scheme/flight_scheme_0.png","null","",""
"","","","","","html-audio-response","56","920723","0.0-54.0","51C85922649E452E93432E0B84CA4D5B","51C85922649E452E93432E0B84CA4D5B","64d34c6a-3a30-4fdf-99f0-ac262c8822ba","e9cc2542-c7dc-4d8f-b94f-d088ad8989d1","{""part"":""2"",""participantId"":""51C85922649E452E93432E0B84CA4D5B"",""assignmentId"":""64d34c6a-3a30-4fdf-99f0-ac262c8822ba"",""projectId"":""e9cc2542-c7dc-4d8f-b94f-d088ad8989d1""}","https://test12345.live/?part=2&participantId=51C85922649E452E93432E0B84CA4D5B&assignmentId=64d34c6a-3a30-4fdf-99f0-ac262c8822ba&projectId=e9cc2542-c7dc-4d8f-b94f-d088ad8989d1","51C85922649E452E93432E0B84CA4D5B-2025-05-16-18-17-20","","22498","","[""<span style=\""color: red; font-size: 24px\""> NOW RECORDING</span><p>Please say out loud all the images you saw in part 1 of the experiment, as many as you can remember. The images can be said in any order.</p>""]","","7","flight_scheme"
"","","","","","image-button-response","57","926727","0.0-55.0-0.0","51C85922649E452E93432E0B84CA4D5B","51C85922649E452E93432E0B84CA4D5B","64d34c6a-3a30-4fdf-99f0-ac262c8822ba","e9cc2542-c7dc-4d8f-b94f-d088ad8989d1","{""part"":""2"",""participantId"":""51C85922649E452E93432E0B84CA4D5B"",""assignmentId"":""64d34c6a-3a30-4fdf-99f0-ac262c8822ba"",""projectId"":""e9cc2542-c7dc-4d8f-b94f-d088ad8989d1""}","https://test12345.live/?part=2&participantId=51C85922649E452E93432E0B84CA4D5B&assignmentId=64d34c6a-3a30-4fdf-99f0-ac262c8822ba&projectId=e9cc2542-c7dc-4d8f-b94f-d088ad8989d1","51C85922649E452E93432E0B84CA4D5B-2025-05-16-18-17-20","","null","","images/causal_sequence/museum_causal/museum_causal_0.png","null","",""
"","","","","","html-audio-response","58","947787","0.0-56.0","51C85922649E452E93432E0B84CA4D5B","51C85922649E452E93432E0B84CA4D5B","64d34c6a-3a30-4fdf-99f0-ac262c8822ba","e9cc2542-c7dc-4d8f-b94f-d088ad8989d1","{""part"":""2"",""participantId"":""51C85922649E452E93432E0B84CA4D5B"",""assignmentId"":""64d34c6a-3a30-4fdf-99f0-ac262c8822ba"",""projectId"":""e9cc2542-c7dc-4d8f-b94f-d088ad8989d1""}","https://test12345.live/?part=2&participantId=51C85922649E452E93432E0B84CA4D5B&assignmentId=64d34c6a-3a30-4fdf-99f0-ac262c8822ba&projectId=e9cc2542-c7dc-4d8f-b94f-d088ad8989d1","51C85922649E452E93432E0B84CA4D5B-2025-05-16-18-17-20","","20171","","[""<span style=\""color: red; font-size: 24px\""> NOW RECORDING</span><p>Please say out loud all the images you saw in part 1 of the experiment, as many as you can remember. The images can be said in any order.</p>""]","","1","museum_causal"
"","","","","","survey-text","59","954110","0.0-57.0","51C85922649E452E93432E0B84CA4D5B","51C85922649E452E93432E0B84CA4D5B","64d34c6a-3a30-4fdf-99f0-ac262c8822ba","e9cc2542-c7dc-4d8f-b94f-d088ad8989d1","{""part"":""2"",""participantId"":""51C85922649E452E93432E0B84CA4D5B"",""assignmentId"":""64d34c6a-3a30-4fdf-99f0-ac262c8822ba"",""projectId"":""e9cc2542-c7dc-4d8f-b94f-d088ad8989d1""}","https://test12345.live/?part=2&participantId=51C85922649E452E93432E0B84CA4D5B&assignmentId=64d34c6a-3a30-4fdf-99f0-ac262c8822ba&projectId=e9cc2542-c7dc-4d8f-b94f-d088ad8989d1","51C85922649E452E93432E0B84CA4D5B-2025-05-16-18-17-20","","6317","","","{""Q0"":""Female"",""Q1"":""35""}","",""
"","","","","","instructions","60","957957","0.0-58.0","51C85922649E452E93432E0B84CA4D5B","51C85922649E452E93432E0B84CA4D5B","64d34c6a-3a30-4fdf-99f0-ac262c8822ba","e9cc2542-c7dc-4d8f-b94f-d088ad8989d1","{""part"":""2"",""participantId"":""51C85922649E452E93432E0B84CA4D5B"",""assignmentId"":""64d34c6a-3a30-4fdf-99f0-ac262c8822ba"",""projectId"":""e9cc2542-c7dc-4d8f-b94f-d088ad8989d1""}","https://test12345.live/?part=2&participantId=51C85922649E452E93432E0B84CA4D5B&assignmentId=64d34c6a-3a30-4fdf-99f0-ac262c8822ba&projectId=e9cc2542-c7dc-4d8f-b94f-d088ad8989d1","51C85922649E452E93432E0B84CA4D5B-2025-05-16-18-17-20","[{""page_index"":0,""viewing_time"":3848}]","3848","","","","",""
"","","","","","survey-text","61","959607","0.0-59.0","51C85922649E452E93432E0B84CA4D5B","51C85922649E452E93432E0B84CA4D5B","64d34c6a-3a30-4fdf-99f0-ac262c8822ba","e9cc2542-c7dc-4d8f-b94f-d088ad8989d1","{""part"":""2"",""participantId"":""51C85922649E452E93432E0B84CA4D5B"",""assignmentId"":""64d34c6a-3a30-4fdf-99f0-ac262c8822ba"",""projectId"":""e9cc2542-c7dc-4d8f-b94f-d088ad8989d1""}","https://test12345.live/?part=2&participantId=51C85922649E452E93432E0B84CA4D5B&assignmentId=64d34c6a-3a30-4fdf-99f0-ac262c8822ba&projectId=e9cc2542-c7dc-4d8f-b94f-d088ad8989d1","51C85922649E452E93432E0B84CA4D5B-2025-05-16-18-17-20","","1649","","","{""Q0"":""AJFHBG896""}","",""
