"success","timeout","failed_images","failed_audio","failed_video","trial_type","trial_index","time_elapsed","internal_node_id","subject","subject_id","study_id","session_id","urlvar","current_url","audio_id","view_history","rt","device_id","stimulus","response","estimated_stimulus_onset","seq_name"
"true","false","[]","[]","[]","preload","0","8189","0.0-0.0","53BE65A0D9D045D693E666AD3994ADAD","53BE65A0D9D045D693E666AD3994ADAD","4bbd3852-fd11-4f3d-ae5e-11baa6e7c9c6","e9cc2542-c7dc-4d8f-b94f-d088ad8989d1","{""part"":""2"",""participantId"":""53BE65A0D9D045D693E666AD3994ADAD"",""assignmentId"":""4bbd3852-fd11-4f3d-ae5e-11baa6e7c9c6"",""projectId"":""e9cc2542-c7dc-4d8f-b94f-d088ad8989d1""}","https://test12345.live/?part=2&participantId=53BE65A0D9D045D693E666AD3994ADAD&assignmentId=4bbd3852-fd11-4f3d-ae5e-11baa6e7c9c6&projectId=e9cc2542-c7dc-4d8f-b94f-d088ad8989d1","53BE65A0D9D045D693E666AD3994ADAD-2025-05-16-18-14-43","","","","","","",""
"","","","","","instructions","1","23227","0.0-1.0","53BE65A0D9D045D693E666AD3994ADAD","53BE65A0D9D045D693E666AD3994ADAD","4bbd3852-fd11-4f3d-ae5e-11baa6e7c9c6","e9cc2542-c7dc-4d8f-b94f-d088ad8989d1","{""part"":""2"",""participantId"":""53BE65A0D9D045D693E666AD3994ADAD"",""assignmentId"":""4bbd3852-fd11-4f3d-ae5e-11baa6e7c9c6"",""projectId"":""e9cc2542-c7dc-4d8f-b94f-d088ad8989d1""}","https://test12345.live/?part=2&participantId=53BE65A0D9D045D693E666AD3994ADAD&assignmentId=4bbd3852-fd11-4f3d-ae5e-11baa6e7c9c6&projectId=e9cc2542-c7dc-4d8f-b94f-d088ad8989d1","53BE65A0D9D045D693E666AD3994ADAD-2025-05-16-18-14-43","[{""page_index"":0,""viewing_time"":15037}]","15037","","","","",""
"","","","","","instructions","2","28801","0.0-2.0","53BE65A0D9D045D693E666AD3994ADAD","53BE65A0D9D045D693E666AD3994ADAD","4bbd3852-fd11-4f3d-ae5e-11baa6e7c9c6","e9cc2542-c7dc-4d8f-b94f-d088ad8989d1","{""part"":""2"",""participantId"":""53BE65A0D9D045D693E666AD3994ADAD"",""assignmentId"":""4bbd3852-fd11-4f3d-ae5e-11baa6e7c9c6"",""projectId"":""e9cc2542-c7dc-4d8f-b94f-d088ad8989d1""}","https://test12345.live/?part=2&participantId=53BE65A0D9D045D693E666AD3994ADAD&assignmentId=4bbd3852-fd11-4f3d-ae5e-11baa6e7c9c6&projectId=e9cc2542-c7dc-4d8f-b94f-d088ad8989d1","53BE65A0D9D045D693E666AD3994ADAD-2025-05-16-18-14-43","[{""page_index"":0,""viewing_time"":5573}]","5573","","","","",""
"true","","","","","fullscreen","3","35814","0.0-3.0","53BE65A0D9D045D693E666AD3994ADAD","53BE65A0D9D045D693E666AD3994ADAD","4bbd3852-fd11-4f3d-ae5e-11baa6e7c9c6","e9cc2542-c7dc-4d8f-b94f-d088ad8989d1","{""part"":""2"",""participantId"":""53BE65A0D9D045D693E666AD3994ADAD"",""assignmentId"":""4bbd3852-fd11-4f3d-ae5e-11baa6e7c9c6"",""projectId"":""e9cc2542-c7dc-4d8f-b94f-d088ad8989d1""}","https://test12345.live/?part=2&participantId=53BE65A0D9D045D693E666AD3994ADAD&assignmentId=4bbd3852-fd11-4f3d-ae5e-11baa6e7c9c6&projectId=e9cc2542-c7dc-4d8f-b94f-d088ad8989d1","53BE65A0D9D045D693E666AD3994ADAD-2025-05-16-18-14-43","","6010","","","","",""
"","","","","","initialize-microphone","4","45395","0.0-4.0-0.0","53BE65A0D9D045D693E666AD3994ADAD","53BE65A0D9D045D693E666AD3994ADAD","4bbd3852-fd11-4f3d-ae5e-11baa6e7c9c6","e9cc2542-c7dc-4d8f-b94f-d088ad8989d1","{""part"":""2"",""participantId"":""53BE65A0D9D045D693E666AD3994ADAD"",""assignmentId"":""4bbd3852-fd11-4f3d-ae5e-11baa6e7c9c6"",""projectId"":""e9cc2542-c7dc-4d8f-b94f-d088ad8989d1""}","https://test12345.live/?part=2&participantId=53BE65A0D9D045D693E666AD3994ADAD&assignmentId=4bbd3852-fd11-4f3d-ae5e-11baa6e7c9c6&projectId=e9cc2542-c7dc-4d8f-b94f-d088ad8989d1","53BE65A0D9D045D693E666AD3994ADAD-2025-05-16-18-14-43","","","41f83d6674d80e846904b67271701c519ca8e7bf0e851cf73e8e26559b4a98ef","","","",""
"","","","","","html-audio-response","5","56273","0.0-4.0-1.0","53BE65A0D9D045D693E666AD3994ADAD","53BE65A0D9D045D693E666AD3994ADAD","4bbd3852-fd11-4f3d-ae5e-11baa6e7c9c6","e9cc2542-c7dc-4d8f-b94f-d088ad8989d1","{""part"":""2"",""participantId"":""53BE65A0D9D045D693E666AD3994ADAD"",""assignmentId"":""4bbd3852-fd11-4f3d-ae5e-11baa6e7c9c6"",""projectId"":""e9cc2542-c7dc-4d8f-b94f-d088ad8989d1""}","https://test12345.live/?part=2&participantId=53BE65A0D9D045D693E666AD3994ADAD&assignmentId=4bbd3852-fd11-4f3d-ae5e-11baa6e7c9c6&projectId=e9cc2542-c7dc-4d8f-b94f-d088ad8989d1","53BE65A0D9D045D693E666AD3994ADAD-2025-05-16-18-14-43","","4767","","<span style=""color: red; font-size: 24px""> NOW RECORDING</span>
        <p>Please test Microphone</p>","","3",""
"","","","","","html-button-response","6","57767","0.0-4.0-2.0","53BE65A0D9D045D693E666AD3994ADAD","53BE65A0D9D045D693E666AD3994ADAD","4bbd3852-fd11-4f3d-ae5e-11baa6e7c9c6","e9cc2542-c7dc-4d8f-b94f-d088ad8989d1","{""part"":""2"",""participantId"":""53BE65A0D9D045D693E666AD3994ADAD"",""assignmentId"":""4bbd3852-fd11-4f3d-ae5e-11baa6e7c9c6"",""projectId"":""e9cc2542-c7dc-4d8f-b94f-d088ad8989d1""}","https://test12345.live/?part=2&participantId=53BE65A0D9D045D693E666AD3994ADAD&assignmentId=4bbd3852-fd11-4f3d-ae5e-11baa6e7c9c6&projectId=e9cc2542-c7dc-4d8f-b94f-d088ad8989d1","53BE65A0D9D045D693E666AD3994ADAD-2025-05-16-18-14-43","","1492","","<p style=""font-size:48px; color:red;"">Is Microphone OK?</p>","1","",""
"","","","","","instructions","7","89746","0.0-5.0","53BE65A0D9D045D693E666AD3994ADAD","53BE65A0D9D045D693E666AD3994ADAD","4bbd3852-fd11-4f3d-ae5e-11baa6e7c9c6","e9cc2542-c7dc-4d8f-b94f-d088ad8989d1","{""part"":""2"",""participantId"":""53BE65A0D9D045D693E666AD3994ADAD"",""assignmentId"":""4bbd3852-fd11-4f3d-ae5e-11baa6e7c9c6"",""projectId"":""e9cc2542-c7dc-4d8f-b94f-d088ad8989d1""}","https://test12345.live/?part=2&participantId=53BE65A0D9D045D693E666AD3994ADAD&assignmentId=4bbd3852-fd11-4f3d-ae5e-11baa6e7c9c6&projectId=e9cc2542-c7dc-4d8f-b94f-d088ad8989d1","53BE65A0D9D045D693E666AD3994ADAD-2025-05-16-18-14-43","[{""page_index"":0,""viewing_time"":993},{""page_index"":1,""viewing_time"":4888},{""page_index"":2,""viewing_time"":26097}]","31978","","","","",""
"","","","","","image-button-response","8","95754","0.0-6.0-0.0","53BE65A0D9D045D693E666AD3994ADAD","53BE65A0D9D045D693E666AD3994ADAD","4bbd3852-fd11-4f3d-ae5e-11baa6e7c9c6","e9cc2542-c7dc-4d8f-b94f-d088ad8989d1","{""part"":""2"",""participantId"":""53BE65A0D9D045D693E666AD3994ADAD"",""assignmentId"":""4bbd3852-fd11-4f3d-ae5e-11baa6e7c9c6"",""projectId"":""e9cc2542-c7dc-4d8f-b94f-d088ad8989d1""}","https://test12345.live/?part=2&participantId=53BE65A0D9D045D693E666AD3994ADAD&assignmentId=4bbd3852-fd11-4f3d-ae5e-11baa6e7c9c6&projectId=e9cc2542-c7dc-4d8f-b94f-d088ad8989d1","53BE65A0D9D045D693E666AD3994ADAD-2025-05-16-18-14-43","","null","","images/instructions/movie_0.png","null","",""
"","","","","","html-audio-response","9","111104","0.0-7.0","53BE65A0D9D045D693E666AD3994ADAD","53BE65A0D9D045D693E666AD3994ADAD","4bbd3852-fd11-4f3d-ae5e-11baa6e7c9c6","e9cc2542-c7dc-4d8f-b94f-d088ad8989d1","{""part"":""2"",""participantId"":""53BE65A0D9D045D693E666AD3994ADAD"",""assignmentId"":""4bbd3852-fd11-4f3d-ae5e-11baa6e7c9c6"",""projectId"":""e9cc2542-c7dc-4d8f-b94f-d088ad8989d1""}","https://test12345.live/?part=2&participantId=53BE65A0D9D045D693E666AD3994ADAD&assignmentId=4bbd3852-fd11-4f3d-ae5e-11baa6e7c9c6&projectId=e9cc2542-c7dc-4d8f-b94f-d088ad8989d1","53BE65A0D9D045D693E666AD3994ADAD-2025-05-16-18-14-43","","11244","","[""<span style=\""color: red; font-size: 24px\""> NOW RECORDING</span><p>Please say out loud all the images you saw in part 1 of the experiment, as many as you can remember. The images can be said in any order.</p>""]","","30",""
"","","","","","instructions","10","112147","0.0-8.0","53BE65A0D9D045D693E666AD3994ADAD","53BE65A0D9D045D693E666AD3994ADAD","4bbd3852-fd11-4f3d-ae5e-11baa6e7c9c6","e9cc2542-c7dc-4d8f-b94f-d088ad8989d1","{""part"":""2"",""participantId"":""53BE65A0D9D045D693E666AD3994ADAD"",""assignmentId"":""4bbd3852-fd11-4f3d-ae5e-11baa6e7c9c6"",""projectId"":""e9cc2542-c7dc-4d8f-b94f-d088ad8989d1""}","https://test12345.live/?part=2&participantId=53BE65A0D9D045D693E666AD3994ADAD&assignmentId=4bbd3852-fd11-4f3d-ae5e-11baa6e7c9c6&projectId=e9cc2542-c7dc-4d8f-b94f-d088ad8989d1","53BE65A0D9D045D693E666AD3994ADAD-2025-05-16-18-14-43","[{""page_index"":0,""viewing_time"":1038}]","1038","","","","",""
"","","","","","image-button-response","11","118156","0.0-9.0-0.0","53BE65A0D9D045D693E666AD3994ADAD","53BE65A0D9D045D693E666AD3994ADAD","4bbd3852-fd11-4f3d-ae5e-11baa6e7c9c6","e9cc2542-c7dc-4d8f-b94f-d088ad8989d1","{""part"":""2"",""participantId"":""53BE65A0D9D045D693E666AD3994ADAD"",""assignmentId"":""4bbd3852-fd11-4f3d-ae5e-11baa6e7c9c6"",""projectId"":""e9cc2542-c7dc-4d8f-b94f-d088ad8989d1""}","https://test12345.live/?part=2&participantId=53BE65A0D9D045D693E666AD3994ADAD&assignmentId=4bbd3852-fd11-4f3d-ae5e-11baa6e7c9c6&projectId=e9cc2542-c7dc-4d8f-b94f-d088ad8989d1","53BE65A0D9D045D693E666AD3994ADAD-2025-05-16-18-14-43","","null","","images/causal_sequence/coin_causal/coin_causal_0.png","null","",""
"","","","","","html-audio-response","12","156890","0.0-10.0","53BE65A0D9D045D693E666AD3994ADAD","53BE65A0D9D045D693E666AD3994ADAD","4bbd3852-fd11-4f3d-ae5e-11baa6e7c9c6","e9cc2542-c7dc-4d8f-b94f-d088ad8989d1","{""part"":""2"",""participantId"":""53BE65A0D9D045D693E666AD3994ADAD"",""assignmentId"":""4bbd3852-fd11-4f3d-ae5e-11baa6e7c9c6"",""projectId"":""e9cc2542-c7dc-4d8f-b94f-d088ad8989d1""}","https://test12345.live/?part=2&participantId=53BE65A0D9D045D693E666AD3994ADAD&assignmentId=4bbd3852-fd11-4f3d-ae5e-11baa6e7c9c6&projectId=e9cc2542-c7dc-4d8f-b94f-d088ad8989d1","53BE65A0D9D045D693E666AD3994ADAD-2025-05-16-18-14-43","","37634","","[""<span style=\""color: red; font-size: 24px\""> NOW RECORDING</span><p>Please say out loud all the images you saw in part 1 of the experiment, as many as you can remember. The images can be said in any order.</p>""]","","1","coin_causal"
"","","","","","image-button-response","13","162901","0.0-11.0-0.0","53BE65A0D9D045D693E666AD3994ADAD","53BE65A0D9D045D693E666AD3994ADAD","4bbd3852-fd11-4f3d-ae5e-11baa6e7c9c6","e9cc2542-c7dc-4d8f-b94f-d088ad8989d1","{""part"":""2"",""participantId"":""53BE65A0D9D045D693E666AD3994ADAD"",""assignmentId"":""4bbd3852-fd11-4f3d-ae5e-11baa6e7c9c6"",""projectId"":""e9cc2542-c7dc-4d8f-b94f-d088ad8989d1""}","https://test12345.live/?part=2&participantId=53BE65A0D9D045D693E666AD3994ADAD&assignmentId=4bbd3852-fd11-4f3d-ae5e-11baa6e7c9c6&projectId=e9cc2542-c7dc-4d8f-b94f-d088ad8989d1","53BE65A0D9D045D693E666AD3994ADAD-2025-05-16-18-14-43","","null","","images/semantic_sequence/physical_activity_semantic/physical_activity_semantic_0.png","null","",""
"","","","","","html-audio-response","14","186478","0.0-12.0","53BE65A0D9D045D693E666AD3994ADAD","53BE65A0D9D045D693E666AD3994ADAD","4bbd3852-fd11-4f3d-ae5e-11baa6e7c9c6","e9cc2542-c7dc-4d8f-b94f-d088ad8989d1","{""part"":""2"",""participantId"":""53BE65A0D9D045D693E666AD3994ADAD"",""assignmentId"":""4bbd3852-fd11-4f3d-ae5e-11baa6e7c9c6"",""projectId"":""e9cc2542-c7dc-4d8f-b94f-d088ad8989d1""}","https://test12345.live/?part=2&participantId=53BE65A0D9D045D693E666AD3994ADAD&assignmentId=4bbd3852-fd11-4f3d-ae5e-11baa6e7c9c6&projectId=e9cc2542-c7dc-4d8f-b94f-d088ad8989d1","53BE65A0D9D045D693E666AD3994ADAD-2025-05-16-18-14-43","","22829","","[""<span style=\""color: red; font-size: 24px\""> NOW RECORDING</span><p>Please say out loud all the images you saw in part 1 of the experiment, as many as you can remember. The images can be said in any order.</p>""]","","2","physical_activity_semantic"
"","","","","","image-button-response","15","192489","0.0-13.0-0.0","53BE65A0D9D045D693E666AD3994ADAD","53BE65A0D9D045D693E666AD3994ADAD","4bbd3852-fd11-4f3d-ae5e-11baa6e7c9c6","e9cc2542-c7dc-4d8f-b94f-d088ad8989d1","{""part"":""2"",""participantId"":""53BE65A0D9D045D693E666AD3994ADAD"",""assignmentId"":""4bbd3852-fd11-4f3d-ae5e-11baa6e7c9c6"",""projectId"":""e9cc2542-c7dc-4d8f-b94f-d088ad8989d1""}","https://test12345.live/?part=2&participantId=53BE65A0D9D045D693E666AD3994ADAD&assignmentId=4bbd3852-fd11-4f3d-ae5e-11baa6e7c9c6&projectId=e9cc2542-c7dc-4d8f-b94f-d088ad8989d1","53BE65A0D9D045D693E666AD3994ADAD-2025-05-16-18-14-43","","null","","images/causal_sequence/the_performance_causal/the_performance_causal_0.png","null","",""
"","","","","","html-audio-response","16","221343","0.0-14.0","53BE65A0D9D045D693E666AD3994ADAD","53BE65A0D9D045D693E666AD3994ADAD","4bbd3852-fd11-4f3d-ae5e-11baa6e7c9c6","e9cc2542-c7dc-4d8f-b94f-d088ad8989d1","{""part"":""2"",""participantId"":""53BE65A0D9D045D693E666AD3994ADAD"",""assignmentId"":""4bbd3852-fd11-4f3d-ae5e-11baa6e7c9c6"",""projectId"":""e9cc2542-c7dc-4d8f-b94f-d088ad8989d1""}","https://test12345.live/?part=2&participantId=53BE65A0D9D045D693E666AD3994ADAD&assignmentId=4bbd3852-fd11-4f3d-ae5e-11baa6e7c9c6&projectId=e9cc2542-c7dc-4d8f-b94f-d088ad8989d1","53BE65A0D9D045D693E666AD3994ADAD-2025-05-16-18-14-43","","28079","","[""<span style=\""color: red; font-size: 24px\""> NOW RECORDING</span><p>Please say out loud all the images you saw in part 1 of the experiment, as many as you can remember. The images can be said in any order.</p>""]","","1","the_performance_causal"
"","","","","","image-button-response","17","227358","0.0-15.0-0.0","53BE65A0D9D045D693E666AD3994ADAD","53BE65A0D9D045D693E666AD3994ADAD","4bbd3852-fd11-4f3d-ae5e-11baa6e7c9c6","e9cc2542-c7dc-4d8f-b94f-d088ad8989d1","{""part"":""2"",""participantId"":""53BE65A0D9D045D693E666AD3994ADAD"",""assignmentId"":""4bbd3852-fd11-4f3d-ae5e-11baa6e7c9c6"",""projectId"":""e9cc2542-c7dc-4d8f-b94f-d088ad8989d1""}","https://test12345.live/?part=2&participantId=53BE65A0D9D045D693E666AD3994ADAD&assignmentId=4bbd3852-fd11-4f3d-ae5e-11baa6e7c9c6&projectId=e9cc2542-c7dc-4d8f-b94f-d088ad8989d1","53BE65A0D9D045D693E666AD3994ADAD-2025-05-16-18-14-43","","null","","images/semantic_sequence/exploring_nature_semantic/exploring_nature_semantic_0.png","null","",""
"","","","","","html-audio-response","18","235423","0.0-16.0","53BE65A0D9D045D693E666AD3994ADAD","53BE65A0D9D045D693E666AD3994ADAD","4bbd3852-fd11-4f3d-ae5e-11baa6e7c9c6","e9cc2542-c7dc-4d8f-b94f-d088ad8989d1","{""part"":""2"",""participantId"":""53BE65A0D9D045D693E666AD3994ADAD"",""assignmentId"":""4bbd3852-fd11-4f3d-ae5e-11baa6e7c9c6"",""projectId"":""e9cc2542-c7dc-4d8f-b94f-d088ad8989d1""}","https://test12345.live/?part=2&participantId=53BE65A0D9D045D693E666AD3994ADAD&assignmentId=4bbd3852-fd11-4f3d-ae5e-11baa6e7c9c6&projectId=e9cc2542-c7dc-4d8f-b94f-d088ad8989d1","53BE65A0D9D045D693E666AD3994ADAD-2025-05-16-18-14-43","","7194","","[""<span style=\""color: red; font-size: 24px\""> NOW RECORDING</span><p>Please say out loud all the images you saw in part 1 of the experiment, as many as you can remember. The images can be said in any order.</p>""]","","32","exploring_nature_semantic"
"","","","","","image-button-response","19","241430","0.0-17.0-0.0","53BE65A0D9D045D693E666AD3994ADAD","53BE65A0D9D045D693E666AD3994ADAD","4bbd3852-fd11-4f3d-ae5e-11baa6e7c9c6","e9cc2542-c7dc-4d8f-b94f-d088ad8989d1","{""part"":""2"",""participantId"":""53BE65A0D9D045D693E666AD3994ADAD"",""assignmentId"":""4bbd3852-fd11-4f3d-ae5e-11baa6e7c9c6"",""projectId"":""e9cc2542-c7dc-4d8f-b94f-d088ad8989d1""}","https://test12345.live/?part=2&participantId=53BE65A0D9D045D693E666AD3994ADAD&assignmentId=4bbd3852-fd11-4f3d-ae5e-11baa6e7c9c6&projectId=e9cc2542-c7dc-4d8f-b94f-d088ad8989d1","53BE65A0D9D045D693E666AD3994ADAD-2025-05-16-18-14-43","","null","","images/schematic_sequence/dinner_party_scheme/dinner_party_scheme_0.png","null","",""
"","","","","","html-audio-response","20","279130","0.0-18.0","53BE65A0D9D045D693E666AD3994ADAD","53BE65A0D9D045D693E666AD3994ADAD","4bbd3852-fd11-4f3d-ae5e-11baa6e7c9c6","e9cc2542-c7dc-4d8f-b94f-d088ad8989d1","{""part"":""2"",""participantId"":""53BE65A0D9D045D693E666AD3994ADAD"",""assignmentId"":""4bbd3852-fd11-4f3d-ae5e-11baa6e7c9c6"",""projectId"":""e9cc2542-c7dc-4d8f-b94f-d088ad8989d1""}","https://test12345.live/?part=2&participantId=53BE65A0D9D045D693E666AD3994ADAD&assignmentId=4bbd3852-fd11-4f3d-ae5e-11baa6e7c9c6&projectId=e9cc2542-c7dc-4d8f-b94f-d088ad8989d1","53BE65A0D9D045D693E666AD3994ADAD-2025-05-16-18-14-43","","36969","","[""<span style=\""color: red; font-size: 24px\""> NOW RECORDING</span><p>Please say out loud all the images you saw in part 1 of the experiment, as many as you can remember. The images can be said in any order.</p>""]","","2","dinner_party_scheme"
"","","","","","image-button-response","21","285144","0.0-19.0-0.0","53BE65A0D9D045D693E666AD3994ADAD","53BE65A0D9D045D693E666AD3994ADAD","4bbd3852-fd11-4f3d-ae5e-11baa6e7c9c6","e9cc2542-c7dc-4d8f-b94f-d088ad8989d1","{""part"":""2"",""participantId"":""53BE65A0D9D045D693E666AD3994ADAD"",""assignmentId"":""4bbd3852-fd11-4f3d-ae5e-11baa6e7c9c6"",""projectId"":""e9cc2542-c7dc-4d8f-b94f-d088ad8989d1""}","https://test12345.live/?part=2&participantId=53BE65A0D9D045D693E666AD3994ADAD&assignmentId=4bbd3852-fd11-4f3d-ae5e-11baa6e7c9c6&projectId=e9cc2542-c7dc-4d8f-b94f-d088ad8989d1","53BE65A0D9D045D693E666AD3994ADAD-2025-05-16-18-14-43","","null","","images/semantic_sequence/visiting_cities_semantic/visiting_cities_semantic_0.png","null","",""
"","","","","","html-audio-response","22","293563","0.0-20.0","53BE65A0D9D045D693E666AD3994ADAD","53BE65A0D9D045D693E666AD3994ADAD","4bbd3852-fd11-4f3d-ae5e-11baa6e7c9c6","e9cc2542-c7dc-4d8f-b94f-d088ad8989d1","{""part"":""2"",""participantId"":""53BE65A0D9D045D693E666AD3994ADAD"",""assignmentId"":""4bbd3852-fd11-4f3d-ae5e-11baa6e7c9c6"",""projectId"":""e9cc2542-c7dc-4d8f-b94f-d088ad8989d1""}","https://test12345.live/?part=2&participantId=53BE65A0D9D045D693E666AD3994ADAD&assignmentId=4bbd3852-fd11-4f3d-ae5e-11baa6e7c9c6&projectId=e9cc2542-c7dc-4d8f-b94f-d088ad8989d1","53BE65A0D9D045D693E666AD3994ADAD-2025-05-16-18-14-43","","7595","","[""<span style=\""color: red; font-size: 24px\""> NOW RECORDING</span><p>Please say out loud all the images you saw in part 1 of the experiment, as many as you can remember. The images can be said in any order.</p>""]","","31","visiting_cities_semantic"
"","","","","","image-button-response","23","299573","0.0-21.0-0.0","53BE65A0D9D045D693E666AD3994ADAD","53BE65A0D9D045D693E666AD3994ADAD","4bbd3852-fd11-4f3d-ae5e-11baa6e7c9c6","e9cc2542-c7dc-4d8f-b94f-d088ad8989d1","{""part"":""2"",""participantId"":""53BE65A0D9D045D693E666AD3994ADAD"",""assignmentId"":""4bbd3852-fd11-4f3d-ae5e-11baa6e7c9c6"",""projectId"":""e9cc2542-c7dc-4d8f-b94f-d088ad8989d1""}","https://test12345.live/?part=2&participantId=53BE65A0D9D045D693E666AD3994ADAD&assignmentId=4bbd3852-fd11-4f3d-ae5e-11baa6e7c9c6&projectId=e9cc2542-c7dc-4d8f-b94f-d088ad8989d1","53BE65A0D9D045D693E666AD3994ADAD-2025-05-16-18-14-43","","null","","images/schematic_sequence/interview_scheme/interview_scheme_0.png","null","",""
"","","","","","html-audio-response","24","334120","0.0-22.0","53BE65A0D9D045D693E666AD3994ADAD","53BE65A0D9D045D693E666AD3994ADAD","4bbd3852-fd11-4f3d-ae5e-11baa6e7c9c6","e9cc2542-c7dc-4d8f-b94f-d088ad8989d1","{""part"":""2"",""participantId"":""53BE65A0D9D045D693E666AD3994ADAD"",""assignmentId"":""4bbd3852-fd11-4f3d-ae5e-11baa6e7c9c6"",""projectId"":""e9cc2542-c7dc-4d8f-b94f-d088ad8989d1""}","https://test12345.live/?part=2&participantId=53BE65A0D9D045D693E666AD3994ADAD&assignmentId=4bbd3852-fd11-4f3d-ae5e-11baa6e7c9c6&projectId=e9cc2542-c7dc-4d8f-b94f-d088ad8989d1","53BE65A0D9D045D693E666AD3994ADAD-2025-05-16-18-14-43","","33728","","[""<span style=\""color: red; font-size: 24px\""> NOW RECORDING</span><p>Please say out loud all the images you saw in part 1 of the experiment, as many as you can remember. The images can be said in any order.</p>""]","","1","interview_scheme"
"","","","","","image-button-response","25","340132","0.0-23.0-0.0","53BE65A0D9D045D693E666AD3994ADAD","53BE65A0D9D045D693E666AD3994ADAD","4bbd3852-fd11-4f3d-ae5e-11baa6e7c9c6","e9cc2542-c7dc-4d8f-b94f-d088ad8989d1","{""part"":""2"",""participantId"":""53BE65A0D9D045D693E666AD3994ADAD"",""assignmentId"":""4bbd3852-fd11-4f3d-ae5e-11baa6e7c9c6"",""projectId"":""e9cc2542-c7dc-4d8f-b94f-d088ad8989d1""}","https://test12345.live/?part=2&participantId=53BE65A0D9D045D693E666AD3994ADAD&assignmentId=4bbd3852-fd11-4f3d-ae5e-11baa6e7c9c6&projectId=e9cc2542-c7dc-4d8f-b94f-d088ad8989d1","53BE65A0D9D045D693E666AD3994ADAD-2025-05-16-18-14-43","","null","","images/causal_sequence/dog_causal/dog_causal_0.png","null","",""
"","","","","","html-audio-response","26","346974","0.0-24.0","53BE65A0D9D045D693E666AD3994ADAD","53BE65A0D9D045D693E666AD3994ADAD","4bbd3852-fd11-4f3d-ae5e-11baa6e7c9c6","e9cc2542-c7dc-4d8f-b94f-d088ad8989d1","{""part"":""2"",""participantId"":""53BE65A0D9D045D693E666AD3994ADAD"",""assignmentId"":""4bbd3852-fd11-4f3d-ae5e-11baa6e7c9c6"",""projectId"":""e9cc2542-c7dc-4d8f-b94f-d088ad8989d1""}","https://test12345.live/?part=2&participantId=53BE65A0D9D045D693E666AD3994ADAD&assignmentId=4bbd3852-fd11-4f3d-ae5e-11baa6e7c9c6&projectId=e9cc2542-c7dc-4d8f-b94f-d088ad8989d1","53BE65A0D9D045D693E666AD3994ADAD-2025-05-16-18-14-43","","4670","","[""<span style=\""color: red; font-size: 24px\""> NOW RECORDING</span><p>Please say out loud all the images you saw in part 1 of the experiment, as many as you can remember. The images can be said in any order.</p>""]","","33","dog_causal"
"","","","","","image-button-response","27","352981","0.0-25.0-0.0","53BE65A0D9D045D693E666AD3994ADAD","53BE65A0D9D045D693E666AD3994ADAD","4bbd3852-fd11-4f3d-ae5e-11baa6e7c9c6","e9cc2542-c7dc-4d8f-b94f-d088ad8989d1","{""part"":""2"",""participantId"":""53BE65A0D9D045D693E666AD3994ADAD"",""assignmentId"":""4bbd3852-fd11-4f3d-ae5e-11baa6e7c9c6"",""projectId"":""e9cc2542-c7dc-4d8f-b94f-d088ad8989d1""}","https://test12345.live/?part=2&participantId=53BE65A0D9D045D693E666AD3994ADAD&assignmentId=4bbd3852-fd11-4f3d-ae5e-11baa6e7c9c6&projectId=e9cc2542-c7dc-4d8f-b94f-d088ad8989d1","53BE65A0D9D045D693E666AD3994ADAD-2025-05-16-18-14-43","","null","","images/schematic_sequence/supermarket_scheme/supermarket_scheme_0.png","null","",""
"","","","","","html-audio-response","28","369188","0.0-26.0","53BE65A0D9D045D693E666AD3994ADAD","53BE65A0D9D045D693E666AD3994ADAD","4bbd3852-fd11-4f3d-ae5e-11baa6e7c9c6","e9cc2542-c7dc-4d8f-b94f-d088ad8989d1","{""part"":""2"",""participantId"":""53BE65A0D9D045D693E666AD3994ADAD"",""assignmentId"":""4bbd3852-fd11-4f3d-ae5e-11baa6e7c9c6"",""projectId"":""e9cc2542-c7dc-4d8f-b94f-d088ad8989d1""}","https://test12345.live/?part=2&participantId=53BE65A0D9D045D693E666AD3994ADAD&assignmentId=4bbd3852-fd11-4f3d-ae5e-11baa6e7c9c6&projectId=e9cc2542-c7dc-4d8f-b94f-d088ad8989d1","53BE65A0D9D045D693E666AD3994ADAD-2025-05-16-18-14-43","","15573","","[""<span style=\""color: red; font-size: 24px\""> NOW RECORDING</span><p>Please say out loud all the images you saw in part 1 of the experiment, as many as you can remember. The images can be said in any order.</p>""]","","1","supermarket_scheme"
"","","","","","image-button-response","29","375200","0.0-27.0-0.0","53BE65A0D9D045D693E666AD3994ADAD","53BE65A0D9D045D693E666AD3994ADAD","4bbd3852-fd11-4f3d-ae5e-11baa6e7c9c6","e9cc2542-c7dc-4d8f-b94f-d088ad8989d1","{""part"":""2"",""participantId"":""53BE65A0D9D045D693E666AD3994ADAD"",""assignmentId"":""4bbd3852-fd11-4f3d-ae5e-11baa6e7c9c6"",""projectId"":""e9cc2542-c7dc-4d8f-b94f-d088ad8989d1""}","https://test12345.live/?part=2&participantId=53BE65A0D9D045D693E666AD3994ADAD&assignmentId=4bbd3852-fd11-4f3d-ae5e-11baa6e7c9c6&projectId=e9cc2542-c7dc-4d8f-b94f-d088ad8989d1","53BE65A0D9D045D693E666AD3994ADAD-2025-05-16-18-14-43","","null","","images/causal_sequence/saving_a_cat_causal/saving_a_cat_causal_0.png","null","",""
"","","","","","html-audio-response","30","409072","0.0-28.0","53BE65A0D9D045D693E666AD3994ADAD","53BE65A0D9D045D693E666AD3994ADAD","4bbd3852-fd11-4f3d-ae5e-11baa6e7c9c6","e9cc2542-c7dc-4d8f-b94f-d088ad8989d1","{""part"":""2"",""participantId"":""53BE65A0D9D045D693E666AD3994ADAD"",""assignmentId"":""4bbd3852-fd11-4f3d-ae5e-11baa6e7c9c6"",""projectId"":""e9cc2542-c7dc-4d8f-b94f-d088ad8989d1""}","https://test12345.live/?part=2&participantId=53BE65A0D9D045D693E666AD3994ADAD&assignmentId=4bbd3852-fd11-4f3d-ae5e-11baa6e7c9c6&projectId=e9cc2542-c7dc-4d8f-b94f-d088ad8989d1","53BE65A0D9D045D693E666AD3994ADAD-2025-05-16-18-14-43","","33088","","[""<span style=\""color: red; font-size: 24px\""> NOW RECORDING</span><p>Please say out loud all the images you saw in part 1 of the experiment, as many as you can remember. The images can be said in any order.</p>""]","","1","saving_a_cat_causal"
"","","","","","image-button-response","31","415083","0.0-29.0-0.0","53BE65A0D9D045D693E666AD3994ADAD","53BE65A0D9D045D693E666AD3994ADAD","4bbd3852-fd11-4f3d-ae5e-11baa6e7c9c6","e9cc2542-c7dc-4d8f-b94f-d088ad8989d1","{""part"":""2"",""participantId"":""53BE65A0D9D045D693E666AD3994ADAD"",""assignmentId"":""4bbd3852-fd11-4f3d-ae5e-11baa6e7c9c6"",""projectId"":""e9cc2542-c7dc-4d8f-b94f-d088ad8989d1""}","https://test12345.live/?part=2&participantId=53BE65A0D9D045D693E666AD3994ADAD&assignmentId=4bbd3852-fd11-4f3d-ae5e-11baa6e7c9c6&projectId=e9cc2542-c7dc-4d8f-b94f-d088ad8989d1","53BE65A0D9D045D693E666AD3994ADAD-2025-05-16-18-14-43","","null","","images/semantic_sequence/housework_semantic/housework_semantic_0.png","null","",""
"","","","","","html-audio-response","32","437403","0.0-30.0","53BE65A0D9D045D693E666AD3994ADAD","53BE65A0D9D045D693E666AD3994ADAD","4bbd3852-fd11-4f3d-ae5e-11baa6e7c9c6","e9cc2542-c7dc-4d8f-b94f-d088ad8989d1","{""part"":""2"",""participantId"":""53BE65A0D9D045D693E666AD3994ADAD"",""assignmentId"":""4bbd3852-fd11-4f3d-ae5e-11baa6e7c9c6"",""projectId"":""e9cc2542-c7dc-4d8f-b94f-d088ad8989d1""}","https://test12345.live/?part=2&participantId=53BE65A0D9D045D693E666AD3994ADAD&assignmentId=4bbd3852-fd11-4f3d-ae5e-11baa6e7c9c6&projectId=e9cc2542-c7dc-4d8f-b94f-d088ad8989d1","53BE65A0D9D045D693E666AD3994ADAD-2025-05-16-18-14-43","","16788","","[""<span style=\""color: red; font-size: 24px\""> NOW RECORDING</span><p>Please say out loud all the images you saw in part 1 of the experiment, as many as you can remember. The images can be said in any order.</p>""]","","1","housework_semantic"
"","","","","","image-button-response","33","443423","0.0-31.0-0.0","53BE65A0D9D045D693E666AD3994ADAD","53BE65A0D9D045D693E666AD3994ADAD","4bbd3852-fd11-4f3d-ae5e-11baa6e7c9c6","e9cc2542-c7dc-4d8f-b94f-d088ad8989d1","{""part"":""2"",""participantId"":""53BE65A0D9D045D693E666AD3994ADAD"",""assignmentId"":""4bbd3852-fd11-4f3d-ae5e-11baa6e7c9c6"",""projectId"":""e9cc2542-c7dc-4d8f-b94f-d088ad8989d1""}","https://test12345.live/?part=2&participantId=53BE65A0D9D045D693E666AD3994ADAD&assignmentId=4bbd3852-fd11-4f3d-ae5e-11baa6e7c9c6&projectId=e9cc2542-c7dc-4d8f-b94f-d088ad8989d1","53BE65A0D9D045D693E666AD3994ADAD-2025-05-16-18-14-43","","null","","images/semantic_sequence/self_care_activities_semantic/self_care_activities_semantic_0.png","null","",""
"","","","","","html-audio-response","34","454382","0.0-32.0","53BE65A0D9D045D693E666AD3994ADAD","53BE65A0D9D045D693E666AD3994ADAD","4bbd3852-fd11-4f3d-ae5e-11baa6e7c9c6","e9cc2542-c7dc-4d8f-b94f-d088ad8989d1","{""part"":""2"",""participantId"":""53BE65A0D9D045D693E666AD3994ADAD"",""assignmentId"":""4bbd3852-fd11-4f3d-ae5e-11baa6e7c9c6"",""projectId"":""e9cc2542-c7dc-4d8f-b94f-d088ad8989d1""}","https://test12345.live/?part=2&participantId=53BE65A0D9D045D693E666AD3994ADAD&assignmentId=4bbd3852-fd11-4f3d-ae5e-11baa6e7c9c6&projectId=e9cc2542-c7dc-4d8f-b94f-d088ad8989d1","53BE65A0D9D045D693E666AD3994ADAD-2025-05-16-18-14-43","","10300","","[""<span style=\""color: red; font-size: 24px\""> NOW RECORDING</span><p>Please say out loud all the images you saw in part 1 of the experiment, as many as you can remember. The images can be said in any order.</p>""]","","26","self_care_activities_semantic"
"","","","","","image-button-response","35","460392","0.0-33.0-0.0","53BE65A0D9D045D693E666AD3994ADAD","53BE65A0D9D045D693E666AD3994ADAD","4bbd3852-fd11-4f3d-ae5e-11baa6e7c9c6","e9cc2542-c7dc-4d8f-b94f-d088ad8989d1","{""part"":""2"",""participantId"":""53BE65A0D9D045D693E666AD3994ADAD"",""assignmentId"":""4bbd3852-fd11-4f3d-ae5e-11baa6e7c9c6"",""projectId"":""e9cc2542-c7dc-4d8f-b94f-d088ad8989d1""}","https://test12345.live/?part=2&participantId=53BE65A0D9D045D693E666AD3994ADAD&assignmentId=4bbd3852-fd11-4f3d-ae5e-11baa6e7c9c6&projectId=e9cc2542-c7dc-4d8f-b94f-d088ad8989d1","53BE65A0D9D045D693E666AD3994ADAD-2025-05-16-18-14-43","","null","","images/semantic_sequence/maintaining_a_car_semantic/maintaining_a_car_semantic_0.png","null","",""
"","","","","","html-audio-response","36","472475","0.0-34.0","53BE65A0D9D045D693E666AD3994ADAD","53BE65A0D9D045D693E666AD3994ADAD","4bbd3852-fd11-4f3d-ae5e-11baa6e7c9c6","e9cc2542-c7dc-4d8f-b94f-d088ad8989d1","{""part"":""2"",""participantId"":""53BE65A0D9D045D693E666AD3994ADAD"",""assignmentId"":""4bbd3852-fd11-4f3d-ae5e-11baa6e7c9c6"",""projectId"":""e9cc2542-c7dc-4d8f-b94f-d088ad8989d1""}","https://test12345.live/?part=2&participantId=53BE65A0D9D045D693E666AD3994ADAD&assignmentId=4bbd3852-fd11-4f3d-ae5e-11baa6e7c9c6&projectId=e9cc2542-c7dc-4d8f-b94f-d088ad8989d1","53BE65A0D9D045D693E666AD3994ADAD-2025-05-16-18-14-43","","11402","","[""<span style=\""color: red; font-size: 24px\""> NOW RECORDING</span><p>Please say out loud all the images you saw in part 1 of the experiment, as many as you can remember. The images can be said in any order.</p>""]","","1","maintaining_a_car_semantic"
"","","","","","image-button-response","37","478484","0.0-35.0-0.0","53BE65A0D9D045D693E666AD3994ADAD","53BE65A0D9D045D693E666AD3994ADAD","4bbd3852-fd11-4f3d-ae5e-11baa6e7c9c6","e9cc2542-c7dc-4d8f-b94f-d088ad8989d1","{""part"":""2"",""participantId"":""53BE65A0D9D045D693E666AD3994ADAD"",""assignmentId"":""4bbd3852-fd11-4f3d-ae5e-11baa6e7c9c6"",""projectId"":""e9cc2542-c7dc-4d8f-b94f-d088ad8989d1""}","https://test12345.live/?part=2&participantId=53BE65A0D9D045D693E666AD3994ADAD&assignmentId=4bbd3852-fd11-4f3d-ae5e-11baa6e7c9c6&projectId=e9cc2542-c7dc-4d8f-b94f-d088ad8989d1","53BE65A0D9D045D693E666AD3994ADAD-2025-05-16-18-14-43","","null","","images/schematic_sequence/restaurant_scheme/restaurant_scheme_0.png","null","",""
"","","","","","html-audio-response","38","498436","0.0-36.0","53BE65A0D9D045D693E666AD3994ADAD","53BE65A0D9D045D693E666AD3994ADAD","4bbd3852-fd11-4f3d-ae5e-11baa6e7c9c6","e9cc2542-c7dc-4d8f-b94f-d088ad8989d1","{""part"":""2"",""participantId"":""53BE65A0D9D045D693E666AD3994ADAD"",""assignmentId"":""4bbd3852-fd11-4f3d-ae5e-11baa6e7c9c6"",""projectId"":""e9cc2542-c7dc-4d8f-b94f-d088ad8989d1""}","https://test12345.live/?part=2&participantId=53BE65A0D9D045D693E666AD3994ADAD&assignmentId=4bbd3852-fd11-4f3d-ae5e-11baa6e7c9c6&projectId=e9cc2542-c7dc-4d8f-b94f-d088ad8989d1","53BE65A0D9D045D693E666AD3994ADAD-2025-05-16-18-14-43","","19294","","[""<span style=\""color: red; font-size: 24px\""> NOW RECORDING</span><p>Please say out loud all the images you saw in part 1 of the experiment, as many as you can remember. The images can be said in any order.</p>""]","","33","restaurant_scheme"
"","","","","","image-button-response","39","504444","0.0-37.0-0.0","53BE65A0D9D045D693E666AD3994ADAD","53BE65A0D9D045D693E666AD3994ADAD","4bbd3852-fd11-4f3d-ae5e-11baa6e7c9c6","e9cc2542-c7dc-4d8f-b94f-d088ad8989d1","{""part"":""2"",""participantId"":""53BE65A0D9D045D693E666AD3994ADAD"",""assignmentId"":""4bbd3852-fd11-4f3d-ae5e-11baa6e7c9c6"",""projectId"":""e9cc2542-c7dc-4d8f-b94f-d088ad8989d1""}","https://test12345.live/?part=2&participantId=53BE65A0D9D045D693E666AD3994ADAD&assignmentId=4bbd3852-fd11-4f3d-ae5e-11baa6e7c9c6&projectId=e9cc2542-c7dc-4d8f-b94f-d088ad8989d1","53BE65A0D9D045D693E666AD3994ADAD-2025-05-16-18-14-43","","null","","images/causal_sequence/museum_causal/museum_causal_0.png","null","",""
"","","","","","html-audio-response","40","508861","0.0-38.0","53BE65A0D9D045D693E666AD3994ADAD","53BE65A0D9D045D693E666AD3994ADAD","4bbd3852-fd11-4f3d-ae5e-11baa6e7c9c6","e9cc2542-c7dc-4d8f-b94f-d088ad8989d1","{""part"":""2"",""participantId"":""53BE65A0D9D045D693E666AD3994ADAD"",""assignmentId"":""4bbd3852-fd11-4f3d-ae5e-11baa6e7c9c6"",""projectId"":""e9cc2542-c7dc-4d8f-b94f-d088ad8989d1""}","https://test12345.live/?part=2&participantId=53BE65A0D9D045D693E666AD3994ADAD&assignmentId=4bbd3852-fd11-4f3d-ae5e-11baa6e7c9c6&projectId=e9cc2542-c7dc-4d8f-b94f-d088ad8989d1","53BE65A0D9D045D693E666AD3994ADAD-2025-05-16-18-14-43","","3373","","[""<span style=\""color: red; font-size: 24px\""> NOW RECORDING</span><p>Please say out loud all the images you saw in part 1 of the experiment, as many as you can remember. The images can be said in any order.</p>""]","","34","museum_causal"
"","","","","","image-button-response","41","514869","0.0-39.0-0.0","53BE65A0D9D045D693E666AD3994ADAD","53BE65A0D9D045D693E666AD3994ADAD","4bbd3852-fd11-4f3d-ae5e-11baa6e7c9c6","e9cc2542-c7dc-4d8f-b94f-d088ad8989d1","{""part"":""2"",""participantId"":""53BE65A0D9D045D693E666AD3994ADAD"",""assignmentId"":""4bbd3852-fd11-4f3d-ae5e-11baa6e7c9c6"",""projectId"":""e9cc2542-c7dc-4d8f-b94f-d088ad8989d1""}","https://test12345.live/?part=2&participantId=53BE65A0D9D045D693E666AD3994ADAD&assignmentId=4bbd3852-fd11-4f3d-ae5e-11baa6e7c9c6&projectId=e9cc2542-c7dc-4d8f-b94f-d088ad8989d1","53BE65A0D9D045D693E666AD3994ADAD-2025-05-16-18-14-43","","null","","images/semantic_sequence/cat_care_semantic/cat_care_semantic_0.png","null","",""
"","","","","","html-audio-response","42","531530","0.0-40.0","53BE65A0D9D045D693E666AD3994ADAD","53BE65A0D9D045D693E666AD3994ADAD","4bbd3852-fd11-4f3d-ae5e-11baa6e7c9c6","e9cc2542-c7dc-4d8f-b94f-d088ad8989d1","{""part"":""2"",""participantId"":""53BE65A0D9D045D693E666AD3994ADAD"",""assignmentId"":""4bbd3852-fd11-4f3d-ae5e-11baa6e7c9c6"",""projectId"":""e9cc2542-c7dc-4d8f-b94f-d088ad8989d1""}","https://test12345.live/?part=2&participantId=53BE65A0D9D045D693E666AD3994ADAD&assignmentId=4bbd3852-fd11-4f3d-ae5e-11baa6e7c9c6&projectId=e9cc2542-c7dc-4d8f-b94f-d088ad8989d1","53BE65A0D9D045D693E666AD3994ADAD-2025-05-16-18-14-43","","16088","","[""<span style=\""color: red; font-size: 24px\""> NOW RECORDING</span><p>Please say out loud all the images you saw in part 1 of the experiment, as many as you can remember. The images can be said in any order.</p>""]","","2","cat_care_semantic"
"","","","","","image-button-response","43","537543","0.0-41.0-0.0","53BE65A0D9D045D693E666AD3994ADAD","53BE65A0D9D045D693E666AD3994ADAD","4bbd3852-fd11-4f3d-ae5e-11baa6e7c9c6","e9cc2542-c7dc-4d8f-b94f-d088ad8989d1","{""part"":""2"",""participantId"":""53BE65A0D9D045D693E666AD3994ADAD"",""assignmentId"":""4bbd3852-fd11-4f3d-ae5e-11baa6e7c9c6"",""projectId"":""e9cc2542-c7dc-4d8f-b94f-d088ad8989d1""}","https://test12345.live/?part=2&participantId=53BE65A0D9D045D693E666AD3994ADAD&assignmentId=4bbd3852-fd11-4f3d-ae5e-11baa6e7c9c6&projectId=e9cc2542-c7dc-4d8f-b94f-d088ad8989d1","53BE65A0D9D045D693E666AD3994ADAD-2025-05-16-18-14-43","","null","","images/schematic_sequence/flight_scheme/flight_scheme_0.png","null","",""
"","","","","","html-audio-response","44","549737","0.0-42.0","53BE65A0D9D045D693E666AD3994ADAD","53BE65A0D9D045D693E666AD3994ADAD","4bbd3852-fd11-4f3d-ae5e-11baa6e7c9c6","e9cc2542-c7dc-4d8f-b94f-d088ad8989d1","{""part"":""2"",""participantId"":""53BE65A0D9D045D693E666AD3994ADAD"",""assignmentId"":""4bbd3852-fd11-4f3d-ae5e-11baa6e7c9c6"",""projectId"":""e9cc2542-c7dc-4d8f-b94f-d088ad8989d1""}","https://test12345.live/?part=2&participantId=53BE65A0D9D045D693E666AD3994ADAD&assignmentId=4bbd3852-fd11-4f3d-ae5e-11baa6e7c9c6&projectId=e9cc2542-c7dc-4d8f-b94f-d088ad8989d1","53BE65A0D9D045D693E666AD3994ADAD-2025-05-16-18-14-43","","11125","","[""<span style=\""color: red; font-size: 24px\""> NOW RECORDING</span><p>Please say out loud all the images you saw in part 1 of the experiment, as many as you can remember. The images can be said in any order.</p>""]","","1","flight_scheme"
"","","","","","image-button-response","45","555745","0.0-43.0-0.0","53BE65A0D9D045D693E666AD3994ADAD","53BE65A0D9D045D693E666AD3994ADAD","4bbd3852-fd11-4f3d-ae5e-11baa6e7c9c6","e9cc2542-c7dc-4d8f-b94f-d088ad8989d1","{""part"":""2"",""participantId"":""53BE65A0D9D045D693E666AD3994ADAD"",""assignmentId"":""4bbd3852-fd11-4f3d-ae5e-11baa6e7c9c6"",""projectId"":""e9cc2542-c7dc-4d8f-b94f-d088ad8989d1""}","https://test12345.live/?part=2&participantId=53BE65A0D9D045D693E666AD3994ADAD&assignmentId=4bbd3852-fd11-4f3d-ae5e-11baa6e7c9c6&projectId=e9cc2542-c7dc-4d8f-b94f-d088ad8989d1","53BE65A0D9D045D693E666AD3994ADAD-2025-05-16-18-14-43","","null","","images/semantic_sequence/using_technology_semantic/using_technology_semantic_0.png","null","",""
"","","","","","html-audio-response","46","559474","0.0-44.0","53BE65A0D9D045D693E666AD3994ADAD","53BE65A0D9D045D693E666AD3994ADAD","4bbd3852-fd11-4f3d-ae5e-11baa6e7c9c6","e9cc2542-c7dc-4d8f-b94f-d088ad8989d1","{""part"":""2"",""participantId"":""53BE65A0D9D045D693E666AD3994ADAD"",""assignmentId"":""4bbd3852-fd11-4f3d-ae5e-11baa6e7c9c6"",""projectId"":""e9cc2542-c7dc-4d8f-b94f-d088ad8989d1""}","https://test12345.live/?part=2&participantId=53BE65A0D9D045D693E666AD3994ADAD&assignmentId=4bbd3852-fd11-4f3d-ae5e-11baa6e7c9c6&projectId=e9cc2542-c7dc-4d8f-b94f-d088ad8989d1","53BE65A0D9D045D693E666AD3994ADAD-2025-05-16-18-14-43","","3006","","[""<span style=\""color: red; font-size: 24px\""> NOW RECORDING</span><p>Please say out loud all the images you saw in part 1 of the experiment, as many as you can remember. The images can be said in any order.</p>""]","","26","using_technology_semantic"
"","","","","","image-button-response","47","565483","0.0-45.0-0.0","53BE65A0D9D045D693E666AD3994ADAD","53BE65A0D9D045D693E666AD3994ADAD","4bbd3852-fd11-4f3d-ae5e-11baa6e7c9c6","e9cc2542-c7dc-4d8f-b94f-d088ad8989d1","{""part"":""2"",""participantId"":""53BE65A0D9D045D693E666AD3994ADAD"",""assignmentId"":""4bbd3852-fd11-4f3d-ae5e-11baa6e7c9c6"",""projectId"":""e9cc2542-c7dc-4d8f-b94f-d088ad8989d1""}","https://test12345.live/?part=2&participantId=53BE65A0D9D045D693E666AD3994ADAD&assignmentId=4bbd3852-fd11-4f3d-ae5e-11baa6e7c9c6&projectId=e9cc2542-c7dc-4d8f-b94f-d088ad8989d1","53BE65A0D9D045D693E666AD3994ADAD-2025-05-16-18-14-43","","null","","images/semantic_sequence/market_semantic/market_semantic_0.png","null","",""
"","","","","","html-audio-response","48","580597","0.0-46.0","53BE65A0D9D045D693E666AD3994ADAD","53BE65A0D9D045D693E666AD3994ADAD","4bbd3852-fd11-4f3d-ae5e-11baa6e7c9c6","e9cc2542-c7dc-4d8f-b94f-d088ad8989d1","{""part"":""2"",""participantId"":""53BE65A0D9D045D693E666AD3994ADAD"",""assignmentId"":""4bbd3852-fd11-4f3d-ae5e-11baa6e7c9c6"",""projectId"":""e9cc2542-c7dc-4d8f-b94f-d088ad8989d1""}","https://test12345.live/?part=2&participantId=53BE65A0D9D045D693E666AD3994ADAD&assignmentId=4bbd3852-fd11-4f3d-ae5e-11baa6e7c9c6&projectId=e9cc2542-c7dc-4d8f-b94f-d088ad8989d1","53BE65A0D9D045D693E666AD3994ADAD-2025-05-16-18-14-43","","14310","","[""<span style=\""color: red; font-size: 24px\""> NOW RECORDING</span><p>Please say out loud all the images you saw in part 1 of the experiment, as many as you can remember. The images can be said in any order.</p>""]","","33","market_semantic"
"","","","","","image-button-response","49","586606","0.0-47.0-0.0","53BE65A0D9D045D693E666AD3994ADAD","53BE65A0D9D045D693E666AD3994ADAD","4bbd3852-fd11-4f3d-ae5e-11baa6e7c9c6","e9cc2542-c7dc-4d8f-b94f-d088ad8989d1","{""part"":""2"",""participantId"":""53BE65A0D9D045D693E666AD3994ADAD"",""assignmentId"":""4bbd3852-fd11-4f3d-ae5e-11baa6e7c9c6"",""projectId"":""e9cc2542-c7dc-4d8f-b94f-d088ad8989d1""}","https://test12345.live/?part=2&participantId=53BE65A0D9D045D693E666AD3994ADAD&assignmentId=4bbd3852-fd11-4f3d-ae5e-11baa6e7c9c6&projectId=e9cc2542-c7dc-4d8f-b94f-d088ad8989d1","53BE65A0D9D045D693E666AD3994ADAD-2025-05-16-18-14-43","","null","","images/semantic_sequence/creative_activities_semantic/creative_activities_semantic_0.png","null","",""
"","","","","","html-audio-response","50","591275","0.0-48.0","53BE65A0D9D045D693E666AD3994ADAD","53BE65A0D9D045D693E666AD3994ADAD","4bbd3852-fd11-4f3d-ae5e-11baa6e7c9c6","e9cc2542-c7dc-4d8f-b94f-d088ad8989d1","{""part"":""2"",""participantId"":""53BE65A0D9D045D693E666AD3994ADAD"",""assignmentId"":""4bbd3852-fd11-4f3d-ae5e-11baa6e7c9c6"",""projectId"":""e9cc2542-c7dc-4d8f-b94f-d088ad8989d1""}","https://test12345.live/?part=2&participantId=53BE65A0D9D045D693E666AD3994ADAD&assignmentId=4bbd3852-fd11-4f3d-ae5e-11baa6e7c9c6&projectId=e9cc2542-c7dc-4d8f-b94f-d088ad8989d1","53BE65A0D9D045D693E666AD3994ADAD-2025-05-16-18-14-43","","3852","","[""<span style=\""color: red; font-size: 24px\""> NOW RECORDING</span><p>Please say out loud all the images you saw in part 1 of the experiment, as many as you can remember. The images can be said in any order.</p>""]","","30","creative_activities_semantic"
"","","","","","image-button-response","51","597284","0.0-49.0-0.0","53BE65A0D9D045D693E666AD3994ADAD","53BE65A0D9D045D693E666AD3994ADAD","4bbd3852-fd11-4f3d-ae5e-11baa6e7c9c6","e9cc2542-c7dc-4d8f-b94f-d088ad8989d1","{""part"":""2"",""participantId"":""53BE65A0D9D045D693E666AD3994ADAD"",""assignmentId"":""4bbd3852-fd11-4f3d-ae5e-11baa6e7c9c6"",""projectId"":""e9cc2542-c7dc-4d8f-b94f-d088ad8989d1""}","https://test12345.live/?part=2&participantId=53BE65A0D9D045D693E666AD3994ADAD&assignmentId=4bbd3852-fd11-4f3d-ae5e-11baa6e7c9c6&projectId=e9cc2542-c7dc-4d8f-b94f-d088ad8989d1","53BE65A0D9D045D693E666AD3994ADAD-2025-05-16-18-14-43","","null","","images/semantic_sequence/kitchen_operations_semantic/kitchen_operations_semantic_0.png","null","",""
"","","","","","html-audio-response","52","608518","0.0-50.0","53BE65A0D9D045D693E666AD3994ADAD","53BE65A0D9D045D693E666AD3994ADAD","4bbd3852-fd11-4f3d-ae5e-11baa6e7c9c6","e9cc2542-c7dc-4d8f-b94f-d088ad8989d1","{""part"":""2"",""participantId"":""53BE65A0D9D045D693E666AD3994ADAD"",""assignmentId"":""4bbd3852-fd11-4f3d-ae5e-11baa6e7c9c6"",""projectId"":""e9cc2542-c7dc-4d8f-b94f-d088ad8989d1""}","https://test12345.live/?part=2&participantId=53BE65A0D9D045D693E666AD3994ADAD&assignmentId=4bbd3852-fd11-4f3d-ae5e-11baa6e7c9c6&projectId=e9cc2542-c7dc-4d8f-b94f-d088ad8989d1","53BE65A0D9D045D693E666AD3994ADAD-2025-05-16-18-14-43","","10091","","[""<span style=\""color: red; font-size: 24px\""> NOW RECORDING</span><p>Please say out loud all the images you saw in part 1 of the experiment, as many as you can remember. The images can be said in any order.</p>""]","","1","kitchen_operations_semantic"
"","","","","","image-button-response","53","614526","0.0-51.0-0.0","53BE65A0D9D045D693E666AD3994ADAD","53BE65A0D9D045D693E666AD3994ADAD","4bbd3852-fd11-4f3d-ae5e-11baa6e7c9c6","e9cc2542-c7dc-4d8f-b94f-d088ad8989d1","{""part"":""2"",""participantId"":""53BE65A0D9D045D693E666AD3994ADAD"",""assignmentId"":""4bbd3852-fd11-4f3d-ae5e-11baa6e7c9c6"",""projectId"":""e9cc2542-c7dc-4d8f-b94f-d088ad8989d1""}","https://test12345.live/?part=2&participantId=53BE65A0D9D045D693E666AD3994ADAD&assignmentId=4bbd3852-fd11-4f3d-ae5e-11baa6e7c9c6&projectId=e9cc2542-c7dc-4d8f-b94f-d088ad8989d1","53BE65A0D9D045D693E666AD3994ADAD-2025-05-16-18-14-43","","null","","images/semantic_sequence/redecorating_semantic/redecorating_semantic_0.png","null","",""
"","","","","","html-audio-response","54","623778","0.0-52.0","53BE65A0D9D045D693E666AD3994ADAD","53BE65A0D9D045D693E666AD3994ADAD","4bbd3852-fd11-4f3d-ae5e-11baa6e7c9c6","e9cc2542-c7dc-4d8f-b94f-d088ad8989d1","{""part"":""2"",""participantId"":""53BE65A0D9D045D693E666AD3994ADAD"",""assignmentId"":""4bbd3852-fd11-4f3d-ae5e-11baa6e7c9c6"",""projectId"":""e9cc2542-c7dc-4d8f-b94f-d088ad8989d1""}","https://test12345.live/?part=2&participantId=53BE65A0D9D045D693E666AD3994ADAD&assignmentId=4bbd3852-fd11-4f3d-ae5e-11baa6e7c9c6&projectId=e9cc2542-c7dc-4d8f-b94f-d088ad8989d1","53BE65A0D9D045D693E666AD3994ADAD-2025-05-16-18-14-43","","5956","","[""<span style=\""color: red; font-size: 24px\""> NOW RECORDING</span><p>Please say out loud all the images you saw in part 1 of the experiment, as many as you can remember. The images can be said in any order.</p>""]","","2","redecorating_semantic"
"","","","","","image-button-response","55","629786","0.0-53.0-0.0","53BE65A0D9D045D693E666AD3994ADAD","53BE65A0D9D045D693E666AD3994ADAD","4bbd3852-fd11-4f3d-ae5e-11baa6e7c9c6","e9cc2542-c7dc-4d8f-b94f-d088ad8989d1","{""part"":""2"",""participantId"":""53BE65A0D9D045D693E666AD3994ADAD"",""assignmentId"":""4bbd3852-fd11-4f3d-ae5e-11baa6e7c9c6"",""projectId"":""e9cc2542-c7dc-4d8f-b94f-d088ad8989d1""}","https://test12345.live/?part=2&participantId=53BE65A0D9D045D693E666AD3994ADAD&assignmentId=4bbd3852-fd11-4f3d-ae5e-11baa6e7c9c6&projectId=e9cc2542-c7dc-4d8f-b94f-d088ad8989d1","53BE65A0D9D045D693E666AD3994ADAD-2025-05-16-18-14-43","","null","","images/causal_sequence/package_causal/package_causal_0.png","null","",""
"","","","","","html-audio-response","56","654434","0.0-54.0","53BE65A0D9D045D693E666AD3994ADAD","53BE65A0D9D045D693E666AD3994ADAD","4bbd3852-fd11-4f3d-ae5e-11baa6e7c9c6","e9cc2542-c7dc-4d8f-b94f-d088ad8989d1","{""part"":""2"",""participantId"":""53BE65A0D9D045D693E666AD3994ADAD"",""assignmentId"":""4bbd3852-fd11-4f3d-ae5e-11baa6e7c9c6"",""projectId"":""e9cc2542-c7dc-4d8f-b94f-d088ad8989d1""}","https://test12345.live/?part=2&participantId=53BE65A0D9D045D693E666AD3994ADAD&assignmentId=4bbd3852-fd11-4f3d-ae5e-11baa6e7c9c6&projectId=e9cc2542-c7dc-4d8f-b94f-d088ad8989d1","53BE65A0D9D045D693E666AD3994ADAD-2025-05-16-18-14-43","","22185","","[""<span style=\""color: red; font-size: 24px\""> NOW RECORDING</span><p>Please say out loud all the images you saw in part 1 of the experiment, as many as you can remember. The images can be said in any order.</p>""]","","2","package_causal"
"","","","","","image-button-response","57","660446","0.0-55.0-0.0","53BE65A0D9D045D693E666AD3994ADAD","53BE65A0D9D045D693E666AD3994ADAD","4bbd3852-fd11-4f3d-ae5e-11baa6e7c9c6","e9cc2542-c7dc-4d8f-b94f-d088ad8989d1","{""part"":""2"",""participantId"":""53BE65A0D9D045D693E666AD3994ADAD"",""assignmentId"":""4bbd3852-fd11-4f3d-ae5e-11baa6e7c9c6"",""projectId"":""e9cc2542-c7dc-4d8f-b94f-d088ad8989d1""}","https://test12345.live/?part=2&participantId=53BE65A0D9D045D693E666AD3994ADAD&assignmentId=4bbd3852-fd11-4f3d-ae5e-11baa6e7c9c6&projectId=e9cc2542-c7dc-4d8f-b94f-d088ad8989d1","53BE65A0D9D045D693E666AD3994ADAD-2025-05-16-18-14-43","","null","","images/schematic_sequence/hotel_scheme/hotel_scheme_0.png","null","",""
"","","","","","html-audio-response","58","683252","0.0-56.0","53BE65A0D9D045D693E666AD3994ADAD","53BE65A0D9D045D693E666AD3994ADAD","4bbd3852-fd11-4f3d-ae5e-11baa6e7c9c6","e9cc2542-c7dc-4d8f-b94f-d088ad8989d1","{""part"":""2"",""participantId"":""53BE65A0D9D045D693E666AD3994ADAD"",""assignmentId"":""4bbd3852-fd11-4f3d-ae5e-11baa6e7c9c6"",""projectId"":""e9cc2542-c7dc-4d8f-b94f-d088ad8989d1""}","https://test12345.live/?part=2&participantId=53BE65A0D9D045D693E666AD3994ADAD&assignmentId=4bbd3852-fd11-4f3d-ae5e-11baa6e7c9c6&projectId=e9cc2542-c7dc-4d8f-b94f-d088ad8989d1","53BE65A0D9D045D693E666AD3994ADAD-2025-05-16-18-14-43","","21767","","[""<span style=\""color: red; font-size: 24px\""> NOW RECORDING</span><p>Please say out loud all the images you saw in part 1 of the experiment, as many as you can remember. The images can be said in any order.</p>""]","","36","hotel_scheme"
"","","","","","survey-text","59","693509","0.0-57.0","53BE65A0D9D045D693E666AD3994ADAD","53BE65A0D9D045D693E666AD3994ADAD","4bbd3852-fd11-4f3d-ae5e-11baa6e7c9c6","e9cc2542-c7dc-4d8f-b94f-d088ad8989d1","{""part"":""2"",""participantId"":""53BE65A0D9D045D693E666AD3994ADAD"",""assignmentId"":""4bbd3852-fd11-4f3d-ae5e-11baa6e7c9c6"",""projectId"":""e9cc2542-c7dc-4d8f-b94f-d088ad8989d1""}","https://test12345.live/?part=2&participantId=53BE65A0D9D045D693E666AD3994ADAD&assignmentId=4bbd3852-fd11-4f3d-ae5e-11baa6e7c9c6&projectId=e9cc2542-c7dc-4d8f-b94f-d088ad8989d1","53BE65A0D9D045D693E666AD3994ADAD-2025-05-16-18-14-43","","10249","","","{""Q0"":""FEMALE"",""Q1"":""28""}","",""
"","","","","","instructions","60","699869","0.0-58.0","53BE65A0D9D045D693E666AD3994ADAD","53BE65A0D9D045D693E666AD3994ADAD","4bbd3852-fd11-4f3d-ae5e-11baa6e7c9c6","e9cc2542-c7dc-4d8f-b94f-d088ad8989d1","{""part"":""2"",""participantId"":""53BE65A0D9D045D693E666AD3994ADAD"",""assignmentId"":""4bbd3852-fd11-4f3d-ae5e-11baa6e7c9c6"",""projectId"":""e9cc2542-c7dc-4d8f-b94f-d088ad8989d1""}","https://test12345.live/?part=2&participantId=53BE65A0D9D045D693E666AD3994ADAD&assignmentId=4bbd3852-fd11-4f3d-ae5e-11baa6e7c9c6&projectId=e9cc2542-c7dc-4d8f-b94f-d088ad8989d1","53BE65A0D9D045D693E666AD3994ADAD-2025-05-16-18-14-43","[{""page_index"":0,""viewing_time"":6359}]","6360","","","","",""
"","","","","","survey-text","61","702242","0.0-59.0","53BE65A0D9D045D693E666AD3994ADAD","53BE65A0D9D045D693E666AD3994ADAD","4bbd3852-fd11-4f3d-ae5e-11baa6e7c9c6","e9cc2542-c7dc-4d8f-b94f-d088ad8989d1","{""part"":""2"",""participantId"":""53BE65A0D9D045D693E666AD3994ADAD"",""assignmentId"":""4bbd3852-fd11-4f3d-ae5e-11baa6e7c9c6"",""projectId"":""e9cc2542-c7dc-4d8f-b94f-d088ad8989d1""}","https://test12345.live/?part=2&participantId=53BE65A0D9D045D693E666AD3994ADAD&assignmentId=4bbd3852-fd11-4f3d-ae5e-11baa6e7c9c6&projectId=e9cc2542-c7dc-4d8f-b94f-d088ad8989d1","53BE65A0D9D045D693E666AD3994ADAD-2025-05-16-18-14-43","","2371","","","{""Q0"":""AJFHBG896""}","",""
