"success","timeout","failed_images","failed_audio","failed_video","trial_type","trial_index","time_elapsed","internal_node_id","subject","subject_id","study_id","session_id","urlvar","current_url","audio_id","view_history","rt","device_id","stimulus","response","estimated_stimulus_onset","seq_name"
"true","false","[]","[]","[]","preload","0","731","0.0-0.0","566DE7EF91D74926BD631D55854ED087","566DE7EF91D74926BD631D55854ED087","aba0ba8c-b647-46a1-a149-87cc9954bef4","9596d7a2-d401-47b1-aedd-70105f5f2f42","{""part"":""2"",""participantId"":""566DE7EF91D74926BD631D55854ED087"",""assignmentId"":""aba0ba8c-b647-46a1-a149-87cc9954bef4"",""projectId"":""9596d7a2-d401-47b1-aedd-70105f5f2f42""}","https://test12345.live/?part=2&participantId=566DE7EF91D74926BD631D55854ED087&assignmentId=aba0ba8c-b647-46a1-a149-87cc9954bef4&projectId=9596d7a2-d401-47b1-aedd-70105f5f2f42","566DE7EF91D74926BD631D55854ED087-2025-05-28-21-51-40","","","","","","",""
"","","","","","instructions","1","6949","0.0-1.0","566DE7EF91D74926BD631D55854ED087","566DE7EF91D74926BD631D55854ED087","aba0ba8c-b647-46a1-a149-87cc9954bef4","9596d7a2-d401-47b1-aedd-70105f5f2f42","{""part"":""2"",""participantId"":""566DE7EF91D74926BD631D55854ED087"",""assignmentId"":""aba0ba8c-b647-46a1-a149-87cc9954bef4"",""projectId"":""9596d7a2-d401-47b1-aedd-70105f5f2f42""}","https://test12345.live/?part=2&participantId=566DE7EF91D74926BD631D55854ED087&assignmentId=aba0ba8c-b647-46a1-a149-87cc9954bef4&projectId=9596d7a2-d401-47b1-aedd-70105f5f2f42","566DE7EF91D74926BD631D55854ED087-2025-05-28-21-51-40","[{""page_index"":0,""viewing_time"":6218}]","6218","","","","",""
"","","","","","instructions","2","9149","0.0-2.0","566DE7EF91D74926BD631D55854ED087","566DE7EF91D74926BD631D55854ED087","aba0ba8c-b647-46a1-a149-87cc9954bef4","9596d7a2-d401-47b1-aedd-70105f5f2f42","{""part"":""2"",""participantId"":""566DE7EF91D74926BD631D55854ED087"",""assignmentId"":""aba0ba8c-b647-46a1-a149-87cc9954bef4"",""projectId"":""9596d7a2-d401-47b1-aedd-70105f5f2f42""}","https://test12345.live/?part=2&participantId=566DE7EF91D74926BD631D55854ED087&assignmentId=aba0ba8c-b647-46a1-a149-87cc9954bef4&projectId=9596d7a2-d401-47b1-aedd-70105f5f2f42","566DE7EF91D74926BD631D55854ED087-2025-05-28-21-51-40","[{""page_index"":0,""viewing_time"":2199}]","2199","","","","",""
"true","","","","","fullscreen","3","11021","0.0-3.0","566DE7EF91D74926BD631D55854ED087","566DE7EF91D74926BD631D55854ED087","aba0ba8c-b647-46a1-a149-87cc9954bef4","9596d7a2-d401-47b1-aedd-70105f5f2f42","{""part"":""2"",""participantId"":""566DE7EF91D74926BD631D55854ED087"",""assignmentId"":""aba0ba8c-b647-46a1-a149-87cc9954bef4"",""projectId"":""9596d7a2-d401-47b1-aedd-70105f5f2f42""}","https://test12345.live/?part=2&participantId=566DE7EF91D74926BD631D55854ED087&assignmentId=aba0ba8c-b647-46a1-a149-87cc9954bef4&projectId=9596d7a2-d401-47b1-aedd-70105f5f2f42","566DE7EF91D74926BD631D55854ED087-2025-05-28-21-51-40","","871","","","","",""
"","","","","","initialize-microphone","4","13349","0.0-4.0-0.0","566DE7EF91D74926BD631D55854ED087","566DE7EF91D74926BD631D55854ED087","aba0ba8c-b647-46a1-a149-87cc9954bef4","9596d7a2-d401-47b1-aedd-70105f5f2f42","{""part"":""2"",""participantId"":""566DE7EF91D74926BD631D55854ED087"",""assignmentId"":""aba0ba8c-b647-46a1-a149-87cc9954bef4"",""projectId"":""9596d7a2-d401-47b1-aedd-70105f5f2f42""}","https://test12345.live/?part=2&participantId=566DE7EF91D74926BD631D55854ED087&assignmentId=aba0ba8c-b647-46a1-a149-87cc9954bef4&projectId=9596d7a2-d401-47b1-aedd-70105f5f2f42","566DE7EF91D74926BD631D55854ED087-2025-05-28-21-51-40","","","6b9bcd2fd885deca0527d9f8b3c1e0cdfa4f5d2b764429688b570849912f11ac","","","",""
"","","","","","html-audio-response","5","16725","0.0-4.0-1.0","566DE7EF91D74926BD631D55854ED087","566DE7EF91D74926BD631D55854ED087","aba0ba8c-b647-46a1-a149-87cc9954bef4","9596d7a2-d401-47b1-aedd-70105f5f2f42","{""part"":""2"",""participantId"":""566DE7EF91D74926BD631D55854ED087"",""assignmentId"":""aba0ba8c-b647-46a1-a149-87cc9954bef4"",""projectId"":""9596d7a2-d401-47b1-aedd-70105f5f2f42""}","https://test12345.live/?part=2&participantId=566DE7EF91D74926BD631D55854ED087&assignmentId=aba0ba8c-b647-46a1-a149-87cc9954bef4&projectId=9596d7a2-d401-47b1-aedd-70105f5f2f42","566DE7EF91D74926BD631D55854ED087-2025-05-28-21-51-40","","1000","","<span style=""color: red; font-size: 24px""> NOW RECORDING</span>
        <p>Please test Microphone</p>","","1",""
"","","","","","html-button-response","6","18021","0.0-4.0-2.0","566DE7EF91D74926BD631D55854ED087","566DE7EF91D74926BD631D55854ED087","aba0ba8c-b647-46a1-a149-87cc9954bef4","9596d7a2-d401-47b1-aedd-70105f5f2f42","{""part"":""2"",""participantId"":""566DE7EF91D74926BD631D55854ED087"",""assignmentId"":""aba0ba8c-b647-46a1-a149-87cc9954bef4"",""projectId"":""9596d7a2-d401-47b1-aedd-70105f5f2f42""}","https://test12345.live/?part=2&participantId=566DE7EF91D74926BD631D55854ED087&assignmentId=aba0ba8c-b647-46a1-a149-87cc9954bef4&projectId=9596d7a2-d401-47b1-aedd-70105f5f2f42","566DE7EF91D74926BD631D55854ED087-2025-05-28-21-51-40","","1295","","<p style=""font-size:48px; color:red;"">Is Microphone OK?</p>","0","",""
"","","","","","initialize-microphone","7","20159","0.0-4.1-0.1","566DE7EF91D74926BD631D55854ED087","566DE7EF91D74926BD631D55854ED087","aba0ba8c-b647-46a1-a149-87cc9954bef4","9596d7a2-d401-47b1-aedd-70105f5f2f42","{""part"":""2"",""participantId"":""566DE7EF91D74926BD631D55854ED087"",""assignmentId"":""aba0ba8c-b647-46a1-a149-87cc9954bef4"",""projectId"":""9596d7a2-d401-47b1-aedd-70105f5f2f42""}","https://test12345.live/?part=2&participantId=566DE7EF91D74926BD631D55854ED087&assignmentId=aba0ba8c-b647-46a1-a149-87cc9954bef4&projectId=9596d7a2-d401-47b1-aedd-70105f5f2f42","566DE7EF91D74926BD631D55854ED087-2025-05-28-21-51-40","","","6b9bcd2fd885deca0527d9f8b3c1e0cdfa4f5d2b764429688b570849912f11ac","","","",""
"","","","","","html-audio-response","8","24565","0.0-4.1-1.1","566DE7EF91D74926BD631D55854ED087","566DE7EF91D74926BD631D55854ED087","aba0ba8c-b647-46a1-a149-87cc9954bef4","9596d7a2-d401-47b1-aedd-70105f5f2f42","{""part"":""2"",""participantId"":""566DE7EF91D74926BD631D55854ED087"",""assignmentId"":""aba0ba8c-b647-46a1-a149-87cc9954bef4"",""projectId"":""9596d7a2-d401-47b1-aedd-70105f5f2f42""}","https://test12345.live/?part=2&participantId=566DE7EF91D74926BD631D55854ED087&assignmentId=aba0ba8c-b647-46a1-a149-87cc9954bef4&projectId=9596d7a2-d401-47b1-aedd-70105f5f2f42","566DE7EF91D74926BD631D55854ED087-2025-05-28-21-51-40","","1310","","<span style=""color: red; font-size: 24px""> NOW RECORDING</span>
        <p>Please test Microphone</p>","","1",""
"","","","","","html-button-response","9","25349","0.0-4.1-2.1","566DE7EF91D74926BD631D55854ED087","566DE7EF91D74926BD631D55854ED087","aba0ba8c-b647-46a1-a149-87cc9954bef4","9596d7a2-d401-47b1-aedd-70105f5f2f42","{""part"":""2"",""participantId"":""566DE7EF91D74926BD631D55854ED087"",""assignmentId"":""aba0ba8c-b647-46a1-a149-87cc9954bef4"",""projectId"":""9596d7a2-d401-47b1-aedd-70105f5f2f42""}","https://test12345.live/?part=2&participantId=566DE7EF91D74926BD631D55854ED087&assignmentId=aba0ba8c-b647-46a1-a149-87cc9954bef4&projectId=9596d7a2-d401-47b1-aedd-70105f5f2f42","566DE7EF91D74926BD631D55854ED087-2025-05-28-21-51-40","","784","","<p style=""font-size:48px; color:red;"">Is Microphone OK?</p>","1","",""
"","","","","","instructions","10","30125","0.0-5.0","566DE7EF91D74926BD631D55854ED087","566DE7EF91D74926BD631D55854ED087","aba0ba8c-b647-46a1-a149-87cc9954bef4","9596d7a2-d401-47b1-aedd-70105f5f2f42","{""part"":""2"",""participantId"":""566DE7EF91D74926BD631D55854ED087"",""assignmentId"":""aba0ba8c-b647-46a1-a149-87cc9954bef4"",""projectId"":""9596d7a2-d401-47b1-aedd-70105f5f2f42""}","https://test12345.live/?part=2&participantId=566DE7EF91D74926BD631D55854ED087&assignmentId=aba0ba8c-b647-46a1-a149-87cc9954bef4&projectId=9596d7a2-d401-47b1-aedd-70105f5f2f42","566DE7EF91D74926BD631D55854ED087-2025-05-28-21-51-40","[{""page_index"":0,""viewing_time"":655},{""page_index"":1,""viewing_time"":1184},{""page_index"":2,""viewing_time"":2936}]","4776","","","","",""
"","","","","","image-button-response","11","36134","0.0-6.0-0.0","566DE7EF91D74926BD631D55854ED087","566DE7EF91D74926BD631D55854ED087","aba0ba8c-b647-46a1-a149-87cc9954bef4","9596d7a2-d401-47b1-aedd-70105f5f2f42","{""part"":""2"",""participantId"":""566DE7EF91D74926BD631D55854ED087"",""assignmentId"":""aba0ba8c-b647-46a1-a149-87cc9954bef4"",""projectId"":""9596d7a2-d401-47b1-aedd-70105f5f2f42""}","https://test12345.live/?part=2&participantId=566DE7EF91D74926BD631D55854ED087&assignmentId=aba0ba8c-b647-46a1-a149-87cc9954bef4&projectId=9596d7a2-d401-47b1-aedd-70105f5f2f42","566DE7EF91D74926BD631D55854ED087-2025-05-28-21-51-40","","null","","images/instructions/movie_0.png","null","",""
"","","","","","html-audio-response","12","51949","0.0-7.0","566DE7EF91D74926BD631D55854ED087","566DE7EF91D74926BD631D55854ED087","aba0ba8c-b647-46a1-a149-87cc9954bef4","9596d7a2-d401-47b1-aedd-70105f5f2f42","{""part"":""2"",""participantId"":""566DE7EF91D74926BD631D55854ED087"",""assignmentId"":""aba0ba8c-b647-46a1-a149-87cc9954bef4"",""projectId"":""9596d7a2-d401-47b1-aedd-70105f5f2f42""}","https://test12345.live/?part=2&participantId=566DE7EF91D74926BD631D55854ED087&assignmentId=aba0ba8c-b647-46a1-a149-87cc9954bef4&projectId=9596d7a2-d401-47b1-aedd-70105f5f2f42","566DE7EF91D74926BD631D55854ED087-2025-05-28-21-51-40","","15026","","[""<span style=\""color: red; font-size: 24px\""> NOW RECORDING</span><p>Please say out loud all the images you saw in part 1 of the experiment, in the exact order you saw them. Try to recall as many images as you can, but remember: getting the order right is more important than the number of images you recall.</p>""]","","1",""
"","","","","","instructions","13","52869","0.0-8.0","566DE7EF91D74926BD631D55854ED087","566DE7EF91D74926BD631D55854ED087","aba0ba8c-b647-46a1-a149-87cc9954bef4","9596d7a2-d401-47b1-aedd-70105f5f2f42","{""part"":""2"",""participantId"":""566DE7EF91D74926BD631D55854ED087"",""assignmentId"":""aba0ba8c-b647-46a1-a149-87cc9954bef4"",""projectId"":""9596d7a2-d401-47b1-aedd-70105f5f2f42""}","https://test12345.live/?part=2&participantId=566DE7EF91D74926BD631D55854ED087&assignmentId=aba0ba8c-b647-46a1-a149-87cc9954bef4&projectId=9596d7a2-d401-47b1-aedd-70105f5f2f42","566DE7EF91D74926BD631D55854ED087-2025-05-28-21-51-40","[{""page_index"":0,""viewing_time"":917}]","917","","","","",""
"","","","","","image-button-response","14","58870","0.0-9.0-0.0","566DE7EF91D74926BD631D55854ED087","566DE7EF91D74926BD631D55854ED087","aba0ba8c-b647-46a1-a149-87cc9954bef4","9596d7a2-d401-47b1-aedd-70105f5f2f42","{""part"":""2"",""participantId"":""566DE7EF91D74926BD631D55854ED087"",""assignmentId"":""aba0ba8c-b647-46a1-a149-87cc9954bef4"",""projectId"":""9596d7a2-d401-47b1-aedd-70105f5f2f42""}","https://test12345.live/?part=2&participantId=566DE7EF91D74926BD631D55854ED087&assignmentId=aba0ba8c-b647-46a1-a149-87cc9954bef4&projectId=9596d7a2-d401-47b1-aedd-70105f5f2f42","566DE7EF91D74926BD631D55854ED087-2025-05-28-21-51-40","","null","","images/semantic_sequence/housework_semantic/housework_semantic_0.png","null","",""
"","","","","","html-audio-response","15","88309","0.0-10.0","566DE7EF91D74926BD631D55854ED087","566DE7EF91D74926BD631D55854ED087","aba0ba8c-b647-46a1-a149-87cc9954bef4","9596d7a2-d401-47b1-aedd-70105f5f2f42","{""part"":""2"",""participantId"":""566DE7EF91D74926BD631D55854ED087"",""assignmentId"":""aba0ba8c-b647-46a1-a149-87cc9954bef4"",""projectId"":""9596d7a2-d401-47b1-aedd-70105f5f2f42""}","https://test12345.live/?part=2&participantId=566DE7EF91D74926BD631D55854ED087&assignmentId=aba0ba8c-b647-46a1-a149-87cc9954bef4&projectId=9596d7a2-d401-47b1-aedd-70105f5f2f42","566DE7EF91D74926BD631D55854ED087-2025-05-28-21-51-40","","28791","","[""<span style=\""color: red; font-size: 24px\""> NOW RECORDING</span><p>Please say out loud all the images you saw in part 1 of the experiment, in the exact order you saw them. Try to recall as many images as you can, but remember: getting the order right is more important than the number of images you recall. </p>""]","","17","housework_semantic"
"","","","","","image-button-response","16","94313","0.0-11.0-0.0","566DE7EF91D74926BD631D55854ED087","566DE7EF91D74926BD631D55854ED087","aba0ba8c-b647-46a1-a149-87cc9954bef4","9596d7a2-d401-47b1-aedd-70105f5f2f42","{""part"":""2"",""participantId"":""566DE7EF91D74926BD631D55854ED087"",""assignmentId"":""aba0ba8c-b647-46a1-a149-87cc9954bef4"",""projectId"":""9596d7a2-d401-47b1-aedd-70105f5f2f42""}","https://test12345.live/?part=2&participantId=566DE7EF91D74926BD631D55854ED087&assignmentId=aba0ba8c-b647-46a1-a149-87cc9954bef4&projectId=9596d7a2-d401-47b1-aedd-70105f5f2f42","566DE7EF91D74926BD631D55854ED087-2025-05-28-21-51-40","","null","","images/semantic_sequence/self_care_activities_semantic/self_care_activities_semantic_0.png","null","",""
"","","","","","html-audio-response","17","112789","0.0-12.0","566DE7EF91D74926BD631D55854ED087","566DE7EF91D74926BD631D55854ED087","aba0ba8c-b647-46a1-a149-87cc9954bef4","9596d7a2-d401-47b1-aedd-70105f5f2f42","{""part"":""2"",""participantId"":""566DE7EF91D74926BD631D55854ED087"",""assignmentId"":""aba0ba8c-b647-46a1-a149-87cc9954bef4"",""projectId"":""9596d7a2-d401-47b1-aedd-70105f5f2f42""}","https://test12345.live/?part=2&participantId=566DE7EF91D74926BD631D55854ED087&assignmentId=aba0ba8c-b647-46a1-a149-87cc9954bef4&projectId=9596d7a2-d401-47b1-aedd-70105f5f2f42","566DE7EF91D74926BD631D55854ED087-2025-05-28-21-51-40","","17691","","[""<span style=\""color: red; font-size: 24px\""> NOW RECORDING</span><p>Please say out loud all the images you saw in part 1 of the experiment, in the exact order you saw them. Try to recall as many images as you can, but remember: getting the order right is more important than the number of images you recall. </p>""]","","2","self_care_activities_semantic"
"","","","","","image-button-response","18","118803","0.0-13.0-0.0","566DE7EF91D74926BD631D55854ED087","566DE7EF91D74926BD631D55854ED087","aba0ba8c-b647-46a1-a149-87cc9954bef4","9596d7a2-d401-47b1-aedd-70105f5f2f42","{""part"":""2"",""participantId"":""566DE7EF91D74926BD631D55854ED087"",""assignmentId"":""aba0ba8c-b647-46a1-a149-87cc9954bef4"",""projectId"":""9596d7a2-d401-47b1-aedd-70105f5f2f42""}","https://test12345.live/?part=2&participantId=566DE7EF91D74926BD631D55854ED087&assignmentId=aba0ba8c-b647-46a1-a149-87cc9954bef4&projectId=9596d7a2-d401-47b1-aedd-70105f5f2f42","566DE7EF91D74926BD631D55854ED087-2025-05-28-21-51-40","","null","","images/schematic_sequence/dinner_party_scheme/dinner_party_scheme_0.png","null","",""
"","","","","","html-audio-response","19","149621","0.0-14.0","566DE7EF91D74926BD631D55854ED087","566DE7EF91D74926BD631D55854ED087","aba0ba8c-b647-46a1-a149-87cc9954bef4","9596d7a2-d401-47b1-aedd-70105f5f2f42","{""part"":""2"",""participantId"":""566DE7EF91D74926BD631D55854ED087"",""assignmentId"":""aba0ba8c-b647-46a1-a149-87cc9954bef4"",""projectId"":""9596d7a2-d401-47b1-aedd-70105f5f2f42""}","https://test12345.live/?part=2&participantId=566DE7EF91D74926BD631D55854ED087&assignmentId=aba0ba8c-b647-46a1-a149-87cc9954bef4&projectId=9596d7a2-d401-47b1-aedd-70105f5f2f42","566DE7EF91D74926BD631D55854ED087-2025-05-28-21-51-40","","29940","","[""<span style=\""color: red; font-size: 24px\""> NOW RECORDING</span><p>Please say out loud all the images you saw in part 1 of the experiment, in the exact order you saw them. Try to recall as many images as you can, but remember: getting the order right is more important than the number of images you recall. </p>""]","","1","dinner_party_scheme"
"","","","","","image-button-response","20","155628","0.0-15.0-0.0","566DE7EF91D74926BD631D55854ED087","566DE7EF91D74926BD631D55854ED087","aba0ba8c-b647-46a1-a149-87cc9954bef4","9596d7a2-d401-47b1-aedd-70105f5f2f42","{""part"":""2"",""participantId"":""566DE7EF91D74926BD631D55854ED087"",""assignmentId"":""aba0ba8c-b647-46a1-a149-87cc9954bef4"",""projectId"":""9596d7a2-d401-47b1-aedd-70105f5f2f42""}","https://test12345.live/?part=2&participantId=566DE7EF91D74926BD631D55854ED087&assignmentId=aba0ba8c-b647-46a1-a149-87cc9954bef4&projectId=9596d7a2-d401-47b1-aedd-70105f5f2f42","566DE7EF91D74926BD631D55854ED087-2025-05-28-21-51-40","","null","","images/causal_sequence/saving_a_cat_causal/saving_a_cat_causal_0.png","null","",""
"","","","","","html-audio-response","21","186413","0.0-16.0","566DE7EF91D74926BD631D55854ED087","566DE7EF91D74926BD631D55854ED087","aba0ba8c-b647-46a1-a149-87cc9954bef4","9596d7a2-d401-47b1-aedd-70105f5f2f42","{""part"":""2"",""participantId"":""566DE7EF91D74926BD631D55854ED087"",""assignmentId"":""aba0ba8c-b647-46a1-a149-87cc9954bef4"",""projectId"":""9596d7a2-d401-47b1-aedd-70105f5f2f42""}","https://test12345.live/?part=2&participantId=566DE7EF91D74926BD631D55854ED087&assignmentId=aba0ba8c-b647-46a1-a149-87cc9954bef4&projectId=9596d7a2-d401-47b1-aedd-70105f5f2f42","566DE7EF91D74926BD631D55854ED087-2025-05-28-21-51-40","","30128","","[""<span style=\""color: red; font-size: 24px\""> NOW RECORDING</span><p>Please say out loud all the images you saw in part 1 of the experiment, in the exact order you saw them. Try to recall as many images as you can, but remember: getting the order right is more important than the number of images you recall. </p>""]","","1","saving_a_cat_causal"
"","","","","","image-button-response","22","192420","0.0-17.0-0.0","566DE7EF91D74926BD631D55854ED087","566DE7EF91D74926BD631D55854ED087","aba0ba8c-b647-46a1-a149-87cc9954bef4","9596d7a2-d401-47b1-aedd-70105f5f2f42","{""part"":""2"",""participantId"":""566DE7EF91D74926BD631D55854ED087"",""assignmentId"":""aba0ba8c-b647-46a1-a149-87cc9954bef4"",""projectId"":""9596d7a2-d401-47b1-aedd-70105f5f2f42""}","https://test12345.live/?part=2&participantId=566DE7EF91D74926BD631D55854ED087&assignmentId=aba0ba8c-b647-46a1-a149-87cc9954bef4&projectId=9596d7a2-d401-47b1-aedd-70105f5f2f42","566DE7EF91D74926BD631D55854ED087-2025-05-28-21-51-40","","null","","images/causal_sequence/package_causal/package_causal_0.png","null","",""
"","","","","","html-audio-response","23","229477","0.0-18.0","566DE7EF91D74926BD631D55854ED087","566DE7EF91D74926BD631D55854ED087","aba0ba8c-b647-46a1-a149-87cc9954bef4","9596d7a2-d401-47b1-aedd-70105f5f2f42","{""part"":""2"",""participantId"":""566DE7EF91D74926BD631D55854ED087"",""assignmentId"":""aba0ba8c-b647-46a1-a149-87cc9954bef4"",""projectId"":""9596d7a2-d401-47b1-aedd-70105f5f2f42""}","https://test12345.live/?part=2&participantId=566DE7EF91D74926BD631D55854ED087&assignmentId=aba0ba8c-b647-46a1-a149-87cc9954bef4&projectId=9596d7a2-d401-47b1-aedd-70105f5f2f42","566DE7EF91D74926BD631D55854ED087-2025-05-28-21-51-40","","36362","","[""<span style=\""color: red; font-size: 24px\""> NOW RECORDING</span><p>Please say out loud all the images you saw in part 1 of the experiment, in the exact order you saw them. Try to recall as many images as you can, but remember: getting the order right is more important than the number of images you recall. </p>""]","","1","package_causal"
"","","","","","image-button-response","24","235491","0.0-19.0-0.0","566DE7EF91D74926BD631D55854ED087","566DE7EF91D74926BD631D55854ED087","aba0ba8c-b647-46a1-a149-87cc9954bef4","9596d7a2-d401-47b1-aedd-70105f5f2f42","{""part"":""2"",""participantId"":""566DE7EF91D74926BD631D55854ED087"",""assignmentId"":""aba0ba8c-b647-46a1-a149-87cc9954bef4"",""projectId"":""9596d7a2-d401-47b1-aedd-70105f5f2f42""}","https://test12345.live/?part=2&participantId=566DE7EF91D74926BD631D55854ED087&assignmentId=aba0ba8c-b647-46a1-a149-87cc9954bef4&projectId=9596d7a2-d401-47b1-aedd-70105f5f2f42","566DE7EF91D74926BD631D55854ED087-2025-05-28-21-51-40","","null","","images/causal_sequence/dog_causal/dog_causal_0.png","null","",""
"","","","","","html-audio-response","25","271285","0.0-20.0","566DE7EF91D74926BD631D55854ED087","566DE7EF91D74926BD631D55854ED087","aba0ba8c-b647-46a1-a149-87cc9954bef4","9596d7a2-d401-47b1-aedd-70105f5f2f42","{""part"":""2"",""participantId"":""566DE7EF91D74926BD631D55854ED087"",""assignmentId"":""aba0ba8c-b647-46a1-a149-87cc9954bef4"",""projectId"":""9596d7a2-d401-47b1-aedd-70105f5f2f42""}","https://test12345.live/?part=2&participantId=566DE7EF91D74926BD631D55854ED087&assignmentId=aba0ba8c-b647-46a1-a149-87cc9954bef4&projectId=9596d7a2-d401-47b1-aedd-70105f5f2f42","566DE7EF91D74926BD631D55854ED087-2025-05-28-21-51-40","","35228","","[""<span style=\""color: red; font-size: 24px\""> NOW RECORDING</span><p>Please say out loud all the images you saw in part 1 of the experiment, in the exact order you saw them. Try to recall as many images as you can, but remember: getting the order right is more important than the number of images you recall. </p>""]","","1","dog_causal"
"","","","","","image-button-response","26","277303","0.0-21.0-0.0","566DE7EF91D74926BD631D55854ED087","566DE7EF91D74926BD631D55854ED087","aba0ba8c-b647-46a1-a149-87cc9954bef4","9596d7a2-d401-47b1-aedd-70105f5f2f42","{""part"":""2"",""participantId"":""566DE7EF91D74926BD631D55854ED087"",""assignmentId"":""aba0ba8c-b647-46a1-a149-87cc9954bef4"",""projectId"":""9596d7a2-d401-47b1-aedd-70105f5f2f42""}","https://test12345.live/?part=2&participantId=566DE7EF91D74926BD631D55854ED087&assignmentId=aba0ba8c-b647-46a1-a149-87cc9954bef4&projectId=9596d7a2-d401-47b1-aedd-70105f5f2f42","566DE7EF91D74926BD631D55854ED087-2025-05-28-21-51-40","","null","","images/semantic_sequence/maintaining_a_car_semantic/maintaining_a_car_semantic_0.png","null","",""
"","","","","","html-audio-response","27","311917","0.0-22.0","566DE7EF91D74926BD631D55854ED087","566DE7EF91D74926BD631D55854ED087","aba0ba8c-b647-46a1-a149-87cc9954bef4","9596d7a2-d401-47b1-aedd-70105f5f2f42","{""part"":""2"",""participantId"":""566DE7EF91D74926BD631D55854ED087"",""assignmentId"":""aba0ba8c-b647-46a1-a149-87cc9954bef4"",""projectId"":""9596d7a2-d401-47b1-aedd-70105f5f2f42""}","https://test12345.live/?part=2&participantId=566DE7EF91D74926BD631D55854ED087&assignmentId=aba0ba8c-b647-46a1-a149-87cc9954bef4&projectId=9596d7a2-d401-47b1-aedd-70105f5f2f42","566DE7EF91D74926BD631D55854ED087-2025-05-28-21-51-40","","33566","","[""<span style=\""color: red; font-size: 24px\""> NOW RECORDING</span><p>Please say out loud all the images you saw in part 1 of the experiment, in the exact order you saw them. Try to recall as many images as you can, but remember: getting the order right is more important than the number of images you recall. </p>""]","","2","maintaining_a_car_semantic"
"","","","","","image-button-response","28","317922","0.0-23.0-0.0","566DE7EF91D74926BD631D55854ED087","566DE7EF91D74926BD631D55854ED087","aba0ba8c-b647-46a1-a149-87cc9954bef4","9596d7a2-d401-47b1-aedd-70105f5f2f42","{""part"":""2"",""participantId"":""566DE7EF91D74926BD631D55854ED087"",""assignmentId"":""aba0ba8c-b647-46a1-a149-87cc9954bef4"",""projectId"":""9596d7a2-d401-47b1-aedd-70105f5f2f42""}","https://test12345.live/?part=2&participantId=566DE7EF91D74926BD631D55854ED087&assignmentId=aba0ba8c-b647-46a1-a149-87cc9954bef4&projectId=9596d7a2-d401-47b1-aedd-70105f5f2f42","566DE7EF91D74926BD631D55854ED087-2025-05-28-21-51-40","","null","","images/schematic_sequence/flight_scheme/flight_scheme_0.png","null","",""
"","","","","","html-audio-response","29","374549","0.0-24.0","566DE7EF91D74926BD631D55854ED087","566DE7EF91D74926BD631D55854ED087","aba0ba8c-b647-46a1-a149-87cc9954bef4","9596d7a2-d401-47b1-aedd-70105f5f2f42","{""part"":""2"",""participantId"":""566DE7EF91D74926BD631D55854ED087"",""assignmentId"":""aba0ba8c-b647-46a1-a149-87cc9954bef4"",""projectId"":""9596d7a2-d401-47b1-aedd-70105f5f2f42""}","https://test12345.live/?part=2&participantId=566DE7EF91D74926BD631D55854ED087&assignmentId=aba0ba8c-b647-46a1-a149-87cc9954bef4&projectId=9596d7a2-d401-47b1-aedd-70105f5f2f42","566DE7EF91D74926BD631D55854ED087-2025-05-28-21-51-40","","31931","","[""<span style=\""color: red; font-size: 24px\""> NOW RECORDING</span><p>Please say out loud all the images you saw in part 1 of the experiment, in the exact order you saw them. Try to recall as many images as you can, but remember: getting the order right is more important than the number of images you recall. </p>""]","","2","flight_scheme"
"","","","","","image-button-response","30","380566","0.0-25.0-0.0","566DE7EF91D74926BD631D55854ED087","566DE7EF91D74926BD631D55854ED087","aba0ba8c-b647-46a1-a149-87cc9954bef4","9596d7a2-d401-47b1-aedd-70105f5f2f42","{""part"":""2"",""participantId"":""566DE7EF91D74926BD631D55854ED087"",""assignmentId"":""aba0ba8c-b647-46a1-a149-87cc9954bef4"",""projectId"":""9596d7a2-d401-47b1-aedd-70105f5f2f42""}","https://test12345.live/?part=2&participantId=566DE7EF91D74926BD631D55854ED087&assignmentId=aba0ba8c-b647-46a1-a149-87cc9954bef4&projectId=9596d7a2-d401-47b1-aedd-70105f5f2f42","566DE7EF91D74926BD631D55854ED087-2025-05-28-21-51-40","","null","","images/causal_sequence/coin_causal/coin_causal_0.png","null","",""
"","","","","","html-audio-response","31","415525","0.0-26.0","566DE7EF91D74926BD631D55854ED087","566DE7EF91D74926BD631D55854ED087","aba0ba8c-b647-46a1-a149-87cc9954bef4","9596d7a2-d401-47b1-aedd-70105f5f2f42","{""part"":""2"",""participantId"":""566DE7EF91D74926BD631D55854ED087"",""assignmentId"":""aba0ba8c-b647-46a1-a149-87cc9954bef4"",""projectId"":""9596d7a2-d401-47b1-aedd-70105f5f2f42""}","https://test12345.live/?part=2&participantId=566DE7EF91D74926BD631D55854ED087&assignmentId=aba0ba8c-b647-46a1-a149-87cc9954bef4&projectId=9596d7a2-d401-47b1-aedd-70105f5f2f42","566DE7EF91D74926BD631D55854ED087-2025-05-28-21-51-40","","34171","","[""<span style=\""color: red; font-size: 24px\""> NOW RECORDING</span><p>Please say out loud all the images you saw in part 1 of the experiment, in the exact order you saw them. Try to recall as many images as you can, but remember: getting the order right is more important than the number of images you recall. </p>""]","","2","coin_causal"
"","","","","","image-button-response","32","421543","0.0-27.0-0.0","566DE7EF91D74926BD631D55854ED087","566DE7EF91D74926BD631D55854ED087","aba0ba8c-b647-46a1-a149-87cc9954bef4","9596d7a2-d401-47b1-aedd-70105f5f2f42","{""part"":""2"",""participantId"":""566DE7EF91D74926BD631D55854ED087"",""assignmentId"":""aba0ba8c-b647-46a1-a149-87cc9954bef4"",""projectId"":""9596d7a2-d401-47b1-aedd-70105f5f2f42""}","https://test12345.live/?part=2&participantId=566DE7EF91D74926BD631D55854ED087&assignmentId=aba0ba8c-b647-46a1-a149-87cc9954bef4&projectId=9596d7a2-d401-47b1-aedd-70105f5f2f42","566DE7EF91D74926BD631D55854ED087-2025-05-28-21-51-40","","null","","images/schematic_sequence/restaurant_scheme/restaurant_scheme_0.png","null","",""
"","","","","","html-audio-response","33","446069","0.0-28.0","566DE7EF91D74926BD631D55854ED087","566DE7EF91D74926BD631D55854ED087","aba0ba8c-b647-46a1-a149-87cc9954bef4","9596d7a2-d401-47b1-aedd-70105f5f2f42","{""part"":""2"",""participantId"":""566DE7EF91D74926BD631D55854ED087"",""assignmentId"":""aba0ba8c-b647-46a1-a149-87cc9954bef4"",""projectId"":""9596d7a2-d401-47b1-aedd-70105f5f2f42""}","https://test12345.live/?part=2&participantId=566DE7EF91D74926BD631D55854ED087&assignmentId=aba0ba8c-b647-46a1-a149-87cc9954bef4&projectId=9596d7a2-d401-47b1-aedd-70105f5f2f42","566DE7EF91D74926BD631D55854ED087-2025-05-28-21-51-40","","23553","","[""<span style=\""color: red; font-size: 24px\""> NOW RECORDING</span><p>Please say out loud all the images you saw in part 1 of the experiment, in the exact order you saw them. Try to recall as many images as you can, but remember: getting the order right is more important than the number of images you recall. </p>""]","","1","restaurant_scheme"
"","","","","","image-button-response","34","452075","0.0-29.0-0.0","566DE7EF91D74926BD631D55854ED087","566DE7EF91D74926BD631D55854ED087","aba0ba8c-b647-46a1-a149-87cc9954bef4","9596d7a2-d401-47b1-aedd-70105f5f2f42","{""part"":""2"",""participantId"":""566DE7EF91D74926BD631D55854ED087"",""assignmentId"":""aba0ba8c-b647-46a1-a149-87cc9954bef4"",""projectId"":""9596d7a2-d401-47b1-aedd-70105f5f2f42""}","https://test12345.live/?part=2&participantId=566DE7EF91D74926BD631D55854ED087&assignmentId=aba0ba8c-b647-46a1-a149-87cc9954bef4&projectId=9596d7a2-d401-47b1-aedd-70105f5f2f42","566DE7EF91D74926BD631D55854ED087-2025-05-28-21-51-40","","null","","images/semantic_sequence/using_technology_semantic/using_technology_semantic_0.png","null","",""
"","","","","","html-audio-response","35","476901","0.0-30.0","566DE7EF91D74926BD631D55854ED087","566DE7EF91D74926BD631D55854ED087","aba0ba8c-b647-46a1-a149-87cc9954bef4","9596d7a2-d401-47b1-aedd-70105f5f2f42","{""part"":""2"",""participantId"":""566DE7EF91D74926BD631D55854ED087"",""assignmentId"":""aba0ba8c-b647-46a1-a149-87cc9954bef4"",""projectId"":""9596d7a2-d401-47b1-aedd-70105f5f2f42""}","https://test12345.live/?part=2&participantId=566DE7EF91D74926BD631D55854ED087&assignmentId=aba0ba8c-b647-46a1-a149-87cc9954bef4&projectId=9596d7a2-d401-47b1-aedd-70105f5f2f42","566DE7EF91D74926BD631D55854ED087-2025-05-28-21-51-40","","23293","","[""<span style=\""color: red; font-size: 24px\""> NOW RECORDING</span><p>Please say out loud all the images you saw in part 1 of the experiment, in the exact order you saw them. Try to recall as many images as you can, but remember: getting the order right is more important than the number of images you recall. </p>""]","","8","using_technology_semantic"
"","","","","","image-button-response","36","482908","0.0-31.0-0.0","566DE7EF91D74926BD631D55854ED087","566DE7EF91D74926BD631D55854ED087","aba0ba8c-b647-46a1-a149-87cc9954bef4","9596d7a2-d401-47b1-aedd-70105f5f2f42","{""part"":""2"",""participantId"":""566DE7EF91D74926BD631D55854ED087"",""assignmentId"":""aba0ba8c-b647-46a1-a149-87cc9954bef4"",""projectId"":""9596d7a2-d401-47b1-aedd-70105f5f2f42""}","https://test12345.live/?part=2&participantId=566DE7EF91D74926BD631D55854ED087&assignmentId=aba0ba8c-b647-46a1-a149-87cc9954bef4&projectId=9596d7a2-d401-47b1-aedd-70105f5f2f42","566DE7EF91D74926BD631D55854ED087-2025-05-28-21-51-40","","null","","images/semantic_sequence/redecorating_semantic/redecorating_semantic_0.png","null","",""
"","","","","","html-audio-response","37","519965","0.0-32.0","566DE7EF91D74926BD631D55854ED087","566DE7EF91D74926BD631D55854ED087","aba0ba8c-b647-46a1-a149-87cc9954bef4","9596d7a2-d401-47b1-aedd-70105f5f2f42","{""part"":""2"",""participantId"":""566DE7EF91D74926BD631D55854ED087"",""assignmentId"":""aba0ba8c-b647-46a1-a149-87cc9954bef4"",""projectId"":""9596d7a2-d401-47b1-aedd-70105f5f2f42""}","https://test12345.live/?part=2&participantId=566DE7EF91D74926BD631D55854ED087&assignmentId=aba0ba8c-b647-46a1-a149-87cc9954bef4&projectId=9596d7a2-d401-47b1-aedd-70105f5f2f42","566DE7EF91D74926BD631D55854ED087-2025-05-28-21-51-40","","33126","","[""<span style=\""color: red; font-size: 24px\""> NOW RECORDING</span><p>Please say out loud all the images you saw in part 1 of the experiment, in the exact order you saw them. Try to recall as many images as you can, but remember: getting the order right is more important than the number of images you recall. </p>""]","","1","redecorating_semantic"
"","","","","","image-button-response","38","525973","0.0-33.0-0.0","566DE7EF91D74926BD631D55854ED087","566DE7EF91D74926BD631D55854ED087","aba0ba8c-b647-46a1-a149-87cc9954bef4","9596d7a2-d401-47b1-aedd-70105f5f2f42","{""part"":""2"",""participantId"":""566DE7EF91D74926BD631D55854ED087"",""assignmentId"":""aba0ba8c-b647-46a1-a149-87cc9954bef4"",""projectId"":""9596d7a2-d401-47b1-aedd-70105f5f2f42""}","https://test12345.live/?part=2&participantId=566DE7EF91D74926BD631D55854ED087&assignmentId=aba0ba8c-b647-46a1-a149-87cc9954bef4&projectId=9596d7a2-d401-47b1-aedd-70105f5f2f42","566DE7EF91D74926BD631D55854ED087-2025-05-28-21-51-40","","null","","images/semantic_sequence/kitchen_operations_semantic/kitchen_operations_semantic_0.png","null","",""
"","","","","","html-audio-response","39","558189","0.0-34.0","566DE7EF91D74926BD631D55854ED087","566DE7EF91D74926BD631D55854ED087","aba0ba8c-b647-46a1-a149-87cc9954bef4","9596d7a2-d401-47b1-aedd-70105f5f2f42","{""part"":""2"",""participantId"":""566DE7EF91D74926BD631D55854ED087"",""assignmentId"":""aba0ba8c-b647-46a1-a149-87cc9954bef4"",""projectId"":""9596d7a2-d401-47b1-aedd-70105f5f2f42""}","https://test12345.live/?part=2&participantId=566DE7EF91D74926BD631D55854ED087&assignmentId=aba0ba8c-b647-46a1-a149-87cc9954bef4&projectId=9596d7a2-d401-47b1-aedd-70105f5f2f42","566DE7EF91D74926BD631D55854ED087-2025-05-28-21-51-40","","31329","","[""<span style=\""color: red; font-size: 24px\""> NOW RECORDING</span><p>Please say out loud all the images you saw in part 1 of the experiment, in the exact order you saw them. Try to recall as many images as you can, but remember: getting the order right is more important than the number of images you recall. </p>""]","","1","kitchen_operations_semantic"
"","","","","","instructions","40","559853","0.0-35.0","566DE7EF91D74926BD631D55854ED087","566DE7EF91D74926BD631D55854ED087","aba0ba8c-b647-46a1-a149-87cc9954bef4","9596d7a2-d401-47b1-aedd-70105f5f2f42","{""part"":""2"",""participantId"":""566DE7EF91D74926BD631D55854ED087"",""assignmentId"":""aba0ba8c-b647-46a1-a149-87cc9954bef4"",""projectId"":""9596d7a2-d401-47b1-aedd-70105f5f2f42""}","https://test12345.live/?part=2&participantId=566DE7EF91D74926BD631D55854ED087&assignmentId=aba0ba8c-b647-46a1-a149-87cc9954bef4&projectId=9596d7a2-d401-47b1-aedd-70105f5f2f42","566DE7EF91D74926BD631D55854ED087-2025-05-28-21-51-40","[{""page_index"":0,""viewing_time"":1660}]","1660","","","","",""
"","","","","","image-button-response","41","565868","0.0-36.0-0.0","566DE7EF91D74926BD631D55854ED087","566DE7EF91D74926BD631D55854ED087","aba0ba8c-b647-46a1-a149-87cc9954bef4","9596d7a2-d401-47b1-aedd-70105f5f2f42","{""part"":""2"",""participantId"":""566DE7EF91D74926BD631D55854ED087"",""assignmentId"":""aba0ba8c-b647-46a1-a149-87cc9954bef4"",""projectId"":""9596d7a2-d401-47b1-aedd-70105f5f2f42""}","https://test12345.live/?part=2&participantId=566DE7EF91D74926BD631D55854ED087&assignmentId=aba0ba8c-b647-46a1-a149-87cc9954bef4&projectId=9596d7a2-d401-47b1-aedd-70105f5f2f42","566DE7EF91D74926BD631D55854ED087-2025-05-28-21-51-40","","null","","images/semantic_sequence/exploring_nature_semantic/exploring_nature_semantic_0.png","null","",""
"","","","","","html-audio-response","42","597045","0.0-37.0","566DE7EF91D74926BD631D55854ED087","566DE7EF91D74926BD631D55854ED087","aba0ba8c-b647-46a1-a149-87cc9954bef4","9596d7a2-d401-47b1-aedd-70105f5f2f42","{""part"":""2"",""participantId"":""566DE7EF91D74926BD631D55854ED087"",""assignmentId"":""aba0ba8c-b647-46a1-a149-87cc9954bef4"",""projectId"":""9596d7a2-d401-47b1-aedd-70105f5f2f42""}","https://test12345.live/?part=2&participantId=566DE7EF91D74926BD631D55854ED087&assignmentId=aba0ba8c-b647-46a1-a149-87cc9954bef4&projectId=9596d7a2-d401-47b1-aedd-70105f5f2f42","566DE7EF91D74926BD631D55854ED087-2025-05-28-21-51-40","","30222","","[""<span style=\""color: red; font-size: 24px\""> NOW RECORDING</span><p>Please say out loud all the images you saw in part 1 of the experiment, in the exact order you saw them. Try to recall as many images as you can, but remember: getting the order right is more important than the number of images you recall. </p>""]","","2","exploring_nature_semantic"
"","","","","","image-button-response","43","603051","0.0-38.0-0.0","566DE7EF91D74926BD631D55854ED087","566DE7EF91D74926BD631D55854ED087","aba0ba8c-b647-46a1-a149-87cc9954bef4","9596d7a2-d401-47b1-aedd-70105f5f2f42","{""part"":""2"",""participantId"":""566DE7EF91D74926BD631D55854ED087"",""assignmentId"":""aba0ba8c-b647-46a1-a149-87cc9954bef4"",""projectId"":""9596d7a2-d401-47b1-aedd-70105f5f2f42""}","https://test12345.live/?part=2&participantId=566DE7EF91D74926BD631D55854ED087&assignmentId=aba0ba8c-b647-46a1-a149-87cc9954bef4&projectId=9596d7a2-d401-47b1-aedd-70105f5f2f42","566DE7EF91D74926BD631D55854ED087-2025-05-28-21-51-40","","null","","images/semantic_sequence/cat_care_semantic/cat_care_semantic_0.png","null","",""
"","","","","","html-audio-response","44","625238","0.0-39.0","566DE7EF91D74926BD631D55854ED087","566DE7EF91D74926BD631D55854ED087","aba0ba8c-b647-46a1-a149-87cc9954bef4","9596d7a2-d401-47b1-aedd-70105f5f2f42","{""part"":""2"",""participantId"":""566DE7EF91D74926BD631D55854ED087"",""assignmentId"":""aba0ba8c-b647-46a1-a149-87cc9954bef4"",""projectId"":""9596d7a2-d401-47b1-aedd-70105f5f2f42""}","https://test12345.live/?part=2&participantId=566DE7EF91D74926BD631D55854ED087&assignmentId=aba0ba8c-b647-46a1-a149-87cc9954bef4&projectId=9596d7a2-d401-47b1-aedd-70105f5f2f42","566DE7EF91D74926BD631D55854ED087-2025-05-28-21-51-40","","21475","","[""<span style=\""color: red; font-size: 24px\""> NOW RECORDING</span><p>Please say out loud all the images you saw in part 1 of the experiment, in the exact order you saw them. Try to recall as many images as you can, but remember: getting the order right is more important than the number of images you recall. </p>""]","","2","cat_care_semantic"
"","","","","","image-button-response","45","631253","0.0-40.0-0.0","566DE7EF91D74926BD631D55854ED087","566DE7EF91D74926BD631D55854ED087","aba0ba8c-b647-46a1-a149-87cc9954bef4","9596d7a2-d401-47b1-aedd-70105f5f2f42","{""part"":""2"",""participantId"":""566DE7EF91D74926BD631D55854ED087"",""assignmentId"":""aba0ba8c-b647-46a1-a149-87cc9954bef4"",""projectId"":""9596d7a2-d401-47b1-aedd-70105f5f2f42""}","https://test12345.live/?part=2&participantId=566DE7EF91D74926BD631D55854ED087&assignmentId=aba0ba8c-b647-46a1-a149-87cc9954bef4&projectId=9596d7a2-d401-47b1-aedd-70105f5f2f42","566DE7EF91D74926BD631D55854ED087-2025-05-28-21-51-40","","null","","images/semantic_sequence/market_semantic/market_semantic_0.png","null","",""
"","","","","","html-audio-response","46","670445","0.0-41.0","566DE7EF91D74926BD631D55854ED087","566DE7EF91D74926BD631D55854ED087","aba0ba8c-b647-46a1-a149-87cc9954bef4","9596d7a2-d401-47b1-aedd-70105f5f2f42","{""part"":""2"",""participantId"":""566DE7EF91D74926BD631D55854ED087"",""assignmentId"":""aba0ba8c-b647-46a1-a149-87cc9954bef4"",""projectId"":""9596d7a2-d401-47b1-aedd-70105f5f2f42""}","https://test12345.live/?part=2&participantId=566DE7EF91D74926BD631D55854ED087&assignmentId=aba0ba8c-b647-46a1-a149-87cc9954bef4&projectId=9596d7a2-d401-47b1-aedd-70105f5f2f42","566DE7EF91D74926BD631D55854ED087-2025-05-28-21-51-40","","38690","","[""<span style=\""color: red; font-size: 24px\""> NOW RECORDING</span><p>Please say out loud all the images you saw in part 1 of the experiment, in the exact order you saw them. Try to recall as many images as you can, but remember: getting the order right is more important than the number of images you recall. </p>""]","","2","market_semantic"
"","","","","","image-button-response","47","676454","0.0-42.0-0.0","566DE7EF91D74926BD631D55854ED087","566DE7EF91D74926BD631D55854ED087","aba0ba8c-b647-46a1-a149-87cc9954bef4","9596d7a2-d401-47b1-aedd-70105f5f2f42","{""part"":""2"",""participantId"":""566DE7EF91D74926BD631D55854ED087"",""assignmentId"":""aba0ba8c-b647-46a1-a149-87cc9954bef4"",""projectId"":""9596d7a2-d401-47b1-aedd-70105f5f2f42""}","https://test12345.live/?part=2&participantId=566DE7EF91D74926BD631D55854ED087&assignmentId=aba0ba8c-b647-46a1-a149-87cc9954bef4&projectId=9596d7a2-d401-47b1-aedd-70105f5f2f42","566DE7EF91D74926BD631D55854ED087-2025-05-28-21-51-40","","null","","images/schematic_sequence/hotel_scheme/hotel_scheme_0.png","null","",""
"","","","","","html-audio-response","48","713685","0.0-43.0","566DE7EF91D74926BD631D55854ED087","566DE7EF91D74926BD631D55854ED087","aba0ba8c-b647-46a1-a149-87cc9954bef4","9596d7a2-d401-47b1-aedd-70105f5f2f42","{""part"":""2"",""participantId"":""566DE7EF91D74926BD631D55854ED087"",""assignmentId"":""aba0ba8c-b647-46a1-a149-87cc9954bef4"",""projectId"":""9596d7a2-d401-47b1-aedd-70105f5f2f42""}","https://test12345.live/?part=2&participantId=566DE7EF91D74926BD631D55854ED087&assignmentId=aba0ba8c-b647-46a1-a149-87cc9954bef4&projectId=9596d7a2-d401-47b1-aedd-70105f5f2f42","566DE7EF91D74926BD631D55854ED087-2025-05-28-21-51-40","","36696","","[""<span style=\""color: red; font-size: 24px\""> NOW RECORDING</span><p>Please say out loud all the images you saw in part 1 of the experiment, in the exact order you saw them. Try to recall as many images as you can, but remember: getting the order right is more important than the number of images you recall. </p>""]","","2","hotel_scheme"
"","","","","","image-button-response","49","719703","0.0-44.0-0.0","566DE7EF91D74926BD631D55854ED087","566DE7EF91D74926BD631D55854ED087","aba0ba8c-b647-46a1-a149-87cc9954bef4","9596d7a2-d401-47b1-aedd-70105f5f2f42","{""part"":""2"",""participantId"":""566DE7EF91D74926BD631D55854ED087"",""assignmentId"":""aba0ba8c-b647-46a1-a149-87cc9954bef4"",""projectId"":""9596d7a2-d401-47b1-aedd-70105f5f2f42""}","https://test12345.live/?part=2&participantId=566DE7EF91D74926BD631D55854ED087&assignmentId=aba0ba8c-b647-46a1-a149-87cc9954bef4&projectId=9596d7a2-d401-47b1-aedd-70105f5f2f42","566DE7EF91D74926BD631D55854ED087-2025-05-28-21-51-40","","null","","images/causal_sequence/the_performance_causal/the_performance_causal_0.png","null","",""
"","","","","","html-audio-response","50","752301","0.0-45.0","566DE7EF91D74926BD631D55854ED087","566DE7EF91D74926BD631D55854ED087","aba0ba8c-b647-46a1-a149-87cc9954bef4","9596d7a2-d401-47b1-aedd-70105f5f2f42","{""part"":""2"",""participantId"":""566DE7EF91D74926BD631D55854ED087"",""assignmentId"":""aba0ba8c-b647-46a1-a149-87cc9954bef4"",""projectId"":""9596d7a2-d401-47b1-aedd-70105f5f2f42""}","https://test12345.live/?part=2&participantId=566DE7EF91D74926BD631D55854ED087&assignmentId=aba0ba8c-b647-46a1-a149-87cc9954bef4&projectId=9596d7a2-d401-47b1-aedd-70105f5f2f42","566DE7EF91D74926BD631D55854ED087-2025-05-28-21-51-40","","31903","","[""<span style=\""color: red; font-size: 24px\""> NOW RECORDING</span><p>Please say out loud all the images you saw in part 1 of the experiment, in the exact order you saw them. Try to recall as many images as you can, but remember: getting the order right is more important than the number of images you recall. </p>""]","","2","the_performance_causal"
"","","","","","image-button-response","51","758312","0.0-46.0-0.0","566DE7EF91D74926BD631D55854ED087","566DE7EF91D74926BD631D55854ED087","aba0ba8c-b647-46a1-a149-87cc9954bef4","9596d7a2-d401-47b1-aedd-70105f5f2f42","{""part"":""2"",""participantId"":""566DE7EF91D74926BD631D55854ED087"",""assignmentId"":""aba0ba8c-b647-46a1-a149-87cc9954bef4"",""projectId"":""9596d7a2-d401-47b1-aedd-70105f5f2f42""}","https://test12345.live/?part=2&participantId=566DE7EF91D74926BD631D55854ED087&assignmentId=aba0ba8c-b647-46a1-a149-87cc9954bef4&projectId=9596d7a2-d401-47b1-aedd-70105f5f2f42","566DE7EF91D74926BD631D55854ED087-2025-05-28-21-51-40","","null","","images/semantic_sequence/physical_activity_semantic/physical_activity_semantic_0.png","null","",""
"","","","","","html-audio-response","52","791693","0.0-47.0","566DE7EF91D74926BD631D55854ED087","566DE7EF91D74926BD631D55854ED087","aba0ba8c-b647-46a1-a149-87cc9954bef4","9596d7a2-d401-47b1-aedd-70105f5f2f42","{""part"":""2"",""participantId"":""566DE7EF91D74926BD631D55854ED087"",""assignmentId"":""aba0ba8c-b647-46a1-a149-87cc9954bef4"",""projectId"":""9596d7a2-d401-47b1-aedd-70105f5f2f42""}","https://test12345.live/?part=2&participantId=566DE7EF91D74926BD631D55854ED087&assignmentId=aba0ba8c-b647-46a1-a149-87cc9954bef4&projectId=9596d7a2-d401-47b1-aedd-70105f5f2f42","566DE7EF91D74926BD631D55854ED087-2025-05-28-21-51-40","","32744","","[""<span style=\""color: red; font-size: 24px\""> NOW RECORDING</span><p>Please say out loud all the images you saw in part 1 of the experiment, in the exact order you saw them. Try to recall as many images as you can, but remember: getting the order right is more important than the number of images you recall. </p>""]","","1","physical_activity_semantic"
"","","","","","image-button-response","53","797705","0.0-48.0-0.0","566DE7EF91D74926BD631D55854ED087","566DE7EF91D74926BD631D55854ED087","aba0ba8c-b647-46a1-a149-87cc9954bef4","9596d7a2-d401-47b1-aedd-70105f5f2f42","{""part"":""2"",""participantId"":""566DE7EF91D74926BD631D55854ED087"",""assignmentId"":""aba0ba8c-b647-46a1-a149-87cc9954bef4"",""projectId"":""9596d7a2-d401-47b1-aedd-70105f5f2f42""}","https://test12345.live/?part=2&participantId=566DE7EF91D74926BD631D55854ED087&assignmentId=aba0ba8c-b647-46a1-a149-87cc9954bef4&projectId=9596d7a2-d401-47b1-aedd-70105f5f2f42","566DE7EF91D74926BD631D55854ED087-2025-05-28-21-51-40","","null","","images/causal_sequence/museum_causal/museum_causal_0.png","null","",""
"","","","","","html-audio-response","54","830381","0.0-49.0","566DE7EF91D74926BD631D55854ED087","566DE7EF91D74926BD631D55854ED087","aba0ba8c-b647-46a1-a149-87cc9954bef4","9596d7a2-d401-47b1-aedd-70105f5f2f42","{""part"":""2"",""participantId"":""566DE7EF91D74926BD631D55854ED087"",""assignmentId"":""aba0ba8c-b647-46a1-a149-87cc9954bef4"",""projectId"":""9596d7a2-d401-47b1-aedd-70105f5f2f42""}","https://test12345.live/?part=2&participantId=566DE7EF91D74926BD631D55854ED087&assignmentId=aba0ba8c-b647-46a1-a149-87cc9954bef4&projectId=9596d7a2-d401-47b1-aedd-70105f5f2f42","566DE7EF91D74926BD631D55854ED087-2025-05-28-21-51-40","","31957","","[""<span style=\""color: red; font-size: 24px\""> NOW RECORDING</span><p>Please say out loud all the images you saw in part 1 of the experiment, in the exact order you saw them. Try to recall as many images as you can, but remember: getting the order right is more important than the number of images you recall. </p>""]","","2","museum_causal"
"","","","","","image-button-response","55","836386","0.0-50.0-0.0","566DE7EF91D74926BD631D55854ED087","566DE7EF91D74926BD631D55854ED087","aba0ba8c-b647-46a1-a149-87cc9954bef4","9596d7a2-d401-47b1-aedd-70105f5f2f42","{""part"":""2"",""participantId"":""566DE7EF91D74926BD631D55854ED087"",""assignmentId"":""aba0ba8c-b647-46a1-a149-87cc9954bef4"",""projectId"":""9596d7a2-d401-47b1-aedd-70105f5f2f42""}","https://test12345.live/?part=2&participantId=566DE7EF91D74926BD631D55854ED087&assignmentId=aba0ba8c-b647-46a1-a149-87cc9954bef4&projectId=9596d7a2-d401-47b1-aedd-70105f5f2f42","566DE7EF91D74926BD631D55854ED087-2025-05-28-21-51-40","","null","","images/schematic_sequence/interview_scheme/interview_scheme_0.png","null","",""
"","","","","","html-audio-response","56","864605","0.0-51.0","566DE7EF91D74926BD631D55854ED087","566DE7EF91D74926BD631D55854ED087","aba0ba8c-b647-46a1-a149-87cc9954bef4","9596d7a2-d401-47b1-aedd-70105f5f2f42","{""part"":""2"",""participantId"":""566DE7EF91D74926BD631D55854ED087"",""assignmentId"":""aba0ba8c-b647-46a1-a149-87cc9954bef4"",""projectId"":""9596d7a2-d401-47b1-aedd-70105f5f2f42""}","https://test12345.live/?part=2&participantId=566DE7EF91D74926BD631D55854ED087&assignmentId=aba0ba8c-b647-46a1-a149-87cc9954bef4&projectId=9596d7a2-d401-47b1-aedd-70105f5f2f42","566DE7EF91D74926BD631D55854ED087-2025-05-28-21-51-40","","27624","","[""<span style=\""color: red; font-size: 24px\""> NOW RECORDING</span><p>Please say out loud all the images you saw in part 1 of the experiment, in the exact order you saw them. Try to recall as many images as you can, but remember: getting the order right is more important than the number of images you recall. </p>""]","","17","interview_scheme"
"","","","","","image-button-response","57","870619","0.0-52.0-0.0","566DE7EF91D74926BD631D55854ED087","566DE7EF91D74926BD631D55854ED087","aba0ba8c-b647-46a1-a149-87cc9954bef4","9596d7a2-d401-47b1-aedd-70105f5f2f42","{""part"":""2"",""participantId"":""566DE7EF91D74926BD631D55854ED087"",""assignmentId"":""aba0ba8c-b647-46a1-a149-87cc9954bef4"",""projectId"":""9596d7a2-d401-47b1-aedd-70105f5f2f42""}","https://test12345.live/?part=2&participantId=566DE7EF91D74926BD631D55854ED087&assignmentId=aba0ba8c-b647-46a1-a149-87cc9954bef4&projectId=9596d7a2-d401-47b1-aedd-70105f5f2f42","566DE7EF91D74926BD631D55854ED087-2025-05-28-21-51-40","","null","","images/semantic_sequence/visiting_cities_semantic/visiting_cities_semantic_0.png","null","",""
"","","","","","html-audio-response","58","910142","0.0-53.0","566DE7EF91D74926BD631D55854ED087","566DE7EF91D74926BD631D55854ED087","aba0ba8c-b647-46a1-a149-87cc9954bef4","9596d7a2-d401-47b1-aedd-70105f5f2f42","{""part"":""2"",""participantId"":""566DE7EF91D74926BD631D55854ED087"",""assignmentId"":""aba0ba8c-b647-46a1-a149-87cc9954bef4"",""projectId"":""9596d7a2-d401-47b1-aedd-70105f5f2f42""}","https://test12345.live/?part=2&participantId=566DE7EF91D74926BD631D55854ED087&assignmentId=aba0ba8c-b647-46a1-a149-87cc9954bef4&projectId=9596d7a2-d401-47b1-aedd-70105f5f2f42","566DE7EF91D74926BD631D55854ED087-2025-05-28-21-51-40","","38863","","[""<span style=\""color: red; font-size: 24px\""> NOW RECORDING</span><p>Please say out loud all the images you saw in part 1 of the experiment, in the exact order you saw them. Try to recall as many images as you can, but remember: getting the order right is more important than the number of images you recall. </p>""]","","2","visiting_cities_semantic"
"","","","","","image-button-response","59","916159","0.0-54.0-0.0","566DE7EF91D74926BD631D55854ED087","566DE7EF91D74926BD631D55854ED087","aba0ba8c-b647-46a1-a149-87cc9954bef4","9596d7a2-d401-47b1-aedd-70105f5f2f42","{""part"":""2"",""participantId"":""566DE7EF91D74926BD631D55854ED087"",""assignmentId"":""aba0ba8c-b647-46a1-a149-87cc9954bef4"",""projectId"":""9596d7a2-d401-47b1-aedd-70105f5f2f42""}","https://test12345.live/?part=2&participantId=566DE7EF91D74926BD631D55854ED087&assignmentId=aba0ba8c-b647-46a1-a149-87cc9954bef4&projectId=9596d7a2-d401-47b1-aedd-70105f5f2f42","566DE7EF91D74926BD631D55854ED087-2025-05-28-21-51-40","","null","","images/semantic_sequence/creative_activities_semantic/creative_activities_semantic_0.png","null","",""
"","","","","","html-audio-response","60","939398","0.0-55.0","566DE7EF91D74926BD631D55854ED087","566DE7EF91D74926BD631D55854ED087","aba0ba8c-b647-46a1-a149-87cc9954bef4","9596d7a2-d401-47b1-aedd-70105f5f2f42","{""part"":""2"",""participantId"":""566DE7EF91D74926BD631D55854ED087"",""assignmentId"":""aba0ba8c-b647-46a1-a149-87cc9954bef4"",""projectId"":""9596d7a2-d401-47b1-aedd-70105f5f2f42""}","https://test12345.live/?part=2&participantId=566DE7EF91D74926BD631D55854ED087&assignmentId=aba0ba8c-b647-46a1-a149-87cc9954bef4&projectId=9596d7a2-d401-47b1-aedd-70105f5f2f42","566DE7EF91D74926BD631D55854ED087-2025-05-28-21-51-40","","22356","","[""<span style=\""color: red; font-size: 24px\""> NOW RECORDING</span><p>Please say out loud all the images you saw in part 1 of the experiment, in the exact order you saw them. Try to recall as many images as you can, but remember: getting the order right is more important than the number of images you recall. </p>""]","","2","creative_activities_semantic"
"","","","","","image-button-response","61","945409","0.0-56.0-0.0","566DE7EF91D74926BD631D55854ED087","566DE7EF91D74926BD631D55854ED087","aba0ba8c-b647-46a1-a149-87cc9954bef4","9596d7a2-d401-47b1-aedd-70105f5f2f42","{""part"":""2"",""participantId"":""566DE7EF91D74926BD631D55854ED087"",""assignmentId"":""aba0ba8c-b647-46a1-a149-87cc9954bef4"",""projectId"":""9596d7a2-d401-47b1-aedd-70105f5f2f42""}","https://test12345.live/?part=2&participantId=566DE7EF91D74926BD631D55854ED087&assignmentId=aba0ba8c-b647-46a1-a149-87cc9954bef4&projectId=9596d7a2-d401-47b1-aedd-70105f5f2f42","566DE7EF91D74926BD631D55854ED087-2025-05-28-21-51-40","","null","","images/schematic_sequence/supermarket_scheme/supermarket_scheme_0.png","null","",""
"","","","","","html-audio-response","62","976086","0.0-57.0","566DE7EF91D74926BD631D55854ED087","566DE7EF91D74926BD631D55854ED087","aba0ba8c-b647-46a1-a149-87cc9954bef4","9596d7a2-d401-47b1-aedd-70105f5f2f42","{""part"":""2"",""participantId"":""566DE7EF91D74926BD631D55854ED087"",""assignmentId"":""aba0ba8c-b647-46a1-a149-87cc9954bef4"",""projectId"":""9596d7a2-d401-47b1-aedd-70105f5f2f42""}","https://test12345.live/?part=2&participantId=566DE7EF91D74926BD631D55854ED087&assignmentId=aba0ba8c-b647-46a1-a149-87cc9954bef4&projectId=9596d7a2-d401-47b1-aedd-70105f5f2f42","566DE7EF91D74926BD631D55854ED087-2025-05-28-21-51-40","","29604","","[""<span style=\""color: red; font-size: 24px\""> NOW RECORDING</span><p>Please say out loud all the images you saw in part 1 of the experiment, in the exact order you saw them. Try to recall as many images as you can, but remember: getting the order right is more important than the number of images you recall. </p>""]","","1","supermarket_scheme"
"","","","","","survey-text","63","980934","0.0-58.0","566DE7EF91D74926BD631D55854ED087","566DE7EF91D74926BD631D55854ED087","aba0ba8c-b647-46a1-a149-87cc9954bef4","9596d7a2-d401-47b1-aedd-70105f5f2f42","{""part"":""2"",""participantId"":""566DE7EF91D74926BD631D55854ED087"",""assignmentId"":""aba0ba8c-b647-46a1-a149-87cc9954bef4"",""projectId"":""9596d7a2-d401-47b1-aedd-70105f5f2f42""}","https://test12345.live/?part=2&participantId=566DE7EF91D74926BD631D55854ED087&assignmentId=aba0ba8c-b647-46a1-a149-87cc9954bef4&projectId=9596d7a2-d401-47b1-aedd-70105f5f2f42","566DE7EF91D74926BD631D55854ED087-2025-05-28-21-51-40","","4843","","","{""Q0"":""Male"",""Q1"":""22""}","",""
"","","","","","instructions","64","984214","0.0-59.0","566DE7EF91D74926BD631D55854ED087","566DE7EF91D74926BD631D55854ED087","aba0ba8c-b647-46a1-a149-87cc9954bef4","9596d7a2-d401-47b1-aedd-70105f5f2f42","{""part"":""2"",""participantId"":""566DE7EF91D74926BD631D55854ED087"",""assignmentId"":""aba0ba8c-b647-46a1-a149-87cc9954bef4"",""projectId"":""9596d7a2-d401-47b1-aedd-70105f5f2f42""}","https://test12345.live/?part=2&participantId=566DE7EF91D74926BD631D55854ED087&assignmentId=aba0ba8c-b647-46a1-a149-87cc9954bef4&projectId=9596d7a2-d401-47b1-aedd-70105f5f2f42","566DE7EF91D74926BD631D55854ED087-2025-05-28-21-51-40","[{""page_index"":0,""viewing_time"":3279}]","3279","","","","",""
"","","","","","survey-text","65","985798","0.0-60.0","566DE7EF91D74926BD631D55854ED087","566DE7EF91D74926BD631D55854ED087","aba0ba8c-b647-46a1-a149-87cc9954bef4","9596d7a2-d401-47b1-aedd-70105f5f2f42","{""part"":""2"",""participantId"":""566DE7EF91D74926BD631D55854ED087"",""assignmentId"":""aba0ba8c-b647-46a1-a149-87cc9954bef4"",""projectId"":""9596d7a2-d401-47b1-aedd-70105f5f2f42""}","https://test12345.live/?part=2&participantId=566DE7EF91D74926BD631D55854ED087&assignmentId=aba0ba8c-b647-46a1-a149-87cc9954bef4&projectId=9596d7a2-d401-47b1-aedd-70105f5f2f42","566DE7EF91D74926BD631D55854ED087-2025-05-28-21-51-40","","1583","","","{""Q0"":""AJFHBG896""}","",""
