"success","timeout","failed_images","failed_audio","failed_video","trial_type","trial_index","time_elapsed","internal_node_id","subject","subject_id","study_id","session_id","urlvar","current_url","audio_id","view_history","rt","device_id","stimulus","response","estimated_stimulus_onset","seq_name"
"true","false","[]","[]","[]","preload","0","18226","0.0-0.0","5C598EC41BCB461B95A75E8D255C46C8","5C598EC41BCB461B95A75E8D255C46C8","171315f6-911b-483c-989e-4ecd56a4539c","e9cc2542-c7dc-4d8f-b94f-d088ad8989d1","{""part"":""2"",""participantId"":""5C598EC41BCB461B95A75E8D255C46C8"",""assignmentId"":""171315f6-911b-483c-989e-4ecd56a4539c"",""projectId"":""e9cc2542-c7dc-4d8f-b94f-d088ad8989d1""}","https://test12345.live/?part=2&participantId=5C598EC41BCB461B95A75E8D255C46C8&assignmentId=171315f6-911b-483c-989e-4ecd56a4539c&projectId=e9cc2542-c7dc-4d8f-b94f-d088ad8989d1","5C598EC41BCB461B95A75E8D255C46C8-2025-05-16-19-12-52","","","","","","",""
"","","","","","instructions","1","34118","0.0-1.0","5C598EC41BCB461B95A75E8D255C46C8","5C598EC41BCB461B95A75E8D255C46C8","171315f6-911b-483c-989e-4ecd56a4539c","e9cc2542-c7dc-4d8f-b94f-d088ad8989d1","{""part"":""2"",""participantId"":""5C598EC41BCB461B95A75E8D255C46C8"",""assignmentId"":""171315f6-911b-483c-989e-4ecd56a4539c"",""projectId"":""e9cc2542-c7dc-4d8f-b94f-d088ad8989d1""}","https://test12345.live/?part=2&participantId=5C598EC41BCB461B95A75E8D255C46C8&assignmentId=171315f6-911b-483c-989e-4ecd56a4539c&projectId=e9cc2542-c7dc-4d8f-b94f-d088ad8989d1","5C598EC41BCB461B95A75E8D255C46C8-2025-05-16-19-12-52","[{""page_index"":0,""viewing_time"":15892}]","15892","","","","",""
"","","","","","instructions","2","44815","0.0-2.0","5C598EC41BCB461B95A75E8D255C46C8","5C598EC41BCB461B95A75E8D255C46C8","171315f6-911b-483c-989e-4ecd56a4539c","e9cc2542-c7dc-4d8f-b94f-d088ad8989d1","{""part"":""2"",""participantId"":""5C598EC41BCB461B95A75E8D255C46C8"",""assignmentId"":""171315f6-911b-483c-989e-4ecd56a4539c"",""projectId"":""e9cc2542-c7dc-4d8f-b94f-d088ad8989d1""}","https://test12345.live/?part=2&participantId=5C598EC41BCB461B95A75E8D255C46C8&assignmentId=171315f6-911b-483c-989e-4ecd56a4539c&projectId=e9cc2542-c7dc-4d8f-b94f-d088ad8989d1","5C598EC41BCB461B95A75E8D255C46C8-2025-05-16-19-12-52","[{""page_index"":0,""viewing_time"":10697}]","10697","","","","",""
"true","","","","","fullscreen","3","61645","0.0-3.0","5C598EC41BCB461B95A75E8D255C46C8","5C598EC41BCB461B95A75E8D255C46C8","171315f6-911b-483c-989e-4ecd56a4539c","e9cc2542-c7dc-4d8f-b94f-d088ad8989d1","{""part"":""2"",""participantId"":""5C598EC41BCB461B95A75E8D255C46C8"",""assignmentId"":""171315f6-911b-483c-989e-4ecd56a4539c"",""projectId"":""e9cc2542-c7dc-4d8f-b94f-d088ad8989d1""}","https://test12345.live/?part=2&participantId=5C598EC41BCB461B95A75E8D255C46C8&assignmentId=171315f6-911b-483c-989e-4ecd56a4539c&projectId=e9cc2542-c7dc-4d8f-b94f-d088ad8989d1","5C598EC41BCB461B95A75E8D255C46C8-2025-05-16-19-12-52","","15824","","","","",""
"","","","","","initialize-microphone","4","65408","0.0-4.0-0.0","5C598EC41BCB461B95A75E8D255C46C8","5C598EC41BCB461B95A75E8D255C46C8","171315f6-911b-483c-989e-4ecd56a4539c","e9cc2542-c7dc-4d8f-b94f-d088ad8989d1","{""part"":""2"",""participantId"":""5C598EC41BCB461B95A75E8D255C46C8"",""assignmentId"":""171315f6-911b-483c-989e-4ecd56a4539c"",""projectId"":""e9cc2542-c7dc-4d8f-b94f-d088ad8989d1""}","https://test12345.live/?part=2&participantId=5C598EC41BCB461B95A75E8D255C46C8&assignmentId=171315f6-911b-483c-989e-4ecd56a4539c&projectId=e9cc2542-c7dc-4d8f-b94f-d088ad8989d1","5C598EC41BCB461B95A75E8D255C46C8-2025-05-16-19-12-52","","","1b802214110328d9680ee27780b6469bf02c996bcf33a02f5f4574f4124994fc","","","",""
"","","","","","html-audio-response","5","79763","0.0-4.0-1.0","5C598EC41BCB461B95A75E8D255C46C8","5C598EC41BCB461B95A75E8D255C46C8","171315f6-911b-483c-989e-4ecd56a4539c","e9cc2542-c7dc-4d8f-b94f-d088ad8989d1","{""part"":""2"",""participantId"":""5C598EC41BCB461B95A75E8D255C46C8"",""assignmentId"":""171315f6-911b-483c-989e-4ecd56a4539c"",""projectId"":""e9cc2542-c7dc-4d8f-b94f-d088ad8989d1""}","https://test12345.live/?part=2&participantId=5C598EC41BCB461B95A75E8D255C46C8&assignmentId=171315f6-911b-483c-989e-4ecd56a4539c&projectId=e9cc2542-c7dc-4d8f-b94f-d088ad8989d1","5C598EC41BCB461B95A75E8D255C46C8-2025-05-16-19-12-52","","5510","","<span style=""color: red; font-size: 24px""> NOW RECORDING</span>
        <p>Please test Microphone</p>","","2",""
"","","","","","html-button-response","6","81593","0.0-4.0-2.0","5C598EC41BCB461B95A75E8D255C46C8","5C598EC41BCB461B95A75E8D255C46C8","171315f6-911b-483c-989e-4ecd56a4539c","e9cc2542-c7dc-4d8f-b94f-d088ad8989d1","{""part"":""2"",""participantId"":""5C598EC41BCB461B95A75E8D255C46C8"",""assignmentId"":""171315f6-911b-483c-989e-4ecd56a4539c"",""projectId"":""e9cc2542-c7dc-4d8f-b94f-d088ad8989d1""}","https://test12345.live/?part=2&participantId=5C598EC41BCB461B95A75E8D255C46C8&assignmentId=171315f6-911b-483c-989e-4ecd56a4539c&projectId=e9cc2542-c7dc-4d8f-b94f-d088ad8989d1","5C598EC41BCB461B95A75E8D255C46C8-2025-05-16-19-12-52","","1829","","<p style=""font-size:48px; color:red;"">Is Microphone OK?</p>","1","",""
"","","","","","instructions","7","102894","0.0-5.0","5C598EC41BCB461B95A75E8D255C46C8","5C598EC41BCB461B95A75E8D255C46C8","171315f6-911b-483c-989e-4ecd56a4539c","e9cc2542-c7dc-4d8f-b94f-d088ad8989d1","{""part"":""2"",""participantId"":""5C598EC41BCB461B95A75E8D255C46C8"",""assignmentId"":""171315f6-911b-483c-989e-4ecd56a4539c"",""projectId"":""e9cc2542-c7dc-4d8f-b94f-d088ad8989d1""}","https://test12345.live/?part=2&participantId=5C598EC41BCB461B95A75E8D255C46C8&assignmentId=171315f6-911b-483c-989e-4ecd56a4539c&projectId=e9cc2542-c7dc-4d8f-b94f-d088ad8989d1","5C598EC41BCB461B95A75E8D255C46C8-2025-05-16-19-12-52","[{""page_index"":0,""viewing_time"":1615},{""page_index"":1,""viewing_time"":11207},{""page_index"":2,""viewing_time"":8478}]","21300","","","","",""
"","","","","","image-button-response","8","108908","0.0-6.0-0.0","5C598EC41BCB461B95A75E8D255C46C8","5C598EC41BCB461B95A75E8D255C46C8","171315f6-911b-483c-989e-4ecd56a4539c","e9cc2542-c7dc-4d8f-b94f-d088ad8989d1","{""part"":""2"",""participantId"":""5C598EC41BCB461B95A75E8D255C46C8"",""assignmentId"":""171315f6-911b-483c-989e-4ecd56a4539c"",""projectId"":""e9cc2542-c7dc-4d8f-b94f-d088ad8989d1""}","https://test12345.live/?part=2&participantId=5C598EC41BCB461B95A75E8D255C46C8&assignmentId=171315f6-911b-483c-989e-4ecd56a4539c&projectId=e9cc2542-c7dc-4d8f-b94f-d088ad8989d1","5C598EC41BCB461B95A75E8D255C46C8-2025-05-16-19-12-52","","null","","images/instructions/movie_0.png","null","",""
"","","","","","html-audio-response","9","173527","0.0-7.0","5C598EC41BCB461B95A75E8D255C46C8","5C598EC41BCB461B95A75E8D255C46C8","171315f6-911b-483c-989e-4ecd56a4539c","e9cc2542-c7dc-4d8f-b94f-d088ad8989d1","{""part"":""2"",""participantId"":""5C598EC41BCB461B95A75E8D255C46C8"",""assignmentId"":""171315f6-911b-483c-989e-4ecd56a4539c"",""projectId"":""e9cc2542-c7dc-4d8f-b94f-d088ad8989d1""}","https://test12345.live/?part=2&participantId=5C598EC41BCB461B95A75E8D255C46C8&assignmentId=171315f6-911b-483c-989e-4ecd56a4539c&projectId=e9cc2542-c7dc-4d8f-b94f-d088ad8989d1","5C598EC41BCB461B95A75E8D255C46C8-2025-05-16-19-12-52","","31908","","[""<span style=\""color: red; font-size: 24px\""> NOW RECORDING</span><p>Please say out loud all the images you saw in part 1 of the experiment, as many as you can remember. The images can be said in any order.</p>""]","","14",""
"","","","","","instructions","10","175753","0.0-8.0","5C598EC41BCB461B95A75E8D255C46C8","5C598EC41BCB461B95A75E8D255C46C8","171315f6-911b-483c-989e-4ecd56a4539c","e9cc2542-c7dc-4d8f-b94f-d088ad8989d1","{""part"":""2"",""participantId"":""5C598EC41BCB461B95A75E8D255C46C8"",""assignmentId"":""171315f6-911b-483c-989e-4ecd56a4539c"",""projectId"":""e9cc2542-c7dc-4d8f-b94f-d088ad8989d1""}","https://test12345.live/?part=2&participantId=5C598EC41BCB461B95A75E8D255C46C8&assignmentId=171315f6-911b-483c-989e-4ecd56a4539c&projectId=e9cc2542-c7dc-4d8f-b94f-d088ad8989d1","5C598EC41BCB461B95A75E8D255C46C8-2025-05-16-19-12-52","[{""page_index"":0,""viewing_time"":2224}]","2224","","","","",""
"","","","","","image-button-response","11","181758","0.0-9.0-0.0","5C598EC41BCB461B95A75E8D255C46C8","5C598EC41BCB461B95A75E8D255C46C8","171315f6-911b-483c-989e-4ecd56a4539c","e9cc2542-c7dc-4d8f-b94f-d088ad8989d1","{""part"":""2"",""participantId"":""5C598EC41BCB461B95A75E8D255C46C8"",""assignmentId"":""171315f6-911b-483c-989e-4ecd56a4539c"",""projectId"":""e9cc2542-c7dc-4d8f-b94f-d088ad8989d1""}","https://test12345.live/?part=2&participantId=5C598EC41BCB461B95A75E8D255C46C8&assignmentId=171315f6-911b-483c-989e-4ecd56a4539c&projectId=e9cc2542-c7dc-4d8f-b94f-d088ad8989d1","5C598EC41BCB461B95A75E8D255C46C8-2025-05-16-19-12-52","","null","","images/semantic_sequence/kitchen_operations_semantic/kitchen_operations_semantic_0.png","null","",""
"","","","","","html-audio-response","12","273352","0.0-10.0","5C598EC41BCB461B95A75E8D255C46C8","5C598EC41BCB461B95A75E8D255C46C8","171315f6-911b-483c-989e-4ecd56a4539c","e9cc2542-c7dc-4d8f-b94f-d088ad8989d1","{""part"":""2"",""participantId"":""5C598EC41BCB461B95A75E8D255C46C8"",""assignmentId"":""171315f6-911b-483c-989e-4ecd56a4539c"",""projectId"":""e9cc2542-c7dc-4d8f-b94f-d088ad8989d1""}","https://test12345.live/?part=2&participantId=5C598EC41BCB461B95A75E8D255C46C8&assignmentId=171315f6-911b-483c-989e-4ecd56a4539c&projectId=e9cc2542-c7dc-4d8f-b94f-d088ad8989d1","5C598EC41BCB461B95A75E8D255C46C8-2025-05-16-19-12-52","","44237","","[""<span style=\""color: red; font-size: 24px\""> NOW RECORDING</span><p>Please say out loud all the images you saw in part 1 of the experiment, as many as you can remember. The images can be said in any order.</p>""]","","13","kitchen_operations_semantic"
"","","","","","image-button-response","13","279367","0.0-11.0-0.0","5C598EC41BCB461B95A75E8D255C46C8","5C598EC41BCB461B95A75E8D255C46C8","171315f6-911b-483c-989e-4ecd56a4539c","e9cc2542-c7dc-4d8f-b94f-d088ad8989d1","{""part"":""2"",""participantId"":""5C598EC41BCB461B95A75E8D255C46C8"",""assignmentId"":""171315f6-911b-483c-989e-4ecd56a4539c"",""projectId"":""e9cc2542-c7dc-4d8f-b94f-d088ad8989d1""}","https://test12345.live/?part=2&participantId=5C598EC41BCB461B95A75E8D255C46C8&assignmentId=171315f6-911b-483c-989e-4ecd56a4539c&projectId=e9cc2542-c7dc-4d8f-b94f-d088ad8989d1","5C598EC41BCB461B95A75E8D255C46C8-2025-05-16-19-12-52","","null","","images/semantic_sequence/using_technology_semantic/using_technology_semantic_0.png","null","",""
"","","","","","html-audio-response","14","376060","0.0-12.0","5C598EC41BCB461B95A75E8D255C46C8","5C598EC41BCB461B95A75E8D255C46C8","171315f6-911b-483c-989e-4ecd56a4539c","e9cc2542-c7dc-4d8f-b94f-d088ad8989d1","{""part"":""2"",""participantId"":""5C598EC41BCB461B95A75E8D255C46C8"",""assignmentId"":""171315f6-911b-483c-989e-4ecd56a4539c"",""projectId"":""e9cc2542-c7dc-4d8f-b94f-d088ad8989d1""}","https://test12345.live/?part=2&participantId=5C598EC41BCB461B95A75E8D255C46C8&assignmentId=171315f6-911b-483c-989e-4ecd56a4539c&projectId=e9cc2542-c7dc-4d8f-b94f-d088ad8989d1","5C598EC41BCB461B95A75E8D255C46C8-2025-05-16-19-12-52","","46898","","[""<span style=\""color: red; font-size: 24px\""> NOW RECORDING</span><p>Please say out loud all the images you saw in part 1 of the experiment, as many as you can remember. The images can be said in any order.</p>""]","","1","using_technology_semantic"
"","","","","","image-button-response","15","382065","0.0-13.0-0.0","5C598EC41BCB461B95A75E8D255C46C8","5C598EC41BCB461B95A75E8D255C46C8","171315f6-911b-483c-989e-4ecd56a4539c","e9cc2542-c7dc-4d8f-b94f-d088ad8989d1","{""part"":""2"",""participantId"":""5C598EC41BCB461B95A75E8D255C46C8"",""assignmentId"":""171315f6-911b-483c-989e-4ecd56a4539c"",""projectId"":""e9cc2542-c7dc-4d8f-b94f-d088ad8989d1""}","https://test12345.live/?part=2&participantId=5C598EC41BCB461B95A75E8D255C46C8&assignmentId=171315f6-911b-483c-989e-4ecd56a4539c&projectId=e9cc2542-c7dc-4d8f-b94f-d088ad8989d1","5C598EC41BCB461B95A75E8D255C46C8-2025-05-16-19-12-52","","null","","images/semantic_sequence/cat_care_semantic/cat_care_semantic_0.png","null","",""
"","","","","","html-audio-response","16","457777","0.0-14.0","5C598EC41BCB461B95A75E8D255C46C8","5C598EC41BCB461B95A75E8D255C46C8","171315f6-911b-483c-989e-4ecd56a4539c","e9cc2542-c7dc-4d8f-b94f-d088ad8989d1","{""part"":""2"",""participantId"":""5C598EC41BCB461B95A75E8D255C46C8"",""assignmentId"":""171315f6-911b-483c-989e-4ecd56a4539c"",""projectId"":""e9cc2542-c7dc-4d8f-b94f-d088ad8989d1""}","https://test12345.live/?part=2&participantId=5C598EC41BCB461B95A75E8D255C46C8&assignmentId=171315f6-911b-483c-989e-4ecd56a4539c&projectId=e9cc2542-c7dc-4d8f-b94f-d088ad8989d1","5C598EC41BCB461B95A75E8D255C46C8-2025-05-16-19-12-52","","37812","","[""<span style=\""color: red; font-size: 24px\""> NOW RECORDING</span><p>Please say out loud all the images you saw in part 1 of the experiment, as many as you can remember. The images can be said in any order.</p>""]","","10","cat_care_semantic"
"","","","","","image-button-response","17","463781","0.0-15.0-0.0","5C598EC41BCB461B95A75E8D255C46C8","5C598EC41BCB461B95A75E8D255C46C8","171315f6-911b-483c-989e-4ecd56a4539c","e9cc2542-c7dc-4d8f-b94f-d088ad8989d1","{""part"":""2"",""participantId"":""5C598EC41BCB461B95A75E8D255C46C8"",""assignmentId"":""171315f6-911b-483c-989e-4ecd56a4539c"",""projectId"":""e9cc2542-c7dc-4d8f-b94f-d088ad8989d1""}","https://test12345.live/?part=2&participantId=5C598EC41BCB461B95A75E8D255C46C8&assignmentId=171315f6-911b-483c-989e-4ecd56a4539c&projectId=e9cc2542-c7dc-4d8f-b94f-d088ad8989d1","5C598EC41BCB461B95A75E8D255C46C8-2025-05-16-19-12-52","","null","","images/semantic_sequence/exploring_nature_semantic/exploring_nature_semantic_0.png","null","",""
"","","","","","html-audio-response","18","540656","0.0-16.0","5C598EC41BCB461B95A75E8D255C46C8","5C598EC41BCB461B95A75E8D255C46C8","171315f6-911b-483c-989e-4ecd56a4539c","e9cc2542-c7dc-4d8f-b94f-d088ad8989d1","{""part"":""2"",""participantId"":""5C598EC41BCB461B95A75E8D255C46C8"",""assignmentId"":""171315f6-911b-483c-989e-4ecd56a4539c"",""projectId"":""e9cc2542-c7dc-4d8f-b94f-d088ad8989d1""}","https://test12345.live/?part=2&participantId=5C598EC41BCB461B95A75E8D255C46C8&assignmentId=171315f6-911b-483c-989e-4ecd56a4539c&projectId=e9cc2542-c7dc-4d8f-b94f-d088ad8989d1","5C598EC41BCB461B95A75E8D255C46C8-2025-05-16-19-12-52","","37550","","[""<span style=\""color: red; font-size: 24px\""> NOW RECORDING</span><p>Please say out loud all the images you saw in part 1 of the experiment, as many as you can remember. The images can be said in any order.</p>""]","","5","exploring_nature_semantic"
"","","","","","image-button-response","19","546665","0.0-17.0-0.0","5C598EC41BCB461B95A75E8D255C46C8","5C598EC41BCB461B95A75E8D255C46C8","171315f6-911b-483c-989e-4ecd56a4539c","e9cc2542-c7dc-4d8f-b94f-d088ad8989d1","{""part"":""2"",""participantId"":""5C598EC41BCB461B95A75E8D255C46C8"",""assignmentId"":""171315f6-911b-483c-989e-4ecd56a4539c"",""projectId"":""e9cc2542-c7dc-4d8f-b94f-d088ad8989d1""}","https://test12345.live/?part=2&participantId=5C598EC41BCB461B95A75E8D255C46C8&assignmentId=171315f6-911b-483c-989e-4ecd56a4539c&projectId=e9cc2542-c7dc-4d8f-b94f-d088ad8989d1","5C598EC41BCB461B95A75E8D255C46C8-2025-05-16-19-12-52","","null","","images/semantic_sequence/market_semantic/market_semantic_0.png","null","",""
"","","","","","html-audio-response","20","654473","0.0-18.0","5C598EC41BCB461B95A75E8D255C46C8","5C598EC41BCB461B95A75E8D255C46C8","171315f6-911b-483c-989e-4ecd56a4539c","e9cc2542-c7dc-4d8f-b94f-d088ad8989d1","{""part"":""2"",""participantId"":""5C598EC41BCB461B95A75E8D255C46C8"",""assignmentId"":""171315f6-911b-483c-989e-4ecd56a4539c"",""projectId"":""e9cc2542-c7dc-4d8f-b94f-d088ad8989d1""}","https://test12345.live/?part=2&participantId=5C598EC41BCB461B95A75E8D255C46C8&assignmentId=171315f6-911b-483c-989e-4ecd56a4539c&projectId=e9cc2542-c7dc-4d8f-b94f-d088ad8989d1","5C598EC41BCB461B95A75E8D255C46C8-2025-05-16-19-12-52","","52465","","[""<span style=\""color: red; font-size: 24px\""> NOW RECORDING</span><p>Please say out loud all the images you saw in part 1 of the experiment, as many as you can remember. The images can be said in any order.</p>""]","","7","market_semantic"
"","","","","","image-button-response","21","660478","0.0-19.0-0.0","5C598EC41BCB461B95A75E8D255C46C8","5C598EC41BCB461B95A75E8D255C46C8","171315f6-911b-483c-989e-4ecd56a4539c","e9cc2542-c7dc-4d8f-b94f-d088ad8989d1","{""part"":""2"",""participantId"":""5C598EC41BCB461B95A75E8D255C46C8"",""assignmentId"":""171315f6-911b-483c-989e-4ecd56a4539c"",""projectId"":""e9cc2542-c7dc-4d8f-b94f-d088ad8989d1""}","https://test12345.live/?part=2&participantId=5C598EC41BCB461B95A75E8D255C46C8&assignmentId=171315f6-911b-483c-989e-4ecd56a4539c&projectId=e9cc2542-c7dc-4d8f-b94f-d088ad8989d1","5C598EC41BCB461B95A75E8D255C46C8-2025-05-16-19-12-52","","null","","images/semantic_sequence/visiting_cities_semantic/visiting_cities_semantic_0.png","null","",""
"","","","","","html-audio-response","22","742111","0.0-20.0","5C598EC41BCB461B95A75E8D255C46C8","5C598EC41BCB461B95A75E8D255C46C8","171315f6-911b-483c-989e-4ecd56a4539c","e9cc2542-c7dc-4d8f-b94f-d088ad8989d1","{""part"":""2"",""participantId"":""5C598EC41BCB461B95A75E8D255C46C8"",""assignmentId"":""171315f6-911b-483c-989e-4ecd56a4539c"",""projectId"":""e9cc2542-c7dc-4d8f-b94f-d088ad8989d1""}","https://test12345.live/?part=2&participantId=5C598EC41BCB461B95A75E8D255C46C8&assignmentId=171315f6-911b-483c-989e-4ecd56a4539c&projectId=e9cc2542-c7dc-4d8f-b94f-d088ad8989d1","5C598EC41BCB461B95A75E8D255C46C8-2025-05-16-19-12-52","","39272","","[""<span style=\""color: red; font-size: 24px\""> NOW RECORDING</span><p>Please say out loud all the images you saw in part 1 of the experiment, as many as you can remember. The images can be said in any order.</p>""]","","11","visiting_cities_semantic"
"","","","","","image-button-response","23","748129","0.0-21.0-0.0","5C598EC41BCB461B95A75E8D255C46C8","5C598EC41BCB461B95A75E8D255C46C8","171315f6-911b-483c-989e-4ecd56a4539c","e9cc2542-c7dc-4d8f-b94f-d088ad8989d1","{""part"":""2"",""participantId"":""5C598EC41BCB461B95A75E8D255C46C8"",""assignmentId"":""171315f6-911b-483c-989e-4ecd56a4539c"",""projectId"":""e9cc2542-c7dc-4d8f-b94f-d088ad8989d1""}","https://test12345.live/?part=2&participantId=5C598EC41BCB461B95A75E8D255C46C8&assignmentId=171315f6-911b-483c-989e-4ecd56a4539c&projectId=e9cc2542-c7dc-4d8f-b94f-d088ad8989d1","5C598EC41BCB461B95A75E8D255C46C8-2025-05-16-19-12-52","","null","","images/semantic_sequence/self_care_activities_semantic/self_care_activities_semantic_0.png","null","",""
"","","","","","html-audio-response","24","830113","0.0-22.0","5C598EC41BCB461B95A75E8D255C46C8","5C598EC41BCB461B95A75E8D255C46C8","171315f6-911b-483c-989e-4ecd56a4539c","e9cc2542-c7dc-4d8f-b94f-d088ad8989d1","{""part"":""2"",""participantId"":""5C598EC41BCB461B95A75E8D255C46C8"",""assignmentId"":""171315f6-911b-483c-989e-4ecd56a4539c"",""projectId"":""e9cc2542-c7dc-4d8f-b94f-d088ad8989d1""}","https://test12345.live/?part=2&participantId=5C598EC41BCB461B95A75E8D255C46C8&assignmentId=171315f6-911b-483c-989e-4ecd56a4539c&projectId=e9cc2542-c7dc-4d8f-b94f-d088ad8989d1","5C598EC41BCB461B95A75E8D255C46C8-2025-05-16-19-12-52","","38984","","[""<span style=\""color: red; font-size: 24px\""> NOW RECORDING</span><p>Please say out loud all the images you saw in part 1 of the experiment, as many as you can remember. The images can be said in any order.</p>""]","","10","self_care_activities_semantic"
"","","","","","image-button-response","25","836122","0.0-23.0-0.0","5C598EC41BCB461B95A75E8D255C46C8","5C598EC41BCB461B95A75E8D255C46C8","171315f6-911b-483c-989e-4ecd56a4539c","e9cc2542-c7dc-4d8f-b94f-d088ad8989d1","{""part"":""2"",""participantId"":""5C598EC41BCB461B95A75E8D255C46C8"",""assignmentId"":""171315f6-911b-483c-989e-4ecd56a4539c"",""projectId"":""e9cc2542-c7dc-4d8f-b94f-d088ad8989d1""}","https://test12345.live/?part=2&participantId=5C598EC41BCB461B95A75E8D255C46C8&assignmentId=171315f6-911b-483c-989e-4ecd56a4539c&projectId=e9cc2542-c7dc-4d8f-b94f-d088ad8989d1","5C598EC41BCB461B95A75E8D255C46C8-2025-05-16-19-12-52","","null","","images/schematic_sequence/flight_scheme/flight_scheme_0.png","null","",""
"","","","","","html-audio-response","26","925797","0.0-24.0","5C598EC41BCB461B95A75E8D255C46C8","5C598EC41BCB461B95A75E8D255C46C8","171315f6-911b-483c-989e-4ecd56a4539c","e9cc2542-c7dc-4d8f-b94f-d088ad8989d1","{""part"":""2"",""participantId"":""5C598EC41BCB461B95A75E8D255C46C8"",""assignmentId"":""171315f6-911b-483c-989e-4ecd56a4539c"",""projectId"":""e9cc2542-c7dc-4d8f-b94f-d088ad8989d1""}","https://test12345.live/?part=2&participantId=5C598EC41BCB461B95A75E8D255C46C8&assignmentId=171315f6-911b-483c-989e-4ecd56a4539c&projectId=e9cc2542-c7dc-4d8f-b94f-d088ad8989d1","5C598EC41BCB461B95A75E8D255C46C8-2025-05-16-19-12-52","","43099","","[""<span style=\""color: red; font-size: 24px\""> NOW RECORDING</span><p>Please say out loud all the images you saw in part 1 of the experiment, as many as you can remember. The images can be said in any order.</p>""]","","2","flight_scheme"
"","","","","","image-button-response","27","931814","0.0-25.0-0.0","5C598EC41BCB461B95A75E8D255C46C8","5C598EC41BCB461B95A75E8D255C46C8","171315f6-911b-483c-989e-4ecd56a4539c","e9cc2542-c7dc-4d8f-b94f-d088ad8989d1","{""part"":""2"",""participantId"":""5C598EC41BCB461B95A75E8D255C46C8"",""assignmentId"":""171315f6-911b-483c-989e-4ecd56a4539c"",""projectId"":""e9cc2542-c7dc-4d8f-b94f-d088ad8989d1""}","https://test12345.live/?part=2&participantId=5C598EC41BCB461B95A75E8D255C46C8&assignmentId=171315f6-911b-483c-989e-4ecd56a4539c&projectId=e9cc2542-c7dc-4d8f-b94f-d088ad8989d1","5C598EC41BCB461B95A75E8D255C46C8-2025-05-16-19-12-52","","null","","images/semantic_sequence/physical_activity_semantic/physical_activity_semantic_0.png","null","",""
"","","","","","html-audio-response","28","1013468","0.0-26.0","5C598EC41BCB461B95A75E8D255C46C8","5C598EC41BCB461B95A75E8D255C46C8","171315f6-911b-483c-989e-4ecd56a4539c","e9cc2542-c7dc-4d8f-b94f-d088ad8989d1","{""part"":""2"",""participantId"":""5C598EC41BCB461B95A75E8D255C46C8"",""assignmentId"":""171315f6-911b-483c-989e-4ecd56a4539c"",""projectId"":""e9cc2542-c7dc-4d8f-b94f-d088ad8989d1""}","https://test12345.live/?part=2&participantId=5C598EC41BCB461B95A75E8D255C46C8&assignmentId=171315f6-911b-483c-989e-4ecd56a4539c&projectId=e9cc2542-c7dc-4d8f-b94f-d088ad8989d1","5C598EC41BCB461B95A75E8D255C46C8-2025-05-16-19-12-52","","39646","","[""<span style=\""color: red; font-size: 24px\""> NOW RECORDING</span><p>Please say out loud all the images you saw in part 1 of the experiment, as many as you can remember. The images can be said in any order.</p>""]","","10","physical_activity_semantic"
"","","","","","image-button-response","29","1019475","0.0-27.0-0.0","5C598EC41BCB461B95A75E8D255C46C8","5C598EC41BCB461B95A75E8D255C46C8","171315f6-911b-483c-989e-4ecd56a4539c","e9cc2542-c7dc-4d8f-b94f-d088ad8989d1","{""part"":""2"",""participantId"":""5C598EC41BCB461B95A75E8D255C46C8"",""assignmentId"":""171315f6-911b-483c-989e-4ecd56a4539c"",""projectId"":""e9cc2542-c7dc-4d8f-b94f-d088ad8989d1""}","https://test12345.live/?part=2&participantId=5C598EC41BCB461B95A75E8D255C46C8&assignmentId=171315f6-911b-483c-989e-4ecd56a4539c&projectId=e9cc2542-c7dc-4d8f-b94f-d088ad8989d1","5C598EC41BCB461B95A75E8D255C46C8-2025-05-16-19-12-52","","null","","images/semantic_sequence/maintaining_a_car_semantic/maintaining_a_car_semantic_0.png","null","",""
"","","","","","html-audio-response","30","1095032","0.0-28.0","5C598EC41BCB461B95A75E8D255C46C8","5C598EC41BCB461B95A75E8D255C46C8","171315f6-911b-483c-989e-4ecd56a4539c","e9cc2542-c7dc-4d8f-b94f-d088ad8989d1","{""part"":""2"",""participantId"":""5C598EC41BCB461B95A75E8D255C46C8"",""assignmentId"":""171315f6-911b-483c-989e-4ecd56a4539c"",""projectId"":""e9cc2542-c7dc-4d8f-b94f-d088ad8989d1""}","https://test12345.live/?part=2&participantId=5C598EC41BCB461B95A75E8D255C46C8&assignmentId=171315f6-911b-483c-989e-4ecd56a4539c&projectId=e9cc2542-c7dc-4d8f-b94f-d088ad8989d1","5C598EC41BCB461B95A75E8D255C46C8-2025-05-16-19-12-52","","36400","","[""<span style=\""color: red; font-size: 24px\""> NOW RECORDING</span><p>Please say out loud all the images you saw in part 1 of the experiment, as many as you can remember. The images can be said in any order.</p>""]","","0","maintaining_a_car_semantic"
"","","","","","image-button-response","31","1101046","0.0-29.0-0.0","5C598EC41BCB461B95A75E8D255C46C8","5C598EC41BCB461B95A75E8D255C46C8","171315f6-911b-483c-989e-4ecd56a4539c","e9cc2542-c7dc-4d8f-b94f-d088ad8989d1","{""part"":""2"",""participantId"":""5C598EC41BCB461B95A75E8D255C46C8"",""assignmentId"":""171315f6-911b-483c-989e-4ecd56a4539c"",""projectId"":""e9cc2542-c7dc-4d8f-b94f-d088ad8989d1""}","https://test12345.live/?part=2&participantId=5C598EC41BCB461B95A75E8D255C46C8&assignmentId=171315f6-911b-483c-989e-4ecd56a4539c&projectId=e9cc2542-c7dc-4d8f-b94f-d088ad8989d1","5C598EC41BCB461B95A75E8D255C46C8-2025-05-16-19-12-52","","null","","images/causal_sequence/coin_causal/coin_causal_0.png","null","",""
"","","","","","html-audio-response","32","1201769","0.0-30.0","5C598EC41BCB461B95A75E8D255C46C8","5C598EC41BCB461B95A75E8D255C46C8","171315f6-911b-483c-989e-4ecd56a4539c","e9cc2542-c7dc-4d8f-b94f-d088ad8989d1","{""part"":""2"",""participantId"":""5C598EC41BCB461B95A75E8D255C46C8"",""assignmentId"":""171315f6-911b-483c-989e-4ecd56a4539c"",""projectId"":""e9cc2542-c7dc-4d8f-b94f-d088ad8989d1""}","https://test12345.live/?part=2&participantId=5C598EC41BCB461B95A75E8D255C46C8&assignmentId=171315f6-911b-483c-989e-4ecd56a4539c&projectId=e9cc2542-c7dc-4d8f-b94f-d088ad8989d1","5C598EC41BCB461B95A75E8D255C46C8-2025-05-16-19-12-52","","49347","","[""<span style=\""color: red; font-size: 24px\""> NOW RECORDING</span><p>Please say out loud all the images you saw in part 1 of the experiment, as many as you can remember. The images can be said in any order.</p>""]","","10","coin_causal"
"","","","","","image-button-response","33","1207784","0.0-31.0-0.0","5C598EC41BCB461B95A75E8D255C46C8","5C598EC41BCB461B95A75E8D255C46C8","171315f6-911b-483c-989e-4ecd56a4539c","e9cc2542-c7dc-4d8f-b94f-d088ad8989d1","{""part"":""2"",""participantId"":""5C598EC41BCB461B95A75E8D255C46C8"",""assignmentId"":""171315f6-911b-483c-989e-4ecd56a4539c"",""projectId"":""e9cc2542-c7dc-4d8f-b94f-d088ad8989d1""}","https://test12345.live/?part=2&participantId=5C598EC41BCB461B95A75E8D255C46C8&assignmentId=171315f6-911b-483c-989e-4ecd56a4539c&projectId=e9cc2542-c7dc-4d8f-b94f-d088ad8989d1","5C598EC41BCB461B95A75E8D255C46C8-2025-05-16-19-12-52","","null","","images/semantic_sequence/creative_activities_semantic/creative_activities_semantic_0.png","null","",""
"","","","","","html-audio-response","34","1261752","0.0-32.0","5C598EC41BCB461B95A75E8D255C46C8","5C598EC41BCB461B95A75E8D255C46C8","171315f6-911b-483c-989e-4ecd56a4539c","e9cc2542-c7dc-4d8f-b94f-d088ad8989d1","{""part"":""2"",""participantId"":""5C598EC41BCB461B95A75E8D255C46C8"",""assignmentId"":""171315f6-911b-483c-989e-4ecd56a4539c"",""projectId"":""e9cc2542-c7dc-4d8f-b94f-d088ad8989d1""}","https://test12345.live/?part=2&participantId=5C598EC41BCB461B95A75E8D255C46C8&assignmentId=171315f6-911b-483c-989e-4ecd56a4539c&projectId=e9cc2542-c7dc-4d8f-b94f-d088ad8989d1","5C598EC41BCB461B95A75E8D255C46C8-2025-05-16-19-12-52","","27168","","[""<span style=\""color: red; font-size: 24px\""> NOW RECORDING</span><p>Please say out loud all the images you saw in part 1 of the experiment, as many as you can remember. The images can be said in any order.</p>""]","","1","creative_activities_semantic"
"","","","","","image-button-response","35","1267755","0.0-33.0-0.0","5C598EC41BCB461B95A75E8D255C46C8","5C598EC41BCB461B95A75E8D255C46C8","171315f6-911b-483c-989e-4ecd56a4539c","e9cc2542-c7dc-4d8f-b94f-d088ad8989d1","{""part"":""2"",""participantId"":""5C598EC41BCB461B95A75E8D255C46C8"",""assignmentId"":""171315f6-911b-483c-989e-4ecd56a4539c"",""projectId"":""e9cc2542-c7dc-4d8f-b94f-d088ad8989d1""}","https://test12345.live/?part=2&participantId=5C598EC41BCB461B95A75E8D255C46C8&assignmentId=171315f6-911b-483c-989e-4ecd56a4539c&projectId=e9cc2542-c7dc-4d8f-b94f-d088ad8989d1","5C598EC41BCB461B95A75E8D255C46C8-2025-05-16-19-12-52","","null","","images/schematic_sequence/supermarket_scheme/supermarket_scheme_0.png","null","",""
"","","","","","html-audio-response","36","1361220","0.0-34.0","5C598EC41BCB461B95A75E8D255C46C8","5C598EC41BCB461B95A75E8D255C46C8","171315f6-911b-483c-989e-4ecd56a4539c","e9cc2542-c7dc-4d8f-b94f-d088ad8989d1","{""part"":""2"",""participantId"":""5C598EC41BCB461B95A75E8D255C46C8"",""assignmentId"":""171315f6-911b-483c-989e-4ecd56a4539c"",""projectId"":""e9cc2542-c7dc-4d8f-b94f-d088ad8989d1""}","https://test12345.live/?part=2&participantId=5C598EC41BCB461B95A75E8D255C46C8&assignmentId=171315f6-911b-483c-989e-4ecd56a4539c&projectId=e9cc2542-c7dc-4d8f-b94f-d088ad8989d1","5C598EC41BCB461B95A75E8D255C46C8-2025-05-16-19-12-52","","45242","","[""<span style=\""color: red; font-size: 24px\""> NOW RECORDING</span><p>Please say out loud all the images you saw in part 1 of the experiment, as many as you can remember. The images can be said in any order.</p>""]","","0","supermarket_scheme"
"","","","","","image-button-response","37","1367231","0.0-35.0-0.0","5C598EC41BCB461B95A75E8D255C46C8","5C598EC41BCB461B95A75E8D255C46C8","171315f6-911b-483c-989e-4ecd56a4539c","e9cc2542-c7dc-4d8f-b94f-d088ad8989d1","{""part"":""2"",""participantId"":""5C598EC41BCB461B95A75E8D255C46C8"",""assignmentId"":""171315f6-911b-483c-989e-4ecd56a4539c"",""projectId"":""e9cc2542-c7dc-4d8f-b94f-d088ad8989d1""}","https://test12345.live/?part=2&participantId=5C598EC41BCB461B95A75E8D255C46C8&assignmentId=171315f6-911b-483c-989e-4ecd56a4539c&projectId=e9cc2542-c7dc-4d8f-b94f-d088ad8989d1","5C598EC41BCB461B95A75E8D255C46C8-2025-05-16-19-12-52","","null","","images/schematic_sequence/restaurant_scheme/restaurant_scheme_0.png","null","",""
"","","","","","html-audio-response","38","1468865","0.0-36.0","5C598EC41BCB461B95A75E8D255C46C8","5C598EC41BCB461B95A75E8D255C46C8","171315f6-911b-483c-989e-4ecd56a4539c","e9cc2542-c7dc-4d8f-b94f-d088ad8989d1","{""part"":""2"",""participantId"":""5C598EC41BCB461B95A75E8D255C46C8"",""assignmentId"":""171315f6-911b-483c-989e-4ecd56a4539c"",""projectId"":""e9cc2542-c7dc-4d8f-b94f-d088ad8989d1""}","https://test12345.live/?part=2&participantId=5C598EC41BCB461B95A75E8D255C46C8&assignmentId=171315f6-911b-483c-989e-4ecd56a4539c&projectId=e9cc2542-c7dc-4d8f-b94f-d088ad8989d1","5C598EC41BCB461B95A75E8D255C46C8-2025-05-16-19-12-52","","49483","","[""<span style=\""color: red; font-size: 24px\""> NOW RECORDING</span><p>Please say out loud all the images you saw in part 1 of the experiment, as many as you can remember. The images can be said in any order.</p>""]","","8","restaurant_scheme"
"","","","","","image-button-response","39","1474872","0.0-37.0-0.0","5C598EC41BCB461B95A75E8D255C46C8","5C598EC41BCB461B95A75E8D255C46C8","171315f6-911b-483c-989e-4ecd56a4539c","e9cc2542-c7dc-4d8f-b94f-d088ad8989d1","{""part"":""2"",""participantId"":""5C598EC41BCB461B95A75E8D255C46C8"",""assignmentId"":""171315f6-911b-483c-989e-4ecd56a4539c"",""projectId"":""e9cc2542-c7dc-4d8f-b94f-d088ad8989d1""}","https://test12345.live/?part=2&participantId=5C598EC41BCB461B95A75E8D255C46C8&assignmentId=171315f6-911b-483c-989e-4ecd56a4539c&projectId=e9cc2542-c7dc-4d8f-b94f-d088ad8989d1","5C598EC41BCB461B95A75E8D255C46C8-2025-05-16-19-12-52","","null","","images/semantic_sequence/redecorating_semantic/redecorating_semantic_0.png","null","",""
"","","","","","html-audio-response","40","1550332","0.0-38.0","5C598EC41BCB461B95A75E8D255C46C8","5C598EC41BCB461B95A75E8D255C46C8","171315f6-911b-483c-989e-4ecd56a4539c","e9cc2542-c7dc-4d8f-b94f-d088ad8989d1","{""part"":""2"",""participantId"":""5C598EC41BCB461B95A75E8D255C46C8"",""assignmentId"":""171315f6-911b-483c-989e-4ecd56a4539c"",""projectId"":""e9cc2542-c7dc-4d8f-b94f-d088ad8989d1""}","https://test12345.live/?part=2&participantId=5C598EC41BCB461B95A75E8D255C46C8&assignmentId=171315f6-911b-483c-989e-4ecd56a4539c&projectId=e9cc2542-c7dc-4d8f-b94f-d088ad8989d1","5C598EC41BCB461B95A75E8D255C46C8-2025-05-16-19-12-52","","44509","","[""<span style=\""color: red; font-size: 24px\""> NOW RECORDING</span><p>Please say out loud all the images you saw in part 1 of the experiment, as many as you can remember. The images can be said in any order.</p>""]","","0","redecorating_semantic"
"","","","","","image-button-response","41","1556336","0.0-39.0-0.0","5C598EC41BCB461B95A75E8D255C46C8","5C598EC41BCB461B95A75E8D255C46C8","171315f6-911b-483c-989e-4ecd56a4539c","e9cc2542-c7dc-4d8f-b94f-d088ad8989d1","{""part"":""2"",""participantId"":""5C598EC41BCB461B95A75E8D255C46C8"",""assignmentId"":""171315f6-911b-483c-989e-4ecd56a4539c"",""projectId"":""e9cc2542-c7dc-4d8f-b94f-d088ad8989d1""}","https://test12345.live/?part=2&participantId=5C598EC41BCB461B95A75E8D255C46C8&assignmentId=171315f6-911b-483c-989e-4ecd56a4539c&projectId=e9cc2542-c7dc-4d8f-b94f-d088ad8989d1","5C598EC41BCB461B95A75E8D255C46C8-2025-05-16-19-12-52","","null","","images/causal_sequence/saving_a_cat_causal/saving_a_cat_causal_0.png","null","",""
"","","","","","html-audio-response","42","1613131","0.0-40.0","5C598EC41BCB461B95A75E8D255C46C8","5C598EC41BCB461B95A75E8D255C46C8","171315f6-911b-483c-989e-4ecd56a4539c","e9cc2542-c7dc-4d8f-b94f-d088ad8989d1","{""part"":""2"",""participantId"":""5C598EC41BCB461B95A75E8D255C46C8"",""assignmentId"":""171315f6-911b-483c-989e-4ecd56a4539c"",""projectId"":""e9cc2542-c7dc-4d8f-b94f-d088ad8989d1""}","https://test12345.live/?part=2&participantId=5C598EC41BCB461B95A75E8D255C46C8&assignmentId=171315f6-911b-483c-989e-4ecd56a4539c&projectId=e9cc2542-c7dc-4d8f-b94f-d088ad8989d1","5C598EC41BCB461B95A75E8D255C46C8-2025-05-16-19-12-52","","52379","","[""<span style=\""color: red; font-size: 24px\""> NOW RECORDING</span><p>Please say out loud all the images you saw in part 1 of the experiment, as many as you can remember. The images can be said in any order.</p>""]","","6","saving_a_cat_causal"
"","","","","","image-button-response","43","1619147","0.0-41.0-0.0","5C598EC41BCB461B95A75E8D255C46C8","5C598EC41BCB461B95A75E8D255C46C8","171315f6-911b-483c-989e-4ecd56a4539c","e9cc2542-c7dc-4d8f-b94f-d088ad8989d1","{""part"":""2"",""participantId"":""5C598EC41BCB461B95A75E8D255C46C8"",""assignmentId"":""171315f6-911b-483c-989e-4ecd56a4539c"",""projectId"":""e9cc2542-c7dc-4d8f-b94f-d088ad8989d1""}","https://test12345.live/?part=2&participantId=5C598EC41BCB461B95A75E8D255C46C8&assignmentId=171315f6-911b-483c-989e-4ecd56a4539c&projectId=e9cc2542-c7dc-4d8f-b94f-d088ad8989d1","5C598EC41BCB461B95A75E8D255C46C8-2025-05-16-19-12-52","","null","","images/semantic_sequence/housework_semantic/housework_semantic_0.png","null","",""
"","","","","","html-audio-response","44","1660778","0.0-42.0","5C598EC41BCB461B95A75E8D255C46C8","5C598EC41BCB461B95A75E8D255C46C8","171315f6-911b-483c-989e-4ecd56a4539c","e9cc2542-c7dc-4d8f-b94f-d088ad8989d1","{""part"":""2"",""participantId"":""5C598EC41BCB461B95A75E8D255C46C8"",""assignmentId"":""171315f6-911b-483c-989e-4ecd56a4539c"",""projectId"":""e9cc2542-c7dc-4d8f-b94f-d088ad8989d1""}","https://test12345.live/?part=2&participantId=5C598EC41BCB461B95A75E8D255C46C8&assignmentId=171315f6-911b-483c-989e-4ecd56a4539c&projectId=e9cc2542-c7dc-4d8f-b94f-d088ad8989d1","5C598EC41BCB461B95A75E8D255C46C8-2025-05-16-19-12-52","","35922","","[""<span style=\""color: red; font-size: 24px\""> NOW RECORDING</span><p>Please say out loud all the images you saw in part 1 of the experiment, as many as you can remember. The images can be said in any order.</p>""]","","11","housework_semantic"
"","","","","","image-button-response","45","1666784","0.0-43.0-0.0","5C598EC41BCB461B95A75E8D255C46C8","5C598EC41BCB461B95A75E8D255C46C8","171315f6-911b-483c-989e-4ecd56a4539c","e9cc2542-c7dc-4d8f-b94f-d088ad8989d1","{""part"":""2"",""participantId"":""5C598EC41BCB461B95A75E8D255C46C8"",""assignmentId"":""171315f6-911b-483c-989e-4ecd56a4539c"",""projectId"":""e9cc2542-c7dc-4d8f-b94f-d088ad8989d1""}","https://test12345.live/?part=2&participantId=5C598EC41BCB461B95A75E8D255C46C8&assignmentId=171315f6-911b-483c-989e-4ecd56a4539c&projectId=e9cc2542-c7dc-4d8f-b94f-d088ad8989d1","5C598EC41BCB461B95A75E8D255C46C8-2025-05-16-19-12-52","","null","","images/causal_sequence/dog_causal/dog_causal_0.png","null","",""
"","","","","","html-audio-response","46","1726922","0.0-44.0","5C598EC41BCB461B95A75E8D255C46C8","5C598EC41BCB461B95A75E8D255C46C8","171315f6-911b-483c-989e-4ecd56a4539c","e9cc2542-c7dc-4d8f-b94f-d088ad8989d1","{""part"":""2"",""participantId"":""5C598EC41BCB461B95A75E8D255C46C8"",""assignmentId"":""171315f6-911b-483c-989e-4ecd56a4539c"",""projectId"":""e9cc2542-c7dc-4d8f-b94f-d088ad8989d1""}","https://test12345.live/?part=2&participantId=5C598EC41BCB461B95A75E8D255C46C8&assignmentId=171315f6-911b-483c-989e-4ecd56a4539c&projectId=e9cc2542-c7dc-4d8f-b94f-d088ad8989d1","5C598EC41BCB461B95A75E8D255C46C8-2025-05-16-19-12-52","","53748","","[""<span style=\""color: red; font-size: 24px\""> NOW RECORDING</span><p>Please say out loud all the images you saw in part 1 of the experiment, as many as you can remember. The images can be said in any order.</p>""]","","3","dog_causal"
"","","","","","image-button-response","47","1732929","0.0-45.0-0.0","5C598EC41BCB461B95A75E8D255C46C8","5C598EC41BCB461B95A75E8D255C46C8","171315f6-911b-483c-989e-4ecd56a4539c","e9cc2542-c7dc-4d8f-b94f-d088ad8989d1","{""part"":""2"",""participantId"":""5C598EC41BCB461B95A75E8D255C46C8"",""assignmentId"":""171315f6-911b-483c-989e-4ecd56a4539c"",""projectId"":""e9cc2542-c7dc-4d8f-b94f-d088ad8989d1""}","https://test12345.live/?part=2&participantId=5C598EC41BCB461B95A75E8D255C46C8&assignmentId=171315f6-911b-483c-989e-4ecd56a4539c&projectId=e9cc2542-c7dc-4d8f-b94f-d088ad8989d1","5C598EC41BCB461B95A75E8D255C46C8-2025-05-16-19-12-52","","null","","images/causal_sequence/package_causal/package_causal_0.png","null","",""
"","","","","","html-audio-response","48","1786286","0.0-46.0","5C598EC41BCB461B95A75E8D255C46C8","5C598EC41BCB461B95A75E8D255C46C8","171315f6-911b-483c-989e-4ecd56a4539c","e9cc2542-c7dc-4d8f-b94f-d088ad8989d1","{""part"":""2"",""participantId"":""5C598EC41BCB461B95A75E8D255C46C8"",""assignmentId"":""171315f6-911b-483c-989e-4ecd56a4539c"",""projectId"":""e9cc2542-c7dc-4d8f-b94f-d088ad8989d1""}","https://test12345.live/?part=2&participantId=5C598EC41BCB461B95A75E8D255C46C8&assignmentId=171315f6-911b-483c-989e-4ecd56a4539c&projectId=e9cc2542-c7dc-4d8f-b94f-d088ad8989d1","5C598EC41BCB461B95A75E8D255C46C8-2025-05-16-19-12-52","","48458","","[""<span style=\""color: red; font-size: 24px\""> NOW RECORDING</span><p>Please say out loud all the images you saw in part 1 of the experiment, as many as you can remember. The images can be said in any order.</p>""]","","0","package_causal"
"","","","","","image-button-response","49","1792293","0.0-47.0-0.0","5C598EC41BCB461B95A75E8D255C46C8","5C598EC41BCB461B95A75E8D255C46C8","171315f6-911b-483c-989e-4ecd56a4539c","e9cc2542-c7dc-4d8f-b94f-d088ad8989d1","{""part"":""2"",""participantId"":""5C598EC41BCB461B95A75E8D255C46C8"",""assignmentId"":""171315f6-911b-483c-989e-4ecd56a4539c"",""projectId"":""e9cc2542-c7dc-4d8f-b94f-d088ad8989d1""}","https://test12345.live/?part=2&participantId=5C598EC41BCB461B95A75E8D255C46C8&assignmentId=171315f6-911b-483c-989e-4ecd56a4539c&projectId=e9cc2542-c7dc-4d8f-b94f-d088ad8989d1","5C598EC41BCB461B95A75E8D255C46C8-2025-05-16-19-12-52","","null","","images/schematic_sequence/hotel_scheme/hotel_scheme_0.png","null","",""
"","","","","","html-audio-response","50","1843340","0.0-48.0","5C598EC41BCB461B95A75E8D255C46C8","5C598EC41BCB461B95A75E8D255C46C8","171315f6-911b-483c-989e-4ecd56a4539c","e9cc2542-c7dc-4d8f-b94f-d088ad8989d1","{""part"":""2"",""participantId"":""5C598EC41BCB461B95A75E8D255C46C8"",""assignmentId"":""171315f6-911b-483c-989e-4ecd56a4539c"",""projectId"":""e9cc2542-c7dc-4d8f-b94f-d088ad8989d1""}","https://test12345.live/?part=2&participantId=5C598EC41BCB461B95A75E8D255C46C8&assignmentId=171315f6-911b-483c-989e-4ecd56a4539c&projectId=e9cc2542-c7dc-4d8f-b94f-d088ad8989d1","5C598EC41BCB461B95A75E8D255C46C8-2025-05-16-19-12-52","","47216","","[""<span style=\""color: red; font-size: 24px\""> NOW RECORDING</span><p>Please say out loud all the images you saw in part 1 of the experiment, as many as you can remember. The images can be said in any order.</p>""]","","0","hotel_scheme"
"","","","","","image-button-response","51","1849355","0.0-49.0-0.0","5C598EC41BCB461B95A75E8D255C46C8","5C598EC41BCB461B95A75E8D255C46C8","171315f6-911b-483c-989e-4ecd56a4539c","e9cc2542-c7dc-4d8f-b94f-d088ad8989d1","{""part"":""2"",""participantId"":""5C598EC41BCB461B95A75E8D255C46C8"",""assignmentId"":""171315f6-911b-483c-989e-4ecd56a4539c"",""projectId"":""e9cc2542-c7dc-4d8f-b94f-d088ad8989d1""}","https://test12345.live/?part=2&participantId=5C598EC41BCB461B95A75E8D255C46C8&assignmentId=171315f6-911b-483c-989e-4ecd56a4539c&projectId=e9cc2542-c7dc-4d8f-b94f-d088ad8989d1","5C598EC41BCB461B95A75E8D255C46C8-2025-05-16-19-12-52","","null","","images/schematic_sequence/dinner_party_scheme/dinner_party_scheme_0.png","null","",""
"","","","","","html-audio-response","52","1897806","0.0-50.0","5C598EC41BCB461B95A75E8D255C46C8","5C598EC41BCB461B95A75E8D255C46C8","171315f6-911b-483c-989e-4ecd56a4539c","e9cc2542-c7dc-4d8f-b94f-d088ad8989d1","{""part"":""2"",""participantId"":""5C598EC41BCB461B95A75E8D255C46C8"",""assignmentId"":""171315f6-911b-483c-989e-4ecd56a4539c"",""projectId"":""e9cc2542-c7dc-4d8f-b94f-d088ad8989d1""}","https://test12345.live/?part=2&participantId=5C598EC41BCB461B95A75E8D255C46C8&assignmentId=171315f6-911b-483c-989e-4ecd56a4539c&projectId=e9cc2542-c7dc-4d8f-b94f-d088ad8989d1","5C598EC41BCB461B95A75E8D255C46C8-2025-05-16-19-12-52","","44509","","[""<span style=\""color: red; font-size: 24px\""> NOW RECORDING</span><p>Please say out loud all the images you saw in part 1 of the experiment, as many as you can remember. The images can be said in any order.</p>""]","","6","dinner_party_scheme"
"","","","","","image-button-response","53","1903819","0.0-51.0-0.0","5C598EC41BCB461B95A75E8D255C46C8","5C598EC41BCB461B95A75E8D255C46C8","171315f6-911b-483c-989e-4ecd56a4539c","e9cc2542-c7dc-4d8f-b94f-d088ad8989d1","{""part"":""2"",""participantId"":""5C598EC41BCB461B95A75E8D255C46C8"",""assignmentId"":""171315f6-911b-483c-989e-4ecd56a4539c"",""projectId"":""e9cc2542-c7dc-4d8f-b94f-d088ad8989d1""}","https://test12345.live/?part=2&participantId=5C598EC41BCB461B95A75E8D255C46C8&assignmentId=171315f6-911b-483c-989e-4ecd56a4539c&projectId=e9cc2542-c7dc-4d8f-b94f-d088ad8989d1","5C598EC41BCB461B95A75E8D255C46C8-2025-05-16-19-12-52","","null","","images/schematic_sequence/interview_scheme/interview_scheme_0.png","null","",""
"","","","","","html-audio-response","54","1949758","0.0-52.0","5C598EC41BCB461B95A75E8D255C46C8","5C598EC41BCB461B95A75E8D255C46C8","171315f6-911b-483c-989e-4ecd56a4539c","e9cc2542-c7dc-4d8f-b94f-d088ad8989d1","{""part"":""2"",""participantId"":""5C598EC41BCB461B95A75E8D255C46C8"",""assignmentId"":""171315f6-911b-483c-989e-4ecd56a4539c"",""projectId"":""e9cc2542-c7dc-4d8f-b94f-d088ad8989d1""}","https://test12345.live/?part=2&participantId=5C598EC41BCB461B95A75E8D255C46C8&assignmentId=171315f6-911b-483c-989e-4ecd56a4539c&projectId=e9cc2542-c7dc-4d8f-b94f-d088ad8989d1","5C598EC41BCB461B95A75E8D255C46C8-2025-05-16-19-12-52","","41896","","[""<span style=\""color: red; font-size: 24px\""> NOW RECORDING</span><p>Please say out loud all the images you saw in part 1 of the experiment, as many as you can remember. The images can be said in any order.</p>""]","","2","interview_scheme"
"","","","","","image-button-response","55","1955762","0.0-53.0-0.0","5C598EC41BCB461B95A75E8D255C46C8","5C598EC41BCB461B95A75E8D255C46C8","171315f6-911b-483c-989e-4ecd56a4539c","e9cc2542-c7dc-4d8f-b94f-d088ad8989d1","{""part"":""2"",""participantId"":""5C598EC41BCB461B95A75E8D255C46C8"",""assignmentId"":""171315f6-911b-483c-989e-4ecd56a4539c"",""projectId"":""e9cc2542-c7dc-4d8f-b94f-d088ad8989d1""}","https://test12345.live/?part=2&participantId=5C598EC41BCB461B95A75E8D255C46C8&assignmentId=171315f6-911b-483c-989e-4ecd56a4539c&projectId=e9cc2542-c7dc-4d8f-b94f-d088ad8989d1","5C598EC41BCB461B95A75E8D255C46C8-2025-05-16-19-12-52","","null","","images/causal_sequence/museum_causal/museum_causal_0.png","null","",""
"","","","","","html-audio-response","56","2014556","0.0-54.0","5C598EC41BCB461B95A75E8D255C46C8","5C598EC41BCB461B95A75E8D255C46C8","171315f6-911b-483c-989e-4ecd56a4539c","e9cc2542-c7dc-4d8f-b94f-d088ad8989d1","{""part"":""2"",""participantId"":""5C598EC41BCB461B95A75E8D255C46C8"",""assignmentId"":""171315f6-911b-483c-989e-4ecd56a4539c"",""projectId"":""e9cc2542-c7dc-4d8f-b94f-d088ad8989d1""}","https://test12345.live/?part=2&participantId=5C598EC41BCB461B95A75E8D255C46C8&assignmentId=171315f6-911b-483c-989e-4ecd56a4539c&projectId=e9cc2542-c7dc-4d8f-b94f-d088ad8989d1","5C598EC41BCB461B95A75E8D255C46C8-2025-05-16-19-12-52","","28244","","[""<span style=\""color: red; font-size: 24px\""> NOW RECORDING</span><p>Please say out loud all the images you saw in part 1 of the experiment, as many as you can remember. The images can be said in any order.</p>""]","","0","museum_causal"
"","","","","","image-button-response","57","2020565","0.0-55.0-0.0","5C598EC41BCB461B95A75E8D255C46C8","5C598EC41BCB461B95A75E8D255C46C8","171315f6-911b-483c-989e-4ecd56a4539c","e9cc2542-c7dc-4d8f-b94f-d088ad8989d1","{""part"":""2"",""participantId"":""5C598EC41BCB461B95A75E8D255C46C8"",""assignmentId"":""171315f6-911b-483c-989e-4ecd56a4539c"",""projectId"":""e9cc2542-c7dc-4d8f-b94f-d088ad8989d1""}","https://test12345.live/?part=2&participantId=5C598EC41BCB461B95A75E8D255C46C8&assignmentId=171315f6-911b-483c-989e-4ecd56a4539c&projectId=e9cc2542-c7dc-4d8f-b94f-d088ad8989d1","5C598EC41BCB461B95A75E8D255C46C8-2025-05-16-19-12-52","","null","","images/causal_sequence/the_performance_causal/the_performance_causal_0.png","null","",""
"","","","","","html-audio-response","58","2075494","0.0-56.0","5C598EC41BCB461B95A75E8D255C46C8","5C598EC41BCB461B95A75E8D255C46C8","171315f6-911b-483c-989e-4ecd56a4539c","e9cc2542-c7dc-4d8f-b94f-d088ad8989d1","{""part"":""2"",""participantId"":""5C598EC41BCB461B95A75E8D255C46C8"",""assignmentId"":""171315f6-911b-483c-989e-4ecd56a4539c"",""projectId"":""e9cc2542-c7dc-4d8f-b94f-d088ad8989d1""}","https://test12345.live/?part=2&participantId=5C598EC41BCB461B95A75E8D255C46C8&assignmentId=171315f6-911b-483c-989e-4ecd56a4539c&projectId=e9cc2542-c7dc-4d8f-b94f-d088ad8989d1","5C598EC41BCB461B95A75E8D255C46C8-2025-05-16-19-12-52","","50457","","[""<span style=\""color: red; font-size: 24px\""> NOW RECORDING</span><p>Please say out loud all the images you saw in part 1 of the experiment, as many as you can remember. The images can be said in any order.</p>""]","","10","the_performance_causal"
"","","","","","survey-text","59","2083761","0.0-57.0","5C598EC41BCB461B95A75E8D255C46C8","5C598EC41BCB461B95A75E8D255C46C8","171315f6-911b-483c-989e-4ecd56a4539c","e9cc2542-c7dc-4d8f-b94f-d088ad8989d1","{""part"":""2"",""participantId"":""5C598EC41BCB461B95A75E8D255C46C8"",""assignmentId"":""171315f6-911b-483c-989e-4ecd56a4539c"",""projectId"":""e9cc2542-c7dc-4d8f-b94f-d088ad8989d1""}","https://test12345.live/?part=2&participantId=5C598EC41BCB461B95A75E8D255C46C8&assignmentId=171315f6-911b-483c-989e-4ecd56a4539c&projectId=e9cc2542-c7dc-4d8f-b94f-d088ad8989d1","5C598EC41BCB461B95A75E8D255C46C8-2025-05-16-19-12-52","","8263","","","{""Q0"":""Male"",""Q1"":""32""}","",""
"","","","","","instructions","60","2092325","0.0-58.0","5C598EC41BCB461B95A75E8D255C46C8","5C598EC41BCB461B95A75E8D255C46C8","171315f6-911b-483c-989e-4ecd56a4539c","e9cc2542-c7dc-4d8f-b94f-d088ad8989d1","{""part"":""2"",""participantId"":""5C598EC41BCB461B95A75E8D255C46C8"",""assignmentId"":""171315f6-911b-483c-989e-4ecd56a4539c"",""projectId"":""e9cc2542-c7dc-4d8f-b94f-d088ad8989d1""}","https://test12345.live/?part=2&participantId=5C598EC41BCB461B95A75E8D255C46C8&assignmentId=171315f6-911b-483c-989e-4ecd56a4539c&projectId=e9cc2542-c7dc-4d8f-b94f-d088ad8989d1","5C598EC41BCB461B95A75E8D255C46C8-2025-05-16-19-12-52","[{""page_index"":0,""viewing_time"":8564}]","8564","","","","",""
"","","","","","survey-text","61","2096457","0.0-59.0","5C598EC41BCB461B95A75E8D255C46C8","5C598EC41BCB461B95A75E8D255C46C8","171315f6-911b-483c-989e-4ecd56a4539c","e9cc2542-c7dc-4d8f-b94f-d088ad8989d1","{""part"":""2"",""participantId"":""5C598EC41BCB461B95A75E8D255C46C8"",""assignmentId"":""171315f6-911b-483c-989e-4ecd56a4539c"",""projectId"":""e9cc2542-c7dc-4d8f-b94f-d088ad8989d1""}","https://test12345.live/?part=2&participantId=5C598EC41BCB461B95A75E8D255C46C8&assignmentId=171315f6-911b-483c-989e-4ecd56a4539c&projectId=e9cc2542-c7dc-4d8f-b94f-d088ad8989d1","5C598EC41BCB461B95A75E8D255C46C8-2025-05-16-19-12-52","","4132","","","{""Q0"":""AJFHBG896""}","",""
