"success","timeout","failed_images","failed_audio","failed_video","trial_type","trial_index","time_elapsed","internal_node_id","subject","subject_id","study_id","session_id","urlvar","current_url","audio_id","view_history","rt","device_id","stimulus","response","estimated_stimulus_onset","seq_name"
"true","false","[]","[]","[]","preload","0","3245","0.0-0.0","5C6D437C650449C99127F6632DB717CF","5C6D437C650449C99127F6632DB717CF","0198bef0-8eae-716a-90fb-178c2d60a7d7","0198beef-981a-7243-9790-051e10551090","{""num_scrambled_semantic"":""8"",""num_scrambled_causal"":""4"",""num_scrambled_schematic"":""4"",""participantId"":""5C6D437C650449C99127F6632DB717CF"",""assignmentId"":""0198bef0-8eae-716a-90fb-178c2d60a7d7"",""projectId"":""0198beef-981a-7243-9790-051e10551090""}","https://test12345.live/?num_scrambled_semantic=8&num_scrambled_causal=4&num_scrambled_schematic=4&participantId=5C6D437C650449C99127F6632DB717CF&assignmentId=0198bef0-8eae-716a-90fb-178c2d60a7d7&projectId=0198beef-981a-7243-9790-051e10551090","5C6D437C650449C99127F6632DB717CF-2025-08-18-21-04-28","","","","","","",""
"","","","","","instructions","1","15609","0.0-1.0","5C6D437C650449C99127F6632DB717CF","5C6D437C650449C99127F6632DB717CF","0198bef0-8eae-716a-90fb-178c2d60a7d7","0198beef-981a-7243-9790-051e10551090","{""num_scrambled_semantic"":""8"",""num_scrambled_causal"":""4"",""num_scrambled_schematic"":""4"",""participantId"":""5C6D437C650449C99127F6632DB717CF"",""assignmentId"":""0198bef0-8eae-716a-90fb-178c2d60a7d7"",""projectId"":""0198beef-981a-7243-9790-051e10551090""}","https://test12345.live/?num_scrambled_semantic=8&num_scrambled_causal=4&num_scrambled_schematic=4&participantId=5C6D437C650449C99127F6632DB717CF&assignmentId=0198bef0-8eae-716a-90fb-178c2d60a7d7&projectId=0198beef-981a-7243-9790-051e10551090","5C6D437C650449C99127F6632DB717CF-2025-08-18-21-04-28","[{""page_index"":0,""viewing_time"":12362}]","12363","","","","",""
"","","","","","instructions","2","21505","0.0-2.0","5C6D437C650449C99127F6632DB717CF","5C6D437C650449C99127F6632DB717CF","0198bef0-8eae-716a-90fb-178c2d60a7d7","0198beef-981a-7243-9790-051e10551090","{""num_scrambled_semantic"":""8"",""num_scrambled_causal"":""4"",""num_scrambled_schematic"":""4"",""participantId"":""5C6D437C650449C99127F6632DB717CF"",""assignmentId"":""0198bef0-8eae-716a-90fb-178c2d60a7d7"",""projectId"":""0198beef-981a-7243-9790-051e10551090""}","https://test12345.live/?num_scrambled_semantic=8&num_scrambled_causal=4&num_scrambled_schematic=4&participantId=5C6D437C650449C99127F6632DB717CF&assignmentId=0198bef0-8eae-716a-90fb-178c2d60a7d7&projectId=0198beef-981a-7243-9790-051e10551090","5C6D437C650449C99127F6632DB717CF-2025-08-18-21-04-28","[{""page_index"":0,""viewing_time"":5895}]","5896","","","","",""
"true","","","","","fullscreen","3","23852","0.0-3.0","5C6D437C650449C99127F6632DB717CF","5C6D437C650449C99127F6632DB717CF","0198bef0-8eae-716a-90fb-178c2d60a7d7","0198beef-981a-7243-9790-051e10551090","{""num_scrambled_semantic"":""8"",""num_scrambled_causal"":""4"",""num_scrambled_schematic"":""4"",""participantId"":""5C6D437C650449C99127F6632DB717CF"",""assignmentId"":""0198bef0-8eae-716a-90fb-178c2d60a7d7"",""projectId"":""0198beef-981a-7243-9790-051e10551090""}","https://test12345.live/?num_scrambled_semantic=8&num_scrambled_causal=4&num_scrambled_schematic=4&participantId=5C6D437C650449C99127F6632DB717CF&assignmentId=0198bef0-8eae-716a-90fb-178c2d60a7d7&projectId=0198beef-981a-7243-9790-051e10551090","5C6D437C650449C99127F6632DB717CF-2025-08-18-21-04-28","","1337","","","","",""
"","","","","","initialize-microphone","4","35298","0.0-4.0-0.0","5C6D437C650449C99127F6632DB717CF","5C6D437C650449C99127F6632DB717CF","0198bef0-8eae-716a-90fb-178c2d60a7d7","0198beef-981a-7243-9790-051e10551090","{""num_scrambled_semantic"":""8"",""num_scrambled_causal"":""4"",""num_scrambled_schematic"":""4"",""participantId"":""5C6D437C650449C99127F6632DB717CF"",""assignmentId"":""0198bef0-8eae-716a-90fb-178c2d60a7d7"",""projectId"":""0198beef-981a-7243-9790-051e10551090""}","https://test12345.live/?num_scrambled_semantic=8&num_scrambled_causal=4&num_scrambled_schematic=4&participantId=5C6D437C650449C99127F6632DB717CF&assignmentId=0198bef0-8eae-716a-90fb-178c2d60a7d7&projectId=0198beef-981a-7243-9790-051e10551090","5C6D437C650449C99127F6632DB717CF-2025-08-18-21-04-28","","","0cdd604eaa1078e1db903df5c68bcd419aa7fd0214873efa085cdf675630b1d0","","","",""
"","","","","","html-audio-response","5","41875","0.0-4.0-1.0","5C6D437C650449C99127F6632DB717CF","5C6D437C650449C99127F6632DB717CF","0198bef0-8eae-716a-90fb-178c2d60a7d7","0198beef-981a-7243-9790-051e10551090","{""num_scrambled_semantic"":""8"",""num_scrambled_causal"":""4"",""num_scrambled_schematic"":""4"",""participantId"":""5C6D437C650449C99127F6632DB717CF"",""assignmentId"":""0198bef0-8eae-716a-90fb-178c2d60a7d7"",""projectId"":""0198beef-981a-7243-9790-051e10551090""}","https://test12345.live/?num_scrambled_semantic=8&num_scrambled_causal=4&num_scrambled_schematic=4&participantId=5C6D437C650449C99127F6632DB717CF&assignmentId=0198bef0-8eae-716a-90fb-178c2d60a7d7&projectId=0198beef-981a-7243-9790-051e10551090","5C6D437C650449C99127F6632DB717CF-2025-08-18-21-04-28","","2658","","<span style=""color: red; font-size: 24px""> NOW RECORDING</span>
        <p>Please test Microphone</p>","","4",""
"","","","","","html-button-response","6","43381","0.0-4.0-2.0","5C6D437C650449C99127F6632DB717CF","5C6D437C650449C99127F6632DB717CF","0198bef0-8eae-716a-90fb-178c2d60a7d7","0198beef-981a-7243-9790-051e10551090","{""num_scrambled_semantic"":""8"",""num_scrambled_causal"":""4"",""num_scrambled_schematic"":""4"",""participantId"":""5C6D437C650449C99127F6632DB717CF"",""assignmentId"":""0198bef0-8eae-716a-90fb-178c2d60a7d7"",""projectId"":""0198beef-981a-7243-9790-051e10551090""}","https://test12345.live/?num_scrambled_semantic=8&num_scrambled_causal=4&num_scrambled_schematic=4&participantId=5C6D437C650449C99127F6632DB717CF&assignmentId=0198bef0-8eae-716a-90fb-178c2d60a7d7&projectId=0198beef-981a-7243-9790-051e10551090","5C6D437C650449C99127F6632DB717CF-2025-08-18-21-04-28","","1504","","<p style=""font-size:48px; color:red;"">Is Microphone OK?</p>","1","",""
"","","","","","instructions","7","66427","0.0-5.0","5C6D437C650449C99127F6632DB717CF","5C6D437C650449C99127F6632DB717CF","0198bef0-8eae-716a-90fb-178c2d60a7d7","0198beef-981a-7243-9790-051e10551090","{""num_scrambled_semantic"":""8"",""num_scrambled_causal"":""4"",""num_scrambled_schematic"":""4"",""participantId"":""5C6D437C650449C99127F6632DB717CF"",""assignmentId"":""0198bef0-8eae-716a-90fb-178c2d60a7d7"",""projectId"":""0198beef-981a-7243-9790-051e10551090""}","https://test12345.live/?num_scrambled_semantic=8&num_scrambled_causal=4&num_scrambled_schematic=4&participantId=5C6D437C650449C99127F6632DB717CF&assignmentId=0198bef0-8eae-716a-90fb-178c2d60a7d7&projectId=0198beef-981a-7243-9790-051e10551090","5C6D437C650449C99127F6632DB717CF-2025-08-18-21-04-28","[{""page_index"":0,""viewing_time"":983},{""page_index"":1,""viewing_time"":3774},{""page_index"":2,""viewing_time"":18288}]","23045","","","","",""
"","","","","","image-button-response","8","72430","0.0-6.0-0.0","5C6D437C650449C99127F6632DB717CF","5C6D437C650449C99127F6632DB717CF","0198bef0-8eae-716a-90fb-178c2d60a7d7","0198beef-981a-7243-9790-051e10551090","{""num_scrambled_semantic"":""8"",""num_scrambled_causal"":""4"",""num_scrambled_schematic"":""4"",""participantId"":""5C6D437C650449C99127F6632DB717CF"",""assignmentId"":""0198bef0-8eae-716a-90fb-178c2d60a7d7"",""projectId"":""0198beef-981a-7243-9790-051e10551090""}","https://test12345.live/?num_scrambled_semantic=8&num_scrambled_causal=4&num_scrambled_schematic=4&participantId=5C6D437C650449C99127F6632DB717CF&assignmentId=0198bef0-8eae-716a-90fb-178c2d60a7d7&projectId=0198beef-981a-7243-9790-051e10551090","5C6D437C650449C99127F6632DB717CF-2025-08-18-21-04-28","","null","","images/instructions/movie_0.png","null","",""
"","","","","","html-audio-response","9","93977","0.0-7.0","5C6D437C650449C99127F6632DB717CF","5C6D437C650449C99127F6632DB717CF","0198bef0-8eae-716a-90fb-178c2d60a7d7","0198beef-981a-7243-9790-051e10551090","{""num_scrambled_semantic"":""8"",""num_scrambled_causal"":""4"",""num_scrambled_schematic"":""4"",""participantId"":""5C6D437C650449C99127F6632DB717CF"",""assignmentId"":""0198bef0-8eae-716a-90fb-178c2d60a7d7"",""projectId"":""0198beef-981a-7243-9790-051e10551090""}","https://test12345.live/?num_scrambled_semantic=8&num_scrambled_causal=4&num_scrambled_schematic=4&participantId=5C6D437C650449C99127F6632DB717CF&assignmentId=0198bef0-8eae-716a-90fb-178c2d60a7d7&projectId=0198beef-981a-7243-9790-051e10551090","5C6D437C650449C99127F6632DB717CF-2025-08-18-21-04-28","","14162","","[""<span style=\""color: red; font-size: 24px\""> NOW RECORDING</span><p>Please say out loud all the images you saw in part 1 of the experiment, as many as you can remember. The images can be said in any order.</p>""]","","4",""
"","","","","","instructions","10","96420","0.0-8.0","5C6D437C650449C99127F6632DB717CF","5C6D437C650449C99127F6632DB717CF","0198bef0-8eae-716a-90fb-178c2d60a7d7","0198beef-981a-7243-9790-051e10551090","{""num_scrambled_semantic"":""8"",""num_scrambled_causal"":""4"",""num_scrambled_schematic"":""4"",""participantId"":""5C6D437C650449C99127F6632DB717CF"",""assignmentId"":""0198bef0-8eae-716a-90fb-178c2d60a7d7"",""projectId"":""0198beef-981a-7243-9790-051e10551090""}","https://test12345.live/?num_scrambled_semantic=8&num_scrambled_causal=4&num_scrambled_schematic=4&participantId=5C6D437C650449C99127F6632DB717CF&assignmentId=0198bef0-8eae-716a-90fb-178c2d60a7d7&projectId=0198beef-981a-7243-9790-051e10551090","5C6D437C650449C99127F6632DB717CF-2025-08-18-21-04-28","[{""page_index"":0,""viewing_time"":2438}]","2438","","","","",""
"","","","","","image-button-response","11","102423","0.0-9.0-0.0","5C6D437C650449C99127F6632DB717CF","5C6D437C650449C99127F6632DB717CF","0198bef0-8eae-716a-90fb-178c2d60a7d7","0198beef-981a-7243-9790-051e10551090","{""num_scrambled_semantic"":""8"",""num_scrambled_causal"":""4"",""num_scrambled_schematic"":""4"",""participantId"":""5C6D437C650449C99127F6632DB717CF"",""assignmentId"":""0198bef0-8eae-716a-90fb-178c2d60a7d7"",""projectId"":""0198beef-981a-7243-9790-051e10551090""}","https://test12345.live/?num_scrambled_semantic=8&num_scrambled_causal=4&num_scrambled_schematic=4&participantId=5C6D437C650449C99127F6632DB717CF&assignmentId=0198bef0-8eae-716a-90fb-178c2d60a7d7&projectId=0198beef-981a-7243-9790-051e10551090","5C6D437C650449C99127F6632DB717CF-2025-08-18-21-04-28","","null","","images/semantic_sequence/housework_semantic/housework_semantic_0.png","null","",""
"","","","","","html-audio-response","12","129392","0.0-10.0","5C6D437C650449C99127F6632DB717CF","5C6D437C650449C99127F6632DB717CF","0198bef0-8eae-716a-90fb-178c2d60a7d7","0198beef-981a-7243-9790-051e10551090","{""num_scrambled_semantic"":""8"",""num_scrambled_causal"":""4"",""num_scrambled_schematic"":""4"",""participantId"":""5C6D437C650449C99127F6632DB717CF"",""assignmentId"":""0198bef0-8eae-716a-90fb-178c2d60a7d7"",""projectId"":""0198beef-981a-7243-9790-051e10551090""}","https://test12345.live/?num_scrambled_semantic=8&num_scrambled_causal=4&num_scrambled_schematic=4&participantId=5C6D437C650449C99127F6632DB717CF&assignmentId=0198bef0-8eae-716a-90fb-178c2d60a7d7&projectId=0198beef-981a-7243-9790-051e10551090","5C6D437C650449C99127F6632DB717CF-2025-08-18-21-04-28","","21548","","[""<span style=\""color: red; font-size: 24px\""> NOW RECORDING</span><p>Please say out loud all the images you saw in part 1 of the experiment, as many as you can remember. The images can be said in any order.</p>""]","","2","housework_semantic"
"","","","","","image-button-response","13","135406","0.0-11.0-0.0","5C6D437C650449C99127F6632DB717CF","5C6D437C650449C99127F6632DB717CF","0198bef0-8eae-716a-90fb-178c2d60a7d7","0198beef-981a-7243-9790-051e10551090","{""num_scrambled_semantic"":""8"",""num_scrambled_causal"":""4"",""num_scrambled_schematic"":""4"",""participantId"":""5C6D437C650449C99127F6632DB717CF"",""assignmentId"":""0198bef0-8eae-716a-90fb-178c2d60a7d7"",""projectId"":""0198beef-981a-7243-9790-051e10551090""}","https://test12345.live/?num_scrambled_semantic=8&num_scrambled_causal=4&num_scrambled_schematic=4&participantId=5C6D437C650449C99127F6632DB717CF&assignmentId=0198bef0-8eae-716a-90fb-178c2d60a7d7&projectId=0198beef-981a-7243-9790-051e10551090","5C6D437C650449C99127F6632DB717CF-2025-08-18-21-04-28","","null","","images/causal_sequence/the_performance_causal/the_performance_causal_0.png","null","",""
"","","","","","html-audio-response","14","171232","0.0-12.0","5C6D437C650449C99127F6632DB717CF","5C6D437C650449C99127F6632DB717CF","0198bef0-8eae-716a-90fb-178c2d60a7d7","0198beef-981a-7243-9790-051e10551090","{""num_scrambled_semantic"":""8"",""num_scrambled_causal"":""4"",""num_scrambled_schematic"":""4"",""participantId"":""5C6D437C650449C99127F6632DB717CF"",""assignmentId"":""0198bef0-8eae-716a-90fb-178c2d60a7d7"",""projectId"":""0198beef-981a-7243-9790-051e10551090""}","https://test12345.live/?num_scrambled_semantic=8&num_scrambled_causal=4&num_scrambled_schematic=4&participantId=5C6D437C650449C99127F6632DB717CF&assignmentId=0198bef0-8eae-716a-90fb-178c2d60a7d7&projectId=0198beef-981a-7243-9790-051e10551090","5C6D437C650449C99127F6632DB717CF-2025-08-18-21-04-28","","31721","","[""<span style=\""color: red; font-size: 24px\""> NOW RECORDING</span><p>Please say out loud all the images you saw in part 1 of the experiment, as many as you can remember. The images can be said in any order.</p>""]","","3","the_performance_causal"
"","","","","","image-button-response","15","177247","0.0-13.0-0.0","5C6D437C650449C99127F6632DB717CF","5C6D437C650449C99127F6632DB717CF","0198bef0-8eae-716a-90fb-178c2d60a7d7","0198beef-981a-7243-9790-051e10551090","{""num_scrambled_semantic"":""8"",""num_scrambled_causal"":""4"",""num_scrambled_schematic"":""4"",""participantId"":""5C6D437C650449C99127F6632DB717CF"",""assignmentId"":""0198bef0-8eae-716a-90fb-178c2d60a7d7"",""projectId"":""0198beef-981a-7243-9790-051e10551090""}","https://test12345.live/?num_scrambled_semantic=8&num_scrambled_causal=4&num_scrambled_schematic=4&participantId=5C6D437C650449C99127F6632DB717CF&assignmentId=0198bef0-8eae-716a-90fb-178c2d60a7d7&projectId=0198beef-981a-7243-9790-051e10551090","5C6D437C650449C99127F6632DB717CF-2025-08-18-21-04-28","","null","","images/causal_sequence/dog_causal/dog_causal_0.png","null","",""
"","","","","","html-audio-response","16","225591","0.0-14.0","5C6D437C650449C99127F6632DB717CF","5C6D437C650449C99127F6632DB717CF","0198bef0-8eae-716a-90fb-178c2d60a7d7","0198beef-981a-7243-9790-051e10551090","{""num_scrambled_semantic"":""8"",""num_scrambled_causal"":""4"",""num_scrambled_schematic"":""4"",""participantId"":""5C6D437C650449C99127F6632DB717CF"",""assignmentId"":""0198bef0-8eae-716a-90fb-178c2d60a7d7"",""projectId"":""0198beef-981a-7243-9790-051e10551090""}","https://test12345.live/?num_scrambled_semantic=8&num_scrambled_causal=4&num_scrambled_schematic=4&participantId=5C6D437C650449C99127F6632DB717CF&assignmentId=0198bef0-8eae-716a-90fb-178c2d60a7d7&projectId=0198beef-981a-7243-9790-051e10551090","5C6D437C650449C99127F6632DB717CF-2025-08-18-21-04-28","","41795","","[""<span style=\""color: red; font-size: 24px\""> NOW RECORDING</span><p>Please say out loud all the images you saw in part 1 of the experiment, as many as you can remember. The images can be said in any order.</p>""]","","3","dog_causal"
"","","","","","image-button-response","17","231606","0.0-15.0-0.0","5C6D437C650449C99127F6632DB717CF","5C6D437C650449C99127F6632DB717CF","0198bef0-8eae-716a-90fb-178c2d60a7d7","0198beef-981a-7243-9790-051e10551090","{""num_scrambled_semantic"":""8"",""num_scrambled_causal"":""4"",""num_scrambled_schematic"":""4"",""participantId"":""5C6D437C650449C99127F6632DB717CF"",""assignmentId"":""0198bef0-8eae-716a-90fb-178c2d60a7d7"",""projectId"":""0198beef-981a-7243-9790-051e10551090""}","https://test12345.live/?num_scrambled_semantic=8&num_scrambled_causal=4&num_scrambled_schematic=4&participantId=5C6D437C650449C99127F6632DB717CF&assignmentId=0198bef0-8eae-716a-90fb-178c2d60a7d7&projectId=0198beef-981a-7243-9790-051e10551090","5C6D437C650449C99127F6632DB717CF-2025-08-18-21-04-28","","null","","images/causal_sequence/package_causal/package_causal_0.png","null","",""
"","","","","","html-audio-response","18","261189","0.0-16.0","5C6D437C650449C99127F6632DB717CF","5C6D437C650449C99127F6632DB717CF","0198bef0-8eae-716a-90fb-178c2d60a7d7","0198beef-981a-7243-9790-051e10551090","{""num_scrambled_semantic"":""8"",""num_scrambled_causal"":""4"",""num_scrambled_schematic"":""4"",""participantId"":""5C6D437C650449C99127F6632DB717CF"",""assignmentId"":""0198bef0-8eae-716a-90fb-178c2d60a7d7"",""projectId"":""0198beef-981a-7243-9790-051e10551090""}","https://test12345.live/?num_scrambled_semantic=8&num_scrambled_causal=4&num_scrambled_schematic=4&participantId=5C6D437C650449C99127F6632DB717CF&assignmentId=0198bef0-8eae-716a-90fb-178c2d60a7d7&projectId=0198beef-981a-7243-9790-051e10551090","5C6D437C650449C99127F6632DB717CF-2025-08-18-21-04-28","","24563","","[""<span style=\""color: red; font-size: 24px\""> NOW RECORDING</span><p>Please say out loud all the images you saw in part 1 of the experiment, as many as you can remember. The images can be said in any order.</p>""]","","3","package_causal"
"","","","","","image-button-response","19","267208","0.0-17.0-0.0","5C6D437C650449C99127F6632DB717CF","5C6D437C650449C99127F6632DB717CF","0198bef0-8eae-716a-90fb-178c2d60a7d7","0198beef-981a-7243-9790-051e10551090","{""num_scrambled_semantic"":""8"",""num_scrambled_causal"":""4"",""num_scrambled_schematic"":""4"",""participantId"":""5C6D437C650449C99127F6632DB717CF"",""assignmentId"":""0198bef0-8eae-716a-90fb-178c2d60a7d7"",""projectId"":""0198beef-981a-7243-9790-051e10551090""}","https://test12345.live/?num_scrambled_semantic=8&num_scrambled_causal=4&num_scrambled_schematic=4&participantId=5C6D437C650449C99127F6632DB717CF&assignmentId=0198bef0-8eae-716a-90fb-178c2d60a7d7&projectId=0198beef-981a-7243-9790-051e10551090","5C6D437C650449C99127F6632DB717CF-2025-08-18-21-04-28","","null","","images/semantic_sequence/creative_activities_semantic/creative_activities_semantic_0.png","null","",""
"","","","","","html-audio-response","20","293219","0.0-18.0","5C6D437C650449C99127F6632DB717CF","5C6D437C650449C99127F6632DB717CF","0198bef0-8eae-716a-90fb-178c2d60a7d7","0198beef-981a-7243-9790-051e10551090","{""num_scrambled_semantic"":""8"",""num_scrambled_causal"":""4"",""num_scrambled_schematic"":""4"",""participantId"":""5C6D437C650449C99127F6632DB717CF"",""assignmentId"":""0198bef0-8eae-716a-90fb-178c2d60a7d7"",""projectId"":""0198beef-981a-7243-9790-051e10551090""}","https://test12345.live/?num_scrambled_semantic=8&num_scrambled_causal=4&num_scrambled_schematic=4&participantId=5C6D437C650449C99127F6632DB717CF&assignmentId=0198bef0-8eae-716a-90fb-178c2d60a7d7&projectId=0198beef-981a-7243-9790-051e10551090","5C6D437C650449C99127F6632DB717CF-2025-08-18-21-04-28","","19767","","[""<span style=\""color: red; font-size: 24px\""> NOW RECORDING</span><p>Please say out loud all the images you saw in part 1 of the experiment, as many as you can remember. The images can be said in any order.</p>""]","","3","creative_activities_semantic"
"","","","","","image-button-response","21","299240","0.0-19.0-0.0","5C6D437C650449C99127F6632DB717CF","5C6D437C650449C99127F6632DB717CF","0198bef0-8eae-716a-90fb-178c2d60a7d7","0198beef-981a-7243-9790-051e10551090","{""num_scrambled_semantic"":""8"",""num_scrambled_causal"":""4"",""num_scrambled_schematic"":""4"",""participantId"":""5C6D437C650449C99127F6632DB717CF"",""assignmentId"":""0198bef0-8eae-716a-90fb-178c2d60a7d7"",""projectId"":""0198beef-981a-7243-9790-051e10551090""}","https://test12345.live/?num_scrambled_semantic=8&num_scrambled_causal=4&num_scrambled_schematic=4&participantId=5C6D437C650449C99127F6632DB717CF&assignmentId=0198bef0-8eae-716a-90fb-178c2d60a7d7&projectId=0198beef-981a-7243-9790-051e10551090","5C6D437C650449C99127F6632DB717CF-2025-08-18-21-04-28","","null","","images/causal_sequence/coin_causal/coin_causal_0.png","null","",""
"","","","","","html-audio-response","22","328212","0.0-20.0","5C6D437C650449C99127F6632DB717CF","5C6D437C650449C99127F6632DB717CF","0198bef0-8eae-716a-90fb-178c2d60a7d7","0198beef-981a-7243-9790-051e10551090","{""num_scrambled_semantic"":""8"",""num_scrambled_causal"":""4"",""num_scrambled_schematic"":""4"",""participantId"":""5C6D437C650449C99127F6632DB717CF"",""assignmentId"":""0198bef0-8eae-716a-90fb-178c2d60a7d7"",""projectId"":""0198beef-981a-7243-9790-051e10551090""}","https://test12345.live/?num_scrambled_semantic=8&num_scrambled_causal=4&num_scrambled_schematic=4&participantId=5C6D437C650449C99127F6632DB717CF&assignmentId=0198bef0-8eae-716a-90fb-178c2d60a7d7&projectId=0198beef-981a-7243-9790-051e10551090","5C6D437C650449C99127F6632DB717CF-2025-08-18-21-04-28","","27715","","[""<span style=\""color: red; font-size: 24px\""> NOW RECORDING</span><p>Please say out loud all the images you saw in part 1 of the experiment, as many as you can remember. The images can be said in any order.</p>""]","","3","coin_causal"
"","","","","","image-button-response","23","334234","0.0-21.0-0.0","5C6D437C650449C99127F6632DB717CF","5C6D437C650449C99127F6632DB717CF","0198bef0-8eae-716a-90fb-178c2d60a7d7","0198beef-981a-7243-9790-051e10551090","{""num_scrambled_semantic"":""8"",""num_scrambled_causal"":""4"",""num_scrambled_schematic"":""4"",""participantId"":""5C6D437C650449C99127F6632DB717CF"",""assignmentId"":""0198bef0-8eae-716a-90fb-178c2d60a7d7"",""projectId"":""0198beef-981a-7243-9790-051e10551090""}","https://test12345.live/?num_scrambled_semantic=8&num_scrambled_causal=4&num_scrambled_schematic=4&participantId=5C6D437C650449C99127F6632DB717CF&assignmentId=0198bef0-8eae-716a-90fb-178c2d60a7d7&projectId=0198beef-981a-7243-9790-051e10551090","5C6D437C650449C99127F6632DB717CF-2025-08-18-21-04-28","","null","","images/semantic_sequence/physical_activity_semantic/physical_activity_semantic_0.png","null","",""
"","","","","","html-audio-response","24","352643","0.0-22.0","5C6D437C650449C99127F6632DB717CF","5C6D437C650449C99127F6632DB717CF","0198bef0-8eae-716a-90fb-178c2d60a7d7","0198beef-981a-7243-9790-051e10551090","{""num_scrambled_semantic"":""8"",""num_scrambled_causal"":""4"",""num_scrambled_schematic"":""4"",""participantId"":""5C6D437C650449C99127F6632DB717CF"",""assignmentId"":""0198bef0-8eae-716a-90fb-178c2d60a7d7"",""projectId"":""0198beef-981a-7243-9790-051e10551090""}","https://test12345.live/?num_scrambled_semantic=8&num_scrambled_causal=4&num_scrambled_schematic=4&participantId=5C6D437C650449C99127F6632DB717CF&assignmentId=0198bef0-8eae-716a-90fb-178c2d60a7d7&projectId=0198beef-981a-7243-9790-051e10551090","5C6D437C650449C99127F6632DB717CF-2025-08-18-21-04-28","","13933","","[""<span style=\""color: red; font-size: 24px\""> NOW RECORDING</span><p>Please say out loud all the images you saw in part 1 of the experiment, as many as you can remember. The images can be said in any order.</p>""]","","3","physical_activity_semantic"
"","","","","","image-button-response","25","358649","0.0-23.0-0.0","5C6D437C650449C99127F6632DB717CF","5C6D437C650449C99127F6632DB717CF","0198bef0-8eae-716a-90fb-178c2d60a7d7","0198beef-981a-7243-9790-051e10551090","{""num_scrambled_semantic"":""8"",""num_scrambled_causal"":""4"",""num_scrambled_schematic"":""4"",""participantId"":""5C6D437C650449C99127F6632DB717CF"",""assignmentId"":""0198bef0-8eae-716a-90fb-178c2d60a7d7"",""projectId"":""0198beef-981a-7243-9790-051e10551090""}","https://test12345.live/?num_scrambled_semantic=8&num_scrambled_causal=4&num_scrambled_schematic=4&participantId=5C6D437C650449C99127F6632DB717CF&assignmentId=0198bef0-8eae-716a-90fb-178c2d60a7d7&projectId=0198beef-981a-7243-9790-051e10551090","5C6D437C650449C99127F6632DB717CF-2025-08-18-21-04-28","","null","","images/semantic_sequence/cat_care_semantic/cat_care_semantic_0.png","null","",""
"","","","","","html-audio-response","26","378545","0.0-24.0","5C6D437C650449C99127F6632DB717CF","5C6D437C650449C99127F6632DB717CF","0198bef0-8eae-716a-90fb-178c2d60a7d7","0198beef-981a-7243-9790-051e10551090","{""num_scrambled_semantic"":""8"",""num_scrambled_causal"":""4"",""num_scrambled_schematic"":""4"",""participantId"":""5C6D437C650449C99127F6632DB717CF"",""assignmentId"":""0198bef0-8eae-716a-90fb-178c2d60a7d7"",""projectId"":""0198beef-981a-7243-9790-051e10551090""}","https://test12345.live/?num_scrambled_semantic=8&num_scrambled_causal=4&num_scrambled_schematic=4&participantId=5C6D437C650449C99127F6632DB717CF&assignmentId=0198bef0-8eae-716a-90fb-178c2d60a7d7&projectId=0198beef-981a-7243-9790-051e10551090","5C6D437C650449C99127F6632DB717CF-2025-08-18-21-04-28","","16214","","[""<span style=\""color: red; font-size: 24px\""> NOW RECORDING</span><p>Please say out loud all the images you saw in part 1 of the experiment, as many as you can remember. The images can be said in any order.</p>""]","","2","cat_care_semantic"
"","","","","","image-button-response","27","384565","0.0-25.0-0.0","5C6D437C650449C99127F6632DB717CF","5C6D437C650449C99127F6632DB717CF","0198bef0-8eae-716a-90fb-178c2d60a7d7","0198beef-981a-7243-9790-051e10551090","{""num_scrambled_semantic"":""8"",""num_scrambled_causal"":""4"",""num_scrambled_schematic"":""4"",""participantId"":""5C6D437C650449C99127F6632DB717CF"",""assignmentId"":""0198bef0-8eae-716a-90fb-178c2d60a7d7"",""projectId"":""0198beef-981a-7243-9790-051e10551090""}","https://test12345.live/?num_scrambled_semantic=8&num_scrambled_causal=4&num_scrambled_schematic=4&participantId=5C6D437C650449C99127F6632DB717CF&assignmentId=0198bef0-8eae-716a-90fb-178c2d60a7d7&projectId=0198beef-981a-7243-9790-051e10551090","5C6D437C650449C99127F6632DB717CF-2025-08-18-21-04-28","","null","","images/causal_sequence/saving_a_cat_causal/saving_a_cat_causal_0.png","null","",""
"","","","","","html-audio-response","28","411948","0.0-26.0","5C6D437C650449C99127F6632DB717CF","5C6D437C650449C99127F6632DB717CF","0198bef0-8eae-716a-90fb-178c2d60a7d7","0198beef-981a-7243-9790-051e10551090","{""num_scrambled_semantic"":""8"",""num_scrambled_causal"":""4"",""num_scrambled_schematic"":""4"",""participantId"":""5C6D437C650449C99127F6632DB717CF"",""assignmentId"":""0198bef0-8eae-716a-90fb-178c2d60a7d7"",""projectId"":""0198beef-981a-7243-9790-051e10551090""}","https://test12345.live/?num_scrambled_semantic=8&num_scrambled_causal=4&num_scrambled_schematic=4&participantId=5C6D437C650449C99127F6632DB717CF&assignmentId=0198bef0-8eae-716a-90fb-178c2d60a7d7&projectId=0198beef-981a-7243-9790-051e10551090","5C6D437C650449C99127F6632DB717CF-2025-08-18-21-04-28","","19882","","[""<span style=\""color: red; font-size: 24px\""> NOW RECORDING</span><p>Please say out loud all the images you saw in part 1 of the experiment, as many as you can remember. The images can be said in any order.</p>""]","","1","saving_a_cat_causal"
"","","","","","image-button-response","29","417966","0.0-27.0-0.0","5C6D437C650449C99127F6632DB717CF","5C6D437C650449C99127F6632DB717CF","0198bef0-8eae-716a-90fb-178c2d60a7d7","0198beef-981a-7243-9790-051e10551090","{""num_scrambled_semantic"":""8"",""num_scrambled_causal"":""4"",""num_scrambled_schematic"":""4"",""participantId"":""5C6D437C650449C99127F6632DB717CF"",""assignmentId"":""0198bef0-8eae-716a-90fb-178c2d60a7d7"",""projectId"":""0198beef-981a-7243-9790-051e10551090""}","https://test12345.live/?num_scrambled_semantic=8&num_scrambled_causal=4&num_scrambled_schematic=4&participantId=5C6D437C650449C99127F6632DB717CF&assignmentId=0198bef0-8eae-716a-90fb-178c2d60a7d7&projectId=0198beef-981a-7243-9790-051e10551090","5C6D437C650449C99127F6632DB717CF-2025-08-18-21-04-28","","null","","images/semantic_sequence/redecorating_semantic/redecorating_semantic_0.png","null","",""
"","","","","","html-audio-response","30","434409","0.0-28.0","5C6D437C650449C99127F6632DB717CF","5C6D437C650449C99127F6632DB717CF","0198bef0-8eae-716a-90fb-178c2d60a7d7","0198beef-981a-7243-9790-051e10551090","{""num_scrambled_semantic"":""8"",""num_scrambled_causal"":""4"",""num_scrambled_schematic"":""4"",""participantId"":""5C6D437C650449C99127F6632DB717CF"",""assignmentId"":""0198bef0-8eae-716a-90fb-178c2d60a7d7"",""projectId"":""0198beef-981a-7243-9790-051e10551090""}","https://test12345.live/?num_scrambled_semantic=8&num_scrambled_causal=4&num_scrambled_schematic=4&participantId=5C6D437C650449C99127F6632DB717CF&assignmentId=0198bef0-8eae-716a-90fb-178c2d60a7d7&projectId=0198beef-981a-7243-9790-051e10551090","5C6D437C650449C99127F6632DB717CF-2025-08-18-21-04-28","","15791","","[""<span style=\""color: red; font-size: 24px\""> NOW RECORDING</span><p>Please say out loud all the images you saw in part 1 of the experiment, as many as you can remember. The images can be said in any order.</p>""]","","3","redecorating_semantic"
"","","","","","image-button-response","31","440422","0.0-29.0-0.0","5C6D437C650449C99127F6632DB717CF","5C6D437C650449C99127F6632DB717CF","0198bef0-8eae-716a-90fb-178c2d60a7d7","0198beef-981a-7243-9790-051e10551090","{""num_scrambled_semantic"":""8"",""num_scrambled_causal"":""4"",""num_scrambled_schematic"":""4"",""participantId"":""5C6D437C650449C99127F6632DB717CF"",""assignmentId"":""0198bef0-8eae-716a-90fb-178c2d60a7d7"",""projectId"":""0198beef-981a-7243-9790-051e10551090""}","https://test12345.live/?num_scrambled_semantic=8&num_scrambled_causal=4&num_scrambled_schematic=4&participantId=5C6D437C650449C99127F6632DB717CF&assignmentId=0198bef0-8eae-716a-90fb-178c2d60a7d7&projectId=0198beef-981a-7243-9790-051e10551090","5C6D437C650449C99127F6632DB717CF-2025-08-18-21-04-28","","null","","images/causal_sequence/museum_causal/museum_causal_0.png","null","",""
"","","","","","html-audio-response","32","451497","0.0-30.0","5C6D437C650449C99127F6632DB717CF","5C6D437C650449C99127F6632DB717CF","0198bef0-8eae-716a-90fb-178c2d60a7d7","0198beef-981a-7243-9790-051e10551090","{""num_scrambled_semantic"":""8"",""num_scrambled_causal"":""4"",""num_scrambled_schematic"":""4"",""participantId"":""5C6D437C650449C99127F6632DB717CF"",""assignmentId"":""0198bef0-8eae-716a-90fb-178c2d60a7d7"",""projectId"":""0198beef-981a-7243-9790-051e10551090""}","https://test12345.live/?num_scrambled_semantic=8&num_scrambled_causal=4&num_scrambled_schematic=4&participantId=5C6D437C650449C99127F6632DB717CF&assignmentId=0198bef0-8eae-716a-90fb-178c2d60a7d7&projectId=0198beef-981a-7243-9790-051e10551090","5C6D437C650449C99127F6632DB717CF-2025-08-18-21-04-28","","9580","","[""<span style=\""color: red; font-size: 24px\""> NOW RECORDING</span><p>Please say out loud all the images you saw in part 1 of the experiment, as many as you can remember. The images can be said in any order.</p>""]","","1","museum_causal"
"","","","","","image-button-response","33","457508","0.0-31.0-0.0","5C6D437C650449C99127F6632DB717CF","5C6D437C650449C99127F6632DB717CF","0198bef0-8eae-716a-90fb-178c2d60a7d7","0198beef-981a-7243-9790-051e10551090","{""num_scrambled_semantic"":""8"",""num_scrambled_causal"":""4"",""num_scrambled_schematic"":""4"",""participantId"":""5C6D437C650449C99127F6632DB717CF"",""assignmentId"":""0198bef0-8eae-716a-90fb-178c2d60a7d7"",""projectId"":""0198beef-981a-7243-9790-051e10551090""}","https://test12345.live/?num_scrambled_semantic=8&num_scrambled_causal=4&num_scrambled_schematic=4&participantId=5C6D437C650449C99127F6632DB717CF&assignmentId=0198bef0-8eae-716a-90fb-178c2d60a7d7&projectId=0198beef-981a-7243-9790-051e10551090","5C6D437C650449C99127F6632DB717CF-2025-08-18-21-04-28","","null","","images/semantic_sequence/maintaining_a_car_semantic/maintaining_a_car_semantic_0.png","null","",""
"","","","","","html-audio-response","34","466810","0.0-32.0","5C6D437C650449C99127F6632DB717CF","5C6D437C650449C99127F6632DB717CF","0198bef0-8eae-716a-90fb-178c2d60a7d7","0198beef-981a-7243-9790-051e10551090","{""num_scrambled_semantic"":""8"",""num_scrambled_causal"":""4"",""num_scrambled_schematic"":""4"",""participantId"":""5C6D437C650449C99127F6632DB717CF"",""assignmentId"":""0198bef0-8eae-716a-90fb-178c2d60a7d7"",""projectId"":""0198beef-981a-7243-9790-051e10551090""}","https://test12345.live/?num_scrambled_semantic=8&num_scrambled_causal=4&num_scrambled_schematic=4&participantId=5C6D437C650449C99127F6632DB717CF&assignmentId=0198bef0-8eae-716a-90fb-178c2d60a7d7&projectId=0198beef-981a-7243-9790-051e10551090","5C6D437C650449C99127F6632DB717CF-2025-08-18-21-04-28","","8446","","[""<span style=\""color: red; font-size: 24px\""> NOW RECORDING</span><p>Please say out loud all the images you saw in part 1 of the experiment, as many as you can remember. The images can be said in any order.</p>""]","","2","maintaining_a_car_semantic"
"","","","","","image-button-response","35","472819","0.0-33.0-0.0","5C6D437C650449C99127F6632DB717CF","5C6D437C650449C99127F6632DB717CF","0198bef0-8eae-716a-90fb-178c2d60a7d7","0198beef-981a-7243-9790-051e10551090","{""num_scrambled_semantic"":""8"",""num_scrambled_causal"":""4"",""num_scrambled_schematic"":""4"",""participantId"":""5C6D437C650449C99127F6632DB717CF"",""assignmentId"":""0198bef0-8eae-716a-90fb-178c2d60a7d7"",""projectId"":""0198beef-981a-7243-9790-051e10551090""}","https://test12345.live/?num_scrambled_semantic=8&num_scrambled_causal=4&num_scrambled_schematic=4&participantId=5C6D437C650449C99127F6632DB717CF&assignmentId=0198bef0-8eae-716a-90fb-178c2d60a7d7&projectId=0198beef-981a-7243-9790-051e10551090","5C6D437C650449C99127F6632DB717CF-2025-08-18-21-04-28","","null","","images/semantic_sequence/using_technology_semantic/using_technology_semantic_0.png","null","",""
"","","","","","html-audio-response","36","486492","0.0-34.0","5C6D437C650449C99127F6632DB717CF","5C6D437C650449C99127F6632DB717CF","0198bef0-8eae-716a-90fb-178c2d60a7d7","0198beef-981a-7243-9790-051e10551090","{""num_scrambled_semantic"":""8"",""num_scrambled_causal"":""4"",""num_scrambled_schematic"":""4"",""participantId"":""5C6D437C650449C99127F6632DB717CF"",""assignmentId"":""0198bef0-8eae-716a-90fb-178c2d60a7d7"",""projectId"":""0198beef-981a-7243-9790-051e10551090""}","https://test12345.live/?num_scrambled_semantic=8&num_scrambled_causal=4&num_scrambled_schematic=4&participantId=5C6D437C650449C99127F6632DB717CF&assignmentId=0198bef0-8eae-716a-90fb-178c2d60a7d7&projectId=0198beef-981a-7243-9790-051e10551090","5C6D437C650449C99127F6632DB717CF-2025-08-18-21-04-28","","12825","","[""<span style=\""color: red; font-size: 24px\""> NOW RECORDING</span><p>Please say out loud all the images you saw in part 1 of the experiment, as many as you can remember. The images can be said in any order.</p>""]","","3","using_technology_semantic"
"","","","","","survey-text","37","491079","0.0-35.0","5C6D437C650449C99127F6632DB717CF","5C6D437C650449C99127F6632DB717CF","0198bef0-8eae-716a-90fb-178c2d60a7d7","0198beef-981a-7243-9790-051e10551090","{""num_scrambled_semantic"":""8"",""num_scrambled_causal"":""4"",""num_scrambled_schematic"":""4"",""participantId"":""5C6D437C650449C99127F6632DB717CF"",""assignmentId"":""0198bef0-8eae-716a-90fb-178c2d60a7d7"",""projectId"":""0198beef-981a-7243-9790-051e10551090""}","https://test12345.live/?num_scrambled_semantic=8&num_scrambled_causal=4&num_scrambled_schematic=4&participantId=5C6D437C650449C99127F6632DB717CF&assignmentId=0198bef0-8eae-716a-90fb-178c2d60a7d7&projectId=0198beef-981a-7243-9790-051e10551090","5C6D437C650449C99127F6632DB717CF-2025-08-18-21-04-28","","4578","","","{""Q0"":""MALE"",""Q1"":""24""}","",""
"","","","","","instructions","38","495804","0.0-36.0","5C6D437C650449C99127F6632DB717CF","5C6D437C650449C99127F6632DB717CF","0198bef0-8eae-716a-90fb-178c2d60a7d7","0198beef-981a-7243-9790-051e10551090","{""num_scrambled_semantic"":""8"",""num_scrambled_causal"":""4"",""num_scrambled_schematic"":""4"",""participantId"":""5C6D437C650449C99127F6632DB717CF"",""assignmentId"":""0198bef0-8eae-716a-90fb-178c2d60a7d7"",""projectId"":""0198beef-981a-7243-9790-051e10551090""}","https://test12345.live/?num_scrambled_semantic=8&num_scrambled_causal=4&num_scrambled_schematic=4&participantId=5C6D437C650449C99127F6632DB717CF&assignmentId=0198bef0-8eae-716a-90fb-178c2d60a7d7&projectId=0198beef-981a-7243-9790-051e10551090","5C6D437C650449C99127F6632DB717CF-2025-08-18-21-04-28","[{""page_index"":0,""viewing_time"":4724}]","4724","","","","",""
"","","","","","survey-text","39","497902","0.0-37.0","5C6D437C650449C99127F6632DB717CF","5C6D437C650449C99127F6632DB717CF","0198bef0-8eae-716a-90fb-178c2d60a7d7","0198beef-981a-7243-9790-051e10551090","{""num_scrambled_semantic"":""8"",""num_scrambled_causal"":""4"",""num_scrambled_schematic"":""4"",""participantId"":""5C6D437C650449C99127F6632DB717CF"",""assignmentId"":""0198bef0-8eae-716a-90fb-178c2d60a7d7"",""projectId"":""0198beef-981a-7243-9790-051e10551090""}","https://test12345.live/?num_scrambled_semantic=8&num_scrambled_causal=4&num_scrambled_schematic=4&participantId=5C6D437C650449C99127F6632DB717CF&assignmentId=0198bef0-8eae-716a-90fb-178c2d60a7d7&projectId=0198beef-981a-7243-9790-051e10551090","5C6D437C650449C99127F6632DB717CF-2025-08-18-21-04-28","","2097","","","{""Q0"":""AJFHBG896""}","",""
