"success","timeout","failed_images","failed_audio","failed_video","trial_type","trial_index","time_elapsed","internal_node_id","subject","subject_id","study_id","session_id","urlvar","current_url","audio_id","view_history","rt","device_id","stimulus","response","estimated_stimulus_onset","seq_name"
"true","false","[]","[]","[]","preload","0","12310","0.0-0.0","5E53A0E88D5347249534ED0470DEDDC8","5E53A0E88D5347249534ED0470DEDDC8","a1b94f1b-cb24-43a8-b37c-25c0c9c168d5","2dd913a0-fd4c-43f1-b4f3-f0d48537bce8","{""part"":""2"",""participantId"":""5E53A0E88D5347249534ED0470DEDDC8"",""assignmentId"":""a1b94f1b-cb24-43a8-b37c-25c0c9c168d5"",""projectId"":""2dd913a0-fd4c-43f1-b4f3-f0d48537bce8""}","https://test12345.live/?part=2&participantId=5E53A0E88D5347249534ED0470DEDDC8&assignmentId=a1b94f1b-cb24-43a8-b37c-25c0c9c168d5&projectId=2dd913a0-fd4c-43f1-b4f3-f0d48537bce8","5E53A0E88D5347249534ED0470DEDDC8-2025-05-16-02-08-53","","","","","","",""
"","","","","","instructions","1","56787","0.0-1.0","5E53A0E88D5347249534ED0470DEDDC8","5E53A0E88D5347249534ED0470DEDDC8","a1b94f1b-cb24-43a8-b37c-25c0c9c168d5","2dd913a0-fd4c-43f1-b4f3-f0d48537bce8","{""part"":""2"",""participantId"":""5E53A0E88D5347249534ED0470DEDDC8"",""assignmentId"":""a1b94f1b-cb24-43a8-b37c-25c0c9c168d5"",""projectId"":""2dd913a0-fd4c-43f1-b4f3-f0d48537bce8""}","https://test12345.live/?part=2&participantId=5E53A0E88D5347249534ED0470DEDDC8&assignmentId=a1b94f1b-cb24-43a8-b37c-25c0c9c168d5&projectId=2dd913a0-fd4c-43f1-b4f3-f0d48537bce8","5E53A0E88D5347249534ED0470DEDDC8-2025-05-16-02-08-53","[{""page_index"":0,""viewing_time"":44469}]","44469","","","","",""
"","","","","","instructions","2","85243","0.0-2.0","5E53A0E88D5347249534ED0470DEDDC8","5E53A0E88D5347249534ED0470DEDDC8","a1b94f1b-cb24-43a8-b37c-25c0c9c168d5","2dd913a0-fd4c-43f1-b4f3-f0d48537bce8","{""part"":""2"",""participantId"":""5E53A0E88D5347249534ED0470DEDDC8"",""assignmentId"":""a1b94f1b-cb24-43a8-b37c-25c0c9c168d5"",""projectId"":""2dd913a0-fd4c-43f1-b4f3-f0d48537bce8""}","https://test12345.live/?part=2&participantId=5E53A0E88D5347249534ED0470DEDDC8&assignmentId=a1b94f1b-cb24-43a8-b37c-25c0c9c168d5&projectId=2dd913a0-fd4c-43f1-b4f3-f0d48537bce8","5E53A0E88D5347249534ED0470DEDDC8-2025-05-16-02-08-53","[{""page_index"":0,""viewing_time"":28351}]","28351","","","","",""
"true","","","","","fullscreen","3","88845","0.0-3.0","5E53A0E88D5347249534ED0470DEDDC8","5E53A0E88D5347249534ED0470DEDDC8","a1b94f1b-cb24-43a8-b37c-25c0c9c168d5","2dd913a0-fd4c-43f1-b4f3-f0d48537bce8","{""part"":""2"",""participantId"":""5E53A0E88D5347249534ED0470DEDDC8"",""assignmentId"":""a1b94f1b-cb24-43a8-b37c-25c0c9c168d5"",""projectId"":""2dd913a0-fd4c-43f1-b4f3-f0d48537bce8""}","https://test12345.live/?part=2&participantId=5E53A0E88D5347249534ED0470DEDDC8&assignmentId=a1b94f1b-cb24-43a8-b37c-25c0c9c168d5&projectId=2dd913a0-fd4c-43f1-b4f3-f0d48537bce8","5E53A0E88D5347249534ED0470DEDDC8-2025-05-16-02-08-53","","1844","","","","",""
"","","","","","initialize-microphone","4","103517","0.0-4.0-0.0","5E53A0E88D5347249534ED0470DEDDC8","5E53A0E88D5347249534ED0470DEDDC8","a1b94f1b-cb24-43a8-b37c-25c0c9c168d5","2dd913a0-fd4c-43f1-b4f3-f0d48537bce8","{""part"":""2"",""participantId"":""5E53A0E88D5347249534ED0470DEDDC8"",""assignmentId"":""a1b94f1b-cb24-43a8-b37c-25c0c9c168d5"",""projectId"":""2dd913a0-fd4c-43f1-b4f3-f0d48537bce8""}","https://test12345.live/?part=2&participantId=5E53A0E88D5347249534ED0470DEDDC8&assignmentId=a1b94f1b-cb24-43a8-b37c-25c0c9c168d5&projectId=2dd913a0-fd4c-43f1-b4f3-f0d48537bce8","5E53A0E88D5347249534ED0470DEDDC8-2025-05-16-02-08-53","","","17786b9c1a3b617452b1a35305c43e583c04674974ff58ce7c17103cdd4c0c39","","","",""
"","","","","","html-audio-response","5","134948","0.0-4.0-1.0","5E53A0E88D5347249534ED0470DEDDC8","5E53A0E88D5347249534ED0470DEDDC8","a1b94f1b-cb24-43a8-b37c-25c0c9c168d5","2dd913a0-fd4c-43f1-b4f3-f0d48537bce8","{""part"":""2"",""participantId"":""5E53A0E88D5347249534ED0470DEDDC8"",""assignmentId"":""a1b94f1b-cb24-43a8-b37c-25c0c9c168d5"",""projectId"":""2dd913a0-fd4c-43f1-b4f3-f0d48537bce8""}","https://test12345.live/?part=2&participantId=5E53A0E88D5347249534ED0470DEDDC8&assignmentId=a1b94f1b-cb24-43a8-b37c-25c0c9c168d5&projectId=2dd913a0-fd4c-43f1-b4f3-f0d48537bce8","5E53A0E88D5347249534ED0470DEDDC8-2025-05-16-02-08-53","","6982","","<span style=""color: red; font-size: 24px""> NOW RECORDING</span>
        <p>Please test Microphone</p>","","86",""
"","","","","","html-button-response","6","137312","0.0-4.0-2.0","5E53A0E88D5347249534ED0470DEDDC8","5E53A0E88D5347249534ED0470DEDDC8","a1b94f1b-cb24-43a8-b37c-25c0c9c168d5","2dd913a0-fd4c-43f1-b4f3-f0d48537bce8","{""part"":""2"",""participantId"":""5E53A0E88D5347249534ED0470DEDDC8"",""assignmentId"":""a1b94f1b-cb24-43a8-b37c-25c0c9c168d5"",""projectId"":""2dd913a0-fd4c-43f1-b4f3-f0d48537bce8""}","https://test12345.live/?part=2&participantId=5E53A0E88D5347249534ED0470DEDDC8&assignmentId=a1b94f1b-cb24-43a8-b37c-25c0c9c168d5&projectId=2dd913a0-fd4c-43f1-b4f3-f0d48537bce8","5E53A0E88D5347249534ED0470DEDDC8-2025-05-16-02-08-53","","2360","","<p style=""font-size:48px; color:red;"">Is Microphone OK?</p>","1","",""
"","","","","","instructions","7","150569","0.0-5.0","5E53A0E88D5347249534ED0470DEDDC8","5E53A0E88D5347249534ED0470DEDDC8","a1b94f1b-cb24-43a8-b37c-25c0c9c168d5","2dd913a0-fd4c-43f1-b4f3-f0d48537bce8","{""part"":""2"",""participantId"":""5E53A0E88D5347249534ED0470DEDDC8"",""assignmentId"":""a1b94f1b-cb24-43a8-b37c-25c0c9c168d5"",""projectId"":""2dd913a0-fd4c-43f1-b4f3-f0d48537bce8""}","https://test12345.live/?part=2&participantId=5E53A0E88D5347249534ED0470DEDDC8&assignmentId=a1b94f1b-cb24-43a8-b37c-25c0c9c168d5&projectId=2dd913a0-fd4c-43f1-b4f3-f0d48537bce8","5E53A0E88D5347249534ED0470DEDDC8-2025-05-16-02-08-53","[{""page_index"":0,""viewing_time"":1353},{""page_index"":1,""viewing_time"":7558},{""page_index"":2,""viewing_time"":4343}]","13256","","","","",""
"","","","","","image-button-response","8","156577","0.0-6.0-0.0","5E53A0E88D5347249534ED0470DEDDC8","5E53A0E88D5347249534ED0470DEDDC8","a1b94f1b-cb24-43a8-b37c-25c0c9c168d5","2dd913a0-fd4c-43f1-b4f3-f0d48537bce8","{""part"":""2"",""participantId"":""5E53A0E88D5347249534ED0470DEDDC8"",""assignmentId"":""a1b94f1b-cb24-43a8-b37c-25c0c9c168d5"",""projectId"":""2dd913a0-fd4c-43f1-b4f3-f0d48537bce8""}","https://test12345.live/?part=2&participantId=5E53A0E88D5347249534ED0470DEDDC8&assignmentId=a1b94f1b-cb24-43a8-b37c-25c0c9c168d5&projectId=2dd913a0-fd4c-43f1-b4f3-f0d48537bce8","5E53A0E88D5347249534ED0470DEDDC8-2025-05-16-02-08-53","","null","","images/instructions/movie_0.png","null","",""
"","","","","","html-audio-response","9","191558","0.0-7.0","5E53A0E88D5347249534ED0470DEDDC8","5E53A0E88D5347249534ED0470DEDDC8","a1b94f1b-cb24-43a8-b37c-25c0c9c168d5","2dd913a0-fd4c-43f1-b4f3-f0d48537bce8","{""part"":""2"",""participantId"":""5E53A0E88D5347249534ED0470DEDDC8"",""assignmentId"":""a1b94f1b-cb24-43a8-b37c-25c0c9c168d5"",""projectId"":""2dd913a0-fd4c-43f1-b4f3-f0d48537bce8""}","https://test12345.live/?part=2&participantId=5E53A0E88D5347249534ED0470DEDDC8&assignmentId=a1b94f1b-cb24-43a8-b37c-25c0c9c168d5&projectId=2dd913a0-fd4c-43f1-b4f3-f0d48537bce8","5E53A0E88D5347249534ED0470DEDDC8-2025-05-16-02-08-53","","10124","","[""<span style=\""color: red; font-size: 24px\""> NOW RECORDING</span><p>Please say out loud all the images you saw in part 1 of the experiment, as many as you can remember. The images can be said in any order.</p>""]","","3",""
"","","","","","instructions","10","193246","0.0-8.0","5E53A0E88D5347249534ED0470DEDDC8","5E53A0E88D5347249534ED0470DEDDC8","a1b94f1b-cb24-43a8-b37c-25c0c9c168d5","2dd913a0-fd4c-43f1-b4f3-f0d48537bce8","{""part"":""2"",""participantId"":""5E53A0E88D5347249534ED0470DEDDC8"",""assignmentId"":""a1b94f1b-cb24-43a8-b37c-25c0c9c168d5"",""projectId"":""2dd913a0-fd4c-43f1-b4f3-f0d48537bce8""}","https://test12345.live/?part=2&participantId=5E53A0E88D5347249534ED0470DEDDC8&assignmentId=a1b94f1b-cb24-43a8-b37c-25c0c9c168d5&projectId=2dd913a0-fd4c-43f1-b4f3-f0d48537bce8","5E53A0E88D5347249534ED0470DEDDC8-2025-05-16-02-08-53","[{""page_index"":0,""viewing_time"":1674}]","1676","","","","",""
"","","","","","image-button-response","11","199260","0.0-9.0-0.0","5E53A0E88D5347249534ED0470DEDDC8","5E53A0E88D5347249534ED0470DEDDC8","a1b94f1b-cb24-43a8-b37c-25c0c9c168d5","2dd913a0-fd4c-43f1-b4f3-f0d48537bce8","{""part"":""2"",""participantId"":""5E53A0E88D5347249534ED0470DEDDC8"",""assignmentId"":""a1b94f1b-cb24-43a8-b37c-25c0c9c168d5"",""projectId"":""2dd913a0-fd4c-43f1-b4f3-f0d48537bce8""}","https://test12345.live/?part=2&participantId=5E53A0E88D5347249534ED0470DEDDC8&assignmentId=a1b94f1b-cb24-43a8-b37c-25c0c9c168d5&projectId=2dd913a0-fd4c-43f1-b4f3-f0d48537bce8","5E53A0E88D5347249534ED0470DEDDC8-2025-05-16-02-08-53","","null","","images/semantic_sequence/kitchen_operations_semantic/kitchen_operations_semantic_0.png","null","",""
"","","","","","html-audio-response","12","221940","0.0-10.0","5E53A0E88D5347249534ED0470DEDDC8","5E53A0E88D5347249534ED0470DEDDC8","a1b94f1b-cb24-43a8-b37c-25c0c9c168d5","2dd913a0-fd4c-43f1-b4f3-f0d48537bce8","{""part"":""2"",""participantId"":""5E53A0E88D5347249534ED0470DEDDC8"",""assignmentId"":""a1b94f1b-cb24-43a8-b37c-25c0c9c168d5"",""projectId"":""2dd913a0-fd4c-43f1-b4f3-f0d48537bce8""}","https://test12345.live/?part=2&participantId=5E53A0E88D5347249534ED0470DEDDC8&assignmentId=a1b94f1b-cb24-43a8-b37c-25c0c9c168d5&projectId=2dd913a0-fd4c-43f1-b4f3-f0d48537bce8","5E53A0E88D5347249534ED0470DEDDC8-2025-05-16-02-08-53","","8561","","[""<span style=\""color: red; font-size: 24px\""> NOW RECORDING</span><p>Please say out loud all the images you saw in part 1 of the experiment, as many as you can remember. The images can be said in any order.</p>""]","","2","kitchen_operations_semantic"
"","","","","","image-button-response","13","228350","0.0-11.0-0.0","5E53A0E88D5347249534ED0470DEDDC8","5E53A0E88D5347249534ED0470DEDDC8","a1b94f1b-cb24-43a8-b37c-25c0c9c168d5","2dd913a0-fd4c-43f1-b4f3-f0d48537bce8","{""part"":""2"",""participantId"":""5E53A0E88D5347249534ED0470DEDDC8"",""assignmentId"":""a1b94f1b-cb24-43a8-b37c-25c0c9c168d5"",""projectId"":""2dd913a0-fd4c-43f1-b4f3-f0d48537bce8""}","https://test12345.live/?part=2&participantId=5E53A0E88D5347249534ED0470DEDDC8&assignmentId=a1b94f1b-cb24-43a8-b37c-25c0c9c168d5&projectId=2dd913a0-fd4c-43f1-b4f3-f0d48537bce8","5E53A0E88D5347249534ED0470DEDDC8-2025-05-16-02-08-53","","null","","images/semantic_sequence/redecorating_semantic/redecorating_semantic_0.png","null","",""
"","","","","","html-audio-response","14","282921","0.0-12.0","5E53A0E88D5347249534ED0470DEDDC8","5E53A0E88D5347249534ED0470DEDDC8","a1b94f1b-cb24-43a8-b37c-25c0c9c168d5","2dd913a0-fd4c-43f1-b4f3-f0d48537bce8","{""part"":""2"",""participantId"":""5E53A0E88D5347249534ED0470DEDDC8"",""assignmentId"":""a1b94f1b-cb24-43a8-b37c-25c0c9c168d5"",""projectId"":""2dd913a0-fd4c-43f1-b4f3-f0d48537bce8""}","https://test12345.live/?part=2&participantId=5E53A0E88D5347249534ED0470DEDDC8&assignmentId=a1b94f1b-cb24-43a8-b37c-25c0c9c168d5&projectId=2dd913a0-fd4c-43f1-b4f3-f0d48537bce8","5E53A0E88D5347249534ED0470DEDDC8-2025-05-16-02-08-53","","8689","","[""<span style=\""color: red; font-size: 24px\""> NOW RECORDING</span><p>Please say out loud all the images you saw in part 1 of the experiment, as many as you can remember. The images can be said in any order.</p>""]","","2","redecorating_semantic"
"","","","","","image-button-response","15","289060","0.0-13.0-0.0","5E53A0E88D5347249534ED0470DEDDC8","5E53A0E88D5347249534ED0470DEDDC8","a1b94f1b-cb24-43a8-b37c-25c0c9c168d5","2dd913a0-fd4c-43f1-b4f3-f0d48537bce8","{""part"":""2"",""participantId"":""5E53A0E88D5347249534ED0470DEDDC8"",""assignmentId"":""a1b94f1b-cb24-43a8-b37c-25c0c9c168d5"",""projectId"":""2dd913a0-fd4c-43f1-b4f3-f0d48537bce8""}","https://test12345.live/?part=2&participantId=5E53A0E88D5347249534ED0470DEDDC8&assignmentId=a1b94f1b-cb24-43a8-b37c-25c0c9c168d5&projectId=2dd913a0-fd4c-43f1-b4f3-f0d48537bce8","5E53A0E88D5347249534ED0470DEDDC8-2025-05-16-02-08-53","","null","","images/schematic_sequence/dinner_party_scheme/dinner_party_scheme_0.png","null","",""
"","","","","","html-audio-response","16","341123","0.0-14.0","5E53A0E88D5347249534ED0470DEDDC8","5E53A0E88D5347249534ED0470DEDDC8","a1b94f1b-cb24-43a8-b37c-25c0c9c168d5","2dd913a0-fd4c-43f1-b4f3-f0d48537bce8","{""part"":""2"",""participantId"":""5E53A0E88D5347249534ED0470DEDDC8"",""assignmentId"":""a1b94f1b-cb24-43a8-b37c-25c0c9c168d5"",""projectId"":""2dd913a0-fd4c-43f1-b4f3-f0d48537bce8""}","https://test12345.live/?part=2&participantId=5E53A0E88D5347249534ED0470DEDDC8&assignmentId=a1b94f1b-cb24-43a8-b37c-25c0c9c168d5&projectId=2dd913a0-fd4c-43f1-b4f3-f0d48537bce8","5E53A0E88D5347249534ED0470DEDDC8-2025-05-16-02-08-53","","16259","","[""<span style=\""color: red; font-size: 24px\""> NOW RECORDING</span><p>Please say out loud all the images you saw in part 1 of the experiment, as many as you can remember. The images can be said in any order.</p>""]","","11","dinner_party_scheme"
"","","","","","image-button-response","17","347138","0.0-15.0-0.0","5E53A0E88D5347249534ED0470DEDDC8","5E53A0E88D5347249534ED0470DEDDC8","a1b94f1b-cb24-43a8-b37c-25c0c9c168d5","2dd913a0-fd4c-43f1-b4f3-f0d48537bce8","{""part"":""2"",""participantId"":""5E53A0E88D5347249534ED0470DEDDC8"",""assignmentId"":""a1b94f1b-cb24-43a8-b37c-25c0c9c168d5"",""projectId"":""2dd913a0-fd4c-43f1-b4f3-f0d48537bce8""}","https://test12345.live/?part=2&participantId=5E53A0E88D5347249534ED0470DEDDC8&assignmentId=a1b94f1b-cb24-43a8-b37c-25c0c9c168d5&projectId=2dd913a0-fd4c-43f1-b4f3-f0d48537bce8","5E53A0E88D5347249534ED0470DEDDC8-2025-05-16-02-08-53","","null","","images/semantic_sequence/physical_activity_semantic/physical_activity_semantic_0.png","null","",""
"","","","","","html-audio-response","18","356984","0.0-16.0","5E53A0E88D5347249534ED0470DEDDC8","5E53A0E88D5347249534ED0470DEDDC8","a1b94f1b-cb24-43a8-b37c-25c0c9c168d5","2dd913a0-fd4c-43f1-b4f3-f0d48537bce8","{""part"":""2"",""participantId"":""5E53A0E88D5347249534ED0470DEDDC8"",""assignmentId"":""a1b94f1b-cb24-43a8-b37c-25c0c9c168d5"",""projectId"":""2dd913a0-fd4c-43f1-b4f3-f0d48537bce8""}","https://test12345.live/?part=2&participantId=5E53A0E88D5347249534ED0470DEDDC8&assignmentId=a1b94f1b-cb24-43a8-b37c-25c0c9c168d5&projectId=2dd913a0-fd4c-43f1-b4f3-f0d48537bce8","5E53A0E88D5347249534ED0470DEDDC8-2025-05-16-02-08-53","","8613","","[""<span style=\""color: red; font-size: 24px\""> NOW RECORDING</span><p>Please say out loud all the images you saw in part 1 of the experiment, as many as you can remember. The images can be said in any order.</p>""]","","2","physical_activity_semantic"
"","","","","","image-button-response","19","362992","0.0-17.0-0.0","5E53A0E88D5347249534ED0470DEDDC8","5E53A0E88D5347249534ED0470DEDDC8","a1b94f1b-cb24-43a8-b37c-25c0c9c168d5","2dd913a0-fd4c-43f1-b4f3-f0d48537bce8","{""part"":""2"",""participantId"":""5E53A0E88D5347249534ED0470DEDDC8"",""assignmentId"":""a1b94f1b-cb24-43a8-b37c-25c0c9c168d5"",""projectId"":""2dd913a0-fd4c-43f1-b4f3-f0d48537bce8""}","https://test12345.live/?part=2&participantId=5E53A0E88D5347249534ED0470DEDDC8&assignmentId=a1b94f1b-cb24-43a8-b37c-25c0c9c168d5&projectId=2dd913a0-fd4c-43f1-b4f3-f0d48537bce8","5E53A0E88D5347249534ED0470DEDDC8-2025-05-16-02-08-53","","null","","images/causal_sequence/dog_causal/dog_causal_0.png","null","",""
"","","","","","html-audio-response","20","389130","0.0-18.0","5E53A0E88D5347249534ED0470DEDDC8","5E53A0E88D5347249534ED0470DEDDC8","a1b94f1b-cb24-43a8-b37c-25c0c9c168d5","2dd913a0-fd4c-43f1-b4f3-f0d48537bce8","{""part"":""2"",""participantId"":""5E53A0E88D5347249534ED0470DEDDC8"",""assignmentId"":""a1b94f1b-cb24-43a8-b37c-25c0c9c168d5"",""projectId"":""2dd913a0-fd4c-43f1-b4f3-f0d48537bce8""}","https://test12345.live/?part=2&participantId=5E53A0E88D5347249534ED0470DEDDC8&assignmentId=a1b94f1b-cb24-43a8-b37c-25c0c9c168d5&projectId=2dd913a0-fd4c-43f1-b4f3-f0d48537bce8","5E53A0E88D5347249534ED0470DEDDC8-2025-05-16-02-08-53","","25044","","[""<span style=\""color: red; font-size: 24px\""> NOW RECORDING</span><p>Please say out loud all the images you saw in part 1 of the experiment, as many as you can remember. The images can be said in any order.</p>""]","","2","dog_causal"
"","","","","","image-button-response","21","395153","0.0-19.0-0.0","5E53A0E88D5347249534ED0470DEDDC8","5E53A0E88D5347249534ED0470DEDDC8","a1b94f1b-cb24-43a8-b37c-25c0c9c168d5","2dd913a0-fd4c-43f1-b4f3-f0d48537bce8","{""part"":""2"",""participantId"":""5E53A0E88D5347249534ED0470DEDDC8"",""assignmentId"":""a1b94f1b-cb24-43a8-b37c-25c0c9c168d5"",""projectId"":""2dd913a0-fd4c-43f1-b4f3-f0d48537bce8""}","https://test12345.live/?part=2&participantId=5E53A0E88D5347249534ED0470DEDDC8&assignmentId=a1b94f1b-cb24-43a8-b37c-25c0c9c168d5&projectId=2dd913a0-fd4c-43f1-b4f3-f0d48537bce8","5E53A0E88D5347249534ED0470DEDDC8-2025-05-16-02-08-53","","null","","images/semantic_sequence/visiting_cities_semantic/visiting_cities_semantic_0.png","null","",""
"","","","","","html-audio-response","22","403897","0.0-20.0","5E53A0E88D5347249534ED0470DEDDC8","5E53A0E88D5347249534ED0470DEDDC8","a1b94f1b-cb24-43a8-b37c-25c0c9c168d5","2dd913a0-fd4c-43f1-b4f3-f0d48537bce8","{""part"":""2"",""participantId"":""5E53A0E88D5347249534ED0470DEDDC8"",""assignmentId"":""a1b94f1b-cb24-43a8-b37c-25c0c9c168d5"",""projectId"":""2dd913a0-fd4c-43f1-b4f3-f0d48537bce8""}","https://test12345.live/?part=2&participantId=5E53A0E88D5347249534ED0470DEDDC8&assignmentId=a1b94f1b-cb24-43a8-b37c-25c0c9c168d5&projectId=2dd913a0-fd4c-43f1-b4f3-f0d48537bce8","5E53A0E88D5347249534ED0470DEDDC8-2025-05-16-02-08-53","","7608","","[""<span style=\""color: red; font-size: 24px\""> NOW RECORDING</span><p>Please say out loud all the images you saw in part 1 of the experiment, as many as you can remember. The images can be said in any order.</p>""]","","2","visiting_cities_semantic"
"","","","","","image-button-response","23","409906","0.0-21.0-0.0","5E53A0E88D5347249534ED0470DEDDC8","5E53A0E88D5347249534ED0470DEDDC8","a1b94f1b-cb24-43a8-b37c-25c0c9c168d5","2dd913a0-fd4c-43f1-b4f3-f0d48537bce8","{""part"":""2"",""participantId"":""5E53A0E88D5347249534ED0470DEDDC8"",""assignmentId"":""a1b94f1b-cb24-43a8-b37c-25c0c9c168d5"",""projectId"":""2dd913a0-fd4c-43f1-b4f3-f0d48537bce8""}","https://test12345.live/?part=2&participantId=5E53A0E88D5347249534ED0470DEDDC8&assignmentId=a1b94f1b-cb24-43a8-b37c-25c0c9c168d5&projectId=2dd913a0-fd4c-43f1-b4f3-f0d48537bce8","5E53A0E88D5347249534ED0470DEDDC8-2025-05-16-02-08-53","","null","","images/semantic_sequence/housework_semantic/housework_semantic_0.png","null","",""
"","","","","","html-audio-response","24","418921","0.0-22.0","5E53A0E88D5347249534ED0470DEDDC8","5E53A0E88D5347249534ED0470DEDDC8","a1b94f1b-cb24-43a8-b37c-25c0c9c168d5","2dd913a0-fd4c-43f1-b4f3-f0d48537bce8","{""part"":""2"",""participantId"":""5E53A0E88D5347249534ED0470DEDDC8"",""assignmentId"":""a1b94f1b-cb24-43a8-b37c-25c0c9c168d5"",""projectId"":""2dd913a0-fd4c-43f1-b4f3-f0d48537bce8""}","https://test12345.live/?part=2&participantId=5E53A0E88D5347249534ED0470DEDDC8&assignmentId=a1b94f1b-cb24-43a8-b37c-25c0c9c168d5&projectId=2dd913a0-fd4c-43f1-b4f3-f0d48537bce8","5E53A0E88D5347249534ED0470DEDDC8-2025-05-16-02-08-53","","7343","","[""<span style=\""color: red; font-size: 24px\""> NOW RECORDING</span><p>Please say out loud all the images you saw in part 1 of the experiment, as many as you can remember. The images can be said in any order.</p>""]","","3","housework_semantic"
"","","","","","image-button-response","25","424942","0.0-23.0-0.0","5E53A0E88D5347249534ED0470DEDDC8","5E53A0E88D5347249534ED0470DEDDC8","a1b94f1b-cb24-43a8-b37c-25c0c9c168d5","2dd913a0-fd4c-43f1-b4f3-f0d48537bce8","{""part"":""2"",""participantId"":""5E53A0E88D5347249534ED0470DEDDC8"",""assignmentId"":""a1b94f1b-cb24-43a8-b37c-25c0c9c168d5"",""projectId"":""2dd913a0-fd4c-43f1-b4f3-f0d48537bce8""}","https://test12345.live/?part=2&participantId=5E53A0E88D5347249534ED0470DEDDC8&assignmentId=a1b94f1b-cb24-43a8-b37c-25c0c9c168d5&projectId=2dd913a0-fd4c-43f1-b4f3-f0d48537bce8","5E53A0E88D5347249534ED0470DEDDC8-2025-05-16-02-08-53","","null","","images/causal_sequence/saving_a_cat_causal/saving_a_cat_causal_0.png","null","",""
"","","","","","html-audio-response","26","437645","0.0-24.0","5E53A0E88D5347249534ED0470DEDDC8","5E53A0E88D5347249534ED0470DEDDC8","a1b94f1b-cb24-43a8-b37c-25c0c9c168d5","2dd913a0-fd4c-43f1-b4f3-f0d48537bce8","{""part"":""2"",""participantId"":""5E53A0E88D5347249534ED0470DEDDC8"",""assignmentId"":""a1b94f1b-cb24-43a8-b37c-25c0c9c168d5"",""projectId"":""2dd913a0-fd4c-43f1-b4f3-f0d48537bce8""}","https://test12345.live/?part=2&participantId=5E53A0E88D5347249534ED0470DEDDC8&assignmentId=a1b94f1b-cb24-43a8-b37c-25c0c9c168d5&projectId=2dd913a0-fd4c-43f1-b4f3-f0d48537bce8","5E53A0E88D5347249534ED0470DEDDC8-2025-05-16-02-08-53","","11556","","[""<span style=\""color: red; font-size: 24px\""> NOW RECORDING</span><p>Please say out loud all the images you saw in part 1 of the experiment, as many as you can remember. The images can be said in any order.</p>""]","","2","saving_a_cat_causal"
"","","","","","image-button-response","27","443664","0.0-25.0-0.0","5E53A0E88D5347249534ED0470DEDDC8","5E53A0E88D5347249534ED0470DEDDC8","a1b94f1b-cb24-43a8-b37c-25c0c9c168d5","2dd913a0-fd4c-43f1-b4f3-f0d48537bce8","{""part"":""2"",""participantId"":""5E53A0E88D5347249534ED0470DEDDC8"",""assignmentId"":""a1b94f1b-cb24-43a8-b37c-25c0c9c168d5"",""projectId"":""2dd913a0-fd4c-43f1-b4f3-f0d48537bce8""}","https://test12345.live/?part=2&participantId=5E53A0E88D5347249534ED0470DEDDC8&assignmentId=a1b94f1b-cb24-43a8-b37c-25c0c9c168d5&projectId=2dd913a0-fd4c-43f1-b4f3-f0d48537bce8","5E53A0E88D5347249534ED0470DEDDC8-2025-05-16-02-08-53","","null","","images/schematic_sequence/flight_scheme/flight_scheme_0.png","null","",""
"","","","","","html-audio-response","28","461522","0.0-26.0","5E53A0E88D5347249534ED0470DEDDC8","5E53A0E88D5347249534ED0470DEDDC8","a1b94f1b-cb24-43a8-b37c-25c0c9c168d5","2dd913a0-fd4c-43f1-b4f3-f0d48537bce8","{""part"":""2"",""participantId"":""5E53A0E88D5347249534ED0470DEDDC8"",""assignmentId"":""a1b94f1b-cb24-43a8-b37c-25c0c9c168d5"",""projectId"":""2dd913a0-fd4c-43f1-b4f3-f0d48537bce8""}","https://test12345.live/?part=2&participantId=5E53A0E88D5347249534ED0470DEDDC8&assignmentId=a1b94f1b-cb24-43a8-b37c-25c0c9c168d5&projectId=2dd913a0-fd4c-43f1-b4f3-f0d48537bce8","5E53A0E88D5347249534ED0470DEDDC8-2025-05-16-02-08-53","","16739","","[""<span style=\""color: red; font-size: 24px\""> NOW RECORDING</span><p>Please say out loud all the images you saw in part 1 of the experiment, as many as you can remember. The images can be said in any order.</p>""]","","2","flight_scheme"
"","","","","","image-button-response","29","467541","0.0-27.0-0.0","5E53A0E88D5347249534ED0470DEDDC8","5E53A0E88D5347249534ED0470DEDDC8","a1b94f1b-cb24-43a8-b37c-25c0c9c168d5","2dd913a0-fd4c-43f1-b4f3-f0d48537bce8","{""part"":""2"",""participantId"":""5E53A0E88D5347249534ED0470DEDDC8"",""assignmentId"":""a1b94f1b-cb24-43a8-b37c-25c0c9c168d5"",""projectId"":""2dd913a0-fd4c-43f1-b4f3-f0d48537bce8""}","https://test12345.live/?part=2&participantId=5E53A0E88D5347249534ED0470DEDDC8&assignmentId=a1b94f1b-cb24-43a8-b37c-25c0c9c168d5&projectId=2dd913a0-fd4c-43f1-b4f3-f0d48537bce8","5E53A0E88D5347249534ED0470DEDDC8-2025-05-16-02-08-53","","null","","images/schematic_sequence/supermarket_scheme/supermarket_scheme_0.png","null","",""
"","","","","","html-audio-response","30","484982","0.0-28.0","5E53A0E88D5347249534ED0470DEDDC8","5E53A0E88D5347249534ED0470DEDDC8","a1b94f1b-cb24-43a8-b37c-25c0c9c168d5","2dd913a0-fd4c-43f1-b4f3-f0d48537bce8","{""part"":""2"",""participantId"":""5E53A0E88D5347249534ED0470DEDDC8"",""assignmentId"":""a1b94f1b-cb24-43a8-b37c-25c0c9c168d5"",""projectId"":""2dd913a0-fd4c-43f1-b4f3-f0d48537bce8""}","https://test12345.live/?part=2&participantId=5E53A0E88D5347249534ED0470DEDDC8&assignmentId=a1b94f1b-cb24-43a8-b37c-25c0c9c168d5&projectId=2dd913a0-fd4c-43f1-b4f3-f0d48537bce8","5E53A0E88D5347249534ED0470DEDDC8-2025-05-16-02-08-53","","16457","","[""<span style=\""color: red; font-size: 24px\""> NOW RECORDING</span><p>Please say out loud all the images you saw in part 1 of the experiment, as many as you can remember. The images can be said in any order.</p>""]","","2","supermarket_scheme"
"","","","","","image-button-response","31","491010","0.0-29.0-0.0","5E53A0E88D5347249534ED0470DEDDC8","5E53A0E88D5347249534ED0470DEDDC8","a1b94f1b-cb24-43a8-b37c-25c0c9c168d5","2dd913a0-fd4c-43f1-b4f3-f0d48537bce8","{""part"":""2"",""participantId"":""5E53A0E88D5347249534ED0470DEDDC8"",""assignmentId"":""a1b94f1b-cb24-43a8-b37c-25c0c9c168d5"",""projectId"":""2dd913a0-fd4c-43f1-b4f3-f0d48537bce8""}","https://test12345.live/?part=2&participantId=5E53A0E88D5347249534ED0470DEDDC8&assignmentId=a1b94f1b-cb24-43a8-b37c-25c0c9c168d5&projectId=2dd913a0-fd4c-43f1-b4f3-f0d48537bce8","5E53A0E88D5347249534ED0470DEDDC8-2025-05-16-02-08-53","","null","","images/schematic_sequence/hotel_scheme/hotel_scheme_0.png","null","",""
"","","","","","html-audio-response","32","511253","0.0-30.0","5E53A0E88D5347249534ED0470DEDDC8","5E53A0E88D5347249534ED0470DEDDC8","a1b94f1b-cb24-43a8-b37c-25c0c9c168d5","2dd913a0-fd4c-43f1-b4f3-f0d48537bce8","{""part"":""2"",""participantId"":""5E53A0E88D5347249534ED0470DEDDC8"",""assignmentId"":""a1b94f1b-cb24-43a8-b37c-25c0c9c168d5"",""projectId"":""2dd913a0-fd4c-43f1-b4f3-f0d48537bce8""}","https://test12345.live/?part=2&participantId=5E53A0E88D5347249534ED0470DEDDC8&assignmentId=a1b94f1b-cb24-43a8-b37c-25c0c9c168d5&projectId=2dd913a0-fd4c-43f1-b4f3-f0d48537bce8","5E53A0E88D5347249534ED0470DEDDC8-2025-05-16-02-08-53","","19080","","[""<span style=\""color: red; font-size: 24px\""> NOW RECORDING</span><p>Please say out loud all the images you saw in part 1 of the experiment, as many as you can remember. The images can be said in any order.</p>""]","","13","hotel_scheme"
"","","","","","image-button-response","33","517284","0.0-31.0-0.0","5E53A0E88D5347249534ED0470DEDDC8","5E53A0E88D5347249534ED0470DEDDC8","a1b94f1b-cb24-43a8-b37c-25c0c9c168d5","2dd913a0-fd4c-43f1-b4f3-f0d48537bce8","{""part"":""2"",""participantId"":""5E53A0E88D5347249534ED0470DEDDC8"",""assignmentId"":""a1b94f1b-cb24-43a8-b37c-25c0c9c168d5"",""projectId"":""2dd913a0-fd4c-43f1-b4f3-f0d48537bce8""}","https://test12345.live/?part=2&participantId=5E53A0E88D5347249534ED0470DEDDC8&assignmentId=a1b94f1b-cb24-43a8-b37c-25c0c9c168d5&projectId=2dd913a0-fd4c-43f1-b4f3-f0d48537bce8","5E53A0E88D5347249534ED0470DEDDC8-2025-05-16-02-08-53","","null","","images/semantic_sequence/using_technology_semantic/using_technology_semantic_0.png","null","",""
"","","","","","html-audio-response","34","524496","0.0-32.0","5E53A0E88D5347249534ED0470DEDDC8","5E53A0E88D5347249534ED0470DEDDC8","a1b94f1b-cb24-43a8-b37c-25c0c9c168d5","2dd913a0-fd4c-43f1-b4f3-f0d48537bce8","{""part"":""2"",""participantId"":""5E53A0E88D5347249534ED0470DEDDC8"",""assignmentId"":""a1b94f1b-cb24-43a8-b37c-25c0c9c168d5"",""projectId"":""2dd913a0-fd4c-43f1-b4f3-f0d48537bce8""}","https://test12345.live/?part=2&participantId=5E53A0E88D5347249534ED0470DEDDC8&assignmentId=a1b94f1b-cb24-43a8-b37c-25c0c9c168d5&projectId=2dd913a0-fd4c-43f1-b4f3-f0d48537bce8","5E53A0E88D5347249534ED0470DEDDC8-2025-05-16-02-08-53","","5749","","[""<span style=\""color: red; font-size: 24px\""> NOW RECORDING</span><p>Please say out loud all the images you saw in part 1 of the experiment, as many as you can remember. The images can be said in any order.</p>""]","","2","using_technology_semantic"
"","","","","","image-button-response","35","530514","0.0-33.0-0.0","5E53A0E88D5347249534ED0470DEDDC8","5E53A0E88D5347249534ED0470DEDDC8","a1b94f1b-cb24-43a8-b37c-25c0c9c168d5","2dd913a0-fd4c-43f1-b4f3-f0d48537bce8","{""part"":""2"",""participantId"":""5E53A0E88D5347249534ED0470DEDDC8"",""assignmentId"":""a1b94f1b-cb24-43a8-b37c-25c0c9c168d5"",""projectId"":""2dd913a0-fd4c-43f1-b4f3-f0d48537bce8""}","https://test12345.live/?part=2&participantId=5E53A0E88D5347249534ED0470DEDDC8&assignmentId=a1b94f1b-cb24-43a8-b37c-25c0c9c168d5&projectId=2dd913a0-fd4c-43f1-b4f3-f0d48537bce8","5E53A0E88D5347249534ED0470DEDDC8-2025-05-16-02-08-53","","null","","images/semantic_sequence/exploring_nature_semantic/exploring_nature_semantic_0.png","null","",""
"","","","","","html-audio-response","36","538075","0.0-34.0","5E53A0E88D5347249534ED0470DEDDC8","5E53A0E88D5347249534ED0470DEDDC8","a1b94f1b-cb24-43a8-b37c-25c0c9c168d5","2dd913a0-fd4c-43f1-b4f3-f0d48537bce8","{""part"":""2"",""participantId"":""5E53A0E88D5347249534ED0470DEDDC8"",""assignmentId"":""a1b94f1b-cb24-43a8-b37c-25c0c9c168d5"",""projectId"":""2dd913a0-fd4c-43f1-b4f3-f0d48537bce8""}","https://test12345.live/?part=2&participantId=5E53A0E88D5347249534ED0470DEDDC8&assignmentId=a1b94f1b-cb24-43a8-b37c-25c0c9c168d5&projectId=2dd913a0-fd4c-43f1-b4f3-f0d48537bce8","5E53A0E88D5347249534ED0470DEDDC8-2025-05-16-02-08-53","","6466","","[""<span style=\""color: red; font-size: 24px\""> NOW RECORDING</span><p>Please say out loud all the images you saw in part 1 of the experiment, as many as you can remember. The images can be said in any order.</p>""]","","2","exploring_nature_semantic"
"","","","","","image-button-response","37","544108","0.0-35.0-0.0","5E53A0E88D5347249534ED0470DEDDC8","5E53A0E88D5347249534ED0470DEDDC8","a1b94f1b-cb24-43a8-b37c-25c0c9c168d5","2dd913a0-fd4c-43f1-b4f3-f0d48537bce8","{""part"":""2"",""participantId"":""5E53A0E88D5347249534ED0470DEDDC8"",""assignmentId"":""a1b94f1b-cb24-43a8-b37c-25c0c9c168d5"",""projectId"":""2dd913a0-fd4c-43f1-b4f3-f0d48537bce8""}","https://test12345.live/?part=2&participantId=5E53A0E88D5347249534ED0470DEDDC8&assignmentId=a1b94f1b-cb24-43a8-b37c-25c0c9c168d5&projectId=2dd913a0-fd4c-43f1-b4f3-f0d48537bce8","5E53A0E88D5347249534ED0470DEDDC8-2025-05-16-02-08-53","","null","","images/semantic_sequence/market_semantic/market_semantic_0.png","null","",""
"","","","","","html-audio-response","38","553503","0.0-36.0","5E53A0E88D5347249534ED0470DEDDC8","5E53A0E88D5347249534ED0470DEDDC8","a1b94f1b-cb24-43a8-b37c-25c0c9c168d5","2dd913a0-fd4c-43f1-b4f3-f0d48537bce8","{""part"":""2"",""participantId"":""5E53A0E88D5347249534ED0470DEDDC8"",""assignmentId"":""a1b94f1b-cb24-43a8-b37c-25c0c9c168d5"",""projectId"":""2dd913a0-fd4c-43f1-b4f3-f0d48537bce8""}","https://test12345.live/?part=2&participantId=5E53A0E88D5347249534ED0470DEDDC8&assignmentId=a1b94f1b-cb24-43a8-b37c-25c0c9c168d5&projectId=2dd913a0-fd4c-43f1-b4f3-f0d48537bce8","5E53A0E88D5347249534ED0470DEDDC8-2025-05-16-02-08-53","","8121","","[""<span style=\""color: red; font-size: 24px\""> NOW RECORDING</span><p>Please say out loud all the images you saw in part 1 of the experiment, as many as you can remember. The images can be said in any order.</p>""]","","20","market_semantic"
"","","","","","image-button-response","39","559521","0.0-37.0-0.0","5E53A0E88D5347249534ED0470DEDDC8","5E53A0E88D5347249534ED0470DEDDC8","a1b94f1b-cb24-43a8-b37c-25c0c9c168d5","2dd913a0-fd4c-43f1-b4f3-f0d48537bce8","{""part"":""2"",""participantId"":""5E53A0E88D5347249534ED0470DEDDC8"",""assignmentId"":""a1b94f1b-cb24-43a8-b37c-25c0c9c168d5"",""projectId"":""2dd913a0-fd4c-43f1-b4f3-f0d48537bce8""}","https://test12345.live/?part=2&participantId=5E53A0E88D5347249534ED0470DEDDC8&assignmentId=a1b94f1b-cb24-43a8-b37c-25c0c9c168d5&projectId=2dd913a0-fd4c-43f1-b4f3-f0d48537bce8","5E53A0E88D5347249534ED0470DEDDC8-2025-05-16-02-08-53","","null","","images/semantic_sequence/creative_activities_semantic/creative_activities_semantic_0.png","null","",""
"","","","","","html-audio-response","40","569481","0.0-38.0","5E53A0E88D5347249534ED0470DEDDC8","5E53A0E88D5347249534ED0470DEDDC8","a1b94f1b-cb24-43a8-b37c-25c0c9c168d5","2dd913a0-fd4c-43f1-b4f3-f0d48537bce8","{""part"":""2"",""participantId"":""5E53A0E88D5347249534ED0470DEDDC8"",""assignmentId"":""a1b94f1b-cb24-43a8-b37c-25c0c9c168d5"",""projectId"":""2dd913a0-fd4c-43f1-b4f3-f0d48537bce8""}","https://test12345.live/?part=2&participantId=5E53A0E88D5347249534ED0470DEDDC8&assignmentId=a1b94f1b-cb24-43a8-b37c-25c0c9c168d5&projectId=2dd913a0-fd4c-43f1-b4f3-f0d48537bce8","5E53A0E88D5347249534ED0470DEDDC8-2025-05-16-02-08-53","","7646","","[""<span style=\""color: red; font-size: 24px\""> NOW RECORDING</span><p>Please say out loud all the images you saw in part 1 of the experiment, as many as you can remember. The images can be said in any order.</p>""]","","2","creative_activities_semantic"
"","","","","","image-button-response","41","575501","0.0-39.0-0.0","5E53A0E88D5347249534ED0470DEDDC8","5E53A0E88D5347249534ED0470DEDDC8","a1b94f1b-cb24-43a8-b37c-25c0c9c168d5","2dd913a0-fd4c-43f1-b4f3-f0d48537bce8","{""part"":""2"",""participantId"":""5E53A0E88D5347249534ED0470DEDDC8"",""assignmentId"":""a1b94f1b-cb24-43a8-b37c-25c0c9c168d5"",""projectId"":""2dd913a0-fd4c-43f1-b4f3-f0d48537bce8""}","https://test12345.live/?part=2&participantId=5E53A0E88D5347249534ED0470DEDDC8&assignmentId=a1b94f1b-cb24-43a8-b37c-25c0c9c168d5&projectId=2dd913a0-fd4c-43f1-b4f3-f0d48537bce8","5E53A0E88D5347249534ED0470DEDDC8-2025-05-16-02-08-53","","null","","images/causal_sequence/the_performance_causal/the_performance_causal_0.png","null","",""
"","","","","","html-audio-response","42","593394","0.0-40.0","5E53A0E88D5347249534ED0470DEDDC8","5E53A0E88D5347249534ED0470DEDDC8","a1b94f1b-cb24-43a8-b37c-25c0c9c168d5","2dd913a0-fd4c-43f1-b4f3-f0d48537bce8","{""part"":""2"",""participantId"":""5E53A0E88D5347249534ED0470DEDDC8"",""assignmentId"":""a1b94f1b-cb24-43a8-b37c-25c0c9c168d5"",""projectId"":""2dd913a0-fd4c-43f1-b4f3-f0d48537bce8""}","https://test12345.live/?part=2&participantId=5E53A0E88D5347249534ED0470DEDDC8&assignmentId=a1b94f1b-cb24-43a8-b37c-25c0c9c168d5&projectId=2dd913a0-fd4c-43f1-b4f3-f0d48537bce8","5E53A0E88D5347249534ED0470DEDDC8-2025-05-16-02-08-53","","17072","","[""<span style=\""color: red; font-size: 24px\""> NOW RECORDING</span><p>Please say out loud all the images you saw in part 1 of the experiment, as many as you can remember. The images can be said in any order.</p>""]","","2","the_performance_causal"
"","","","","","image-button-response","43","599406","0.0-41.0-0.0","5E53A0E88D5347249534ED0470DEDDC8","5E53A0E88D5347249534ED0470DEDDC8","a1b94f1b-cb24-43a8-b37c-25c0c9c168d5","2dd913a0-fd4c-43f1-b4f3-f0d48537bce8","{""part"":""2"",""participantId"":""5E53A0E88D5347249534ED0470DEDDC8"",""assignmentId"":""a1b94f1b-cb24-43a8-b37c-25c0c9c168d5"",""projectId"":""2dd913a0-fd4c-43f1-b4f3-f0d48537bce8""}","https://test12345.live/?part=2&participantId=5E53A0E88D5347249534ED0470DEDDC8&assignmentId=a1b94f1b-cb24-43a8-b37c-25c0c9c168d5&projectId=2dd913a0-fd4c-43f1-b4f3-f0d48537bce8","5E53A0E88D5347249534ED0470DEDDC8-2025-05-16-02-08-53","","null","","images/schematic_sequence/interview_scheme/interview_scheme_0.png","null","",""
"","","","","","html-audio-response","44","617173","0.0-42.0","5E53A0E88D5347249534ED0470DEDDC8","5E53A0E88D5347249534ED0470DEDDC8","a1b94f1b-cb24-43a8-b37c-25c0c9c168d5","2dd913a0-fd4c-43f1-b4f3-f0d48537bce8","{""part"":""2"",""participantId"":""5E53A0E88D5347249534ED0470DEDDC8"",""assignmentId"":""a1b94f1b-cb24-43a8-b37c-25c0c9c168d5"",""projectId"":""2dd913a0-fd4c-43f1-b4f3-f0d48537bce8""}","https://test12345.live/?part=2&participantId=5E53A0E88D5347249534ED0470DEDDC8&assignmentId=a1b94f1b-cb24-43a8-b37c-25c0c9c168d5&projectId=2dd913a0-fd4c-43f1-b4f3-f0d48537bce8","5E53A0E88D5347249534ED0470DEDDC8-2025-05-16-02-08-53","","15486","","[""<span style=\""color: red; font-size: 24px\""> NOW RECORDING</span><p>Please say out loud all the images you saw in part 1 of the experiment, as many as you can remember. The images can be said in any order.</p>""]","","2","interview_scheme"
"","","","","","image-button-response","45","623202","0.0-43.0-0.0","5E53A0E88D5347249534ED0470DEDDC8","5E53A0E88D5347249534ED0470DEDDC8","a1b94f1b-cb24-43a8-b37c-25c0c9c168d5","2dd913a0-fd4c-43f1-b4f3-f0d48537bce8","{""part"":""2"",""participantId"":""5E53A0E88D5347249534ED0470DEDDC8"",""assignmentId"":""a1b94f1b-cb24-43a8-b37c-25c0c9c168d5"",""projectId"":""2dd913a0-fd4c-43f1-b4f3-f0d48537bce8""}","https://test12345.live/?part=2&participantId=5E53A0E88D5347249534ED0470DEDDC8&assignmentId=a1b94f1b-cb24-43a8-b37c-25c0c9c168d5&projectId=2dd913a0-fd4c-43f1-b4f3-f0d48537bce8","5E53A0E88D5347249534ED0470DEDDC8-2025-05-16-02-08-53","","null","","images/semantic_sequence/self_care_activities_semantic/self_care_activities_semantic_0.png","null","",""
"","","","","","html-audio-response","46","630526","0.0-44.0","5E53A0E88D5347249534ED0470DEDDC8","5E53A0E88D5347249534ED0470DEDDC8","a1b94f1b-cb24-43a8-b37c-25c0c9c168d5","2dd913a0-fd4c-43f1-b4f3-f0d48537bce8","{""part"":""2"",""participantId"":""5E53A0E88D5347249534ED0470DEDDC8"",""assignmentId"":""a1b94f1b-cb24-43a8-b37c-25c0c9c168d5"",""projectId"":""2dd913a0-fd4c-43f1-b4f3-f0d48537bce8""}","https://test12345.live/?part=2&participantId=5E53A0E88D5347249534ED0470DEDDC8&assignmentId=a1b94f1b-cb24-43a8-b37c-25c0c9c168d5&projectId=2dd913a0-fd4c-43f1-b4f3-f0d48537bce8","5E53A0E88D5347249534ED0470DEDDC8-2025-05-16-02-08-53","","5915","","[""<span style=\""color: red; font-size: 24px\""> NOW RECORDING</span><p>Please say out loud all the images you saw in part 1 of the experiment, as many as you can remember. The images can be said in any order.</p>""]","","2","self_care_activities_semantic"
"","","","","","image-button-response","47","636540","0.0-45.0-0.0","5E53A0E88D5347249534ED0470DEDDC8","5E53A0E88D5347249534ED0470DEDDC8","a1b94f1b-cb24-43a8-b37c-25c0c9c168d5","2dd913a0-fd4c-43f1-b4f3-f0d48537bce8","{""part"":""2"",""participantId"":""5E53A0E88D5347249534ED0470DEDDC8"",""assignmentId"":""a1b94f1b-cb24-43a8-b37c-25c0c9c168d5"",""projectId"":""2dd913a0-fd4c-43f1-b4f3-f0d48537bce8""}","https://test12345.live/?part=2&participantId=5E53A0E88D5347249534ED0470DEDDC8&assignmentId=a1b94f1b-cb24-43a8-b37c-25c0c9c168d5&projectId=2dd913a0-fd4c-43f1-b4f3-f0d48537bce8","5E53A0E88D5347249534ED0470DEDDC8-2025-05-16-02-08-53","","null","","images/causal_sequence/museum_causal/museum_causal_0.png","null","",""
"","","","","","html-audio-response","48","662810","0.0-46.0","5E53A0E88D5347249534ED0470DEDDC8","5E53A0E88D5347249534ED0470DEDDC8","a1b94f1b-cb24-43a8-b37c-25c0c9c168d5","2dd913a0-fd4c-43f1-b4f3-f0d48537bce8","{""part"":""2"",""participantId"":""5E53A0E88D5347249534ED0470DEDDC8"",""assignmentId"":""a1b94f1b-cb24-43a8-b37c-25c0c9c168d5"",""projectId"":""2dd913a0-fd4c-43f1-b4f3-f0d48537bce8""}","https://test12345.live/?part=2&participantId=5E53A0E88D5347249534ED0470DEDDC8&assignmentId=a1b94f1b-cb24-43a8-b37c-25c0c9c168d5&projectId=2dd913a0-fd4c-43f1-b4f3-f0d48537bce8","5E53A0E88D5347249534ED0470DEDDC8-2025-05-16-02-08-53","","22767","","[""<span style=\""color: red; font-size: 24px\""> NOW RECORDING</span><p>Please say out loud all the images you saw in part 1 of the experiment, as many as you can remember. The images can be said in any order.</p>""]","","2","museum_causal"
"","","","","","image-button-response","49","668827","0.0-47.0-0.0","5E53A0E88D5347249534ED0470DEDDC8","5E53A0E88D5347249534ED0470DEDDC8","a1b94f1b-cb24-43a8-b37c-25c0c9c168d5","2dd913a0-fd4c-43f1-b4f3-f0d48537bce8","{""part"":""2"",""participantId"":""5E53A0E88D5347249534ED0470DEDDC8"",""assignmentId"":""a1b94f1b-cb24-43a8-b37c-25c0c9c168d5"",""projectId"":""2dd913a0-fd4c-43f1-b4f3-f0d48537bce8""}","https://test12345.live/?part=2&participantId=5E53A0E88D5347249534ED0470DEDDC8&assignmentId=a1b94f1b-cb24-43a8-b37c-25c0c9c168d5&projectId=2dd913a0-fd4c-43f1-b4f3-f0d48537bce8","5E53A0E88D5347249534ED0470DEDDC8-2025-05-16-02-08-53","","null","","images/causal_sequence/coin_causal/coin_causal_0.png","null","",""
"","","","","","html-audio-response","50","690063","0.0-48.0","5E53A0E88D5347249534ED0470DEDDC8","5E53A0E88D5347249534ED0470DEDDC8","a1b94f1b-cb24-43a8-b37c-25c0c9c168d5","2dd913a0-fd4c-43f1-b4f3-f0d48537bce8","{""part"":""2"",""participantId"":""5E53A0E88D5347249534ED0470DEDDC8"",""assignmentId"":""a1b94f1b-cb24-43a8-b37c-25c0c9c168d5"",""projectId"":""2dd913a0-fd4c-43f1-b4f3-f0d48537bce8""}","https://test12345.live/?part=2&participantId=5E53A0E88D5347249534ED0470DEDDC8&assignmentId=a1b94f1b-cb24-43a8-b37c-25c0c9c168d5&projectId=2dd913a0-fd4c-43f1-b4f3-f0d48537bce8","5E53A0E88D5347249534ED0470DEDDC8-2025-05-16-02-08-53","","20227","","[""<span style=\""color: red; font-size: 24px\""> NOW RECORDING</span><p>Please say out loud all the images you saw in part 1 of the experiment, as many as you can remember. The images can be said in any order.</p>""]","","2","coin_causal"
"","","","","","image-button-response","51","696083","0.0-49.0-0.0","5E53A0E88D5347249534ED0470DEDDC8","5E53A0E88D5347249534ED0470DEDDC8","a1b94f1b-cb24-43a8-b37c-25c0c9c168d5","2dd913a0-fd4c-43f1-b4f3-f0d48537bce8","{""part"":""2"",""participantId"":""5E53A0E88D5347249534ED0470DEDDC8"",""assignmentId"":""a1b94f1b-cb24-43a8-b37c-25c0c9c168d5"",""projectId"":""2dd913a0-fd4c-43f1-b4f3-f0d48537bce8""}","https://test12345.live/?part=2&participantId=5E53A0E88D5347249534ED0470DEDDC8&assignmentId=a1b94f1b-cb24-43a8-b37c-25c0c9c168d5&projectId=2dd913a0-fd4c-43f1-b4f3-f0d48537bce8","5E53A0E88D5347249534ED0470DEDDC8-2025-05-16-02-08-53","","null","","images/semantic_sequence/maintaining_a_car_semantic/maintaining_a_car_semantic_0.png","null","",""
"","","","","","html-audio-response","52","707550","0.0-50.0","5E53A0E88D5347249534ED0470DEDDC8","5E53A0E88D5347249534ED0470DEDDC8","a1b94f1b-cb24-43a8-b37c-25c0c9c168d5","2dd913a0-fd4c-43f1-b4f3-f0d48537bce8","{""part"":""2"",""participantId"":""5E53A0E88D5347249534ED0470DEDDC8"",""assignmentId"":""a1b94f1b-cb24-43a8-b37c-25c0c9c168d5"",""projectId"":""2dd913a0-fd4c-43f1-b4f3-f0d48537bce8""}","https://test12345.live/?part=2&participantId=5E53A0E88D5347249534ED0470DEDDC8&assignmentId=a1b94f1b-cb24-43a8-b37c-25c0c9c168d5&projectId=2dd913a0-fd4c-43f1-b4f3-f0d48537bce8","5E53A0E88D5347249534ED0470DEDDC8-2025-05-16-02-08-53","","10434","","[""<span style=\""color: red; font-size: 24px\""> NOW RECORDING</span><p>Please say out loud all the images you saw in part 1 of the experiment, as many as you can remember. The images can be said in any order.</p>""]","","2","maintaining_a_car_semantic"
"","","","","","image-button-response","53","713572","0.0-51.0-0.0","5E53A0E88D5347249534ED0470DEDDC8","5E53A0E88D5347249534ED0470DEDDC8","a1b94f1b-cb24-43a8-b37c-25c0c9c168d5","2dd913a0-fd4c-43f1-b4f3-f0d48537bce8","{""part"":""2"",""participantId"":""5E53A0E88D5347249534ED0470DEDDC8"",""assignmentId"":""a1b94f1b-cb24-43a8-b37c-25c0c9c168d5"",""projectId"":""2dd913a0-fd4c-43f1-b4f3-f0d48537bce8""}","https://test12345.live/?part=2&participantId=5E53A0E88D5347249534ED0470DEDDC8&assignmentId=a1b94f1b-cb24-43a8-b37c-25c0c9c168d5&projectId=2dd913a0-fd4c-43f1-b4f3-f0d48537bce8","5E53A0E88D5347249534ED0470DEDDC8-2025-05-16-02-08-53","","null","","images/semantic_sequence/cat_care_semantic/cat_care_semantic_0.png","null","",""
"","","","","","html-audio-response","54","721713","0.0-52.0","5E53A0E88D5347249534ED0470DEDDC8","5E53A0E88D5347249534ED0470DEDDC8","a1b94f1b-cb24-43a8-b37c-25c0c9c168d5","2dd913a0-fd4c-43f1-b4f3-f0d48537bce8","{""part"":""2"",""participantId"":""5E53A0E88D5347249534ED0470DEDDC8"",""assignmentId"":""a1b94f1b-cb24-43a8-b37c-25c0c9c168d5"",""projectId"":""2dd913a0-fd4c-43f1-b4f3-f0d48537bce8""}","https://test12345.live/?part=2&participantId=5E53A0E88D5347249534ED0470DEDDC8&assignmentId=a1b94f1b-cb24-43a8-b37c-25c0c9c168d5&projectId=2dd913a0-fd4c-43f1-b4f3-f0d48537bce8","5E53A0E88D5347249534ED0470DEDDC8-2025-05-16-02-08-53","","7153","","[""<span style=\""color: red; font-size: 24px\""> NOW RECORDING</span><p>Please say out loud all the images you saw in part 1 of the experiment, as many as you can remember. The images can be said in any order.</p>""]","","2","cat_care_semantic"
"","","","","","image-button-response","55","727725","0.0-53.0-0.0","5E53A0E88D5347249534ED0470DEDDC8","5E53A0E88D5347249534ED0470DEDDC8","a1b94f1b-cb24-43a8-b37c-25c0c9c168d5","2dd913a0-fd4c-43f1-b4f3-f0d48537bce8","{""part"":""2"",""participantId"":""5E53A0E88D5347249534ED0470DEDDC8"",""assignmentId"":""a1b94f1b-cb24-43a8-b37c-25c0c9c168d5"",""projectId"":""2dd913a0-fd4c-43f1-b4f3-f0d48537bce8""}","https://test12345.live/?part=2&participantId=5E53A0E88D5347249534ED0470DEDDC8&assignmentId=a1b94f1b-cb24-43a8-b37c-25c0c9c168d5&projectId=2dd913a0-fd4c-43f1-b4f3-f0d48537bce8","5E53A0E88D5347249534ED0470DEDDC8-2025-05-16-02-08-53","","null","","images/causal_sequence/package_causal/package_causal_0.png","null","",""
"","","","","","html-audio-response","56","740364","0.0-54.0","5E53A0E88D5347249534ED0470DEDDC8","5E53A0E88D5347249534ED0470DEDDC8","a1b94f1b-cb24-43a8-b37c-25c0c9c168d5","2dd913a0-fd4c-43f1-b4f3-f0d48537bce8","{""part"":""2"",""participantId"":""5E53A0E88D5347249534ED0470DEDDC8"",""assignmentId"":""a1b94f1b-cb24-43a8-b37c-25c0c9c168d5"",""projectId"":""2dd913a0-fd4c-43f1-b4f3-f0d48537bce8""}","https://test12345.live/?part=2&participantId=5E53A0E88D5347249534ED0470DEDDC8&assignmentId=a1b94f1b-cb24-43a8-b37c-25c0c9c168d5&projectId=2dd913a0-fd4c-43f1-b4f3-f0d48537bce8","5E53A0E88D5347249534ED0470DEDDC8-2025-05-16-02-08-53","","11573","","[""<span style=\""color: red; font-size: 24px\""> NOW RECORDING</span><p>Please say out loud all the images you saw in part 1 of the experiment, as many as you can remember. The images can be said in any order.</p>""]","","2","package_causal"
"","","","","","image-button-response","57","746392","0.0-55.0-0.0","5E53A0E88D5347249534ED0470DEDDC8","5E53A0E88D5347249534ED0470DEDDC8","a1b94f1b-cb24-43a8-b37c-25c0c9c168d5","2dd913a0-fd4c-43f1-b4f3-f0d48537bce8","{""part"":""2"",""participantId"":""5E53A0E88D5347249534ED0470DEDDC8"",""assignmentId"":""a1b94f1b-cb24-43a8-b37c-25c0c9c168d5"",""projectId"":""2dd913a0-fd4c-43f1-b4f3-f0d48537bce8""}","https://test12345.live/?part=2&participantId=5E53A0E88D5347249534ED0470DEDDC8&assignmentId=a1b94f1b-cb24-43a8-b37c-25c0c9c168d5&projectId=2dd913a0-fd4c-43f1-b4f3-f0d48537bce8","5E53A0E88D5347249534ED0470DEDDC8-2025-05-16-02-08-53","","null","","images/schematic_sequence/restaurant_scheme/restaurant_scheme_0.png","null","",""
"","","","","","html-audio-response","58","763156","0.0-56.0","5E53A0E88D5347249534ED0470DEDDC8","5E53A0E88D5347249534ED0470DEDDC8","a1b94f1b-cb24-43a8-b37c-25c0c9c168d5","2dd913a0-fd4c-43f1-b4f3-f0d48537bce8","{""part"":""2"",""participantId"":""5E53A0E88D5347249534ED0470DEDDC8"",""assignmentId"":""a1b94f1b-cb24-43a8-b37c-25c0c9c168d5"",""projectId"":""2dd913a0-fd4c-43f1-b4f3-f0d48537bce8""}","https://test12345.live/?part=2&participantId=5E53A0E88D5347249534ED0470DEDDC8&assignmentId=a1b94f1b-cb24-43a8-b37c-25c0c9c168d5&projectId=2dd913a0-fd4c-43f1-b4f3-f0d48537bce8","5E53A0E88D5347249534ED0470DEDDC8-2025-05-16-02-08-53","","15531","","[""<span style=\""color: red; font-size: 24px\""> NOW RECORDING</span><p>Please say out loud all the images you saw in part 1 of the experiment, as many as you can remember. The images can be said in any order.</p>""]","","2","restaurant_scheme"
"","","","","","survey-text","59","768519","0.0-57.0","5E53A0E88D5347249534ED0470DEDDC8","5E53A0E88D5347249534ED0470DEDDC8","a1b94f1b-cb24-43a8-b37c-25c0c9c168d5","2dd913a0-fd4c-43f1-b4f3-f0d48537bce8","{""part"":""2"",""participantId"":""5E53A0E88D5347249534ED0470DEDDC8"",""assignmentId"":""a1b94f1b-cb24-43a8-b37c-25c0c9c168d5"",""projectId"":""2dd913a0-fd4c-43f1-b4f3-f0d48537bce8""}","https://test12345.live/?part=2&participantId=5E53A0E88D5347249534ED0470DEDDC8&assignmentId=a1b94f1b-cb24-43a8-b37c-25c0c9c168d5&projectId=2dd913a0-fd4c-43f1-b4f3-f0d48537bce8","5E53A0E88D5347249534ED0470DEDDC8-2025-05-16-02-08-53","","5320","","","{""Q0"":""female"",""Q1"":""30""}","",""
"","","","","","instructions","60","774240","0.0-58.0","5E53A0E88D5347249534ED0470DEDDC8","5E53A0E88D5347249534ED0470DEDDC8","a1b94f1b-cb24-43a8-b37c-25c0c9c168d5","2dd913a0-fd4c-43f1-b4f3-f0d48537bce8","{""part"":""2"",""participantId"":""5E53A0E88D5347249534ED0470DEDDC8"",""assignmentId"":""a1b94f1b-cb24-43a8-b37c-25c0c9c168d5"",""projectId"":""2dd913a0-fd4c-43f1-b4f3-f0d48537bce8""}","https://test12345.live/?part=2&participantId=5E53A0E88D5347249534ED0470DEDDC8&assignmentId=a1b94f1b-cb24-43a8-b37c-25c0c9c168d5&projectId=2dd913a0-fd4c-43f1-b4f3-f0d48537bce8","5E53A0E88D5347249534ED0470DEDDC8-2025-05-16-02-08-53","[{""page_index"":0,""viewing_time"":5720}]","5721","","","","",""
"","","","","","survey-text","61","777180","0.0-59.0","5E53A0E88D5347249534ED0470DEDDC8","5E53A0E88D5347249534ED0470DEDDC8","a1b94f1b-cb24-43a8-b37c-25c0c9c168d5","2dd913a0-fd4c-43f1-b4f3-f0d48537bce8","{""part"":""2"",""participantId"":""5E53A0E88D5347249534ED0470DEDDC8"",""assignmentId"":""a1b94f1b-cb24-43a8-b37c-25c0c9c168d5"",""projectId"":""2dd913a0-fd4c-43f1-b4f3-f0d48537bce8""}","https://test12345.live/?part=2&participantId=5E53A0E88D5347249534ED0470DEDDC8&assignmentId=a1b94f1b-cb24-43a8-b37c-25c0c9c168d5&projectId=2dd913a0-fd4c-43f1-b4f3-f0d48537bce8","5E53A0E88D5347249534ED0470DEDDC8-2025-05-16-02-08-53","","2933","","","{""Q0"":""AJFHBG896""}","",""
