"success","timeout","failed_images","failed_audio","failed_video","trial_type","trial_index","time_elapsed","internal_node_id","subject","subject_id","study_id","session_id","urlvar","current_url","audio_id","view_history","rt","device_id","stimulus","response","estimated_stimulus_onset","seq_name"
"true","false","[]","[]","[]","preload","0","11587","0.0-0.0","626CC3D0137A4648BAFDDC3CD29B6885","626CC3D0137A4648BAFDDC3CD29B6885","0198bef5-1895-7bc7-bc22-0563dafcf5ab","0198beef-981a-7243-9790-051e10551090","{""num_scrambled_semantic"":""8"",""num_scrambled_causal"":""4"",""num_scrambled_schematic"":""4"",""participantId"":""626CC3D0137A4648BAFDDC3CD29B6885"",""assignmentId"":""0198bef5-1895-7bc7-bc22-0563dafcf5ab"",""projectId"":""0198beef-981a-7243-9790-051e10551090""}","https://test12345.live/?num_scrambled_semantic=8&num_scrambled_causal=4&num_scrambled_schematic=4&participantId=626CC3D0137A4648BAFDDC3CD29B6885&assignmentId=0198bef5-1895-7bc7-bc22-0563dafcf5ab&projectId=0198beef-981a-7243-9790-051e10551090","626CC3D0137A4648BAFDDC3CD29B6885-2025-08-18-21-03-42","","","","","","",""
"","","","","","instructions","1","30729","0.0-1.0","626CC3D0137A4648BAFDDC3CD29B6885","626CC3D0137A4648BAFDDC3CD29B6885","0198bef5-1895-7bc7-bc22-0563dafcf5ab","0198beef-981a-7243-9790-051e10551090","{""num_scrambled_semantic"":""8"",""num_scrambled_causal"":""4"",""num_scrambled_schematic"":""4"",""participantId"":""626CC3D0137A4648BAFDDC3CD29B6885"",""assignmentId"":""0198bef5-1895-7bc7-bc22-0563dafcf5ab"",""projectId"":""0198beef-981a-7243-9790-051e10551090""}","https://test12345.live/?num_scrambled_semantic=8&num_scrambled_causal=4&num_scrambled_schematic=4&participantId=626CC3D0137A4648BAFDDC3CD29B6885&assignmentId=0198bef5-1895-7bc7-bc22-0563dafcf5ab&projectId=0198beef-981a-7243-9790-051e10551090","626CC3D0137A4648BAFDDC3CD29B6885-2025-08-18-21-03-42","[{""page_index"":0,""viewing_time"":19141}]","19142","","","","",""
"","","","","","instructions","2","51994","0.0-2.0","626CC3D0137A4648BAFDDC3CD29B6885","626CC3D0137A4648BAFDDC3CD29B6885","0198bef5-1895-7bc7-bc22-0563dafcf5ab","0198beef-981a-7243-9790-051e10551090","{""num_scrambled_semantic"":""8"",""num_scrambled_causal"":""4"",""num_scrambled_schematic"":""4"",""participantId"":""626CC3D0137A4648BAFDDC3CD29B6885"",""assignmentId"":""0198bef5-1895-7bc7-bc22-0563dafcf5ab"",""projectId"":""0198beef-981a-7243-9790-051e10551090""}","https://test12345.live/?num_scrambled_semantic=8&num_scrambled_causal=4&num_scrambled_schematic=4&participantId=626CC3D0137A4648BAFDDC3CD29B6885&assignmentId=0198bef5-1895-7bc7-bc22-0563dafcf5ab&projectId=0198beef-981a-7243-9790-051e10551090","626CC3D0137A4648BAFDDC3CD29B6885-2025-08-18-21-03-42","[{""page_index"":0,""viewing_time"":21263}]","21264","","","","",""
"true","","","","","fullscreen","3","75278","0.0-3.0","626CC3D0137A4648BAFDDC3CD29B6885","626CC3D0137A4648BAFDDC3CD29B6885","0198bef5-1895-7bc7-bc22-0563dafcf5ab","0198beef-981a-7243-9790-051e10551090","{""num_scrambled_semantic"":""8"",""num_scrambled_causal"":""4"",""num_scrambled_schematic"":""4"",""participantId"":""626CC3D0137A4648BAFDDC3CD29B6885"",""assignmentId"":""0198bef5-1895-7bc7-bc22-0563dafcf5ab"",""projectId"":""0198beef-981a-7243-9790-051e10551090""}","https://test12345.live/?num_scrambled_semantic=8&num_scrambled_causal=4&num_scrambled_schematic=4&participantId=626CC3D0137A4648BAFDDC3CD29B6885&assignmentId=0198bef5-1895-7bc7-bc22-0563dafcf5ab&projectId=0198beef-981a-7243-9790-051e10551090","626CC3D0137A4648BAFDDC3CD29B6885-2025-08-18-21-03-42","","22279","","","","",""
"","","","","","initialize-microphone","4","83207","0.0-4.0-0.0","626CC3D0137A4648BAFDDC3CD29B6885","626CC3D0137A4648BAFDDC3CD29B6885","0198bef5-1895-7bc7-bc22-0563dafcf5ab","0198beef-981a-7243-9790-051e10551090","{""num_scrambled_semantic"":""8"",""num_scrambled_causal"":""4"",""num_scrambled_schematic"":""4"",""participantId"":""626CC3D0137A4648BAFDDC3CD29B6885"",""assignmentId"":""0198bef5-1895-7bc7-bc22-0563dafcf5ab"",""projectId"":""0198beef-981a-7243-9790-051e10551090""}","https://test12345.live/?num_scrambled_semantic=8&num_scrambled_causal=4&num_scrambled_schematic=4&participantId=626CC3D0137A4648BAFDDC3CD29B6885&assignmentId=0198bef5-1895-7bc7-bc22-0563dafcf5ab&projectId=0198beef-981a-7243-9790-051e10551090","626CC3D0137A4648BAFDDC3CD29B6885-2025-08-18-21-03-42","","","4192595810e8d6172034ff16fd16bbd2c1183c363df73f66e658d8dfb5ec9b38","","","",""
"","","","","","html-audio-response","5","100113","0.0-4.0-1.0","626CC3D0137A4648BAFDDC3CD29B6885","626CC3D0137A4648BAFDDC3CD29B6885","0198bef5-1895-7bc7-bc22-0563dafcf5ab","0198beef-981a-7243-9790-051e10551090","{""num_scrambled_semantic"":""8"",""num_scrambled_causal"":""4"",""num_scrambled_schematic"":""4"",""participantId"":""626CC3D0137A4648BAFDDC3CD29B6885"",""assignmentId"":""0198bef5-1895-7bc7-bc22-0563dafcf5ab"",""projectId"":""0198beef-981a-7243-9790-051e10551090""}","https://test12345.live/?num_scrambled_semantic=8&num_scrambled_causal=4&num_scrambled_schematic=4&participantId=626CC3D0137A4648BAFDDC3CD29B6885&assignmentId=0198bef5-1895-7bc7-bc22-0563dafcf5ab&projectId=0198beef-981a-7243-9790-051e10551090","626CC3D0137A4648BAFDDC3CD29B6885-2025-08-18-21-03-42","","4974","","<span style=""color: red; font-size: 24px""> NOW RECORDING</span>
        <p>Please test Microphone</p>","","8",""
"","","","","","html-button-response","6","102520","0.0-4.0-2.0","626CC3D0137A4648BAFDDC3CD29B6885","626CC3D0137A4648BAFDDC3CD29B6885","0198bef5-1895-7bc7-bc22-0563dafcf5ab","0198beef-981a-7243-9790-051e10551090","{""num_scrambled_semantic"":""8"",""num_scrambled_causal"":""4"",""num_scrambled_schematic"":""4"",""participantId"":""626CC3D0137A4648BAFDDC3CD29B6885"",""assignmentId"":""0198bef5-1895-7bc7-bc22-0563dafcf5ab"",""projectId"":""0198beef-981a-7243-9790-051e10551090""}","https://test12345.live/?num_scrambled_semantic=8&num_scrambled_causal=4&num_scrambled_schematic=4&participantId=626CC3D0137A4648BAFDDC3CD29B6885&assignmentId=0198bef5-1895-7bc7-bc22-0563dafcf5ab&projectId=0198beef-981a-7243-9790-051e10551090","626CC3D0137A4648BAFDDC3CD29B6885-2025-08-18-21-03-42","","2406","","<p style=""font-size:48px; color:red;"">Is Microphone OK?</p>","1","",""
"","","","","","instructions","7","126203","0.0-5.0","626CC3D0137A4648BAFDDC3CD29B6885","626CC3D0137A4648BAFDDC3CD29B6885","0198bef5-1895-7bc7-bc22-0563dafcf5ab","0198beef-981a-7243-9790-051e10551090","{""num_scrambled_semantic"":""8"",""num_scrambled_causal"":""4"",""num_scrambled_schematic"":""4"",""participantId"":""626CC3D0137A4648BAFDDC3CD29B6885"",""assignmentId"":""0198bef5-1895-7bc7-bc22-0563dafcf5ab"",""projectId"":""0198beef-981a-7243-9790-051e10551090""}","https://test12345.live/?num_scrambled_semantic=8&num_scrambled_causal=4&num_scrambled_schematic=4&participantId=626CC3D0137A4648BAFDDC3CD29B6885&assignmentId=0198bef5-1895-7bc7-bc22-0563dafcf5ab&projectId=0198beef-981a-7243-9790-051e10551090","626CC3D0137A4648BAFDDC3CD29B6885-2025-08-18-21-03-42","[{""page_index"":0,""viewing_time"":1953},{""page_index"":1,""viewing_time"":8052},{""page_index"":2,""viewing_time"":13677}]","23682","","","","",""
"","","","","","image-button-response","8","132232","0.0-6.0-0.0","626CC3D0137A4648BAFDDC3CD29B6885","626CC3D0137A4648BAFDDC3CD29B6885","0198bef5-1895-7bc7-bc22-0563dafcf5ab","0198beef-981a-7243-9790-051e10551090","{""num_scrambled_semantic"":""8"",""num_scrambled_causal"":""4"",""num_scrambled_schematic"":""4"",""participantId"":""626CC3D0137A4648BAFDDC3CD29B6885"",""assignmentId"":""0198bef5-1895-7bc7-bc22-0563dafcf5ab"",""projectId"":""0198beef-981a-7243-9790-051e10551090""}","https://test12345.live/?num_scrambled_semantic=8&num_scrambled_causal=4&num_scrambled_schematic=4&participantId=626CC3D0137A4648BAFDDC3CD29B6885&assignmentId=0198bef5-1895-7bc7-bc22-0563dafcf5ab&projectId=0198beef-981a-7243-9790-051e10551090","626CC3D0137A4648BAFDDC3CD29B6885-2025-08-18-21-03-42","","null","","images/instructions/movie_0.png","null","",""
"","","","","","html-audio-response","9","164869","0.0-7.0","626CC3D0137A4648BAFDDC3CD29B6885","626CC3D0137A4648BAFDDC3CD29B6885","0198bef5-1895-7bc7-bc22-0563dafcf5ab","0198beef-981a-7243-9790-051e10551090","{""num_scrambled_semantic"":""8"",""num_scrambled_causal"":""4"",""num_scrambled_schematic"":""4"",""participantId"":""626CC3D0137A4648BAFDDC3CD29B6885"",""assignmentId"":""0198bef5-1895-7bc7-bc22-0563dafcf5ab"",""projectId"":""0198beef-981a-7243-9790-051e10551090""}","https://test12345.live/?num_scrambled_semantic=8&num_scrambled_causal=4&num_scrambled_schematic=4&participantId=626CC3D0137A4648BAFDDC3CD29B6885&assignmentId=0198bef5-1895-7bc7-bc22-0563dafcf5ab&projectId=0198beef-981a-7243-9790-051e10551090","626CC3D0137A4648BAFDDC3CD29B6885-2025-08-18-21-03-42","","16387","","[""<span style=\""color: red; font-size: 24px\""> NOW RECORDING</span><p>Please say out loud all the images you saw in part 1 of the experiment, as many as you can remember. The images can be said in any order.</p>""]","","2",""
"","","","","","instructions","10","167112","0.0-8.0","626CC3D0137A4648BAFDDC3CD29B6885","626CC3D0137A4648BAFDDC3CD29B6885","0198bef5-1895-7bc7-bc22-0563dafcf5ab","0198beef-981a-7243-9790-051e10551090","{""num_scrambled_semantic"":""8"",""num_scrambled_causal"":""4"",""num_scrambled_schematic"":""4"",""participantId"":""626CC3D0137A4648BAFDDC3CD29B6885"",""assignmentId"":""0198bef5-1895-7bc7-bc22-0563dafcf5ab"",""projectId"":""0198beef-981a-7243-9790-051e10551090""}","https://test12345.live/?num_scrambled_semantic=8&num_scrambled_causal=4&num_scrambled_schematic=4&participantId=626CC3D0137A4648BAFDDC3CD29B6885&assignmentId=0198bef5-1895-7bc7-bc22-0563dafcf5ab&projectId=0198beef-981a-7243-9790-051e10551090","626CC3D0137A4648BAFDDC3CD29B6885-2025-08-18-21-03-42","[{""page_index"":0,""viewing_time"":2236}]","2236","","","","",""
"","","","","","image-button-response","11","173130","0.0-9.0-0.0","626CC3D0137A4648BAFDDC3CD29B6885","626CC3D0137A4648BAFDDC3CD29B6885","0198bef5-1895-7bc7-bc22-0563dafcf5ab","0198beef-981a-7243-9790-051e10551090","{""num_scrambled_semantic"":""8"",""num_scrambled_causal"":""4"",""num_scrambled_schematic"":""4"",""participantId"":""626CC3D0137A4648BAFDDC3CD29B6885"",""assignmentId"":""0198bef5-1895-7bc7-bc22-0563dafcf5ab"",""projectId"":""0198beef-981a-7243-9790-051e10551090""}","https://test12345.live/?num_scrambled_semantic=8&num_scrambled_causal=4&num_scrambled_schematic=4&participantId=626CC3D0137A4648BAFDDC3CD29B6885&assignmentId=0198bef5-1895-7bc7-bc22-0563dafcf5ab&projectId=0198beef-981a-7243-9790-051e10551090","626CC3D0137A4648BAFDDC3CD29B6885-2025-08-18-21-03-42","","null","","images/causal_sequence/the_performance_causal/the_performance_causal_0.png","null","",""
"","","","","","html-audio-response","12","195431","0.0-10.0","626CC3D0137A4648BAFDDC3CD29B6885","626CC3D0137A4648BAFDDC3CD29B6885","0198bef5-1895-7bc7-bc22-0563dafcf5ab","0198beef-981a-7243-9790-051e10551090","{""num_scrambled_semantic"":""8"",""num_scrambled_causal"":""4"",""num_scrambled_schematic"":""4"",""participantId"":""626CC3D0137A4648BAFDDC3CD29B6885"",""assignmentId"":""0198bef5-1895-7bc7-bc22-0563dafcf5ab"",""projectId"":""0198beef-981a-7243-9790-051e10551090""}","https://test12345.live/?num_scrambled_semantic=8&num_scrambled_causal=4&num_scrambled_schematic=4&participantId=626CC3D0137A4648BAFDDC3CD29B6885&assignmentId=0198bef5-1895-7bc7-bc22-0563dafcf5ab&projectId=0198beef-981a-7243-9790-051e10551090","626CC3D0137A4648BAFDDC3CD29B6885-2025-08-18-21-03-42","","10753","","[""<span style=\""color: red; font-size: 24px\""> NOW RECORDING</span><p>Please say out loud all the images you saw in part 1 of the experiment, as many as you can remember. The images can be said in any order.</p>""]","","10","the_performance_causal"
"","","","","","image-button-response","13","201437","0.0-11.0-0.0","626CC3D0137A4648BAFDDC3CD29B6885","626CC3D0137A4648BAFDDC3CD29B6885","0198bef5-1895-7bc7-bc22-0563dafcf5ab","0198beef-981a-7243-9790-051e10551090","{""num_scrambled_semantic"":""8"",""num_scrambled_causal"":""4"",""num_scrambled_schematic"":""4"",""participantId"":""626CC3D0137A4648BAFDDC3CD29B6885"",""assignmentId"":""0198bef5-1895-7bc7-bc22-0563dafcf5ab"",""projectId"":""0198beef-981a-7243-9790-051e10551090""}","https://test12345.live/?num_scrambled_semantic=8&num_scrambled_causal=4&num_scrambled_schematic=4&participantId=626CC3D0137A4648BAFDDC3CD29B6885&assignmentId=0198bef5-1895-7bc7-bc22-0563dafcf5ab&projectId=0198beef-981a-7243-9790-051e10551090","626CC3D0137A4648BAFDDC3CD29B6885-2025-08-18-21-03-42","","null","","images/semantic_sequence/housework_semantic/housework_semantic_0.png","null","",""
"","","","","","html-audio-response","14","232200","0.0-12.0","626CC3D0137A4648BAFDDC3CD29B6885","626CC3D0137A4648BAFDDC3CD29B6885","0198bef5-1895-7bc7-bc22-0563dafcf5ab","0198beef-981a-7243-9790-051e10551090","{""num_scrambled_semantic"":""8"",""num_scrambled_causal"":""4"",""num_scrambled_schematic"":""4"",""participantId"":""626CC3D0137A4648BAFDDC3CD29B6885"",""assignmentId"":""0198bef5-1895-7bc7-bc22-0563dafcf5ab"",""projectId"":""0198beef-981a-7243-9790-051e10551090""}","https://test12345.live/?num_scrambled_semantic=8&num_scrambled_causal=4&num_scrambled_schematic=4&participantId=626CC3D0137A4648BAFDDC3CD29B6885&assignmentId=0198bef5-1895-7bc7-bc22-0563dafcf5ab&projectId=0198beef-981a-7243-9790-051e10551090","626CC3D0137A4648BAFDDC3CD29B6885-2025-08-18-21-03-42","","22881","","[""<span style=\""color: red; font-size: 24px\""> NOW RECORDING</span><p>Please say out loud all the images you saw in part 1 of the experiment, as many as you can remember. The images can be said in any order.</p>""]","","2","housework_semantic"
"","","","","","image-button-response","15","238225","0.0-13.0-0.0","626CC3D0137A4648BAFDDC3CD29B6885","626CC3D0137A4648BAFDDC3CD29B6885","0198bef5-1895-7bc7-bc22-0563dafcf5ab","0198beef-981a-7243-9790-051e10551090","{""num_scrambled_semantic"":""8"",""num_scrambled_causal"":""4"",""num_scrambled_schematic"":""4"",""participantId"":""626CC3D0137A4648BAFDDC3CD29B6885"",""assignmentId"":""0198bef5-1895-7bc7-bc22-0563dafcf5ab"",""projectId"":""0198beef-981a-7243-9790-051e10551090""}","https://test12345.live/?num_scrambled_semantic=8&num_scrambled_causal=4&num_scrambled_schematic=4&participantId=626CC3D0137A4648BAFDDC3CD29B6885&assignmentId=0198bef5-1895-7bc7-bc22-0563dafcf5ab&projectId=0198beef-981a-7243-9790-051e10551090","626CC3D0137A4648BAFDDC3CD29B6885-2025-08-18-21-03-42","","null","","images/semantic_sequence/creative_activities_semantic/creative_activities_semantic_0.png","null","",""
"","","","","","html-audio-response","16","262655","0.0-14.0","626CC3D0137A4648BAFDDC3CD29B6885","626CC3D0137A4648BAFDDC3CD29B6885","0198bef5-1895-7bc7-bc22-0563dafcf5ab","0198beef-981a-7243-9790-051e10551090","{""num_scrambled_semantic"":""8"",""num_scrambled_causal"":""4"",""num_scrambled_schematic"":""4"",""participantId"":""626CC3D0137A4648BAFDDC3CD29B6885"",""assignmentId"":""0198bef5-1895-7bc7-bc22-0563dafcf5ab"",""projectId"":""0198beef-981a-7243-9790-051e10551090""}","https://test12345.live/?num_scrambled_semantic=8&num_scrambled_causal=4&num_scrambled_schematic=4&participantId=626CC3D0137A4648BAFDDC3CD29B6885&assignmentId=0198bef5-1895-7bc7-bc22-0563dafcf5ab&projectId=0198beef-981a-7243-9790-051e10551090","626CC3D0137A4648BAFDDC3CD29B6885-2025-08-18-21-03-42","","19492","","[""<span style=\""color: red; font-size: 24px\""> NOW RECORDING</span><p>Please say out loud all the images you saw in part 1 of the experiment, as many as you can remember. The images can be said in any order.</p>""]","","2","creative_activities_semantic"
"","","","","","image-button-response","17","268673","0.0-15.0-0.0","626CC3D0137A4648BAFDDC3CD29B6885","626CC3D0137A4648BAFDDC3CD29B6885","0198bef5-1895-7bc7-bc22-0563dafcf5ab","0198beef-981a-7243-9790-051e10551090","{""num_scrambled_semantic"":""8"",""num_scrambled_causal"":""4"",""num_scrambled_schematic"":""4"",""participantId"":""626CC3D0137A4648BAFDDC3CD29B6885"",""assignmentId"":""0198bef5-1895-7bc7-bc22-0563dafcf5ab"",""projectId"":""0198beef-981a-7243-9790-051e10551090""}","https://test12345.live/?num_scrambled_semantic=8&num_scrambled_causal=4&num_scrambled_schematic=4&participantId=626CC3D0137A4648BAFDDC3CD29B6885&assignmentId=0198bef5-1895-7bc7-bc22-0563dafcf5ab&projectId=0198beef-981a-7243-9790-051e10551090","626CC3D0137A4648BAFDDC3CD29B6885-2025-08-18-21-03-42","","null","","images/causal_sequence/saving_a_cat_causal/saving_a_cat_causal_0.png","null","",""
"","","","","","html-audio-response","18","297442","0.0-16.0","626CC3D0137A4648BAFDDC3CD29B6885","626CC3D0137A4648BAFDDC3CD29B6885","0198bef5-1895-7bc7-bc22-0563dafcf5ab","0198beef-981a-7243-9790-051e10551090","{""num_scrambled_semantic"":""8"",""num_scrambled_causal"":""4"",""num_scrambled_schematic"":""4"",""participantId"":""626CC3D0137A4648BAFDDC3CD29B6885"",""assignmentId"":""0198bef5-1895-7bc7-bc22-0563dafcf5ab"",""projectId"":""0198beef-981a-7243-9790-051e10551090""}","https://test12345.live/?num_scrambled_semantic=8&num_scrambled_causal=4&num_scrambled_schematic=4&participantId=626CC3D0137A4648BAFDDC3CD29B6885&assignmentId=0198bef5-1895-7bc7-bc22-0563dafcf5ab&projectId=0198beef-981a-7243-9790-051e10551090","626CC3D0137A4648BAFDDC3CD29B6885-2025-08-18-21-03-42","","26733","","[""<span style=\""color: red; font-size: 24px\""> NOW RECORDING</span><p>Please say out loud all the images you saw in part 1 of the experiment, as many as you can remember. The images can be said in any order.</p>""]","","2","saving_a_cat_causal"
"","","","","","image-button-response","19","303463","0.0-17.0-0.0","626CC3D0137A4648BAFDDC3CD29B6885","626CC3D0137A4648BAFDDC3CD29B6885","0198bef5-1895-7bc7-bc22-0563dafcf5ab","0198beef-981a-7243-9790-051e10551090","{""num_scrambled_semantic"":""8"",""num_scrambled_causal"":""4"",""num_scrambled_schematic"":""4"",""participantId"":""626CC3D0137A4648BAFDDC3CD29B6885"",""assignmentId"":""0198bef5-1895-7bc7-bc22-0563dafcf5ab"",""projectId"":""0198beef-981a-7243-9790-051e10551090""}","https://test12345.live/?num_scrambled_semantic=8&num_scrambled_causal=4&num_scrambled_schematic=4&participantId=626CC3D0137A4648BAFDDC3CD29B6885&assignmentId=0198bef5-1895-7bc7-bc22-0563dafcf5ab&projectId=0198beef-981a-7243-9790-051e10551090","626CC3D0137A4648BAFDDC3CD29B6885-2025-08-18-21-03-42","","null","","images/causal_sequence/museum_causal/museum_causal_0.png","null","",""
"","","","","","html-audio-response","20","332682","0.0-18.0","626CC3D0137A4648BAFDDC3CD29B6885","626CC3D0137A4648BAFDDC3CD29B6885","0198bef5-1895-7bc7-bc22-0563dafcf5ab","0198beef-981a-7243-9790-051e10551090","{""num_scrambled_semantic"":""8"",""num_scrambled_causal"":""4"",""num_scrambled_schematic"":""4"",""participantId"":""626CC3D0137A4648BAFDDC3CD29B6885"",""assignmentId"":""0198bef5-1895-7bc7-bc22-0563dafcf5ab"",""projectId"":""0198beef-981a-7243-9790-051e10551090""}","https://test12345.live/?num_scrambled_semantic=8&num_scrambled_causal=4&num_scrambled_schematic=4&participantId=626CC3D0137A4648BAFDDC3CD29B6885&assignmentId=0198bef5-1895-7bc7-bc22-0563dafcf5ab&projectId=0198beef-981a-7243-9790-051e10551090","626CC3D0137A4648BAFDDC3CD29B6885-2025-08-18-21-03-42","","22743","","[""<span style=\""color: red; font-size: 24px\""> NOW RECORDING</span><p>Please say out loud all the images you saw in part 1 of the experiment, as many as you can remember. The images can be said in any order.</p>""]","","2","museum_causal"
"","","","","","image-button-response","21","338696","0.0-19.0-0.0","626CC3D0137A4648BAFDDC3CD29B6885","626CC3D0137A4648BAFDDC3CD29B6885","0198bef5-1895-7bc7-bc22-0563dafcf5ab","0198beef-981a-7243-9790-051e10551090","{""num_scrambled_semantic"":""8"",""num_scrambled_causal"":""4"",""num_scrambled_schematic"":""4"",""participantId"":""626CC3D0137A4648BAFDDC3CD29B6885"",""assignmentId"":""0198bef5-1895-7bc7-bc22-0563dafcf5ab"",""projectId"":""0198beef-981a-7243-9790-051e10551090""}","https://test12345.live/?num_scrambled_semantic=8&num_scrambled_causal=4&num_scrambled_schematic=4&participantId=626CC3D0137A4648BAFDDC3CD29B6885&assignmentId=0198bef5-1895-7bc7-bc22-0563dafcf5ab&projectId=0198beef-981a-7243-9790-051e10551090","626CC3D0137A4648BAFDDC3CD29B6885-2025-08-18-21-03-42","","null","","images/semantic_sequence/physical_activity_semantic/physical_activity_semantic_0.png","null","",""
"","","","","","html-audio-response","22","360705","0.0-20.0","626CC3D0137A4648BAFDDC3CD29B6885","626CC3D0137A4648BAFDDC3CD29B6885","0198bef5-1895-7bc7-bc22-0563dafcf5ab","0198beef-981a-7243-9790-051e10551090","{""num_scrambled_semantic"":""8"",""num_scrambled_causal"":""4"",""num_scrambled_schematic"":""4"",""participantId"":""626CC3D0137A4648BAFDDC3CD29B6885"",""assignmentId"":""0198bef5-1895-7bc7-bc22-0563dafcf5ab"",""projectId"":""0198beef-981a-7243-9790-051e10551090""}","https://test12345.live/?num_scrambled_semantic=8&num_scrambled_causal=4&num_scrambled_schematic=4&participantId=626CC3D0137A4648BAFDDC3CD29B6885&assignmentId=0198bef5-1895-7bc7-bc22-0563dafcf5ab&projectId=0198beef-981a-7243-9790-051e10551090","626CC3D0137A4648BAFDDC3CD29B6885-2025-08-18-21-03-42","","17651","","[""<span style=\""color: red; font-size: 24px\""> NOW RECORDING</span><p>Please say out loud all the images you saw in part 1 of the experiment, as many as you can remember. The images can be said in any order.</p>""]","","2","physical_activity_semantic"
"","","","","","image-button-response","23","366718","0.0-21.0-0.0","626CC3D0137A4648BAFDDC3CD29B6885","626CC3D0137A4648BAFDDC3CD29B6885","0198bef5-1895-7bc7-bc22-0563dafcf5ab","0198beef-981a-7243-9790-051e10551090","{""num_scrambled_semantic"":""8"",""num_scrambled_causal"":""4"",""num_scrambled_schematic"":""4"",""participantId"":""626CC3D0137A4648BAFDDC3CD29B6885"",""assignmentId"":""0198bef5-1895-7bc7-bc22-0563dafcf5ab"",""projectId"":""0198beef-981a-7243-9790-051e10551090""}","https://test12345.live/?num_scrambled_semantic=8&num_scrambled_causal=4&num_scrambled_schematic=4&participantId=626CC3D0137A4648BAFDDC3CD29B6885&assignmentId=0198bef5-1895-7bc7-bc22-0563dafcf5ab&projectId=0198beef-981a-7243-9790-051e10551090","626CC3D0137A4648BAFDDC3CD29B6885-2025-08-18-21-03-42","","null","","images/causal_sequence/package_causal/package_causal_0.png","null","",""
"","","","","","html-audio-response","24","400748","0.0-22.0","626CC3D0137A4648BAFDDC3CD29B6885","626CC3D0137A4648BAFDDC3CD29B6885","0198bef5-1895-7bc7-bc22-0563dafcf5ab","0198beef-981a-7243-9790-051e10551090","{""num_scrambled_semantic"":""8"",""num_scrambled_causal"":""4"",""num_scrambled_schematic"":""4"",""participantId"":""626CC3D0137A4648BAFDDC3CD29B6885"",""assignmentId"":""0198bef5-1895-7bc7-bc22-0563dafcf5ab"",""projectId"":""0198beef-981a-7243-9790-051e10551090""}","https://test12345.live/?num_scrambled_semantic=8&num_scrambled_causal=4&num_scrambled_schematic=4&participantId=626CC3D0137A4648BAFDDC3CD29B6885&assignmentId=0198bef5-1895-7bc7-bc22-0563dafcf5ab&projectId=0198beef-981a-7243-9790-051e10551090","626CC3D0137A4648BAFDDC3CD29B6885-2025-08-18-21-03-42","","29153","","[""<span style=\""color: red; font-size: 24px\""> NOW RECORDING</span><p>Please say out loud all the images you saw in part 1 of the experiment, as many as you can remember. The images can be said in any order.</p>""]","","1","package_causal"
"","","","","","image-button-response","25","406763","0.0-23.0-0.0","626CC3D0137A4648BAFDDC3CD29B6885","626CC3D0137A4648BAFDDC3CD29B6885","0198bef5-1895-7bc7-bc22-0563dafcf5ab","0198beef-981a-7243-9790-051e10551090","{""num_scrambled_semantic"":""8"",""num_scrambled_causal"":""4"",""num_scrambled_schematic"":""4"",""participantId"":""626CC3D0137A4648BAFDDC3CD29B6885"",""assignmentId"":""0198bef5-1895-7bc7-bc22-0563dafcf5ab"",""projectId"":""0198beef-981a-7243-9790-051e10551090""}","https://test12345.live/?num_scrambled_semantic=8&num_scrambled_causal=4&num_scrambled_schematic=4&participantId=626CC3D0137A4648BAFDDC3CD29B6885&assignmentId=0198bef5-1895-7bc7-bc22-0563dafcf5ab&projectId=0198beef-981a-7243-9790-051e10551090","626CC3D0137A4648BAFDDC3CD29B6885-2025-08-18-21-03-42","","null","","images/semantic_sequence/cat_care_semantic/cat_care_semantic_0.png","null","",""
"","","","","","html-audio-response","26","436154","0.0-24.0","626CC3D0137A4648BAFDDC3CD29B6885","626CC3D0137A4648BAFDDC3CD29B6885","0198bef5-1895-7bc7-bc22-0563dafcf5ab","0198beef-981a-7243-9790-051e10551090","{""num_scrambled_semantic"":""8"",""num_scrambled_causal"":""4"",""num_scrambled_schematic"":""4"",""participantId"":""626CC3D0137A4648BAFDDC3CD29B6885"",""assignmentId"":""0198bef5-1895-7bc7-bc22-0563dafcf5ab"",""projectId"":""0198beef-981a-7243-9790-051e10551090""}","https://test12345.live/?num_scrambled_semantic=8&num_scrambled_causal=4&num_scrambled_schematic=4&participantId=626CC3D0137A4648BAFDDC3CD29B6885&assignmentId=0198bef5-1895-7bc7-bc22-0563dafcf5ab&projectId=0198beef-981a-7243-9790-051e10551090","626CC3D0137A4648BAFDDC3CD29B6885-2025-08-18-21-03-42","","24409","","[""<span style=\""color: red; font-size: 24px\""> NOW RECORDING</span><p>Please say out loud all the images you saw in part 1 of the experiment, as many as you can remember. The images can be said in any order.</p>""]","","2","cat_care_semantic"
"","","","","","image-button-response","27","442170","0.0-25.0-0.0","626CC3D0137A4648BAFDDC3CD29B6885","626CC3D0137A4648BAFDDC3CD29B6885","0198bef5-1895-7bc7-bc22-0563dafcf5ab","0198beef-981a-7243-9790-051e10551090","{""num_scrambled_semantic"":""8"",""num_scrambled_causal"":""4"",""num_scrambled_schematic"":""4"",""participantId"":""626CC3D0137A4648BAFDDC3CD29B6885"",""assignmentId"":""0198bef5-1895-7bc7-bc22-0563dafcf5ab"",""projectId"":""0198beef-981a-7243-9790-051e10551090""}","https://test12345.live/?num_scrambled_semantic=8&num_scrambled_causal=4&num_scrambled_schematic=4&participantId=626CC3D0137A4648BAFDDC3CD29B6885&assignmentId=0198bef5-1895-7bc7-bc22-0563dafcf5ab&projectId=0198beef-981a-7243-9790-051e10551090","626CC3D0137A4648BAFDDC3CD29B6885-2025-08-18-21-03-42","","null","","images/causal_sequence/coin_causal/coin_causal_0.png","null","",""
"","","","","","html-audio-response","28","482308","0.0-26.0","626CC3D0137A4648BAFDDC3CD29B6885","626CC3D0137A4648BAFDDC3CD29B6885","0198bef5-1895-7bc7-bc22-0563dafcf5ab","0198beef-981a-7243-9790-051e10551090","{""num_scrambled_semantic"":""8"",""num_scrambled_causal"":""4"",""num_scrambled_schematic"":""4"",""participantId"":""626CC3D0137A4648BAFDDC3CD29B6885"",""assignmentId"":""0198bef5-1895-7bc7-bc22-0563dafcf5ab"",""projectId"":""0198beef-981a-7243-9790-051e10551090""}","https://test12345.live/?num_scrambled_semantic=8&num_scrambled_causal=4&num_scrambled_schematic=4&participantId=626CC3D0137A4648BAFDDC3CD29B6885&assignmentId=0198bef5-1895-7bc7-bc22-0563dafcf5ab&projectId=0198beef-981a-7243-9790-051e10551090","626CC3D0137A4648BAFDDC3CD29B6885-2025-08-18-21-03-42","","38405","","[""<span style=\""color: red; font-size: 24px\""> NOW RECORDING</span><p>Please say out loud all the images you saw in part 1 of the experiment, as many as you can remember. The images can be said in any order.</p>""]","","2","coin_causal"
"","","","","","image-button-response","29","488332","0.0-27.0-0.0","626CC3D0137A4648BAFDDC3CD29B6885","626CC3D0137A4648BAFDDC3CD29B6885","0198bef5-1895-7bc7-bc22-0563dafcf5ab","0198beef-981a-7243-9790-051e10551090","{""num_scrambled_semantic"":""8"",""num_scrambled_causal"":""4"",""num_scrambled_schematic"":""4"",""participantId"":""626CC3D0137A4648BAFDDC3CD29B6885"",""assignmentId"":""0198bef5-1895-7bc7-bc22-0563dafcf5ab"",""projectId"":""0198beef-981a-7243-9790-051e10551090""}","https://test12345.live/?num_scrambled_semantic=8&num_scrambled_causal=4&num_scrambled_schematic=4&participantId=626CC3D0137A4648BAFDDC3CD29B6885&assignmentId=0198bef5-1895-7bc7-bc22-0563dafcf5ab&projectId=0198beef-981a-7243-9790-051e10551090","626CC3D0137A4648BAFDDC3CD29B6885-2025-08-18-21-03-42","","null","","images/semantic_sequence/maintaining_a_car_semantic/maintaining_a_car_semantic_0.png","null","",""
"","","","","","html-audio-response","30","516618","0.0-28.0","626CC3D0137A4648BAFDDC3CD29B6885","626CC3D0137A4648BAFDDC3CD29B6885","0198bef5-1895-7bc7-bc22-0563dafcf5ab","0198beef-981a-7243-9790-051e10551090","{""num_scrambled_semantic"":""8"",""num_scrambled_causal"":""4"",""num_scrambled_schematic"":""4"",""participantId"":""626CC3D0137A4648BAFDDC3CD29B6885"",""assignmentId"":""0198bef5-1895-7bc7-bc22-0563dafcf5ab"",""projectId"":""0198beef-981a-7243-9790-051e10551090""}","https://test12345.live/?num_scrambled_semantic=8&num_scrambled_causal=4&num_scrambled_schematic=4&participantId=626CC3D0137A4648BAFDDC3CD29B6885&assignmentId=0198bef5-1895-7bc7-bc22-0563dafcf5ab&projectId=0198beef-981a-7243-9790-051e10551090","626CC3D0137A4648BAFDDC3CD29B6885-2025-08-18-21-03-42","","23340","","[""<span style=\""color: red; font-size: 24px\""> NOW RECORDING</span><p>Please say out loud all the images you saw in part 1 of the experiment, as many as you can remember. The images can be said in any order.</p>""]","","2","maintaining_a_car_semantic"
"","","","","","image-button-response","31","522632","0.0-29.0-0.0","626CC3D0137A4648BAFDDC3CD29B6885","626CC3D0137A4648BAFDDC3CD29B6885","0198bef5-1895-7bc7-bc22-0563dafcf5ab","0198beef-981a-7243-9790-051e10551090","{""num_scrambled_semantic"":""8"",""num_scrambled_causal"":""4"",""num_scrambled_schematic"":""4"",""participantId"":""626CC3D0137A4648BAFDDC3CD29B6885"",""assignmentId"":""0198bef5-1895-7bc7-bc22-0563dafcf5ab"",""projectId"":""0198beef-981a-7243-9790-051e10551090""}","https://test12345.live/?num_scrambled_semantic=8&num_scrambled_causal=4&num_scrambled_schematic=4&participantId=626CC3D0137A4648BAFDDC3CD29B6885&assignmentId=0198bef5-1895-7bc7-bc22-0563dafcf5ab&projectId=0198beef-981a-7243-9790-051e10551090","626CC3D0137A4648BAFDDC3CD29B6885-2025-08-18-21-03-42","","null","","images/causal_sequence/dog_causal/dog_causal_0.png","null","",""
"","","","","","html-audio-response","32","551652","0.0-30.0","626CC3D0137A4648BAFDDC3CD29B6885","626CC3D0137A4648BAFDDC3CD29B6885","0198bef5-1895-7bc7-bc22-0563dafcf5ab","0198beef-981a-7243-9790-051e10551090","{""num_scrambled_semantic"":""8"",""num_scrambled_causal"":""4"",""num_scrambled_schematic"":""4"",""participantId"":""626CC3D0137A4648BAFDDC3CD29B6885"",""assignmentId"":""0198bef5-1895-7bc7-bc22-0563dafcf5ab"",""projectId"":""0198beef-981a-7243-9790-051e10551090""}","https://test12345.live/?num_scrambled_semantic=8&num_scrambled_causal=4&num_scrambled_schematic=4&participantId=626CC3D0137A4648BAFDDC3CD29B6885&assignmentId=0198bef5-1895-7bc7-bc22-0563dafcf5ab&projectId=0198beef-981a-7243-9790-051e10551090","626CC3D0137A4648BAFDDC3CD29B6885-2025-08-18-21-03-42","","25390","","[""<span style=\""color: red; font-size: 24px\""> NOW RECORDING</span><p>Please say out loud all the images you saw in part 1 of the experiment, as many as you can remember. The images can be said in any order.</p>""]","","2","dog_causal"
"","","","","","image-button-response","33","557672","0.0-31.0-0.0","626CC3D0137A4648BAFDDC3CD29B6885","626CC3D0137A4648BAFDDC3CD29B6885","0198bef5-1895-7bc7-bc22-0563dafcf5ab","0198beef-981a-7243-9790-051e10551090","{""num_scrambled_semantic"":""8"",""num_scrambled_causal"":""4"",""num_scrambled_schematic"":""4"",""participantId"":""626CC3D0137A4648BAFDDC3CD29B6885"",""assignmentId"":""0198bef5-1895-7bc7-bc22-0563dafcf5ab"",""projectId"":""0198beef-981a-7243-9790-051e10551090""}","https://test12345.live/?num_scrambled_semantic=8&num_scrambled_causal=4&num_scrambled_schematic=4&participantId=626CC3D0137A4648BAFDDC3CD29B6885&assignmentId=0198bef5-1895-7bc7-bc22-0563dafcf5ab&projectId=0198beef-981a-7243-9790-051e10551090","626CC3D0137A4648BAFDDC3CD29B6885-2025-08-18-21-03-42","","null","","images/semantic_sequence/using_technology_semantic/using_technology_semantic_0.png","null","",""
"","","","","","html-audio-response","34","580568","0.0-32.0","626CC3D0137A4648BAFDDC3CD29B6885","626CC3D0137A4648BAFDDC3CD29B6885","0198bef5-1895-7bc7-bc22-0563dafcf5ab","0198beef-981a-7243-9790-051e10551090","{""num_scrambled_semantic"":""8"",""num_scrambled_causal"":""4"",""num_scrambled_schematic"":""4"",""participantId"":""626CC3D0137A4648BAFDDC3CD29B6885"",""assignmentId"":""0198bef5-1895-7bc7-bc22-0563dafcf5ab"",""projectId"":""0198beef-981a-7243-9790-051e10551090""}","https://test12345.live/?num_scrambled_semantic=8&num_scrambled_causal=4&num_scrambled_schematic=4&participantId=626CC3D0137A4648BAFDDC3CD29B6885&assignmentId=0198bef5-1895-7bc7-bc22-0563dafcf5ab&projectId=0198beef-981a-7243-9790-051e10551090","626CC3D0137A4648BAFDDC3CD29B6885-2025-08-18-21-03-42","","21115","","[""<span style=\""color: red; font-size: 24px\""> NOW RECORDING</span><p>Please say out loud all the images you saw in part 1 of the experiment, as many as you can remember. The images can be said in any order.</p>""]","","2","using_technology_semantic"
"","","","","","image-button-response","35","586591","0.0-33.0-0.0","626CC3D0137A4648BAFDDC3CD29B6885","626CC3D0137A4648BAFDDC3CD29B6885","0198bef5-1895-7bc7-bc22-0563dafcf5ab","0198beef-981a-7243-9790-051e10551090","{""num_scrambled_semantic"":""8"",""num_scrambled_causal"":""4"",""num_scrambled_schematic"":""4"",""participantId"":""626CC3D0137A4648BAFDDC3CD29B6885"",""assignmentId"":""0198bef5-1895-7bc7-bc22-0563dafcf5ab"",""projectId"":""0198beef-981a-7243-9790-051e10551090""}","https://test12345.live/?num_scrambled_semantic=8&num_scrambled_causal=4&num_scrambled_schematic=4&participantId=626CC3D0137A4648BAFDDC3CD29B6885&assignmentId=0198bef5-1895-7bc7-bc22-0563dafcf5ab&projectId=0198beef-981a-7243-9790-051e10551090","626CC3D0137A4648BAFDDC3CD29B6885-2025-08-18-21-03-42","","null","","images/semantic_sequence/redecorating_semantic/redecorating_semantic_0.png","null","",""
"","","","","","html-audio-response","36","625758","0.0-34.0","626CC3D0137A4648BAFDDC3CD29B6885","626CC3D0137A4648BAFDDC3CD29B6885","0198bef5-1895-7bc7-bc22-0563dafcf5ab","0198beef-981a-7243-9790-051e10551090","{""num_scrambled_semantic"":""8"",""num_scrambled_causal"":""4"",""num_scrambled_schematic"":""4"",""participantId"":""626CC3D0137A4648BAFDDC3CD29B6885"",""assignmentId"":""0198bef5-1895-7bc7-bc22-0563dafcf5ab"",""projectId"":""0198beef-981a-7243-9790-051e10551090""}","https://test12345.live/?num_scrambled_semantic=8&num_scrambled_causal=4&num_scrambled_schematic=4&participantId=626CC3D0137A4648BAFDDC3CD29B6885&assignmentId=0198bef5-1895-7bc7-bc22-0563dafcf5ab&projectId=0198beef-981a-7243-9790-051e10551090","626CC3D0137A4648BAFDDC3CD29B6885-2025-08-18-21-03-42","","17704","","[""<span style=\""color: red; font-size: 24px\""> NOW RECORDING</span><p>Please say out loud all the images you saw in part 1 of the experiment, as many as you can remember. The images can be said in any order.</p>""]","","4","redecorating_semantic"
"","","","","","survey-text","37","634461","0.0-35.0","626CC3D0137A4648BAFDDC3CD29B6885","626CC3D0137A4648BAFDDC3CD29B6885","0198bef5-1895-7bc7-bc22-0563dafcf5ab","0198beef-981a-7243-9790-051e10551090","{""num_scrambled_semantic"":""8"",""num_scrambled_causal"":""4"",""num_scrambled_schematic"":""4"",""participantId"":""626CC3D0137A4648BAFDDC3CD29B6885"",""assignmentId"":""0198bef5-1895-7bc7-bc22-0563dafcf5ab"",""projectId"":""0198beef-981a-7243-9790-051e10551090""}","https://test12345.live/?num_scrambled_semantic=8&num_scrambled_causal=4&num_scrambled_schematic=4&participantId=626CC3D0137A4648BAFDDC3CD29B6885&assignmentId=0198bef5-1895-7bc7-bc22-0563dafcf5ab&projectId=0198beef-981a-7243-9790-051e10551090","626CC3D0137A4648BAFDDC3CD29B6885-2025-08-18-21-03-42","","8686","","","{""Q0"":""female"",""Q1"":""26""}","",""
"","","","","","instructions","38","640204","0.0-36.0","626CC3D0137A4648BAFDDC3CD29B6885","626CC3D0137A4648BAFDDC3CD29B6885","0198bef5-1895-7bc7-bc22-0563dafcf5ab","0198beef-981a-7243-9790-051e10551090","{""num_scrambled_semantic"":""8"",""num_scrambled_causal"":""4"",""num_scrambled_schematic"":""4"",""participantId"":""626CC3D0137A4648BAFDDC3CD29B6885"",""assignmentId"":""0198bef5-1895-7bc7-bc22-0563dafcf5ab"",""projectId"":""0198beef-981a-7243-9790-051e10551090""}","https://test12345.live/?num_scrambled_semantic=8&num_scrambled_causal=4&num_scrambled_schematic=4&participantId=626CC3D0137A4648BAFDDC3CD29B6885&assignmentId=0198bef5-1895-7bc7-bc22-0563dafcf5ab&projectId=0198beef-981a-7243-9790-051e10551090","626CC3D0137A4648BAFDDC3CD29B6885-2025-08-18-21-03-42","[{""page_index"":0,""viewing_time"":5741}]","5742","","","","",""
"","","","","","survey-text","39","644339","0.0-37.0","626CC3D0137A4648BAFDDC3CD29B6885","626CC3D0137A4648BAFDDC3CD29B6885","0198bef5-1895-7bc7-bc22-0563dafcf5ab","0198beef-981a-7243-9790-051e10551090","{""num_scrambled_semantic"":""8"",""num_scrambled_causal"":""4"",""num_scrambled_schematic"":""4"",""participantId"":""626CC3D0137A4648BAFDDC3CD29B6885"",""assignmentId"":""0198bef5-1895-7bc7-bc22-0563dafcf5ab"",""projectId"":""0198beef-981a-7243-9790-051e10551090""}","https://test12345.live/?num_scrambled_semantic=8&num_scrambled_causal=4&num_scrambled_schematic=4&participantId=626CC3D0137A4648BAFDDC3CD29B6885&assignmentId=0198bef5-1895-7bc7-bc22-0563dafcf5ab&projectId=0198beef-981a-7243-9790-051e10551090","626CC3D0137A4648BAFDDC3CD29B6885-2025-08-18-21-03-42","","4132","","","{""Q0"":""AJFHBG896""}","",""
