"success","timeout","failed_images","failed_audio","failed_video","trial_type","trial_index","time_elapsed","internal_node_id","subject","subject_id","study_id","session_id","urlvar","current_url","audio_id","view_history","rt","device_id","stimulus","response","estimated_stimulus_onset","seq_name"
"true","false","[]","[]","[]","preload","0","66005","0.0-0.0","652E2912D9864C77972E4D7C9FE2EE5F","652E2912D9864C77972E4D7C9FE2EE5F","25220bd4-858e-452a-9f5d-d8eca7b21c5e","2dd913a0-fd4c-43f1-b4f3-f0d48537bce8","{""part"":""2"",""participantId"":""652E2912D9864C77972E4D7C9FE2EE5F"",""assignmentId"":""25220bd4-858e-452a-9f5d-d8eca7b21c5e"",""projectId"":""2dd913a0-fd4c-43f1-b4f3-f0d48537bce8""}","https://test12345.live/?part=2&participantId=652E2912D9864C77972E4D7C9FE2EE5F&assignmentId=25220bd4-858e-452a-9f5d-d8eca7b21c5e&projectId=2dd913a0-fd4c-43f1-b4f3-f0d48537bce8","652E2912D9864C77972E4D7C9FE2EE5F-2025-05-15-21-43-05","","","","","","",""
"","","","","","instructions","1","80454","0.0-1.0","652E2912D9864C77972E4D7C9FE2EE5F","652E2912D9864C77972E4D7C9FE2EE5F","25220bd4-858e-452a-9f5d-d8eca7b21c5e","2dd913a0-fd4c-43f1-b4f3-f0d48537bce8","{""part"":""2"",""participantId"":""652E2912D9864C77972E4D7C9FE2EE5F"",""assignmentId"":""25220bd4-858e-452a-9f5d-d8eca7b21c5e"",""projectId"":""2dd913a0-fd4c-43f1-b4f3-f0d48537bce8""}","https://test12345.live/?part=2&participantId=652E2912D9864C77972E4D7C9FE2EE5F&assignmentId=25220bd4-858e-452a-9f5d-d8eca7b21c5e&projectId=2dd913a0-fd4c-43f1-b4f3-f0d48537bce8","652E2912D9864C77972E4D7C9FE2EE5F-2025-05-15-21-43-05","[{""page_index"":0,""viewing_time"":14448}]","14448","","","","",""
"","","","","","instructions","2","86702","0.0-2.0","652E2912D9864C77972E4D7C9FE2EE5F","652E2912D9864C77972E4D7C9FE2EE5F","25220bd4-858e-452a-9f5d-d8eca7b21c5e","2dd913a0-fd4c-43f1-b4f3-f0d48537bce8","{""part"":""2"",""participantId"":""652E2912D9864C77972E4D7C9FE2EE5F"",""assignmentId"":""25220bd4-858e-452a-9f5d-d8eca7b21c5e"",""projectId"":""2dd913a0-fd4c-43f1-b4f3-f0d48537bce8""}","https://test12345.live/?part=2&participantId=652E2912D9864C77972E4D7C9FE2EE5F&assignmentId=25220bd4-858e-452a-9f5d-d8eca7b21c5e&projectId=2dd913a0-fd4c-43f1-b4f3-f0d48537bce8","652E2912D9864C77972E4D7C9FE2EE5F-2025-05-15-21-43-05","[{""page_index"":0,""viewing_time"":6246}]","6246","","","","",""
"true","","","","","fullscreen","3","89882","0.0-3.0","652E2912D9864C77972E4D7C9FE2EE5F","652E2912D9864C77972E4D7C9FE2EE5F","25220bd4-858e-452a-9f5d-d8eca7b21c5e","2dd913a0-fd4c-43f1-b4f3-f0d48537bce8","{""part"":""2"",""participantId"":""652E2912D9864C77972E4D7C9FE2EE5F"",""assignmentId"":""25220bd4-858e-452a-9f5d-d8eca7b21c5e"",""projectId"":""2dd913a0-fd4c-43f1-b4f3-f0d48537bce8""}","https://test12345.live/?part=2&participantId=652E2912D9864C77972E4D7C9FE2EE5F&assignmentId=25220bd4-858e-452a-9f5d-d8eca7b21c5e&projectId=2dd913a0-fd4c-43f1-b4f3-f0d48537bce8","652E2912D9864C77972E4D7C9FE2EE5F-2025-05-15-21-43-05","","2178","","","","",""
"","","","","","initialize-microphone","4","92509","0.0-4.0-0.0","652E2912D9864C77972E4D7C9FE2EE5F","652E2912D9864C77972E4D7C9FE2EE5F","25220bd4-858e-452a-9f5d-d8eca7b21c5e","2dd913a0-fd4c-43f1-b4f3-f0d48537bce8","{""part"":""2"",""participantId"":""652E2912D9864C77972E4D7C9FE2EE5F"",""assignmentId"":""25220bd4-858e-452a-9f5d-d8eca7b21c5e"",""projectId"":""2dd913a0-fd4c-43f1-b4f3-f0d48537bce8""}","https://test12345.live/?part=2&participantId=652E2912D9864C77972E4D7C9FE2EE5F&assignmentId=25220bd4-858e-452a-9f5d-d8eca7b21c5e&projectId=2dd913a0-fd4c-43f1-b4f3-f0d48537bce8","652E2912D9864C77972E4D7C9FE2EE5F-2025-05-15-21-43-05","","","36350dd7c873fe741fdd6611427c889830dd05d0775b276ac786ad23d506769e","","","",""
"","","","","","html-audio-response","5","144380","0.0-4.0-1.0","652E2912D9864C77972E4D7C9FE2EE5F","652E2912D9864C77972E4D7C9FE2EE5F","25220bd4-858e-452a-9f5d-d8eca7b21c5e","2dd913a0-fd4c-43f1-b4f3-f0d48537bce8","{""part"":""2"",""participantId"":""652E2912D9864C77972E4D7C9FE2EE5F"",""assignmentId"":""25220bd4-858e-452a-9f5d-d8eca7b21c5e"",""projectId"":""2dd913a0-fd4c-43f1-b4f3-f0d48537bce8""}","https://test12345.live/?part=2&participantId=652E2912D9864C77972E4D7C9FE2EE5F&assignmentId=25220bd4-858e-452a-9f5d-d8eca7b21c5e&projectId=2dd913a0-fd4c-43f1-b4f3-f0d48537bce8","652E2912D9864C77972E4D7C9FE2EE5F-2025-05-15-21-43-05","","3250","","<span style=""color: red; font-size: 24px""> NOW RECORDING</span>
        <p>Please test Microphone</p>","","2",""
"","","","","","html-button-response","6","146238","0.0-4.0-2.0","652E2912D9864C77972E4D7C9FE2EE5F","652E2912D9864C77972E4D7C9FE2EE5F","25220bd4-858e-452a-9f5d-d8eca7b21c5e","2dd913a0-fd4c-43f1-b4f3-f0d48537bce8","{""part"":""2"",""participantId"":""652E2912D9864C77972E4D7C9FE2EE5F"",""assignmentId"":""25220bd4-858e-452a-9f5d-d8eca7b21c5e"",""projectId"":""2dd913a0-fd4c-43f1-b4f3-f0d48537bce8""}","https://test12345.live/?part=2&participantId=652E2912D9864C77972E4D7C9FE2EE5F&assignmentId=25220bd4-858e-452a-9f5d-d8eca7b21c5e&projectId=2dd913a0-fd4c-43f1-b4f3-f0d48537bce8","652E2912D9864C77972E4D7C9FE2EE5F-2025-05-15-21-43-05","","1856","","<p style=""font-size:48px; color:red;"">Is Microphone OK?</p>","1","",""
"","","","","","instructions","7","159833","0.0-5.0","652E2912D9864C77972E4D7C9FE2EE5F","652E2912D9864C77972E4D7C9FE2EE5F","25220bd4-858e-452a-9f5d-d8eca7b21c5e","2dd913a0-fd4c-43f1-b4f3-f0d48537bce8","{""part"":""2"",""participantId"":""652E2912D9864C77972E4D7C9FE2EE5F"",""assignmentId"":""25220bd4-858e-452a-9f5d-d8eca7b21c5e"",""projectId"":""2dd913a0-fd4c-43f1-b4f3-f0d48537bce8""}","https://test12345.live/?part=2&participantId=652E2912D9864C77972E4D7C9FE2EE5F&assignmentId=25220bd4-858e-452a-9f5d-d8eca7b21c5e&projectId=2dd913a0-fd4c-43f1-b4f3-f0d48537bce8","652E2912D9864C77972E4D7C9FE2EE5F-2025-05-15-21-43-05","[{""page_index"":0,""viewing_time"":1706},{""page_index"":1,""viewing_time"":5190},{""page_index"":2,""viewing_time"":6698}]","13594","","","","",""
"","","","","","image-button-response","8","165837","0.0-6.0-0.0","652E2912D9864C77972E4D7C9FE2EE5F","652E2912D9864C77972E4D7C9FE2EE5F","25220bd4-858e-452a-9f5d-d8eca7b21c5e","2dd913a0-fd4c-43f1-b4f3-f0d48537bce8","{""part"":""2"",""participantId"":""652E2912D9864C77972E4D7C9FE2EE5F"",""assignmentId"":""25220bd4-858e-452a-9f5d-d8eca7b21c5e"",""projectId"":""2dd913a0-fd4c-43f1-b4f3-f0d48537bce8""}","https://test12345.live/?part=2&participantId=652E2912D9864C77972E4D7C9FE2EE5F&assignmentId=25220bd4-858e-452a-9f5d-d8eca7b21c5e&projectId=2dd913a0-fd4c-43f1-b4f3-f0d48537bce8","652E2912D9864C77972E4D7C9FE2EE5F-2025-05-15-21-43-05","","null","","images/instructions/movie_0.png","null","",""
"","","","","","html-audio-response","9","193443","0.0-7.0","652E2912D9864C77972E4D7C9FE2EE5F","652E2912D9864C77972E4D7C9FE2EE5F","25220bd4-858e-452a-9f5d-d8eca7b21c5e","2dd913a0-fd4c-43f1-b4f3-f0d48537bce8","{""part"":""2"",""participantId"":""652E2912D9864C77972E4D7C9FE2EE5F"",""assignmentId"":""25220bd4-858e-452a-9f5d-d8eca7b21c5e"",""projectId"":""2dd913a0-fd4c-43f1-b4f3-f0d48537bce8""}","https://test12345.live/?part=2&participantId=652E2912D9864C77972E4D7C9FE2EE5F&assignmentId=25220bd4-858e-452a-9f5d-d8eca7b21c5e&projectId=2dd913a0-fd4c-43f1-b4f3-f0d48537bce8","652E2912D9864C77972E4D7C9FE2EE5F-2025-05-15-21-43-05","","12995","","[""<span style=\""color: red; font-size: 24px\""> NOW RECORDING</span><p>Please say out loud all the images you saw in part 1 of the experiment, as many as you can remember. The images can be said in any order.</p>""]","","2",""
"","","","","","instructions","10","199553","0.0-8.0","652E2912D9864C77972E4D7C9FE2EE5F","652E2912D9864C77972E4D7C9FE2EE5F","25220bd4-858e-452a-9f5d-d8eca7b21c5e","2dd913a0-fd4c-43f1-b4f3-f0d48537bce8","{""part"":""2"",""participantId"":""652E2912D9864C77972E4D7C9FE2EE5F"",""assignmentId"":""25220bd4-858e-452a-9f5d-d8eca7b21c5e"",""projectId"":""2dd913a0-fd4c-43f1-b4f3-f0d48537bce8""}","https://test12345.live/?part=2&participantId=652E2912D9864C77972E4D7C9FE2EE5F&assignmentId=25220bd4-858e-452a-9f5d-d8eca7b21c5e&projectId=2dd913a0-fd4c-43f1-b4f3-f0d48537bce8","652E2912D9864C77972E4D7C9FE2EE5F-2025-05-15-21-43-05","[{""page_index"":0,""viewing_time"":6104}]","6105","","","","",""
"","","","","","image-button-response","11","205554","0.0-9.0-0.0","652E2912D9864C77972E4D7C9FE2EE5F","652E2912D9864C77972E4D7C9FE2EE5F","25220bd4-858e-452a-9f5d-d8eca7b21c5e","2dd913a0-fd4c-43f1-b4f3-f0d48537bce8","{""part"":""2"",""participantId"":""652E2912D9864C77972E4D7C9FE2EE5F"",""assignmentId"":""25220bd4-858e-452a-9f5d-d8eca7b21c5e"",""projectId"":""2dd913a0-fd4c-43f1-b4f3-f0d48537bce8""}","https://test12345.live/?part=2&participantId=652E2912D9864C77972E4D7C9FE2EE5F&assignmentId=25220bd4-858e-452a-9f5d-d8eca7b21c5e&projectId=2dd913a0-fd4c-43f1-b4f3-f0d48537bce8","652E2912D9864C77972E4D7C9FE2EE5F-2025-05-15-21-43-05","","null","","images/causal_sequence/museum_causal/museum_causal_0.png","null","",""
"","","","","","html-audio-response","12","235805","0.0-10.0","652E2912D9864C77972E4D7C9FE2EE5F","652E2912D9864C77972E4D7C9FE2EE5F","25220bd4-858e-452a-9f5d-d8eca7b21c5e","2dd913a0-fd4c-43f1-b4f3-f0d48537bce8","{""part"":""2"",""participantId"":""652E2912D9864C77972E4D7C9FE2EE5F"",""assignmentId"":""25220bd4-858e-452a-9f5d-d8eca7b21c5e"",""projectId"":""2dd913a0-fd4c-43f1-b4f3-f0d48537bce8""}","https://test12345.live/?part=2&participantId=652E2912D9864C77972E4D7C9FE2EE5F&assignmentId=25220bd4-858e-452a-9f5d-d8eca7b21c5e&projectId=2dd913a0-fd4c-43f1-b4f3-f0d48537bce8","652E2912D9864C77972E4D7C9FE2EE5F-2025-05-15-21-43-05","","8325","","[""<span style=\""color: red; font-size: 24px\""> NOW RECORDING</span><p>Please say out loud all the images you saw in part 1 of the experiment, as many as you can remember. The images can be said in any order.</p>""]","","2","museum_causal"
"","","","","","image-button-response","13","241810","0.0-11.0-0.0","652E2912D9864C77972E4D7C9FE2EE5F","652E2912D9864C77972E4D7C9FE2EE5F","25220bd4-858e-452a-9f5d-d8eca7b21c5e","2dd913a0-fd4c-43f1-b4f3-f0d48537bce8","{""part"":""2"",""participantId"":""652E2912D9864C77972E4D7C9FE2EE5F"",""assignmentId"":""25220bd4-858e-452a-9f5d-d8eca7b21c5e"",""projectId"":""2dd913a0-fd4c-43f1-b4f3-f0d48537bce8""}","https://test12345.live/?part=2&participantId=652E2912D9864C77972E4D7C9FE2EE5F&assignmentId=25220bd4-858e-452a-9f5d-d8eca7b21c5e&projectId=2dd913a0-fd4c-43f1-b4f3-f0d48537bce8","652E2912D9864C77972E4D7C9FE2EE5F-2025-05-15-21-43-05","","null","","images/causal_sequence/dog_causal/dog_causal_0.png","null","",""
"","","","","","html-audio-response","14","267853","0.0-12.0","652E2912D9864C77972E4D7C9FE2EE5F","652E2912D9864C77972E4D7C9FE2EE5F","25220bd4-858e-452a-9f5d-d8eca7b21c5e","2dd913a0-fd4c-43f1-b4f3-f0d48537bce8","{""part"":""2"",""participantId"":""652E2912D9864C77972E4D7C9FE2EE5F"",""assignmentId"":""25220bd4-858e-452a-9f5d-d8eca7b21c5e"",""projectId"":""2dd913a0-fd4c-43f1-b4f3-f0d48537bce8""}","https://test12345.live/?part=2&participantId=652E2912D9864C77972E4D7C9FE2EE5F&assignmentId=25220bd4-858e-452a-9f5d-d8eca7b21c5e&projectId=2dd913a0-fd4c-43f1-b4f3-f0d48537bce8","652E2912D9864C77972E4D7C9FE2EE5F-2025-05-15-21-43-05","","16114","","[""<span style=\""color: red; font-size: 24px\""> NOW RECORDING</span><p>Please say out loud all the images you saw in part 1 of the experiment, as many as you can remember. The images can be said in any order.</p>""]","","2","dog_causal"
"","","","","","image-button-response","15","273860","0.0-13.0-0.0","652E2912D9864C77972E4D7C9FE2EE5F","652E2912D9864C77972E4D7C9FE2EE5F","25220bd4-858e-452a-9f5d-d8eca7b21c5e","2dd913a0-fd4c-43f1-b4f3-f0d48537bce8","{""part"":""2"",""participantId"":""652E2912D9864C77972E4D7C9FE2EE5F"",""assignmentId"":""25220bd4-858e-452a-9f5d-d8eca7b21c5e"",""projectId"":""2dd913a0-fd4c-43f1-b4f3-f0d48537bce8""}","https://test12345.live/?part=2&participantId=652E2912D9864C77972E4D7C9FE2EE5F&assignmentId=25220bd4-858e-452a-9f5d-d8eca7b21c5e&projectId=2dd913a0-fd4c-43f1-b4f3-f0d48537bce8","652E2912D9864C77972E4D7C9FE2EE5F-2025-05-15-21-43-05","","null","","images/semantic_sequence/kitchen_operations_semantic/kitchen_operations_semantic_0.png","null","",""
"","","","","","html-audio-response","16","296924","0.0-14.0","652E2912D9864C77972E4D7C9FE2EE5F","652E2912D9864C77972E4D7C9FE2EE5F","25220bd4-858e-452a-9f5d-d8eca7b21c5e","2dd913a0-fd4c-43f1-b4f3-f0d48537bce8","{""part"":""2"",""participantId"":""652E2912D9864C77972E4D7C9FE2EE5F"",""assignmentId"":""25220bd4-858e-452a-9f5d-d8eca7b21c5e"",""projectId"":""2dd913a0-fd4c-43f1-b4f3-f0d48537bce8""}","https://test12345.live/?part=2&participantId=652E2912D9864C77972E4D7C9FE2EE5F&assignmentId=25220bd4-858e-452a-9f5d-d8eca7b21c5e&projectId=2dd913a0-fd4c-43f1-b4f3-f0d48537bce8","652E2912D9864C77972E4D7C9FE2EE5F-2025-05-15-21-43-05","","9910","","[""<span style=\""color: red; font-size: 24px\""> NOW RECORDING</span><p>Please say out loud all the images you saw in part 1 of the experiment, as many as you can remember. The images can be said in any order.</p>""]","","2","kitchen_operations_semantic"
"","","","","","image-button-response","17","302928","0.0-15.0-0.0","652E2912D9864C77972E4D7C9FE2EE5F","652E2912D9864C77972E4D7C9FE2EE5F","25220bd4-858e-452a-9f5d-d8eca7b21c5e","2dd913a0-fd4c-43f1-b4f3-f0d48537bce8","{""part"":""2"",""participantId"":""652E2912D9864C77972E4D7C9FE2EE5F"",""assignmentId"":""25220bd4-858e-452a-9f5d-d8eca7b21c5e"",""projectId"":""2dd913a0-fd4c-43f1-b4f3-f0d48537bce8""}","https://test12345.live/?part=2&participantId=652E2912D9864C77972E4D7C9FE2EE5F&assignmentId=25220bd4-858e-452a-9f5d-d8eca7b21c5e&projectId=2dd913a0-fd4c-43f1-b4f3-f0d48537bce8","652E2912D9864C77972E4D7C9FE2EE5F-2025-05-15-21-43-05","","null","","images/semantic_sequence/maintaining_a_car_semantic/maintaining_a_car_semantic_0.png","null","",""
"","","","","","html-audio-response","18","315482","0.0-16.0","652E2912D9864C77972E4D7C9FE2EE5F","652E2912D9864C77972E4D7C9FE2EE5F","25220bd4-858e-452a-9f5d-d8eca7b21c5e","2dd913a0-fd4c-43f1-b4f3-f0d48537bce8","{""part"":""2"",""participantId"":""652E2912D9864C77972E4D7C9FE2EE5F"",""assignmentId"":""25220bd4-858e-452a-9f5d-d8eca7b21c5e"",""projectId"":""2dd913a0-fd4c-43f1-b4f3-f0d48537bce8""}","https://test12345.live/?part=2&participantId=652E2912D9864C77972E4D7C9FE2EE5F&assignmentId=25220bd4-858e-452a-9f5d-d8eca7b21c5e&projectId=2dd913a0-fd4c-43f1-b4f3-f0d48537bce8","652E2912D9864C77972E4D7C9FE2EE5F-2025-05-15-21-43-05","","11330","","[""<span style=\""color: red; font-size: 24px\""> NOW RECORDING</span><p>Please say out loud all the images you saw in part 1 of the experiment, as many as you can remember. The images can be said in any order.</p>""]","","2","maintaining_a_car_semantic"
"","","","","","image-button-response","19","321487","0.0-17.0-0.0","652E2912D9864C77972E4D7C9FE2EE5F","652E2912D9864C77972E4D7C9FE2EE5F","25220bd4-858e-452a-9f5d-d8eca7b21c5e","2dd913a0-fd4c-43f1-b4f3-f0d48537bce8","{""part"":""2"",""participantId"":""652E2912D9864C77972E4D7C9FE2EE5F"",""assignmentId"":""25220bd4-858e-452a-9f5d-d8eca7b21c5e"",""projectId"":""2dd913a0-fd4c-43f1-b4f3-f0d48537bce8""}","https://test12345.live/?part=2&participantId=652E2912D9864C77972E4D7C9FE2EE5F&assignmentId=25220bd4-858e-452a-9f5d-d8eca7b21c5e&projectId=2dd913a0-fd4c-43f1-b4f3-f0d48537bce8","652E2912D9864C77972E4D7C9FE2EE5F-2025-05-15-21-43-05","","null","","images/semantic_sequence/physical_activity_semantic/physical_activity_semantic_0.png","null","",""
"","","","","","html-audio-response","20","359122","0.0-18.0","652E2912D9864C77972E4D7C9FE2EE5F","652E2912D9864C77972E4D7C9FE2EE5F","25220bd4-858e-452a-9f5d-d8eca7b21c5e","2dd913a0-fd4c-43f1-b4f3-f0d48537bce8","{""part"":""2"",""participantId"":""652E2912D9864C77972E4D7C9FE2EE5F"",""assignmentId"":""25220bd4-858e-452a-9f5d-d8eca7b21c5e"",""projectId"":""2dd913a0-fd4c-43f1-b4f3-f0d48537bce8""}","https://test12345.live/?part=2&participantId=652E2912D9864C77972E4D7C9FE2EE5F&assignmentId=25220bd4-858e-452a-9f5d-d8eca7b21c5e&projectId=2dd913a0-fd4c-43f1-b4f3-f0d48537bce8","652E2912D9864C77972E4D7C9FE2EE5F-2025-05-15-21-43-05","","8156","","[""<span style=\""color: red; font-size: 24px\""> NOW RECORDING</span><p>Please say out loud all the images you saw in part 1 of the experiment, as many as you can remember. The images can be said in any order.</p>""]","","2","physical_activity_semantic"
"","","","","","image-button-response","21","365127","0.0-19.0-0.0","652E2912D9864C77972E4D7C9FE2EE5F","652E2912D9864C77972E4D7C9FE2EE5F","25220bd4-858e-452a-9f5d-d8eca7b21c5e","2dd913a0-fd4c-43f1-b4f3-f0d48537bce8","{""part"":""2"",""participantId"":""652E2912D9864C77972E4D7C9FE2EE5F"",""assignmentId"":""25220bd4-858e-452a-9f5d-d8eca7b21c5e"",""projectId"":""2dd913a0-fd4c-43f1-b4f3-f0d48537bce8""}","https://test12345.live/?part=2&participantId=652E2912D9864C77972E4D7C9FE2EE5F&assignmentId=25220bd4-858e-452a-9f5d-d8eca7b21c5e&projectId=2dd913a0-fd4c-43f1-b4f3-f0d48537bce8","652E2912D9864C77972E4D7C9FE2EE5F-2025-05-15-21-43-05","","null","","images/causal_sequence/coin_causal/coin_causal_0.png","null","",""
"","","","","","html-audio-response","22","402371","0.0-20.0","652E2912D9864C77972E4D7C9FE2EE5F","652E2912D9864C77972E4D7C9FE2EE5F","25220bd4-858e-452a-9f5d-d8eca7b21c5e","2dd913a0-fd4c-43f1-b4f3-f0d48537bce8","{""part"":""2"",""participantId"":""652E2912D9864C77972E4D7C9FE2EE5F"",""assignmentId"":""25220bd4-858e-452a-9f5d-d8eca7b21c5e"",""projectId"":""2dd913a0-fd4c-43f1-b4f3-f0d48537bce8""}","https://test12345.live/?part=2&participantId=652E2912D9864C77972E4D7C9FE2EE5F&assignmentId=25220bd4-858e-452a-9f5d-d8eca7b21c5e&projectId=2dd913a0-fd4c-43f1-b4f3-f0d48537bce8","652E2912D9864C77972E4D7C9FE2EE5F-2025-05-15-21-43-05","","17179","","[""<span style=\""color: red; font-size: 24px\""> NOW RECORDING</span><p>Please say out loud all the images you saw in part 1 of the experiment, as many as you can remember. The images can be said in any order.</p>""]","","2","coin_causal"
"","","","","","image-button-response","23","408377","0.0-21.0-0.0","652E2912D9864C77972E4D7C9FE2EE5F","652E2912D9864C77972E4D7C9FE2EE5F","25220bd4-858e-452a-9f5d-d8eca7b21c5e","2dd913a0-fd4c-43f1-b4f3-f0d48537bce8","{""part"":""2"",""participantId"":""652E2912D9864C77972E4D7C9FE2EE5F"",""assignmentId"":""25220bd4-858e-452a-9f5d-d8eca7b21c5e"",""projectId"":""2dd913a0-fd4c-43f1-b4f3-f0d48537bce8""}","https://test12345.live/?part=2&participantId=652E2912D9864C77972E4D7C9FE2EE5F&assignmentId=25220bd4-858e-452a-9f5d-d8eca7b21c5e&projectId=2dd913a0-fd4c-43f1-b4f3-f0d48537bce8","652E2912D9864C77972E4D7C9FE2EE5F-2025-05-15-21-43-05","","null","","images/schematic_sequence/interview_scheme/interview_scheme_0.png","null","",""
"","","","","","html-audio-response","24","435357","0.0-22.0","652E2912D9864C77972E4D7C9FE2EE5F","652E2912D9864C77972E4D7C9FE2EE5F","25220bd4-858e-452a-9f5d-d8eca7b21c5e","2dd913a0-fd4c-43f1-b4f3-f0d48537bce8","{""part"":""2"",""participantId"":""652E2912D9864C77972E4D7C9FE2EE5F"",""assignmentId"":""25220bd4-858e-452a-9f5d-d8eca7b21c5e"",""projectId"":""2dd913a0-fd4c-43f1-b4f3-f0d48537bce8""}","https://test12345.live/?part=2&participantId=652E2912D9864C77972E4D7C9FE2EE5F&assignmentId=25220bd4-858e-452a-9f5d-d8eca7b21c5e&projectId=2dd913a0-fd4c-43f1-b4f3-f0d48537bce8","652E2912D9864C77972E4D7C9FE2EE5F-2025-05-15-21-43-05","","19883","","[""<span style=\""color: red; font-size: 24px\""> NOW RECORDING</span><p>Please say out loud all the images you saw in part 1 of the experiment, as many as you can remember. The images can be said in any order.</p>""]","","2","interview_scheme"
"","","","","","image-button-response","25","441363","0.0-23.0-0.0","652E2912D9864C77972E4D7C9FE2EE5F","652E2912D9864C77972E4D7C9FE2EE5F","25220bd4-858e-452a-9f5d-d8eca7b21c5e","2dd913a0-fd4c-43f1-b4f3-f0d48537bce8","{""part"":""2"",""participantId"":""652E2912D9864C77972E4D7C9FE2EE5F"",""assignmentId"":""25220bd4-858e-452a-9f5d-d8eca7b21c5e"",""projectId"":""2dd913a0-fd4c-43f1-b4f3-f0d48537bce8""}","https://test12345.live/?part=2&participantId=652E2912D9864C77972E4D7C9FE2EE5F&assignmentId=25220bd4-858e-452a-9f5d-d8eca7b21c5e&projectId=2dd913a0-fd4c-43f1-b4f3-f0d48537bce8","652E2912D9864C77972E4D7C9FE2EE5F-2025-05-15-21-43-05","","null","","images/semantic_sequence/market_semantic/market_semantic_0.png","null","",""
"","","","","","html-audio-response","26","457677","0.0-24.0","652E2912D9864C77972E4D7C9FE2EE5F","652E2912D9864C77972E4D7C9FE2EE5F","25220bd4-858e-452a-9f5d-d8eca7b21c5e","2dd913a0-fd4c-43f1-b4f3-f0d48537bce8","{""part"":""2"",""participantId"":""652E2912D9864C77972E4D7C9FE2EE5F"",""assignmentId"":""25220bd4-858e-452a-9f5d-d8eca7b21c5e"",""projectId"":""2dd913a0-fd4c-43f1-b4f3-f0d48537bce8""}","https://test12345.live/?part=2&participantId=652E2912D9864C77972E4D7C9FE2EE5F&assignmentId=25220bd4-858e-452a-9f5d-d8eca7b21c5e&projectId=2dd913a0-fd4c-43f1-b4f3-f0d48537bce8","652E2912D9864C77972E4D7C9FE2EE5F-2025-05-15-21-43-05","","14045","","[""<span style=\""color: red; font-size: 24px\""> NOW RECORDING</span><p>Please say out loud all the images you saw in part 1 of the experiment, as many as you can remember. The images can be said in any order.</p>""]","","2","market_semantic"
"","","","","","image-button-response","27","463683","0.0-25.0-0.0","652E2912D9864C77972E4D7C9FE2EE5F","652E2912D9864C77972E4D7C9FE2EE5F","25220bd4-858e-452a-9f5d-d8eca7b21c5e","2dd913a0-fd4c-43f1-b4f3-f0d48537bce8","{""part"":""2"",""participantId"":""652E2912D9864C77972E4D7C9FE2EE5F"",""assignmentId"":""25220bd4-858e-452a-9f5d-d8eca7b21c5e"",""projectId"":""2dd913a0-fd4c-43f1-b4f3-f0d48537bce8""}","https://test12345.live/?part=2&participantId=652E2912D9864C77972E4D7C9FE2EE5F&assignmentId=25220bd4-858e-452a-9f5d-d8eca7b21c5e&projectId=2dd913a0-fd4c-43f1-b4f3-f0d48537bce8","652E2912D9864C77972E4D7C9FE2EE5F-2025-05-15-21-43-05","","null","","images/schematic_sequence/flight_scheme/flight_scheme_0.png","null","",""
"","","","","","html-audio-response","28","503895","0.0-26.0","652E2912D9864C77972E4D7C9FE2EE5F","652E2912D9864C77972E4D7C9FE2EE5F","25220bd4-858e-452a-9f5d-d8eca7b21c5e","2dd913a0-fd4c-43f1-b4f3-f0d48537bce8","{""part"":""2"",""participantId"":""652E2912D9864C77972E4D7C9FE2EE5F"",""assignmentId"":""25220bd4-858e-452a-9f5d-d8eca7b21c5e"",""projectId"":""2dd913a0-fd4c-43f1-b4f3-f0d48537bce8""}","https://test12345.live/?part=2&participantId=652E2912D9864C77972E4D7C9FE2EE5F&assignmentId=25220bd4-858e-452a-9f5d-d8eca7b21c5e&projectId=2dd913a0-fd4c-43f1-b4f3-f0d48537bce8","652E2912D9864C77972E4D7C9FE2EE5F-2025-05-15-21-43-05","","18569","","[""<span style=\""color: red; font-size: 24px\""> NOW RECORDING</span><p>Please say out loud all the images you saw in part 1 of the experiment, as many as you can remember. The images can be said in any order.</p>""]","","2","flight_scheme"
"","","","","","image-button-response","29","509903","0.0-27.0-0.0","652E2912D9864C77972E4D7C9FE2EE5F","652E2912D9864C77972E4D7C9FE2EE5F","25220bd4-858e-452a-9f5d-d8eca7b21c5e","2dd913a0-fd4c-43f1-b4f3-f0d48537bce8","{""part"":""2"",""participantId"":""652E2912D9864C77972E4D7C9FE2EE5F"",""assignmentId"":""25220bd4-858e-452a-9f5d-d8eca7b21c5e"",""projectId"":""2dd913a0-fd4c-43f1-b4f3-f0d48537bce8""}","https://test12345.live/?part=2&participantId=652E2912D9864C77972E4D7C9FE2EE5F&assignmentId=25220bd4-858e-452a-9f5d-d8eca7b21c5e&projectId=2dd913a0-fd4c-43f1-b4f3-f0d48537bce8","652E2912D9864C77972E4D7C9FE2EE5F-2025-05-15-21-43-05","","null","","images/semantic_sequence/cat_care_semantic/cat_care_semantic_0.png","null","",""
"","","","","","html-audio-response","30","538651","0.0-28.0","652E2912D9864C77972E4D7C9FE2EE5F","652E2912D9864C77972E4D7C9FE2EE5F","25220bd4-858e-452a-9f5d-d8eca7b21c5e","2dd913a0-fd4c-43f1-b4f3-f0d48537bce8","{""part"":""2"",""participantId"":""652E2912D9864C77972E4D7C9FE2EE5F"",""assignmentId"":""25220bd4-858e-452a-9f5d-d8eca7b21c5e"",""projectId"":""2dd913a0-fd4c-43f1-b4f3-f0d48537bce8""}","https://test12345.live/?part=2&participantId=652E2912D9864C77972E4D7C9FE2EE5F&assignmentId=25220bd4-858e-452a-9f5d-d8eca7b21c5e&projectId=2dd913a0-fd4c-43f1-b4f3-f0d48537bce8","652E2912D9864C77972E4D7C9FE2EE5F-2025-05-15-21-43-05","","18247","","[""<span style=\""color: red; font-size: 24px\""> NOW RECORDING</span><p>Please say out loud all the images you saw in part 1 of the experiment, as many as you can remember. The images can be said in any order.</p>""]","","1","cat_care_semantic"
"","","","","","image-button-response","31","544656","0.0-29.0-0.0","652E2912D9864C77972E4D7C9FE2EE5F","652E2912D9864C77972E4D7C9FE2EE5F","25220bd4-858e-452a-9f5d-d8eca7b21c5e","2dd913a0-fd4c-43f1-b4f3-f0d48537bce8","{""part"":""2"",""participantId"":""652E2912D9864C77972E4D7C9FE2EE5F"",""assignmentId"":""25220bd4-858e-452a-9f5d-d8eca7b21c5e"",""projectId"":""2dd913a0-fd4c-43f1-b4f3-f0d48537bce8""}","https://test12345.live/?part=2&participantId=652E2912D9864C77972E4D7C9FE2EE5F&assignmentId=25220bd4-858e-452a-9f5d-d8eca7b21c5e&projectId=2dd913a0-fd4c-43f1-b4f3-f0d48537bce8","652E2912D9864C77972E4D7C9FE2EE5F-2025-05-15-21-43-05","","null","","images/schematic_sequence/restaurant_scheme/restaurant_scheme_0.png","null","",""
"","","","","","html-audio-response","32","567678","0.0-30.0","652E2912D9864C77972E4D7C9FE2EE5F","652E2912D9864C77972E4D7C9FE2EE5F","25220bd4-858e-452a-9f5d-d8eca7b21c5e","2dd913a0-fd4c-43f1-b4f3-f0d48537bce8","{""part"":""2"",""participantId"":""652E2912D9864C77972E4D7C9FE2EE5F"",""assignmentId"":""25220bd4-858e-452a-9f5d-d8eca7b21c5e"",""projectId"":""2dd913a0-fd4c-43f1-b4f3-f0d48537bce8""}","https://test12345.live/?part=2&participantId=652E2912D9864C77972E4D7C9FE2EE5F&assignmentId=25220bd4-858e-452a-9f5d-d8eca7b21c5e&projectId=2dd913a0-fd4c-43f1-b4f3-f0d48537bce8","652E2912D9864C77972E4D7C9FE2EE5F-2025-05-15-21-43-05","","15674","","[""<span style=\""color: red; font-size: 24px\""> NOW RECORDING</span><p>Please say out loud all the images you saw in part 1 of the experiment, as many as you can remember. The images can be said in any order.</p>""]","","2","restaurant_scheme"
"","","","","","image-button-response","33","573685","0.0-31.0-0.0","652E2912D9864C77972E4D7C9FE2EE5F","652E2912D9864C77972E4D7C9FE2EE5F","25220bd4-858e-452a-9f5d-d8eca7b21c5e","2dd913a0-fd4c-43f1-b4f3-f0d48537bce8","{""part"":""2"",""participantId"":""652E2912D9864C77972E4D7C9FE2EE5F"",""assignmentId"":""25220bd4-858e-452a-9f5d-d8eca7b21c5e"",""projectId"":""2dd913a0-fd4c-43f1-b4f3-f0d48537bce8""}","https://test12345.live/?part=2&participantId=652E2912D9864C77972E4D7C9FE2EE5F&assignmentId=25220bd4-858e-452a-9f5d-d8eca7b21c5e&projectId=2dd913a0-fd4c-43f1-b4f3-f0d48537bce8","652E2912D9864C77972E4D7C9FE2EE5F-2025-05-15-21-43-05","","null","","images/schematic_sequence/dinner_party_scheme/dinner_party_scheme_0.png","null","",""
"","","","","","html-audio-response","34","609582","0.0-32.0","652E2912D9864C77972E4D7C9FE2EE5F","652E2912D9864C77972E4D7C9FE2EE5F","25220bd4-858e-452a-9f5d-d8eca7b21c5e","2dd913a0-fd4c-43f1-b4f3-f0d48537bce8","{""part"":""2"",""participantId"":""652E2912D9864C77972E4D7C9FE2EE5F"",""assignmentId"":""25220bd4-858e-452a-9f5d-d8eca7b21c5e"",""projectId"":""2dd913a0-fd4c-43f1-b4f3-f0d48537bce8""}","https://test12345.live/?part=2&participantId=652E2912D9864C77972E4D7C9FE2EE5F&assignmentId=25220bd4-858e-452a-9f5d-d8eca7b21c5e&projectId=2dd913a0-fd4c-43f1-b4f3-f0d48537bce8","652E2912D9864C77972E4D7C9FE2EE5F-2025-05-15-21-43-05","","17106","","[""<span style=\""color: red; font-size: 24px\""> NOW RECORDING</span><p>Please say out loud all the images you saw in part 1 of the experiment, as many as you can remember. The images can be said in any order.</p>""]","","2","dinner_party_scheme"
"","","","","","image-button-response","35","615589","0.0-33.0-0.0","652E2912D9864C77972E4D7C9FE2EE5F","652E2912D9864C77972E4D7C9FE2EE5F","25220bd4-858e-452a-9f5d-d8eca7b21c5e","2dd913a0-fd4c-43f1-b4f3-f0d48537bce8","{""part"":""2"",""participantId"":""652E2912D9864C77972E4D7C9FE2EE5F"",""assignmentId"":""25220bd4-858e-452a-9f5d-d8eca7b21c5e"",""projectId"":""2dd913a0-fd4c-43f1-b4f3-f0d48537bce8""}","https://test12345.live/?part=2&participantId=652E2912D9864C77972E4D7C9FE2EE5F&assignmentId=25220bd4-858e-452a-9f5d-d8eca7b21c5e&projectId=2dd913a0-fd4c-43f1-b4f3-f0d48537bce8","652E2912D9864C77972E4D7C9FE2EE5F-2025-05-15-21-43-05","","null","","images/causal_sequence/the_performance_causal/the_performance_causal_0.png","null","",""
"","","","","","html-audio-response","36","653746","0.0-34.0","652E2912D9864C77972E4D7C9FE2EE5F","652E2912D9864C77972E4D7C9FE2EE5F","25220bd4-858e-452a-9f5d-d8eca7b21c5e","2dd913a0-fd4c-43f1-b4f3-f0d48537bce8","{""part"":""2"",""participantId"":""652E2912D9864C77972E4D7C9FE2EE5F"",""assignmentId"":""25220bd4-858e-452a-9f5d-d8eca7b21c5e"",""projectId"":""2dd913a0-fd4c-43f1-b4f3-f0d48537bce8""}","https://test12345.live/?part=2&participantId=652E2912D9864C77972E4D7C9FE2EE5F&assignmentId=25220bd4-858e-452a-9f5d-d8eca7b21c5e&projectId=2dd913a0-fd4c-43f1-b4f3-f0d48537bce8","652E2912D9864C77972E4D7C9FE2EE5F-2025-05-15-21-43-05","","11320","","[""<span style=\""color: red; font-size: 24px\""> NOW RECORDING</span><p>Please say out loud all the images you saw in part 1 of the experiment, as many as you can remember. The images can be said in any order.</p>""]","","1","the_performance_causal"
"","","","","","image-button-response","37","659751","0.0-35.0-0.0","652E2912D9864C77972E4D7C9FE2EE5F","652E2912D9864C77972E4D7C9FE2EE5F","25220bd4-858e-452a-9f5d-d8eca7b21c5e","2dd913a0-fd4c-43f1-b4f3-f0d48537bce8","{""part"":""2"",""participantId"":""652E2912D9864C77972E4D7C9FE2EE5F"",""assignmentId"":""25220bd4-858e-452a-9f5d-d8eca7b21c5e"",""projectId"":""2dd913a0-fd4c-43f1-b4f3-f0d48537bce8""}","https://test12345.live/?part=2&participantId=652E2912D9864C77972E4D7C9FE2EE5F&assignmentId=25220bd4-858e-452a-9f5d-d8eca7b21c5e&projectId=2dd913a0-fd4c-43f1-b4f3-f0d48537bce8","652E2912D9864C77972E4D7C9FE2EE5F-2025-05-15-21-43-05","","null","","images/schematic_sequence/hotel_scheme/hotel_scheme_0.png","null","",""
"","","","","","html-audio-response","38","683375","0.0-36.0","652E2912D9864C77972E4D7C9FE2EE5F","652E2912D9864C77972E4D7C9FE2EE5F","25220bd4-858e-452a-9f5d-d8eca7b21c5e","2dd913a0-fd4c-43f1-b4f3-f0d48537bce8","{""part"":""2"",""participantId"":""652E2912D9864C77972E4D7C9FE2EE5F"",""assignmentId"":""25220bd4-858e-452a-9f5d-d8eca7b21c5e"",""projectId"":""2dd913a0-fd4c-43f1-b4f3-f0d48537bce8""}","https://test12345.live/?part=2&participantId=652E2912D9864C77972E4D7C9FE2EE5F&assignmentId=25220bd4-858e-452a-9f5d-d8eca7b21c5e&projectId=2dd913a0-fd4c-43f1-b4f3-f0d48537bce8","652E2912D9864C77972E4D7C9FE2EE5F-2025-05-15-21-43-05","","17874","","[""<span style=\""color: red; font-size: 24px\""> NOW RECORDING</span><p>Please say out loud all the images you saw in part 1 of the experiment, as many as you can remember. The images can be said in any order.</p>""]","","2","hotel_scheme"
"","","","","","image-button-response","39","689381","0.0-37.0-0.0","652E2912D9864C77972E4D7C9FE2EE5F","652E2912D9864C77972E4D7C9FE2EE5F","25220bd4-858e-452a-9f5d-d8eca7b21c5e","2dd913a0-fd4c-43f1-b4f3-f0d48537bce8","{""part"":""2"",""participantId"":""652E2912D9864C77972E4D7C9FE2EE5F"",""assignmentId"":""25220bd4-858e-452a-9f5d-d8eca7b21c5e"",""projectId"":""2dd913a0-fd4c-43f1-b4f3-f0d48537bce8""}","https://test12345.live/?part=2&participantId=652E2912D9864C77972E4D7C9FE2EE5F&assignmentId=25220bd4-858e-452a-9f5d-d8eca7b21c5e&projectId=2dd913a0-fd4c-43f1-b4f3-f0d48537bce8","652E2912D9864C77972E4D7C9FE2EE5F-2025-05-15-21-43-05","","null","","images/causal_sequence/saving_a_cat_causal/saving_a_cat_causal_0.png","null","",""
"","","","","","html-audio-response","40","715811","0.0-38.0","652E2912D9864C77972E4D7C9FE2EE5F","652E2912D9864C77972E4D7C9FE2EE5F","25220bd4-858e-452a-9f5d-d8eca7b21c5e","2dd913a0-fd4c-43f1-b4f3-f0d48537bce8","{""part"":""2"",""participantId"":""652E2912D9864C77972E4D7C9FE2EE5F"",""assignmentId"":""25220bd4-858e-452a-9f5d-d8eca7b21c5e"",""projectId"":""2dd913a0-fd4c-43f1-b4f3-f0d48537bce8""}","https://test12345.live/?part=2&participantId=652E2912D9864C77972E4D7C9FE2EE5F&assignmentId=25220bd4-858e-452a-9f5d-d8eca7b21c5e&projectId=2dd913a0-fd4c-43f1-b4f3-f0d48537bce8","652E2912D9864C77972E4D7C9FE2EE5F-2025-05-15-21-43-05","","21548","","[""<span style=\""color: red; font-size: 24px\""> NOW RECORDING</span><p>Please say out loud all the images you saw in part 1 of the experiment, as many as you can remember. The images can be said in any order.</p>""]","","2","saving_a_cat_causal"
"","","","","","image-button-response","41","721819","0.0-39.0-0.0","652E2912D9864C77972E4D7C9FE2EE5F","652E2912D9864C77972E4D7C9FE2EE5F","25220bd4-858e-452a-9f5d-d8eca7b21c5e","2dd913a0-fd4c-43f1-b4f3-f0d48537bce8","{""part"":""2"",""participantId"":""652E2912D9864C77972E4D7C9FE2EE5F"",""assignmentId"":""25220bd4-858e-452a-9f5d-d8eca7b21c5e"",""projectId"":""2dd913a0-fd4c-43f1-b4f3-f0d48537bce8""}","https://test12345.live/?part=2&participantId=652E2912D9864C77972E4D7C9FE2EE5F&assignmentId=25220bd4-858e-452a-9f5d-d8eca7b21c5e&projectId=2dd913a0-fd4c-43f1-b4f3-f0d48537bce8","652E2912D9864C77972E4D7C9FE2EE5F-2025-05-15-21-43-05","","null","","images/semantic_sequence/using_technology_semantic/using_technology_semantic_0.png","null","",""
"","","","","","html-audio-response","42","799252","0.0-40.0","652E2912D9864C77972E4D7C9FE2EE5F","652E2912D9864C77972E4D7C9FE2EE5F","25220bd4-858e-452a-9f5d-d8eca7b21c5e","2dd913a0-fd4c-43f1-b4f3-f0d48537bce8","{""part"":""2"",""participantId"":""652E2912D9864C77972E4D7C9FE2EE5F"",""assignmentId"":""25220bd4-858e-452a-9f5d-d8eca7b21c5e"",""projectId"":""2dd913a0-fd4c-43f1-b4f3-f0d48537bce8""}","https://test12345.live/?part=2&participantId=652E2912D9864C77972E4D7C9FE2EE5F&assignmentId=25220bd4-858e-452a-9f5d-d8eca7b21c5e&projectId=2dd913a0-fd4c-43f1-b4f3-f0d48537bce8","652E2912D9864C77972E4D7C9FE2EE5F-2025-05-15-21-43-05","","6784","","[""<span style=\""color: red; font-size: 24px\""> NOW RECORDING</span><p>Please say out loud all the images you saw in part 1 of the experiment, as many as you can remember. The images can be said in any order.</p>""]","","2","using_technology_semantic"
"","","","","","image-button-response","43","805256","0.0-41.0-0.0","652E2912D9864C77972E4D7C9FE2EE5F","652E2912D9864C77972E4D7C9FE2EE5F","25220bd4-858e-452a-9f5d-d8eca7b21c5e","2dd913a0-fd4c-43f1-b4f3-f0d48537bce8","{""part"":""2"",""participantId"":""652E2912D9864C77972E4D7C9FE2EE5F"",""assignmentId"":""25220bd4-858e-452a-9f5d-d8eca7b21c5e"",""projectId"":""2dd913a0-fd4c-43f1-b4f3-f0d48537bce8""}","https://test12345.live/?part=2&participantId=652E2912D9864C77972E4D7C9FE2EE5F&assignmentId=25220bd4-858e-452a-9f5d-d8eca7b21c5e&projectId=2dd913a0-fd4c-43f1-b4f3-f0d48537bce8","652E2912D9864C77972E4D7C9FE2EE5F-2025-05-15-21-43-05","","null","","images/schematic_sequence/supermarket_scheme/supermarket_scheme_0.png","null","",""
"","","","","","html-audio-response","44","824450","0.0-42.0","652E2912D9864C77972E4D7C9FE2EE5F","652E2912D9864C77972E4D7C9FE2EE5F","25220bd4-858e-452a-9f5d-d8eca7b21c5e","2dd913a0-fd4c-43f1-b4f3-f0d48537bce8","{""part"":""2"",""participantId"":""652E2912D9864C77972E4D7C9FE2EE5F"",""assignmentId"":""25220bd4-858e-452a-9f5d-d8eca7b21c5e"",""projectId"":""2dd913a0-fd4c-43f1-b4f3-f0d48537bce8""}","https://test12345.live/?part=2&participantId=652E2912D9864C77972E4D7C9FE2EE5F&assignmentId=25220bd4-858e-452a-9f5d-d8eca7b21c5e&projectId=2dd913a0-fd4c-43f1-b4f3-f0d48537bce8","652E2912D9864C77972E4D7C9FE2EE5F-2025-05-15-21-43-05","","14035","","[""<span style=\""color: red; font-size: 24px\""> NOW RECORDING</span><p>Please say out loud all the images you saw in part 1 of the experiment, as many as you can remember. The images can be said in any order.</p>""]","","1","supermarket_scheme"
"","","","","","image-button-response","45","830456","0.0-43.0-0.0","652E2912D9864C77972E4D7C9FE2EE5F","652E2912D9864C77972E4D7C9FE2EE5F","25220bd4-858e-452a-9f5d-d8eca7b21c5e","2dd913a0-fd4c-43f1-b4f3-f0d48537bce8","{""part"":""2"",""participantId"":""652E2912D9864C77972E4D7C9FE2EE5F"",""assignmentId"":""25220bd4-858e-452a-9f5d-d8eca7b21c5e"",""projectId"":""2dd913a0-fd4c-43f1-b4f3-f0d48537bce8""}","https://test12345.live/?part=2&participantId=652E2912D9864C77972E4D7C9FE2EE5F&assignmentId=25220bd4-858e-452a-9f5d-d8eca7b21c5e&projectId=2dd913a0-fd4c-43f1-b4f3-f0d48537bce8","652E2912D9864C77972E4D7C9FE2EE5F-2025-05-15-21-43-05","","null","","images/semantic_sequence/self_care_activities_semantic/self_care_activities_semantic_0.png","null","",""
"","","","","","html-audio-response","46","866581","0.0-44.0","652E2912D9864C77972E4D7C9FE2EE5F","652E2912D9864C77972E4D7C9FE2EE5F","25220bd4-858e-452a-9f5d-d8eca7b21c5e","2dd913a0-fd4c-43f1-b4f3-f0d48537bce8","{""part"":""2"",""participantId"":""652E2912D9864C77972E4D7C9FE2EE5F"",""assignmentId"":""25220bd4-858e-452a-9f5d-d8eca7b21c5e"",""projectId"":""2dd913a0-fd4c-43f1-b4f3-f0d48537bce8""}","https://test12345.live/?part=2&participantId=652E2912D9864C77972E4D7C9FE2EE5F&assignmentId=25220bd4-858e-452a-9f5d-d8eca7b21c5e&projectId=2dd913a0-fd4c-43f1-b4f3-f0d48537bce8","652E2912D9864C77972E4D7C9FE2EE5F-2025-05-15-21-43-05","","8351","","[""<span style=\""color: red; font-size: 24px\""> NOW RECORDING</span><p>Please say out loud all the images you saw in part 1 of the experiment, as many as you can remember. The images can be said in any order.</p>""]","","2","self_care_activities_semantic"
"","","","","","image-button-response","47","872586","0.0-45.0-0.0","652E2912D9864C77972E4D7C9FE2EE5F","652E2912D9864C77972E4D7C9FE2EE5F","25220bd4-858e-452a-9f5d-d8eca7b21c5e","2dd913a0-fd4c-43f1-b4f3-f0d48537bce8","{""part"":""2"",""participantId"":""652E2912D9864C77972E4D7C9FE2EE5F"",""assignmentId"":""25220bd4-858e-452a-9f5d-d8eca7b21c5e"",""projectId"":""2dd913a0-fd4c-43f1-b4f3-f0d48537bce8""}","https://test12345.live/?part=2&participantId=652E2912D9864C77972E4D7C9FE2EE5F&assignmentId=25220bd4-858e-452a-9f5d-d8eca7b21c5e&projectId=2dd913a0-fd4c-43f1-b4f3-f0d48537bce8","652E2912D9864C77972E4D7C9FE2EE5F-2025-05-15-21-43-05","","null","","images/semantic_sequence/visiting_cities_semantic/visiting_cities_semantic_0.png","null","",""
"","","","","","html-audio-response","48","955035","0.0-46.0","652E2912D9864C77972E4D7C9FE2EE5F","652E2912D9864C77972E4D7C9FE2EE5F","25220bd4-858e-452a-9f5d-d8eca7b21c5e","2dd913a0-fd4c-43f1-b4f3-f0d48537bce8","{""part"":""2"",""participantId"":""652E2912D9864C77972E4D7C9FE2EE5F"",""assignmentId"":""25220bd4-858e-452a-9f5d-d8eca7b21c5e"",""projectId"":""2dd913a0-fd4c-43f1-b4f3-f0d48537bce8""}","https://test12345.live/?part=2&participantId=652E2912D9864C77972E4D7C9FE2EE5F&assignmentId=25220bd4-858e-452a-9f5d-d8eca7b21c5e&projectId=2dd913a0-fd4c-43f1-b4f3-f0d48537bce8","652E2912D9864C77972E4D7C9FE2EE5F-2025-05-15-21-43-05","","4748","","[""<span style=\""color: red; font-size: 24px\""> NOW RECORDING</span><p>Please say out loud all the images you saw in part 1 of the experiment, as many as you can remember. The images can be said in any order.</p>""]","","2","visiting_cities_semantic"
"","","","","","image-button-response","49","961038","0.0-47.0-0.0","652E2912D9864C77972E4D7C9FE2EE5F","652E2912D9864C77972E4D7C9FE2EE5F","25220bd4-858e-452a-9f5d-d8eca7b21c5e","2dd913a0-fd4c-43f1-b4f3-f0d48537bce8","{""part"":""2"",""participantId"":""652E2912D9864C77972E4D7C9FE2EE5F"",""assignmentId"":""25220bd4-858e-452a-9f5d-d8eca7b21c5e"",""projectId"":""2dd913a0-fd4c-43f1-b4f3-f0d48537bce8""}","https://test12345.live/?part=2&participantId=652E2912D9864C77972E4D7C9FE2EE5F&assignmentId=25220bd4-858e-452a-9f5d-d8eca7b21c5e&projectId=2dd913a0-fd4c-43f1-b4f3-f0d48537bce8","652E2912D9864C77972E4D7C9FE2EE5F-2025-05-15-21-43-05","","null","","images/semantic_sequence/creative_activities_semantic/creative_activities_semantic_0.png","null","",""
"","","","","","html-audio-response","50","977415","0.0-48.0","652E2912D9864C77972E4D7C9FE2EE5F","652E2912D9864C77972E4D7C9FE2EE5F","25220bd4-858e-452a-9f5d-d8eca7b21c5e","2dd913a0-fd4c-43f1-b4f3-f0d48537bce8","{""part"":""2"",""participantId"":""652E2912D9864C77972E4D7C9FE2EE5F"",""assignmentId"":""25220bd4-858e-452a-9f5d-d8eca7b21c5e"",""projectId"":""2dd913a0-fd4c-43f1-b4f3-f0d48537bce8""}","https://test12345.live/?part=2&participantId=652E2912D9864C77972E4D7C9FE2EE5F&assignmentId=25220bd4-858e-452a-9f5d-d8eca7b21c5e&projectId=2dd913a0-fd4c-43f1-b4f3-f0d48537bce8","652E2912D9864C77972E4D7C9FE2EE5F-2025-05-15-21-43-05","","14728","","[""<span style=\""color: red; font-size: 24px\""> NOW RECORDING</span><p>Please say out loud all the images you saw in part 1 of the experiment, as many as you can remember. The images can be said in any order.</p>""]","","2","creative_activities_semantic"
"","","","","","image-button-response","51","983421","0.0-49.0-0.0","652E2912D9864C77972E4D7C9FE2EE5F","652E2912D9864C77972E4D7C9FE2EE5F","25220bd4-858e-452a-9f5d-d8eca7b21c5e","2dd913a0-fd4c-43f1-b4f3-f0d48537bce8","{""part"":""2"",""participantId"":""652E2912D9864C77972E4D7C9FE2EE5F"",""assignmentId"":""25220bd4-858e-452a-9f5d-d8eca7b21c5e"",""projectId"":""2dd913a0-fd4c-43f1-b4f3-f0d48537bce8""}","https://test12345.live/?part=2&participantId=652E2912D9864C77972E4D7C9FE2EE5F&assignmentId=25220bd4-858e-452a-9f5d-d8eca7b21c5e&projectId=2dd913a0-fd4c-43f1-b4f3-f0d48537bce8","652E2912D9864C77972E4D7C9FE2EE5F-2025-05-15-21-43-05","","null","","images/semantic_sequence/housework_semantic/housework_semantic_0.png","null","",""
"","","","","","html-audio-response","52","995671","0.0-50.0","652E2912D9864C77972E4D7C9FE2EE5F","652E2912D9864C77972E4D7C9FE2EE5F","25220bd4-858e-452a-9f5d-d8eca7b21c5e","2dd913a0-fd4c-43f1-b4f3-f0d48537bce8","{""part"":""2"",""participantId"":""652E2912D9864C77972E4D7C9FE2EE5F"",""assignmentId"":""25220bd4-858e-452a-9f5d-d8eca7b21c5e"",""projectId"":""2dd913a0-fd4c-43f1-b4f3-f0d48537bce8""}","https://test12345.live/?part=2&participantId=652E2912D9864C77972E4D7C9FE2EE5F&assignmentId=25220bd4-858e-452a-9f5d-d8eca7b21c5e&projectId=2dd913a0-fd4c-43f1-b4f3-f0d48537bce8","652E2912D9864C77972E4D7C9FE2EE5F-2025-05-15-21-43-05","","9909","","[""<span style=\""color: red; font-size: 24px\""> NOW RECORDING</span><p>Please say out loud all the images you saw in part 1 of the experiment, as many as you can remember. The images can be said in any order.</p>""]","","1","housework_semantic"
"","","","","","image-button-response","53","1001675","0.0-51.0-0.0","652E2912D9864C77972E4D7C9FE2EE5F","652E2912D9864C77972E4D7C9FE2EE5F","25220bd4-858e-452a-9f5d-d8eca7b21c5e","2dd913a0-fd4c-43f1-b4f3-f0d48537bce8","{""part"":""2"",""participantId"":""652E2912D9864C77972E4D7C9FE2EE5F"",""assignmentId"":""25220bd4-858e-452a-9f5d-d8eca7b21c5e"",""projectId"":""2dd913a0-fd4c-43f1-b4f3-f0d48537bce8""}","https://test12345.live/?part=2&participantId=652E2912D9864C77972E4D7C9FE2EE5F&assignmentId=25220bd4-858e-452a-9f5d-d8eca7b21c5e&projectId=2dd913a0-fd4c-43f1-b4f3-f0d48537bce8","652E2912D9864C77972E4D7C9FE2EE5F-2025-05-15-21-43-05","","null","","images/causal_sequence/package_causal/package_causal_0.png","null","",""
"","","","","","html-audio-response","54","1020685","0.0-52.0","652E2912D9864C77972E4D7C9FE2EE5F","652E2912D9864C77972E4D7C9FE2EE5F","25220bd4-858e-452a-9f5d-d8eca7b21c5e","2dd913a0-fd4c-43f1-b4f3-f0d48537bce8","{""part"":""2"",""participantId"":""652E2912D9864C77972E4D7C9FE2EE5F"",""assignmentId"":""25220bd4-858e-452a-9f5d-d8eca7b21c5e"",""projectId"":""2dd913a0-fd4c-43f1-b4f3-f0d48537bce8""}","https://test12345.live/?part=2&participantId=652E2912D9864C77972E4D7C9FE2EE5F&assignmentId=25220bd4-858e-452a-9f5d-d8eca7b21c5e&projectId=2dd913a0-fd4c-43f1-b4f3-f0d48537bce8","652E2912D9864C77972E4D7C9FE2EE5F-2025-05-15-21-43-05","","13496","","[""<span style=\""color: red; font-size: 24px\""> NOW RECORDING</span><p>Please say out loud all the images you saw in part 1 of the experiment, as many as you can remember. The images can be said in any order.</p>""]","","2","package_causal"
"","","","","","image-button-response","55","1026690","0.0-53.0-0.0","652E2912D9864C77972E4D7C9FE2EE5F","652E2912D9864C77972E4D7C9FE2EE5F","25220bd4-858e-452a-9f5d-d8eca7b21c5e","2dd913a0-fd4c-43f1-b4f3-f0d48537bce8","{""part"":""2"",""participantId"":""652E2912D9864C77972E4D7C9FE2EE5F"",""assignmentId"":""25220bd4-858e-452a-9f5d-d8eca7b21c5e"",""projectId"":""2dd913a0-fd4c-43f1-b4f3-f0d48537bce8""}","https://test12345.live/?part=2&participantId=652E2912D9864C77972E4D7C9FE2EE5F&assignmentId=25220bd4-858e-452a-9f5d-d8eca7b21c5e&projectId=2dd913a0-fd4c-43f1-b4f3-f0d48537bce8","652E2912D9864C77972E4D7C9FE2EE5F-2025-05-15-21-43-05","","null","","images/semantic_sequence/redecorating_semantic/redecorating_semantic_0.png","null","",""
"","","","","","html-audio-response","56","1061427","0.0-54.0","652E2912D9864C77972E4D7C9FE2EE5F","652E2912D9864C77972E4D7C9FE2EE5F","25220bd4-858e-452a-9f5d-d8eca7b21c5e","2dd913a0-fd4c-43f1-b4f3-f0d48537bce8","{""part"":""2"",""participantId"":""652E2912D9864C77972E4D7C9FE2EE5F"",""assignmentId"":""25220bd4-858e-452a-9f5d-d8eca7b21c5e"",""projectId"":""2dd913a0-fd4c-43f1-b4f3-f0d48537bce8""}","https://test12345.live/?part=2&participantId=652E2912D9864C77972E4D7C9FE2EE5F&assignmentId=25220bd4-858e-452a-9f5d-d8eca7b21c5e&projectId=2dd913a0-fd4c-43f1-b4f3-f0d48537bce8","652E2912D9864C77972E4D7C9FE2EE5F-2025-05-15-21-43-05","","9084","","[""<span style=\""color: red; font-size: 24px\""> NOW RECORDING</span><p>Please say out loud all the images you saw in part 1 of the experiment, as many as you can remember. The images can be said in any order.</p>""]","","2","redecorating_semantic"
"","","","","","image-button-response","57","1067431","0.0-55.0-0.0","652E2912D9864C77972E4D7C9FE2EE5F","652E2912D9864C77972E4D7C9FE2EE5F","25220bd4-858e-452a-9f5d-d8eca7b21c5e","2dd913a0-fd4c-43f1-b4f3-f0d48537bce8","{""part"":""2"",""participantId"":""652E2912D9864C77972E4D7C9FE2EE5F"",""assignmentId"":""25220bd4-858e-452a-9f5d-d8eca7b21c5e"",""projectId"":""2dd913a0-fd4c-43f1-b4f3-f0d48537bce8""}","https://test12345.live/?part=2&participantId=652E2912D9864C77972E4D7C9FE2EE5F&assignmentId=25220bd4-858e-452a-9f5d-d8eca7b21c5e&projectId=2dd913a0-fd4c-43f1-b4f3-f0d48537bce8","652E2912D9864C77972E4D7C9FE2EE5F-2025-05-15-21-43-05","","null","","images/semantic_sequence/exploring_nature_semantic/exploring_nature_semantic_0.png","null","",""
"","","","","","html-audio-response","58","1080800","0.0-56.0","652E2912D9864C77972E4D7C9FE2EE5F","652E2912D9864C77972E4D7C9FE2EE5F","25220bd4-858e-452a-9f5d-d8eca7b21c5e","2dd913a0-fd4c-43f1-b4f3-f0d48537bce8","{""part"":""2"",""participantId"":""652E2912D9864C77972E4D7C9FE2EE5F"",""assignmentId"":""25220bd4-858e-452a-9f5d-d8eca7b21c5e"",""projectId"":""2dd913a0-fd4c-43f1-b4f3-f0d48537bce8""}","https://test12345.live/?part=2&participantId=652E2912D9864C77972E4D7C9FE2EE5F&assignmentId=25220bd4-858e-452a-9f5d-d8eca7b21c5e&projectId=2dd913a0-fd4c-43f1-b4f3-f0d48537bce8","652E2912D9864C77972E4D7C9FE2EE5F-2025-05-15-21-43-05","","8220","","[""<span style=\""color: red; font-size: 24px\""> NOW RECORDING</span><p>Please say out loud all the images you saw in part 1 of the experiment, as many as you can remember. The images can be said in any order.</p>""]","","2","exploring_nature_semantic"
"","","","","","survey-text","59","1092310","0.0-57.0","652E2912D9864C77972E4D7C9FE2EE5F","652E2912D9864C77972E4D7C9FE2EE5F","25220bd4-858e-452a-9f5d-d8eca7b21c5e","2dd913a0-fd4c-43f1-b4f3-f0d48537bce8","{""part"":""2"",""participantId"":""652E2912D9864C77972E4D7C9FE2EE5F"",""assignmentId"":""25220bd4-858e-452a-9f5d-d8eca7b21c5e"",""projectId"":""2dd913a0-fd4c-43f1-b4f3-f0d48537bce8""}","https://test12345.live/?part=2&participantId=652E2912D9864C77972E4D7C9FE2EE5F&assignmentId=25220bd4-858e-452a-9f5d-d8eca7b21c5e&projectId=2dd913a0-fd4c-43f1-b4f3-f0d48537bce8","652E2912D9864C77972E4D7C9FE2EE5F-2025-05-15-21-43-05","","11505","","","{""Q0"":""Male"",""Q1"":""32""}","",""
"","","","","","instructions","60","1104602","0.0-58.0","652E2912D9864C77972E4D7C9FE2EE5F","652E2912D9864C77972E4D7C9FE2EE5F","25220bd4-858e-452a-9f5d-d8eca7b21c5e","2dd913a0-fd4c-43f1-b4f3-f0d48537bce8","{""part"":""2"",""participantId"":""652E2912D9864C77972E4D7C9FE2EE5F"",""assignmentId"":""25220bd4-858e-452a-9f5d-d8eca7b21c5e"",""projectId"":""2dd913a0-fd4c-43f1-b4f3-f0d48537bce8""}","https://test12345.live/?part=2&participantId=652E2912D9864C77972E4D7C9FE2EE5F&assignmentId=25220bd4-858e-452a-9f5d-d8eca7b21c5e&projectId=2dd913a0-fd4c-43f1-b4f3-f0d48537bce8","652E2912D9864C77972E4D7C9FE2EE5F-2025-05-15-21-43-05","[{""page_index"":0,""viewing_time"":12291}]","12291","","","","",""
"","","","","","survey-text","61","1109774","0.0-59.0","652E2912D9864C77972E4D7C9FE2EE5F","652E2912D9864C77972E4D7C9FE2EE5F","25220bd4-858e-452a-9f5d-d8eca7b21c5e","2dd913a0-fd4c-43f1-b4f3-f0d48537bce8","{""part"":""2"",""participantId"":""652E2912D9864C77972E4D7C9FE2EE5F"",""assignmentId"":""25220bd4-858e-452a-9f5d-d8eca7b21c5e"",""projectId"":""2dd913a0-fd4c-43f1-b4f3-f0d48537bce8""}","https://test12345.live/?part=2&participantId=652E2912D9864C77972E4D7C9FE2EE5F&assignmentId=25220bd4-858e-452a-9f5d-d8eca7b21c5e&projectId=2dd913a0-fd4c-43f1-b4f3-f0d48537bce8","652E2912D9864C77972E4D7C9FE2EE5F-2025-05-15-21-43-05","","5170","","","{""Q0"":""AJFHBG896""}","",""
