"success","timeout","failed_images","failed_audio","failed_video","trial_type","trial_index","time_elapsed","internal_node_id","subject","subject_id","study_id","session_id","urlvar","current_url","audio_id","view_history","rt","device_id","stimulus","response","estimated_stimulus_onset","seq_name"
"true","false","[]","[]","[]","preload","0","16","0.0-0.0","688BAD21A190420FBC93CC5669EF6F25","688BAD21A190420FBC93CC5669EF6F25","19def6f0-4d4d-4a66-a879-961e84d5bb1a","a647230e-5c99-4b66-bf2f-966bf482667d","{""part"":""2"",""participantId"":""688BAD21A190420FBC93CC5669EF6F25"",""assignmentId"":""19def6f0-4d4d-4a66-a879-961e84d5bb1a"",""projectId"":""a647230e-5c99-4b66-bf2f-966bf482667d""}","https://test12345.live/?part=2&participantId=688BAD21A190420FBC93CC5669EF6F25&assignmentId=19def6f0-4d4d-4a66-a879-961e84d5bb1a&projectId=a647230e-5c99-4b66-bf2f-966bf482667d","688BAD21A190420FBC93CC5669EF6F25-2025-05-16-15-30-56","","","","","","",""
"","","","","","instructions","1","13568","0.0-1.0","688BAD21A190420FBC93CC5669EF6F25","688BAD21A190420FBC93CC5669EF6F25","19def6f0-4d4d-4a66-a879-961e84d5bb1a","a647230e-5c99-4b66-bf2f-966bf482667d","{""part"":""2"",""participantId"":""688BAD21A190420FBC93CC5669EF6F25"",""assignmentId"":""19def6f0-4d4d-4a66-a879-961e84d5bb1a"",""projectId"":""a647230e-5c99-4b66-bf2f-966bf482667d""}","https://test12345.live/?part=2&participantId=688BAD21A190420FBC93CC5669EF6F25&assignmentId=19def6f0-4d4d-4a66-a879-961e84d5bb1a&projectId=a647230e-5c99-4b66-bf2f-966bf482667d","688BAD21A190420FBC93CC5669EF6F25-2025-05-16-15-30-56","[{""page_index"":0,""viewing_time"":13552}]","13552","","","","",""
"","","","","","instructions","2","18970","0.0-2.0","688BAD21A190420FBC93CC5669EF6F25","688BAD21A190420FBC93CC5669EF6F25","19def6f0-4d4d-4a66-a879-961e84d5bb1a","a647230e-5c99-4b66-bf2f-966bf482667d","{""part"":""2"",""participantId"":""688BAD21A190420FBC93CC5669EF6F25"",""assignmentId"":""19def6f0-4d4d-4a66-a879-961e84d5bb1a"",""projectId"":""a647230e-5c99-4b66-bf2f-966bf482667d""}","https://test12345.live/?part=2&participantId=688BAD21A190420FBC93CC5669EF6F25&assignmentId=19def6f0-4d4d-4a66-a879-961e84d5bb1a&projectId=a647230e-5c99-4b66-bf2f-966bf482667d","688BAD21A190420FBC93CC5669EF6F25-2025-05-16-15-30-56","[{""page_index"":0,""viewing_time"":5402}]","5402","","","","",""
"true","","","","","fullscreen","3","21299","0.0-3.0","688BAD21A190420FBC93CC5669EF6F25","688BAD21A190420FBC93CC5669EF6F25","19def6f0-4d4d-4a66-a879-961e84d5bb1a","a647230e-5c99-4b66-bf2f-966bf482667d","{""part"":""2"",""participantId"":""688BAD21A190420FBC93CC5669EF6F25"",""assignmentId"":""19def6f0-4d4d-4a66-a879-961e84d5bb1a"",""projectId"":""a647230e-5c99-4b66-bf2f-966bf482667d""}","https://test12345.live/?part=2&participantId=688BAD21A190420FBC93CC5669EF6F25&assignmentId=19def6f0-4d4d-4a66-a879-961e84d5bb1a&projectId=a647230e-5c99-4b66-bf2f-966bf482667d","688BAD21A190420FBC93CC5669EF6F25-2025-05-16-15-30-56","","1327","","","","",""
"","","","","","initialize-microphone","4","23401","0.0-4.0-0.0","688BAD21A190420FBC93CC5669EF6F25","688BAD21A190420FBC93CC5669EF6F25","19def6f0-4d4d-4a66-a879-961e84d5bb1a","a647230e-5c99-4b66-bf2f-966bf482667d","{""part"":""2"",""participantId"":""688BAD21A190420FBC93CC5669EF6F25"",""assignmentId"":""19def6f0-4d4d-4a66-a879-961e84d5bb1a"",""projectId"":""a647230e-5c99-4b66-bf2f-966bf482667d""}","https://test12345.live/?part=2&participantId=688BAD21A190420FBC93CC5669EF6F25&assignmentId=19def6f0-4d4d-4a66-a879-961e84d5bb1a&projectId=a647230e-5c99-4b66-bf2f-966bf482667d","688BAD21A190420FBC93CC5669EF6F25-2025-05-16-15-30-56","","","50286b6061b84ae52c84b5f6100aa4d4dd3a06f201b3a9cc47ea091a7c597f25","","","",""
"","","","","","html-audio-response","5","25927","0.0-4.0-1.0","688BAD21A190420FBC93CC5669EF6F25","688BAD21A190420FBC93CC5669EF6F25","19def6f0-4d4d-4a66-a879-961e84d5bb1a","a647230e-5c99-4b66-bf2f-966bf482667d","{""part"":""2"",""participantId"":""688BAD21A190420FBC93CC5669EF6F25"",""assignmentId"":""19def6f0-4d4d-4a66-a879-961e84d5bb1a"",""projectId"":""a647230e-5c99-4b66-bf2f-966bf482667d""}","https://test12345.live/?part=2&participantId=688BAD21A190420FBC93CC5669EF6F25&assignmentId=19def6f0-4d4d-4a66-a879-961e84d5bb1a&projectId=a647230e-5c99-4b66-bf2f-966bf482667d","688BAD21A190420FBC93CC5669EF6F25-2025-05-16-15-30-56","","883","","<span style=""color: red; font-size: 24px""> NOW RECORDING</span>
        <p>Please test Microphone</p>","","2",""
"","","","","","html-button-response","6","26899","0.0-4.0-2.0","688BAD21A190420FBC93CC5669EF6F25","688BAD21A190420FBC93CC5669EF6F25","19def6f0-4d4d-4a66-a879-961e84d5bb1a","a647230e-5c99-4b66-bf2f-966bf482667d","{""part"":""2"",""participantId"":""688BAD21A190420FBC93CC5669EF6F25"",""assignmentId"":""19def6f0-4d4d-4a66-a879-961e84d5bb1a"",""projectId"":""a647230e-5c99-4b66-bf2f-966bf482667d""}","https://test12345.live/?part=2&participantId=688BAD21A190420FBC93CC5669EF6F25&assignmentId=19def6f0-4d4d-4a66-a879-961e84d5bb1a&projectId=a647230e-5c99-4b66-bf2f-966bf482667d","688BAD21A190420FBC93CC5669EF6F25-2025-05-16-15-30-56","","972","","<p style=""font-size:48px; color:red;"">Is Microphone OK?</p>","1","",""
"","","","","","instructions","7","30754","0.0-5.0","688BAD21A190420FBC93CC5669EF6F25","688BAD21A190420FBC93CC5669EF6F25","19def6f0-4d4d-4a66-a879-961e84d5bb1a","a647230e-5c99-4b66-bf2f-966bf482667d","{""part"":""2"",""participantId"":""688BAD21A190420FBC93CC5669EF6F25"",""assignmentId"":""19def6f0-4d4d-4a66-a879-961e84d5bb1a"",""projectId"":""a647230e-5c99-4b66-bf2f-966bf482667d""}","https://test12345.live/?part=2&participantId=688BAD21A190420FBC93CC5669EF6F25&assignmentId=19def6f0-4d4d-4a66-a879-961e84d5bb1a&projectId=a647230e-5c99-4b66-bf2f-966bf482667d","688BAD21A190420FBC93CC5669EF6F25-2025-05-16-15-30-56","[{""page_index"":0,""viewing_time"":940},{""page_index"":1,""viewing_time"":1615},{""page_index"":2,""viewing_time"":1299}]","3855","","","","",""
"","","","","","image-button-response","8","36763","0.0-6.0-0.0","688BAD21A190420FBC93CC5669EF6F25","688BAD21A190420FBC93CC5669EF6F25","19def6f0-4d4d-4a66-a879-961e84d5bb1a","a647230e-5c99-4b66-bf2f-966bf482667d","{""part"":""2"",""participantId"":""688BAD21A190420FBC93CC5669EF6F25"",""assignmentId"":""19def6f0-4d4d-4a66-a879-961e84d5bb1a"",""projectId"":""a647230e-5c99-4b66-bf2f-966bf482667d""}","https://test12345.live/?part=2&participantId=688BAD21A190420FBC93CC5669EF6F25&assignmentId=19def6f0-4d4d-4a66-a879-961e84d5bb1a&projectId=a647230e-5c99-4b66-bf2f-966bf482667d","688BAD21A190420FBC93CC5669EF6F25-2025-05-16-15-30-56","","null","","images/instructions/movie_0.png","null","",""
"","","","","","html-audio-response","9","49564","0.0-7.0","688BAD21A190420FBC93CC5669EF6F25","688BAD21A190420FBC93CC5669EF6F25","19def6f0-4d4d-4a66-a879-961e84d5bb1a","a647230e-5c99-4b66-bf2f-966bf482667d","{""part"":""2"",""participantId"":""688BAD21A190420FBC93CC5669EF6F25"",""assignmentId"":""19def6f0-4d4d-4a66-a879-961e84d5bb1a"",""projectId"":""a647230e-5c99-4b66-bf2f-966bf482667d""}","https://test12345.live/?part=2&participantId=688BAD21A190420FBC93CC5669EF6F25&assignmentId=19def6f0-4d4d-4a66-a879-961e84d5bb1a&projectId=a647230e-5c99-4b66-bf2f-966bf482667d","688BAD21A190420FBC93CC5669EF6F25-2025-05-16-15-30-56","","11640","","[""<span style=\""color: red; font-size: 24px\""> NOW RECORDING</span><p>Please say out loud all the images you saw in part 1 of the experiment, as many as you can remember. The images can be said in any order.</p>""]","","2",""
"","","","","","instructions","10","50474","0.0-8.0","688BAD21A190420FBC93CC5669EF6F25","688BAD21A190420FBC93CC5669EF6F25","19def6f0-4d4d-4a66-a879-961e84d5bb1a","a647230e-5c99-4b66-bf2f-966bf482667d","{""part"":""2"",""participantId"":""688BAD21A190420FBC93CC5669EF6F25"",""assignmentId"":""19def6f0-4d4d-4a66-a879-961e84d5bb1a"",""projectId"":""a647230e-5c99-4b66-bf2f-966bf482667d""}","https://test12345.live/?part=2&participantId=688BAD21A190420FBC93CC5669EF6F25&assignmentId=19def6f0-4d4d-4a66-a879-961e84d5bb1a&projectId=a647230e-5c99-4b66-bf2f-966bf482667d","688BAD21A190420FBC93CC5669EF6F25-2025-05-16-15-30-56","[{""page_index"":0,""viewing_time"":908}]","908","","","","",""
"","","","","","image-button-response","11","56486","0.0-9.0-0.0","688BAD21A190420FBC93CC5669EF6F25","688BAD21A190420FBC93CC5669EF6F25","19def6f0-4d4d-4a66-a879-961e84d5bb1a","a647230e-5c99-4b66-bf2f-966bf482667d","{""part"":""2"",""participantId"":""688BAD21A190420FBC93CC5669EF6F25"",""assignmentId"":""19def6f0-4d4d-4a66-a879-961e84d5bb1a"",""projectId"":""a647230e-5c99-4b66-bf2f-966bf482667d""}","https://test12345.live/?part=2&participantId=688BAD21A190420FBC93CC5669EF6F25&assignmentId=19def6f0-4d4d-4a66-a879-961e84d5bb1a&projectId=a647230e-5c99-4b66-bf2f-966bf482667d","688BAD21A190420FBC93CC5669EF6F25-2025-05-16-15-30-56","","null","","images/causal_sequence/dog_causal/dog_causal_0.png","null","",""
"","","","","","html-audio-response","12","77744","0.0-10.0","688BAD21A190420FBC93CC5669EF6F25","688BAD21A190420FBC93CC5669EF6F25","19def6f0-4d4d-4a66-a879-961e84d5bb1a","a647230e-5c99-4b66-bf2f-966bf482667d","{""part"":""2"",""participantId"":""688BAD21A190420FBC93CC5669EF6F25"",""assignmentId"":""19def6f0-4d4d-4a66-a879-961e84d5bb1a"",""projectId"":""a647230e-5c99-4b66-bf2f-966bf482667d""}","https://test12345.live/?part=2&participantId=688BAD21A190420FBC93CC5669EF6F25&assignmentId=19def6f0-4d4d-4a66-a879-961e84d5bb1a&projectId=a647230e-5c99-4b66-bf2f-966bf482667d","688BAD21A190420FBC93CC5669EF6F25-2025-05-16-15-30-56","","20283","","[""<span style=\""color: red; font-size: 24px\""> NOW RECORDING</span><p>Please say out loud all the images you saw in part 1 of the experiment, as many as you can remember. The images can be said in any order.</p>""]","","1","dog_causal"
"","","","","","image-button-response","13","83749","0.0-11.0-0.0","688BAD21A190420FBC93CC5669EF6F25","688BAD21A190420FBC93CC5669EF6F25","19def6f0-4d4d-4a66-a879-961e84d5bb1a","a647230e-5c99-4b66-bf2f-966bf482667d","{""part"":""2"",""participantId"":""688BAD21A190420FBC93CC5669EF6F25"",""assignmentId"":""19def6f0-4d4d-4a66-a879-961e84d5bb1a"",""projectId"":""a647230e-5c99-4b66-bf2f-966bf482667d""}","https://test12345.live/?part=2&participantId=688BAD21A190420FBC93CC5669EF6F25&assignmentId=19def6f0-4d4d-4a66-a879-961e84d5bb1a&projectId=a647230e-5c99-4b66-bf2f-966bf482667d","688BAD21A190420FBC93CC5669EF6F25-2025-05-16-15-30-56","","null","","images/schematic_sequence/dinner_party_scheme/dinner_party_scheme_0.png","null","",""
"","","","","","html-audio-response","14","111725","0.0-12.0","688BAD21A190420FBC93CC5669EF6F25","688BAD21A190420FBC93CC5669EF6F25","19def6f0-4d4d-4a66-a879-961e84d5bb1a","a647230e-5c99-4b66-bf2f-966bf482667d","{""part"":""2"",""participantId"":""688BAD21A190420FBC93CC5669EF6F25"",""assignmentId"":""19def6f0-4d4d-4a66-a879-961e84d5bb1a"",""projectId"":""a647230e-5c99-4b66-bf2f-966bf482667d""}","https://test12345.live/?part=2&participantId=688BAD21A190420FBC93CC5669EF6F25&assignmentId=19def6f0-4d4d-4a66-a879-961e84d5bb1a&projectId=a647230e-5c99-4b66-bf2f-966bf482667d","688BAD21A190420FBC93CC5669EF6F25-2025-05-16-15-30-56","","18733","","[""<span style=\""color: red; font-size: 24px\""> NOW RECORDING</span><p>Please say out loud all the images you saw in part 1 of the experiment, as many as you can remember. The images can be said in any order.</p>""]","","3","dinner_party_scheme"
"","","","","","image-button-response","15","117731","0.0-13.0-0.0","688BAD21A190420FBC93CC5669EF6F25","688BAD21A190420FBC93CC5669EF6F25","19def6f0-4d4d-4a66-a879-961e84d5bb1a","a647230e-5c99-4b66-bf2f-966bf482667d","{""part"":""2"",""participantId"":""688BAD21A190420FBC93CC5669EF6F25"",""assignmentId"":""19def6f0-4d4d-4a66-a879-961e84d5bb1a"",""projectId"":""a647230e-5c99-4b66-bf2f-966bf482667d""}","https://test12345.live/?part=2&participantId=688BAD21A190420FBC93CC5669EF6F25&assignmentId=19def6f0-4d4d-4a66-a879-961e84d5bb1a&projectId=a647230e-5c99-4b66-bf2f-966bf482667d","688BAD21A190420FBC93CC5669EF6F25-2025-05-16-15-30-56","","null","","images/schematic_sequence/restaurant_scheme/restaurant_scheme_0.png","null","",""
"","","","","","html-audio-response","16","138761","0.0-14.0","688BAD21A190420FBC93CC5669EF6F25","688BAD21A190420FBC93CC5669EF6F25","19def6f0-4d4d-4a66-a879-961e84d5bb1a","a647230e-5c99-4b66-bf2f-966bf482667d","{""part"":""2"",""participantId"":""688BAD21A190420FBC93CC5669EF6F25"",""assignmentId"":""19def6f0-4d4d-4a66-a879-961e84d5bb1a"",""projectId"":""a647230e-5c99-4b66-bf2f-966bf482667d""}","https://test12345.live/?part=2&participantId=688BAD21A190420FBC93CC5669EF6F25&assignmentId=19def6f0-4d4d-4a66-a879-961e84d5bb1a&projectId=a647230e-5c99-4b66-bf2f-966bf482667d","688BAD21A190420FBC93CC5669EF6F25-2025-05-16-15-30-56","","20232","","[""<span style=\""color: red; font-size: 24px\""> NOW RECORDING</span><p>Please say out loud all the images you saw in part 1 of the experiment, as many as you can remember. The images can be said in any order.</p>""]","","1","restaurant_scheme"
"","","","","","image-button-response","17","144781","0.0-15.0-0.0","688BAD21A190420FBC93CC5669EF6F25","688BAD21A190420FBC93CC5669EF6F25","19def6f0-4d4d-4a66-a879-961e84d5bb1a","a647230e-5c99-4b66-bf2f-966bf482667d","{""part"":""2"",""participantId"":""688BAD21A190420FBC93CC5669EF6F25"",""assignmentId"":""19def6f0-4d4d-4a66-a879-961e84d5bb1a"",""projectId"":""a647230e-5c99-4b66-bf2f-966bf482667d""}","https://test12345.live/?part=2&participantId=688BAD21A190420FBC93CC5669EF6F25&assignmentId=19def6f0-4d4d-4a66-a879-961e84d5bb1a&projectId=a647230e-5c99-4b66-bf2f-966bf482667d","688BAD21A190420FBC93CC5669EF6F25-2025-05-16-15-30-56","","null","","images/semantic_sequence/physical_activity_semantic/physical_activity_semantic_0.png","null","",""
"","","","","","html-audio-response","18","164891","0.0-16.0","688BAD21A190420FBC93CC5669EF6F25","688BAD21A190420FBC93CC5669EF6F25","19def6f0-4d4d-4a66-a879-961e84d5bb1a","a647230e-5c99-4b66-bf2f-966bf482667d","{""part"":""2"",""participantId"":""688BAD21A190420FBC93CC5669EF6F25"",""assignmentId"":""19def6f0-4d4d-4a66-a879-961e84d5bb1a"",""projectId"":""a647230e-5c99-4b66-bf2f-966bf482667d""}","https://test12345.live/?part=2&participantId=688BAD21A190420FBC93CC5669EF6F25&assignmentId=19def6f0-4d4d-4a66-a879-961e84d5bb1a&projectId=a647230e-5c99-4b66-bf2f-966bf482667d","688BAD21A190420FBC93CC5669EF6F25-2025-05-16-15-30-56","","12330","","[""<span style=\""color: red; font-size: 24px\""> NOW RECORDING</span><p>Please say out loud all the images you saw in part 1 of the experiment, as many as you can remember. The images can be said in any order.</p>""]","","1","physical_activity_semantic"
"","","","","","image-button-response","19","170905","0.0-17.0-0.0","688BAD21A190420FBC93CC5669EF6F25","688BAD21A190420FBC93CC5669EF6F25","19def6f0-4d4d-4a66-a879-961e84d5bb1a","a647230e-5c99-4b66-bf2f-966bf482667d","{""part"":""2"",""participantId"":""688BAD21A190420FBC93CC5669EF6F25"",""assignmentId"":""19def6f0-4d4d-4a66-a879-961e84d5bb1a"",""projectId"":""a647230e-5c99-4b66-bf2f-966bf482667d""}","https://test12345.live/?part=2&participantId=688BAD21A190420FBC93CC5669EF6F25&assignmentId=19def6f0-4d4d-4a66-a879-961e84d5bb1a&projectId=a647230e-5c99-4b66-bf2f-966bf482667d","688BAD21A190420FBC93CC5669EF6F25-2025-05-16-15-30-56","","null","","images/semantic_sequence/redecorating_semantic/redecorating_semantic_0.png","null","",""
"","","","","","html-audio-response","20","184834","0.0-18.0","688BAD21A190420FBC93CC5669EF6F25","688BAD21A190420FBC93CC5669EF6F25","19def6f0-4d4d-4a66-a879-961e84d5bb1a","a647230e-5c99-4b66-bf2f-966bf482667d","{""part"":""2"",""participantId"":""688BAD21A190420FBC93CC5669EF6F25"",""assignmentId"":""19def6f0-4d4d-4a66-a879-961e84d5bb1a"",""projectId"":""a647230e-5c99-4b66-bf2f-966bf482667d""}","https://test12345.live/?part=2&participantId=688BAD21A190420FBC93CC5669EF6F25&assignmentId=19def6f0-4d4d-4a66-a879-961e84d5bb1a&projectId=a647230e-5c99-4b66-bf2f-966bf482667d","688BAD21A190420FBC93CC5669EF6F25-2025-05-16-15-30-56","","13033","","[""<span style=\""color: red; font-size: 24px\""> NOW RECORDING</span><p>Please say out loud all the images you saw in part 1 of the experiment, as many as you can remember. The images can be said in any order.</p>""]","","1","redecorating_semantic"
"","","","","","image-button-response","21","190845","0.0-19.0-0.0","688BAD21A190420FBC93CC5669EF6F25","688BAD21A190420FBC93CC5669EF6F25","19def6f0-4d4d-4a66-a879-961e84d5bb1a","a647230e-5c99-4b66-bf2f-966bf482667d","{""part"":""2"",""participantId"":""688BAD21A190420FBC93CC5669EF6F25"",""assignmentId"":""19def6f0-4d4d-4a66-a879-961e84d5bb1a"",""projectId"":""a647230e-5c99-4b66-bf2f-966bf482667d""}","https://test12345.live/?part=2&participantId=688BAD21A190420FBC93CC5669EF6F25&assignmentId=19def6f0-4d4d-4a66-a879-961e84d5bb1a&projectId=a647230e-5c99-4b66-bf2f-966bf482667d","688BAD21A190420FBC93CC5669EF6F25-2025-05-16-15-30-56","","null","","images/semantic_sequence/maintaining_a_car_semantic/maintaining_a_car_semantic_0.png","null","",""
"","","","","","html-audio-response","22","209868","0.0-20.0","688BAD21A190420FBC93CC5669EF6F25","688BAD21A190420FBC93CC5669EF6F25","19def6f0-4d4d-4a66-a879-961e84d5bb1a","a647230e-5c99-4b66-bf2f-966bf482667d","{""part"":""2"",""participantId"":""688BAD21A190420FBC93CC5669EF6F25"",""assignmentId"":""19def6f0-4d4d-4a66-a879-961e84d5bb1a"",""projectId"":""a647230e-5c99-4b66-bf2f-966bf482667d""}","https://test12345.live/?part=2&participantId=688BAD21A190420FBC93CC5669EF6F25&assignmentId=19def6f0-4d4d-4a66-a879-961e84d5bb1a&projectId=a647230e-5c99-4b66-bf2f-966bf482667d","688BAD21A190420FBC93CC5669EF6F25-2025-05-16-15-30-56","","17499","","[""<span style=\""color: red; font-size: 24px\""> NOW RECORDING</span><p>Please say out loud all the images you saw in part 1 of the experiment, as many as you can remember. The images can be said in any order.</p>""]","","1","maintaining_a_car_semantic"
"","","","","","image-button-response","23","215880","0.0-21.0-0.0","688BAD21A190420FBC93CC5669EF6F25","688BAD21A190420FBC93CC5669EF6F25","19def6f0-4d4d-4a66-a879-961e84d5bb1a","a647230e-5c99-4b66-bf2f-966bf482667d","{""part"":""2"",""participantId"":""688BAD21A190420FBC93CC5669EF6F25"",""assignmentId"":""19def6f0-4d4d-4a66-a879-961e84d5bb1a"",""projectId"":""a647230e-5c99-4b66-bf2f-966bf482667d""}","https://test12345.live/?part=2&participantId=688BAD21A190420FBC93CC5669EF6F25&assignmentId=19def6f0-4d4d-4a66-a879-961e84d5bb1a&projectId=a647230e-5c99-4b66-bf2f-966bf482667d","688BAD21A190420FBC93CC5669EF6F25-2025-05-16-15-30-56","","null","","images/schematic_sequence/hotel_scheme/hotel_scheme_0.png","null","",""
"","","","","","html-audio-response","24","234713","0.0-22.0","688BAD21A190420FBC93CC5669EF6F25","688BAD21A190420FBC93CC5669EF6F25","19def6f0-4d4d-4a66-a879-961e84d5bb1a","a647230e-5c99-4b66-bf2f-966bf482667d","{""part"":""2"",""participantId"":""688BAD21A190420FBC93CC5669EF6F25"",""assignmentId"":""19def6f0-4d4d-4a66-a879-961e84d5bb1a"",""projectId"":""a647230e-5c99-4b66-bf2f-966bf482667d""}","https://test12345.live/?part=2&participantId=688BAD21A190420FBC93CC5669EF6F25&assignmentId=19def6f0-4d4d-4a66-a879-961e84d5bb1a&projectId=a647230e-5c99-4b66-bf2f-966bf482667d","688BAD21A190420FBC93CC5669EF6F25-2025-05-16-15-30-56","","17913","","[""<span style=\""color: red; font-size: 24px\""> NOW RECORDING</span><p>Please say out loud all the images you saw in part 1 of the experiment, as many as you can remember. The images can be said in any order.</p>""]","","1","hotel_scheme"
"","","","","","image-button-response","25","240729","0.0-23.0-0.0","688BAD21A190420FBC93CC5669EF6F25","688BAD21A190420FBC93CC5669EF6F25","19def6f0-4d4d-4a66-a879-961e84d5bb1a","a647230e-5c99-4b66-bf2f-966bf482667d","{""part"":""2"",""participantId"":""688BAD21A190420FBC93CC5669EF6F25"",""assignmentId"":""19def6f0-4d4d-4a66-a879-961e84d5bb1a"",""projectId"":""a647230e-5c99-4b66-bf2f-966bf482667d""}","https://test12345.live/?part=2&participantId=688BAD21A190420FBC93CC5669EF6F25&assignmentId=19def6f0-4d4d-4a66-a879-961e84d5bb1a&projectId=a647230e-5c99-4b66-bf2f-966bf482667d","688BAD21A190420FBC93CC5669EF6F25-2025-05-16-15-30-56","","null","","images/schematic_sequence/flight_scheme/flight_scheme_0.png","null","",""
"","","","","","html-audio-response","26","273602","0.0-24.0","688BAD21A190420FBC93CC5669EF6F25","688BAD21A190420FBC93CC5669EF6F25","19def6f0-4d4d-4a66-a879-961e84d5bb1a","a647230e-5c99-4b66-bf2f-966bf482667d","{""part"":""2"",""participantId"":""688BAD21A190420FBC93CC5669EF6F25"",""assignmentId"":""19def6f0-4d4d-4a66-a879-961e84d5bb1a"",""projectId"":""a647230e-5c99-4b66-bf2f-966bf482667d""}","https://test12345.live/?part=2&participantId=688BAD21A190420FBC93CC5669EF6F25&assignmentId=19def6f0-4d4d-4a66-a879-961e84d5bb1a&projectId=a647230e-5c99-4b66-bf2f-966bf482667d","688BAD21A190420FBC93CC5669EF6F25-2025-05-16-15-30-56","","31359","","[""<span style=\""color: red; font-size: 24px\""> NOW RECORDING</span><p>Please say out loud all the images you saw in part 1 of the experiment, as many as you can remember. The images can be said in any order.</p>""]","","1","flight_scheme"
"","","","","","image-button-response","27","279613","0.0-25.0-0.0","688BAD21A190420FBC93CC5669EF6F25","688BAD21A190420FBC93CC5669EF6F25","19def6f0-4d4d-4a66-a879-961e84d5bb1a","a647230e-5c99-4b66-bf2f-966bf482667d","{""part"":""2"",""participantId"":""688BAD21A190420FBC93CC5669EF6F25"",""assignmentId"":""19def6f0-4d4d-4a66-a879-961e84d5bb1a"",""projectId"":""a647230e-5c99-4b66-bf2f-966bf482667d""}","https://test12345.live/?part=2&participantId=688BAD21A190420FBC93CC5669EF6F25&assignmentId=19def6f0-4d4d-4a66-a879-961e84d5bb1a&projectId=a647230e-5c99-4b66-bf2f-966bf482667d","688BAD21A190420FBC93CC5669EF6F25-2025-05-16-15-30-56","","null","","images/semantic_sequence/exploring_nature_semantic/exploring_nature_semantic_0.png","null","",""
"","","","","","html-audio-response","28","297875","0.0-26.0","688BAD21A190420FBC93CC5669EF6F25","688BAD21A190420FBC93CC5669EF6F25","19def6f0-4d4d-4a66-a879-961e84d5bb1a","a647230e-5c99-4b66-bf2f-966bf482667d","{""part"":""2"",""participantId"":""688BAD21A190420FBC93CC5669EF6F25"",""assignmentId"":""19def6f0-4d4d-4a66-a879-961e84d5bb1a"",""projectId"":""a647230e-5c99-4b66-bf2f-966bf482667d""}","https://test12345.live/?part=2&participantId=688BAD21A190420FBC93CC5669EF6F25&assignmentId=19def6f0-4d4d-4a66-a879-961e84d5bb1a&projectId=a647230e-5c99-4b66-bf2f-966bf482667d","688BAD21A190420FBC93CC5669EF6F25-2025-05-16-15-30-56","","16367","","[""<span style=\""color: red; font-size: 24px\""> NOW RECORDING</span><p>Please say out loud all the images you saw in part 1 of the experiment, as many as you can remember. The images can be said in any order.</p>""]","","1","exploring_nature_semantic"
"","","","","","image-button-response","29","303894","0.0-27.0-0.0","688BAD21A190420FBC93CC5669EF6F25","688BAD21A190420FBC93CC5669EF6F25","19def6f0-4d4d-4a66-a879-961e84d5bb1a","a647230e-5c99-4b66-bf2f-966bf482667d","{""part"":""2"",""participantId"":""688BAD21A190420FBC93CC5669EF6F25"",""assignmentId"":""19def6f0-4d4d-4a66-a879-961e84d5bb1a"",""projectId"":""a647230e-5c99-4b66-bf2f-966bf482667d""}","https://test12345.live/?part=2&participantId=688BAD21A190420FBC93CC5669EF6F25&assignmentId=19def6f0-4d4d-4a66-a879-961e84d5bb1a&projectId=a647230e-5c99-4b66-bf2f-966bf482667d","688BAD21A190420FBC93CC5669EF6F25-2025-05-16-15-30-56","","null","","images/semantic_sequence/cat_care_semantic/cat_care_semantic_0.png","null","",""
"","","","","","html-audio-response","30","319622","0.0-28.0","688BAD21A190420FBC93CC5669EF6F25","688BAD21A190420FBC93CC5669EF6F25","19def6f0-4d4d-4a66-a879-961e84d5bb1a","a647230e-5c99-4b66-bf2f-966bf482667d","{""part"":""2"",""participantId"":""688BAD21A190420FBC93CC5669EF6F25"",""assignmentId"":""19def6f0-4d4d-4a66-a879-961e84d5bb1a"",""projectId"":""a647230e-5c99-4b66-bf2f-966bf482667d""}","https://test12345.live/?part=2&participantId=688BAD21A190420FBC93CC5669EF6F25&assignmentId=19def6f0-4d4d-4a66-a879-961e84d5bb1a&projectId=a647230e-5c99-4b66-bf2f-966bf482667d","688BAD21A190420FBC93CC5669EF6F25-2025-05-16-15-30-56","","14036","","[""<span style=\""color: red; font-size: 24px\""> NOW RECORDING</span><p>Please say out loud all the images you saw in part 1 of the experiment, as many as you can remember. The images can be said in any order.</p>""]","","1","cat_care_semantic"
"","","","","","image-button-response","31","325630","0.0-29.0-0.0","688BAD21A190420FBC93CC5669EF6F25","688BAD21A190420FBC93CC5669EF6F25","19def6f0-4d4d-4a66-a879-961e84d5bb1a","a647230e-5c99-4b66-bf2f-966bf482667d","{""part"":""2"",""participantId"":""688BAD21A190420FBC93CC5669EF6F25"",""assignmentId"":""19def6f0-4d4d-4a66-a879-961e84d5bb1a"",""projectId"":""a647230e-5c99-4b66-bf2f-966bf482667d""}","https://test12345.live/?part=2&participantId=688BAD21A190420FBC93CC5669EF6F25&assignmentId=19def6f0-4d4d-4a66-a879-961e84d5bb1a&projectId=a647230e-5c99-4b66-bf2f-966bf482667d","688BAD21A190420FBC93CC5669EF6F25-2025-05-16-15-30-56","","null","","images/causal_sequence/the_performance_causal/the_performance_causal_0.png","null","",""
"","","","","","html-audio-response","32","346307","0.0-30.0","688BAD21A190420FBC93CC5669EF6F25","688BAD21A190420FBC93CC5669EF6F25","19def6f0-4d4d-4a66-a879-961e84d5bb1a","a647230e-5c99-4b66-bf2f-966bf482667d","{""part"":""2"",""participantId"":""688BAD21A190420FBC93CC5669EF6F25"",""assignmentId"":""19def6f0-4d4d-4a66-a879-961e84d5bb1a"",""projectId"":""a647230e-5c99-4b66-bf2f-966bf482667d""}","https://test12345.live/?part=2&participantId=688BAD21A190420FBC93CC5669EF6F25&assignmentId=19def6f0-4d4d-4a66-a879-961e84d5bb1a&projectId=a647230e-5c99-4b66-bf2f-966bf482667d","688BAD21A190420FBC93CC5669EF6F25-2025-05-16-15-30-56","","19656","","[""<span style=\""color: red; font-size: 24px\""> NOW RECORDING</span><p>Please say out loud all the images you saw in part 1 of the experiment, as many as you can remember. The images can be said in any order.</p>""]","","1","the_performance_causal"
"","","","","","image-button-response","33","352321","0.0-31.0-0.0","688BAD21A190420FBC93CC5669EF6F25","688BAD21A190420FBC93CC5669EF6F25","19def6f0-4d4d-4a66-a879-961e84d5bb1a","a647230e-5c99-4b66-bf2f-966bf482667d","{""part"":""2"",""participantId"":""688BAD21A190420FBC93CC5669EF6F25"",""assignmentId"":""19def6f0-4d4d-4a66-a879-961e84d5bb1a"",""projectId"":""a647230e-5c99-4b66-bf2f-966bf482667d""}","https://test12345.live/?part=2&participantId=688BAD21A190420FBC93CC5669EF6F25&assignmentId=19def6f0-4d4d-4a66-a879-961e84d5bb1a&projectId=a647230e-5c99-4b66-bf2f-966bf482667d","688BAD21A190420FBC93CC5669EF6F25-2025-05-16-15-30-56","","null","","images/causal_sequence/saving_a_cat_causal/saving_a_cat_causal_0.png","null","",""
"","","","","","html-audio-response","34","373900","0.0-32.0","688BAD21A190420FBC93CC5669EF6F25","688BAD21A190420FBC93CC5669EF6F25","19def6f0-4d4d-4a66-a879-961e84d5bb1a","a647230e-5c99-4b66-bf2f-966bf482667d","{""part"":""2"",""participantId"":""688BAD21A190420FBC93CC5669EF6F25"",""assignmentId"":""19def6f0-4d4d-4a66-a879-961e84d5bb1a"",""projectId"":""a647230e-5c99-4b66-bf2f-966bf482667d""}","https://test12345.live/?part=2&participantId=688BAD21A190420FBC93CC5669EF6F25&assignmentId=19def6f0-4d4d-4a66-a879-961e84d5bb1a&projectId=a647230e-5c99-4b66-bf2f-966bf482667d","688BAD21A190420FBC93CC5669EF6F25-2025-05-16-15-30-56","","20120","","[""<span style=\""color: red; font-size: 24px\""> NOW RECORDING</span><p>Please say out loud all the images you saw in part 1 of the experiment, as many as you can remember. The images can be said in any order.</p>""]","","1","saving_a_cat_causal"
"","","","","","image-button-response","35","379917","0.0-33.0-0.0","688BAD21A190420FBC93CC5669EF6F25","688BAD21A190420FBC93CC5669EF6F25","19def6f0-4d4d-4a66-a879-961e84d5bb1a","a647230e-5c99-4b66-bf2f-966bf482667d","{""part"":""2"",""participantId"":""688BAD21A190420FBC93CC5669EF6F25"",""assignmentId"":""19def6f0-4d4d-4a66-a879-961e84d5bb1a"",""projectId"":""a647230e-5c99-4b66-bf2f-966bf482667d""}","https://test12345.live/?part=2&participantId=688BAD21A190420FBC93CC5669EF6F25&assignmentId=19def6f0-4d4d-4a66-a879-961e84d5bb1a&projectId=a647230e-5c99-4b66-bf2f-966bf482667d","688BAD21A190420FBC93CC5669EF6F25-2025-05-16-15-30-56","","null","","images/semantic_sequence/self_care_activities_semantic/self_care_activities_semantic_0.png","null","",""
"","","","","","html-audio-response","36","396762","0.0-34.0","688BAD21A190420FBC93CC5669EF6F25","688BAD21A190420FBC93CC5669EF6F25","19def6f0-4d4d-4a66-a879-961e84d5bb1a","a647230e-5c99-4b66-bf2f-966bf482667d","{""part"":""2"",""participantId"":""688BAD21A190420FBC93CC5669EF6F25"",""assignmentId"":""19def6f0-4d4d-4a66-a879-961e84d5bb1a"",""projectId"":""a647230e-5c99-4b66-bf2f-966bf482667d""}","https://test12345.live/?part=2&participantId=688BAD21A190420FBC93CC5669EF6F25&assignmentId=19def6f0-4d4d-4a66-a879-961e84d5bb1a&projectId=a647230e-5c99-4b66-bf2f-966bf482667d","688BAD21A190420FBC93CC5669EF6F25-2025-05-16-15-30-56","","15649","","[""<span style=\""color: red; font-size: 24px\""> NOW RECORDING</span><p>Please say out loud all the images you saw in part 1 of the experiment, as many as you can remember. The images can be said in any order.</p>""]","","1","self_care_activities_semantic"
"","","","","","image-button-response","37","402773","0.0-35.0-0.0","688BAD21A190420FBC93CC5669EF6F25","688BAD21A190420FBC93CC5669EF6F25","19def6f0-4d4d-4a66-a879-961e84d5bb1a","a647230e-5c99-4b66-bf2f-966bf482667d","{""part"":""2"",""participantId"":""688BAD21A190420FBC93CC5669EF6F25"",""assignmentId"":""19def6f0-4d4d-4a66-a879-961e84d5bb1a"",""projectId"":""a647230e-5c99-4b66-bf2f-966bf482667d""}","https://test12345.live/?part=2&participantId=688BAD21A190420FBC93CC5669EF6F25&assignmentId=19def6f0-4d4d-4a66-a879-961e84d5bb1a&projectId=a647230e-5c99-4b66-bf2f-966bf482667d","688BAD21A190420FBC93CC5669EF6F25-2025-05-16-15-30-56","","null","","images/causal_sequence/package_causal/package_causal_0.png","null","",""
"","","","","","html-audio-response","38","426749","0.0-36.0","688BAD21A190420FBC93CC5669EF6F25","688BAD21A190420FBC93CC5669EF6F25","19def6f0-4d4d-4a66-a879-961e84d5bb1a","a647230e-5c99-4b66-bf2f-966bf482667d","{""part"":""2"",""participantId"":""688BAD21A190420FBC93CC5669EF6F25"",""assignmentId"":""19def6f0-4d4d-4a66-a879-961e84d5bb1a"",""projectId"":""a647230e-5c99-4b66-bf2f-966bf482667d""}","https://test12345.live/?part=2&participantId=688BAD21A190420FBC93CC5669EF6F25&assignmentId=19def6f0-4d4d-4a66-a879-961e84d5bb1a&projectId=a647230e-5c99-4b66-bf2f-966bf482667d","688BAD21A190420FBC93CC5669EF6F25-2025-05-16-15-30-56","","22995","","[""<span style=\""color: red; font-size: 24px\""> NOW RECORDING</span><p>Please say out loud all the images you saw in part 1 of the experiment, as many as you can remember. The images can be said in any order.</p>""]","","1","package_causal"
"","","","","","image-button-response","39","432761","0.0-37.0-0.0","688BAD21A190420FBC93CC5669EF6F25","688BAD21A190420FBC93CC5669EF6F25","19def6f0-4d4d-4a66-a879-961e84d5bb1a","a647230e-5c99-4b66-bf2f-966bf482667d","{""part"":""2"",""participantId"":""688BAD21A190420FBC93CC5669EF6F25"",""assignmentId"":""19def6f0-4d4d-4a66-a879-961e84d5bb1a"",""projectId"":""a647230e-5c99-4b66-bf2f-966bf482667d""}","https://test12345.live/?part=2&participantId=688BAD21A190420FBC93CC5669EF6F25&assignmentId=19def6f0-4d4d-4a66-a879-961e84d5bb1a&projectId=a647230e-5c99-4b66-bf2f-966bf482667d","688BAD21A190420FBC93CC5669EF6F25-2025-05-16-15-30-56","","null","","images/semantic_sequence/using_technology_semantic/using_technology_semantic_0.png","null","",""
"","","","","","html-audio-response","40","447507","0.0-38.0","688BAD21A190420FBC93CC5669EF6F25","688BAD21A190420FBC93CC5669EF6F25","19def6f0-4d4d-4a66-a879-961e84d5bb1a","a647230e-5c99-4b66-bf2f-966bf482667d","{""part"":""2"",""participantId"":""688BAD21A190420FBC93CC5669EF6F25"",""assignmentId"":""19def6f0-4d4d-4a66-a879-961e84d5bb1a"",""projectId"":""a647230e-5c99-4b66-bf2f-966bf482667d""}","https://test12345.live/?part=2&participantId=688BAD21A190420FBC93CC5669EF6F25&assignmentId=19def6f0-4d4d-4a66-a879-961e84d5bb1a&projectId=a647230e-5c99-4b66-bf2f-966bf482667d","688BAD21A190420FBC93CC5669EF6F25-2025-05-16-15-30-56","","13753","","[""<span style=\""color: red; font-size: 24px\""> NOW RECORDING</span><p>Please say out loud all the images you saw in part 1 of the experiment, as many as you can remember. The images can be said in any order.</p>""]","","2","using_technology_semantic"
"","","","","","image-button-response","41","453522","0.0-39.0-0.0","688BAD21A190420FBC93CC5669EF6F25","688BAD21A190420FBC93CC5669EF6F25","19def6f0-4d4d-4a66-a879-961e84d5bb1a","a647230e-5c99-4b66-bf2f-966bf482667d","{""part"":""2"",""participantId"":""688BAD21A190420FBC93CC5669EF6F25"",""assignmentId"":""19def6f0-4d4d-4a66-a879-961e84d5bb1a"",""projectId"":""a647230e-5c99-4b66-bf2f-966bf482667d""}","https://test12345.live/?part=2&participantId=688BAD21A190420FBC93CC5669EF6F25&assignmentId=19def6f0-4d4d-4a66-a879-961e84d5bb1a&projectId=a647230e-5c99-4b66-bf2f-966bf482667d","688BAD21A190420FBC93CC5669EF6F25-2025-05-16-15-30-56","","null","","images/semantic_sequence/creative_activities_semantic/creative_activities_semantic_0.png","null","",""
"","","","","","html-audio-response","42","472987","0.0-40.0","688BAD21A190420FBC93CC5669EF6F25","688BAD21A190420FBC93CC5669EF6F25","19def6f0-4d4d-4a66-a879-961e84d5bb1a","a647230e-5c99-4b66-bf2f-966bf482667d","{""part"":""2"",""participantId"":""688BAD21A190420FBC93CC5669EF6F25"",""assignmentId"":""19def6f0-4d4d-4a66-a879-961e84d5bb1a"",""projectId"":""a647230e-5c99-4b66-bf2f-966bf482667d""}","https://test12345.live/?part=2&participantId=688BAD21A190420FBC93CC5669EF6F25&assignmentId=19def6f0-4d4d-4a66-a879-961e84d5bb1a&projectId=a647230e-5c99-4b66-bf2f-966bf482667d","688BAD21A190420FBC93CC5669EF6F25-2025-05-16-15-30-56","","14635","","[""<span style=\""color: red; font-size: 24px\""> NOW RECORDING</span><p>Please say out loud all the images you saw in part 1 of the experiment, as many as you can remember. The images can be said in any order.</p>""]","","1","creative_activities_semantic"
"","","","","","image-button-response","43","479002","0.0-41.0-0.0","688BAD21A190420FBC93CC5669EF6F25","688BAD21A190420FBC93CC5669EF6F25","19def6f0-4d4d-4a66-a879-961e84d5bb1a","a647230e-5c99-4b66-bf2f-966bf482667d","{""part"":""2"",""participantId"":""688BAD21A190420FBC93CC5669EF6F25"",""assignmentId"":""19def6f0-4d4d-4a66-a879-961e84d5bb1a"",""projectId"":""a647230e-5c99-4b66-bf2f-966bf482667d""}","https://test12345.live/?part=2&participantId=688BAD21A190420FBC93CC5669EF6F25&assignmentId=19def6f0-4d4d-4a66-a879-961e84d5bb1a&projectId=a647230e-5c99-4b66-bf2f-966bf482667d","688BAD21A190420FBC93CC5669EF6F25-2025-05-16-15-30-56","","null","","images/semantic_sequence/visiting_cities_semantic/visiting_cities_semantic_0.png","null","",""
"","","","","","html-audio-response","44","492988","0.0-42.0","688BAD21A190420FBC93CC5669EF6F25","688BAD21A190420FBC93CC5669EF6F25","19def6f0-4d4d-4a66-a879-961e84d5bb1a","a647230e-5c99-4b66-bf2f-966bf482667d","{""part"":""2"",""participantId"":""688BAD21A190420FBC93CC5669EF6F25"",""assignmentId"":""19def6f0-4d4d-4a66-a879-961e84d5bb1a"",""projectId"":""a647230e-5c99-4b66-bf2f-966bf482667d""}","https://test12345.live/?part=2&participantId=688BAD21A190420FBC93CC5669EF6F25&assignmentId=19def6f0-4d4d-4a66-a879-961e84d5bb1a&projectId=a647230e-5c99-4b66-bf2f-966bf482667d","688BAD21A190420FBC93CC5669EF6F25-2025-05-16-15-30-56","","12809","","[""<span style=\""color: red; font-size: 24px\""> NOW RECORDING</span><p>Please say out loud all the images you saw in part 1 of the experiment, as many as you can remember. The images can be said in any order.</p>""]","","1","visiting_cities_semantic"
"","","","","","image-button-response","45","499003","0.0-43.0-0.0","688BAD21A190420FBC93CC5669EF6F25","688BAD21A190420FBC93CC5669EF6F25","19def6f0-4d4d-4a66-a879-961e84d5bb1a","a647230e-5c99-4b66-bf2f-966bf482667d","{""part"":""2"",""participantId"":""688BAD21A190420FBC93CC5669EF6F25"",""assignmentId"":""19def6f0-4d4d-4a66-a879-961e84d5bb1a"",""projectId"":""a647230e-5c99-4b66-bf2f-966bf482667d""}","https://test12345.live/?part=2&participantId=688BAD21A190420FBC93CC5669EF6F25&assignmentId=19def6f0-4d4d-4a66-a879-961e84d5bb1a&projectId=a647230e-5c99-4b66-bf2f-966bf482667d","688BAD21A190420FBC93CC5669EF6F25-2025-05-16-15-30-56","","null","","images/semantic_sequence/market_semantic/market_semantic_0.png","null","",""
"","","","","","html-audio-response","46","519032","0.0-44.0","688BAD21A190420FBC93CC5669EF6F25","688BAD21A190420FBC93CC5669EF6F25","19def6f0-4d4d-4a66-a879-961e84d5bb1a","a647230e-5c99-4b66-bf2f-966bf482667d","{""part"":""2"",""participantId"":""688BAD21A190420FBC93CC5669EF6F25"",""assignmentId"":""19def6f0-4d4d-4a66-a879-961e84d5bb1a"",""projectId"":""a647230e-5c99-4b66-bf2f-966bf482667d""}","https://test12345.live/?part=2&participantId=688BAD21A190420FBC93CC5669EF6F25&assignmentId=19def6f0-4d4d-4a66-a879-961e84d5bb1a&projectId=a647230e-5c99-4b66-bf2f-966bf482667d","688BAD21A190420FBC93CC5669EF6F25-2025-05-16-15-30-56","","19035","","[""<span style=\""color: red; font-size: 24px\""> NOW RECORDING</span><p>Please say out loud all the images you saw in part 1 of the experiment, as many as you can remember. The images can be said in any order.</p>""]","","1","market_semantic"
"","","","","","image-button-response","47","525051","0.0-45.0-0.0","688BAD21A190420FBC93CC5669EF6F25","688BAD21A190420FBC93CC5669EF6F25","19def6f0-4d4d-4a66-a879-961e84d5bb1a","a647230e-5c99-4b66-bf2f-966bf482667d","{""part"":""2"",""participantId"":""688BAD21A190420FBC93CC5669EF6F25"",""assignmentId"":""19def6f0-4d4d-4a66-a879-961e84d5bb1a"",""projectId"":""a647230e-5c99-4b66-bf2f-966bf482667d""}","https://test12345.live/?part=2&participantId=688BAD21A190420FBC93CC5669EF6F25&assignmentId=19def6f0-4d4d-4a66-a879-961e84d5bb1a&projectId=a647230e-5c99-4b66-bf2f-966bf482667d","688BAD21A190420FBC93CC5669EF6F25-2025-05-16-15-30-56","","null","","images/semantic_sequence/kitchen_operations_semantic/kitchen_operations_semantic_0.png","null","",""
"","","","","","html-audio-response","48","551654","0.0-46.0","688BAD21A190420FBC93CC5669EF6F25","688BAD21A190420FBC93CC5669EF6F25","19def6f0-4d4d-4a66-a879-961e84d5bb1a","a647230e-5c99-4b66-bf2f-966bf482667d","{""part"":""2"",""participantId"":""688BAD21A190420FBC93CC5669EF6F25"",""assignmentId"":""19def6f0-4d4d-4a66-a879-961e84d5bb1a"",""projectId"":""a647230e-5c99-4b66-bf2f-966bf482667d""}","https://test12345.live/?part=2&participantId=688BAD21A190420FBC93CC5669EF6F25&assignmentId=19def6f0-4d4d-4a66-a879-961e84d5bb1a&projectId=a647230e-5c99-4b66-bf2f-966bf482667d","688BAD21A190420FBC93CC5669EF6F25-2025-05-16-15-30-56","","24993","","[""<span style=\""color: red; font-size: 24px\""> NOW RECORDING</span><p>Please say out loud all the images you saw in part 1 of the experiment, as many as you can remember. The images can be said in any order.</p>""]","","1","kitchen_operations_semantic"
"","","","","","image-button-response","49","557665","0.0-47.0-0.0","688BAD21A190420FBC93CC5669EF6F25","688BAD21A190420FBC93CC5669EF6F25","19def6f0-4d4d-4a66-a879-961e84d5bb1a","a647230e-5c99-4b66-bf2f-966bf482667d","{""part"":""2"",""participantId"":""688BAD21A190420FBC93CC5669EF6F25"",""assignmentId"":""19def6f0-4d4d-4a66-a879-961e84d5bb1a"",""projectId"":""a647230e-5c99-4b66-bf2f-966bf482667d""}","https://test12345.live/?part=2&participantId=688BAD21A190420FBC93CC5669EF6F25&assignmentId=19def6f0-4d4d-4a66-a879-961e84d5bb1a&projectId=a647230e-5c99-4b66-bf2f-966bf482667d","688BAD21A190420FBC93CC5669EF6F25-2025-05-16-15-30-56","","null","","images/causal_sequence/coin_causal/coin_causal_0.png","null","",""
"","","","","","html-audio-response","50","581288","0.0-48.0","688BAD21A190420FBC93CC5669EF6F25","688BAD21A190420FBC93CC5669EF6F25","19def6f0-4d4d-4a66-a879-961e84d5bb1a","a647230e-5c99-4b66-bf2f-966bf482667d","{""part"":""2"",""participantId"":""688BAD21A190420FBC93CC5669EF6F25"",""assignmentId"":""19def6f0-4d4d-4a66-a879-961e84d5bb1a"",""projectId"":""a647230e-5c99-4b66-bf2f-966bf482667d""}","https://test12345.live/?part=2&participantId=688BAD21A190420FBC93CC5669EF6F25&assignmentId=19def6f0-4d4d-4a66-a879-961e84d5bb1a&projectId=a647230e-5c99-4b66-bf2f-966bf482667d","688BAD21A190420FBC93CC5669EF6F25-2025-05-16-15-30-56","","22482","","[""<span style=\""color: red; font-size: 24px\""> NOW RECORDING</span><p>Please say out loud all the images you saw in part 1 of the experiment, as many as you can remember. The images can be said in any order.</p>""]","","1","coin_causal"
"","","","","","image-button-response","51","587297","0.0-49.0-0.0","688BAD21A190420FBC93CC5669EF6F25","688BAD21A190420FBC93CC5669EF6F25","19def6f0-4d4d-4a66-a879-961e84d5bb1a","a647230e-5c99-4b66-bf2f-966bf482667d","{""part"":""2"",""participantId"":""688BAD21A190420FBC93CC5669EF6F25"",""assignmentId"":""19def6f0-4d4d-4a66-a879-961e84d5bb1a"",""projectId"":""a647230e-5c99-4b66-bf2f-966bf482667d""}","https://test12345.live/?part=2&participantId=688BAD21A190420FBC93CC5669EF6F25&assignmentId=19def6f0-4d4d-4a66-a879-961e84d5bb1a&projectId=a647230e-5c99-4b66-bf2f-966bf482667d","688BAD21A190420FBC93CC5669EF6F25-2025-05-16-15-30-56","","null","","images/semantic_sequence/housework_semantic/housework_semantic_0.png","null","",""
"","","","","","html-audio-response","52","613233","0.0-50.0","688BAD21A190420FBC93CC5669EF6F25","688BAD21A190420FBC93CC5669EF6F25","19def6f0-4d4d-4a66-a879-961e84d5bb1a","a647230e-5c99-4b66-bf2f-966bf482667d","{""part"":""2"",""participantId"":""688BAD21A190420FBC93CC5669EF6F25"",""assignmentId"":""19def6f0-4d4d-4a66-a879-961e84d5bb1a"",""projectId"":""a647230e-5c99-4b66-bf2f-966bf482667d""}","https://test12345.live/?part=2&participantId=688BAD21A190420FBC93CC5669EF6F25&assignmentId=19def6f0-4d4d-4a66-a879-961e84d5bb1a&projectId=a647230e-5c99-4b66-bf2f-966bf482667d","688BAD21A190420FBC93CC5669EF6F25-2025-05-16-15-30-56","","24565","","[""<span style=\""color: red; font-size: 24px\""> NOW RECORDING</span><p>Please say out loud all the images you saw in part 1 of the experiment, as many as you can remember. The images can be said in any order.</p>""]","","1","housework_semantic"
"","","","","","image-button-response","53","619242","0.0-51.0-0.0","688BAD21A190420FBC93CC5669EF6F25","688BAD21A190420FBC93CC5669EF6F25","19def6f0-4d4d-4a66-a879-961e84d5bb1a","a647230e-5c99-4b66-bf2f-966bf482667d","{""part"":""2"",""participantId"":""688BAD21A190420FBC93CC5669EF6F25"",""assignmentId"":""19def6f0-4d4d-4a66-a879-961e84d5bb1a"",""projectId"":""a647230e-5c99-4b66-bf2f-966bf482667d""}","https://test12345.live/?part=2&participantId=688BAD21A190420FBC93CC5669EF6F25&assignmentId=19def6f0-4d4d-4a66-a879-961e84d5bb1a&projectId=a647230e-5c99-4b66-bf2f-966bf482667d","688BAD21A190420FBC93CC5669EF6F25-2025-05-16-15-30-56","","null","","images/schematic_sequence/supermarket_scheme/supermarket_scheme_0.png","null","",""
"","","","","","html-audio-response","54","637437","0.0-52.0","688BAD21A190420FBC93CC5669EF6F25","688BAD21A190420FBC93CC5669EF6F25","19def6f0-4d4d-4a66-a879-961e84d5bb1a","a647230e-5c99-4b66-bf2f-966bf482667d","{""part"":""2"",""participantId"":""688BAD21A190420FBC93CC5669EF6F25"",""assignmentId"":""19def6f0-4d4d-4a66-a879-961e84d5bb1a"",""projectId"":""a647230e-5c99-4b66-bf2f-966bf482667d""}","https://test12345.live/?part=2&participantId=688BAD21A190420FBC93CC5669EF6F25&assignmentId=19def6f0-4d4d-4a66-a879-961e84d5bb1a&projectId=a647230e-5c99-4b66-bf2f-966bf482667d","688BAD21A190420FBC93CC5669EF6F25-2025-05-16-15-30-56","","16604","","[""<span style=\""color: red; font-size: 24px\""> NOW RECORDING</span><p>Please say out loud all the images you saw in part 1 of the experiment, as many as you can remember. The images can be said in any order.</p>""]","","1","supermarket_scheme"
"","","","","","image-button-response","55","643446","0.0-53.0-0.0","688BAD21A190420FBC93CC5669EF6F25","688BAD21A190420FBC93CC5669EF6F25","19def6f0-4d4d-4a66-a879-961e84d5bb1a","a647230e-5c99-4b66-bf2f-966bf482667d","{""part"":""2"",""participantId"":""688BAD21A190420FBC93CC5669EF6F25"",""assignmentId"":""19def6f0-4d4d-4a66-a879-961e84d5bb1a"",""projectId"":""a647230e-5c99-4b66-bf2f-966bf482667d""}","https://test12345.live/?part=2&participantId=688BAD21A190420FBC93CC5669EF6F25&assignmentId=19def6f0-4d4d-4a66-a879-961e84d5bb1a&projectId=a647230e-5c99-4b66-bf2f-966bf482667d","688BAD21A190420FBC93CC5669EF6F25-2025-05-16-15-30-56","","null","","images/causal_sequence/museum_causal/museum_causal_0.png","null","",""
"","","","","","html-audio-response","56","673346","0.0-54.0","688BAD21A190420FBC93CC5669EF6F25","688BAD21A190420FBC93CC5669EF6F25","19def6f0-4d4d-4a66-a879-961e84d5bb1a","a647230e-5c99-4b66-bf2f-966bf482667d","{""part"":""2"",""participantId"":""688BAD21A190420FBC93CC5669EF6F25"",""assignmentId"":""19def6f0-4d4d-4a66-a879-961e84d5bb1a"",""projectId"":""a647230e-5c99-4b66-bf2f-966bf482667d""}","https://test12345.live/?part=2&participantId=688BAD21A190420FBC93CC5669EF6F25&assignmentId=19def6f0-4d4d-4a66-a879-961e84d5bb1a&projectId=a647230e-5c99-4b66-bf2f-966bf482667d","688BAD21A190420FBC93CC5669EF6F25-2025-05-16-15-30-56","","28989","","[""<span style=\""color: red; font-size: 24px\""> NOW RECORDING</span><p>Please say out loud all the images you saw in part 1 of the experiment, as many as you can remember. The images can be said in any order.</p>""]","","1","museum_causal"
"","","","","","image-button-response","57","679353","0.0-55.0-0.0","688BAD21A190420FBC93CC5669EF6F25","688BAD21A190420FBC93CC5669EF6F25","19def6f0-4d4d-4a66-a879-961e84d5bb1a","a647230e-5c99-4b66-bf2f-966bf482667d","{""part"":""2"",""participantId"":""688BAD21A190420FBC93CC5669EF6F25"",""assignmentId"":""19def6f0-4d4d-4a66-a879-961e84d5bb1a"",""projectId"":""a647230e-5c99-4b66-bf2f-966bf482667d""}","https://test12345.live/?part=2&participantId=688BAD21A190420FBC93CC5669EF6F25&assignmentId=19def6f0-4d4d-4a66-a879-961e84d5bb1a&projectId=a647230e-5c99-4b66-bf2f-966bf482667d","688BAD21A190420FBC93CC5669EF6F25-2025-05-16-15-30-56","","null","","images/schematic_sequence/interview_scheme/interview_scheme_0.png","null","",""
"","","","","","html-audio-response","58","694643","0.0-56.0","688BAD21A190420FBC93CC5669EF6F25","688BAD21A190420FBC93CC5669EF6F25","19def6f0-4d4d-4a66-a879-961e84d5bb1a","a647230e-5c99-4b66-bf2f-966bf482667d","{""part"":""2"",""participantId"":""688BAD21A190420FBC93CC5669EF6F25"",""assignmentId"":""19def6f0-4d4d-4a66-a879-961e84d5bb1a"",""projectId"":""a647230e-5c99-4b66-bf2f-966bf482667d""}","https://test12345.live/?part=2&participantId=688BAD21A190420FBC93CC5669EF6F25&assignmentId=19def6f0-4d4d-4a66-a879-961e84d5bb1a&projectId=a647230e-5c99-4b66-bf2f-966bf482667d","688BAD21A190420FBC93CC5669EF6F25-2025-05-16-15-30-56","","14896","","[""<span style=\""color: red; font-size: 24px\""> NOW RECORDING</span><p>Please say out loud all the images you saw in part 1 of the experiment, as many as you can remember. The images can be said in any order.</p>""]","","1","interview_scheme"
"","","","","","survey-text","59","700123","0.0-57.0","688BAD21A190420FBC93CC5669EF6F25","688BAD21A190420FBC93CC5669EF6F25","19def6f0-4d4d-4a66-a879-961e84d5bb1a","a647230e-5c99-4b66-bf2f-966bf482667d","{""part"":""2"",""participantId"":""688BAD21A190420FBC93CC5669EF6F25"",""assignmentId"":""19def6f0-4d4d-4a66-a879-961e84d5bb1a"",""projectId"":""a647230e-5c99-4b66-bf2f-966bf482667d""}","https://test12345.live/?part=2&participantId=688BAD21A190420FBC93CC5669EF6F25&assignmentId=19def6f0-4d4d-4a66-a879-961e84d5bb1a&projectId=a647230e-5c99-4b66-bf2f-966bf482667d","688BAD21A190420FBC93CC5669EF6F25-2025-05-16-15-30-56","","5474","","","{""Q0"":""male"",""Q1"":""35""}","",""
"","","","","","instructions","60","704651","0.0-58.0","688BAD21A190420FBC93CC5669EF6F25","688BAD21A190420FBC93CC5669EF6F25","19def6f0-4d4d-4a66-a879-961e84d5bb1a","a647230e-5c99-4b66-bf2f-966bf482667d","{""part"":""2"",""participantId"":""688BAD21A190420FBC93CC5669EF6F25"",""assignmentId"":""19def6f0-4d4d-4a66-a879-961e84d5bb1a"",""projectId"":""a647230e-5c99-4b66-bf2f-966bf482667d""}","https://test12345.live/?part=2&participantId=688BAD21A190420FBC93CC5669EF6F25&assignmentId=19def6f0-4d4d-4a66-a879-961e84d5bb1a&projectId=a647230e-5c99-4b66-bf2f-966bf482667d","688BAD21A190420FBC93CC5669EF6F25-2025-05-16-15-30-56","[{""page_index"":0,""viewing_time"":4527}]","4528","","","","",""
"","","","","","survey-text","61","708265","0.0-59.0","688BAD21A190420FBC93CC5669EF6F25","688BAD21A190420FBC93CC5669EF6F25","19def6f0-4d4d-4a66-a879-961e84d5bb1a","a647230e-5c99-4b66-bf2f-966bf482667d","{""part"":""2"",""participantId"":""688BAD21A190420FBC93CC5669EF6F25"",""assignmentId"":""19def6f0-4d4d-4a66-a879-961e84d5bb1a"",""projectId"":""a647230e-5c99-4b66-bf2f-966bf482667d""}","https://test12345.live/?part=2&participantId=688BAD21A190420FBC93CC5669EF6F25&assignmentId=19def6f0-4d4d-4a66-a879-961e84d5bb1a&projectId=a647230e-5c99-4b66-bf2f-966bf482667d","688BAD21A190420FBC93CC5669EF6F25-2025-05-16-15-30-56","","3614","","","{""Q0"":""AJFHBG896""}","",""
