"success","timeout","failed_images","failed_audio","failed_video","trial_type","trial_index","time_elapsed","internal_node_id","subject","subject_id","study_id","session_id","urlvar","current_url","audio_id","view_history","rt","device_id","stimulus","response","estimated_stimulus_onset","seq_name"
"true","false","[]","[]","[]","preload","0","686","0.0-0.0","6C71201A70B74EBAB5383686320C87A4","6C71201A70B74EBAB5383686320C87A4","166d1019-c492-4d1f-a211-31a51af57be7","2dd913a0-fd4c-43f1-b4f3-f0d48537bce8","{""part"":""2"",""participantId"":""6C71201A70B74EBAB5383686320C87A4"",""assignmentId"":""166d1019-c492-4d1f-a211-31a51af57be7"",""projectId"":""2dd913a0-fd4c-43f1-b4f3-f0d48537bce8""}","https://test12345.live/?part=2&participantId=6C71201A70B74EBAB5383686320C87A4&assignmentId=166d1019-c492-4d1f-a211-31a51af57be7&projectId=2dd913a0-fd4c-43f1-b4f3-f0d48537bce8","6C71201A70B74EBAB5383686320C87A4-2025-05-15-22-20-55","","","","","","",""
"","","","","","instructions","1","48037","0.0-1.0","6C71201A70B74EBAB5383686320C87A4","6C71201A70B74EBAB5383686320C87A4","166d1019-c492-4d1f-a211-31a51af57be7","2dd913a0-fd4c-43f1-b4f3-f0d48537bce8","{""part"":""2"",""participantId"":""6C71201A70B74EBAB5383686320C87A4"",""assignmentId"":""166d1019-c492-4d1f-a211-31a51af57be7"",""projectId"":""2dd913a0-fd4c-43f1-b4f3-f0d48537bce8""}","https://test12345.live/?part=2&participantId=6C71201A70B74EBAB5383686320C87A4&assignmentId=166d1019-c492-4d1f-a211-31a51af57be7&projectId=2dd913a0-fd4c-43f1-b4f3-f0d48537bce8","6C71201A70B74EBAB5383686320C87A4-2025-05-15-22-20-55","[{""page_index"":0,""viewing_time"":47350}]","47351","","","","",""
"","","","","","instructions","2","66816","0.0-2.0","6C71201A70B74EBAB5383686320C87A4","6C71201A70B74EBAB5383686320C87A4","166d1019-c492-4d1f-a211-31a51af57be7","2dd913a0-fd4c-43f1-b4f3-f0d48537bce8","{""part"":""2"",""participantId"":""6C71201A70B74EBAB5383686320C87A4"",""assignmentId"":""166d1019-c492-4d1f-a211-31a51af57be7"",""projectId"":""2dd913a0-fd4c-43f1-b4f3-f0d48537bce8""}","https://test12345.live/?part=2&participantId=6C71201A70B74EBAB5383686320C87A4&assignmentId=166d1019-c492-4d1f-a211-31a51af57be7&projectId=2dd913a0-fd4c-43f1-b4f3-f0d48537bce8","6C71201A70B74EBAB5383686320C87A4-2025-05-15-22-20-55","[{""page_index"":0,""viewing_time"":18779}]","18779","","","","",""
"true","","","","","fullscreen","3","69404","0.0-3.0","6C71201A70B74EBAB5383686320C87A4","6C71201A70B74EBAB5383686320C87A4","166d1019-c492-4d1f-a211-31a51af57be7","2dd913a0-fd4c-43f1-b4f3-f0d48537bce8","{""part"":""2"",""participantId"":""6C71201A70B74EBAB5383686320C87A4"",""assignmentId"":""166d1019-c492-4d1f-a211-31a51af57be7"",""projectId"":""2dd913a0-fd4c-43f1-b4f3-f0d48537bce8""}","https://test12345.live/?part=2&participantId=6C71201A70B74EBAB5383686320C87A4&assignmentId=166d1019-c492-4d1f-a211-31a51af57be7&projectId=2dd913a0-fd4c-43f1-b4f3-f0d48537bce8","6C71201A70B74EBAB5383686320C87A4-2025-05-15-22-20-55","","1584","","","","",""
"","","","","","initialize-microphone","4","73946","0.0-4.0-0.0","6C71201A70B74EBAB5383686320C87A4","6C71201A70B74EBAB5383686320C87A4","166d1019-c492-4d1f-a211-31a51af57be7","2dd913a0-fd4c-43f1-b4f3-f0d48537bce8","{""part"":""2"",""participantId"":""6C71201A70B74EBAB5383686320C87A4"",""assignmentId"":""166d1019-c492-4d1f-a211-31a51af57be7"",""projectId"":""2dd913a0-fd4c-43f1-b4f3-f0d48537bce8""}","https://test12345.live/?part=2&participantId=6C71201A70B74EBAB5383686320C87A4&assignmentId=166d1019-c492-4d1f-a211-31a51af57be7&projectId=2dd913a0-fd4c-43f1-b4f3-f0d48537bce8","6C71201A70B74EBAB5383686320C87A4-2025-05-15-22-20-55","","","71e0a95eeb483b314765a68e13848c2855388b2b1797a55690348e889d691e94","","","",""
"","","","","","html-audio-response","5","97932","0.0-4.0-1.0","6C71201A70B74EBAB5383686320C87A4","6C71201A70B74EBAB5383686320C87A4","166d1019-c492-4d1f-a211-31a51af57be7","2dd913a0-fd4c-43f1-b4f3-f0d48537bce8","{""part"":""2"",""participantId"":""6C71201A70B74EBAB5383686320C87A4"",""assignmentId"":""166d1019-c492-4d1f-a211-31a51af57be7"",""projectId"":""2dd913a0-fd4c-43f1-b4f3-f0d48537bce8""}","https://test12345.live/?part=2&participantId=6C71201A70B74EBAB5383686320C87A4&assignmentId=166d1019-c492-4d1f-a211-31a51af57be7&projectId=2dd913a0-fd4c-43f1-b4f3-f0d48537bce8","6C71201A70B74EBAB5383686320C87A4-2025-05-15-22-20-55","","4717","","<span style=""color: red; font-size: 24px""> NOW RECORDING</span>
        <p>Please test Microphone</p>","","3",""
"","","","","","html-button-response","6","99417","0.0-4.0-2.0","6C71201A70B74EBAB5383686320C87A4","6C71201A70B74EBAB5383686320C87A4","166d1019-c492-4d1f-a211-31a51af57be7","2dd913a0-fd4c-43f1-b4f3-f0d48537bce8","{""part"":""2"",""participantId"":""6C71201A70B74EBAB5383686320C87A4"",""assignmentId"":""166d1019-c492-4d1f-a211-31a51af57be7"",""projectId"":""2dd913a0-fd4c-43f1-b4f3-f0d48537bce8""}","https://test12345.live/?part=2&participantId=6C71201A70B74EBAB5383686320C87A4&assignmentId=166d1019-c492-4d1f-a211-31a51af57be7&projectId=2dd913a0-fd4c-43f1-b4f3-f0d48537bce8","6C71201A70B74EBAB5383686320C87A4-2025-05-15-22-20-55","","1483","","<p style=""font-size:48px; color:red;"">Is Microphone OK?</p>","1","",""
"","","","","","instructions","7","117709","0.0-5.0","6C71201A70B74EBAB5383686320C87A4","6C71201A70B74EBAB5383686320C87A4","166d1019-c492-4d1f-a211-31a51af57be7","2dd913a0-fd4c-43f1-b4f3-f0d48537bce8","{""part"":""2"",""participantId"":""6C71201A70B74EBAB5383686320C87A4"",""assignmentId"":""166d1019-c492-4d1f-a211-31a51af57be7"",""projectId"":""2dd913a0-fd4c-43f1-b4f3-f0d48537bce8""}","https://test12345.live/?part=2&participantId=6C71201A70B74EBAB5383686320C87A4&assignmentId=166d1019-c492-4d1f-a211-31a51af57be7&projectId=2dd913a0-fd4c-43f1-b4f3-f0d48537bce8","6C71201A70B74EBAB5383686320C87A4-2025-05-15-22-20-55","[{""page_index"":0,""viewing_time"":1057},{""page_index"":1,""viewing_time"":7672},{""page_index"":2,""viewing_time"":9562}]","18291","","","","",""
"","","","","","image-button-response","8","123719","0.0-6.0-0.0","6C71201A70B74EBAB5383686320C87A4","6C71201A70B74EBAB5383686320C87A4","166d1019-c492-4d1f-a211-31a51af57be7","2dd913a0-fd4c-43f1-b4f3-f0d48537bce8","{""part"":""2"",""participantId"":""6C71201A70B74EBAB5383686320C87A4"",""assignmentId"":""166d1019-c492-4d1f-a211-31a51af57be7"",""projectId"":""2dd913a0-fd4c-43f1-b4f3-f0d48537bce8""}","https://test12345.live/?part=2&participantId=6C71201A70B74EBAB5383686320C87A4&assignmentId=166d1019-c492-4d1f-a211-31a51af57be7&projectId=2dd913a0-fd4c-43f1-b4f3-f0d48537bce8","6C71201A70B74EBAB5383686320C87A4-2025-05-15-22-20-55","","null","","images/instructions/movie_0.png","null","",""
"","","","","","html-audio-response","9","142884","0.0-7.0","6C71201A70B74EBAB5383686320C87A4","6C71201A70B74EBAB5383686320C87A4","166d1019-c492-4d1f-a211-31a51af57be7","2dd913a0-fd4c-43f1-b4f3-f0d48537bce8","{""part"":""2"",""participantId"":""6C71201A70B74EBAB5383686320C87A4"",""assignmentId"":""166d1019-c492-4d1f-a211-31a51af57be7"",""projectId"":""2dd913a0-fd4c-43f1-b4f3-f0d48537bce8""}","https://test12345.live/?part=2&participantId=6C71201A70B74EBAB5383686320C87A4&assignmentId=166d1019-c492-4d1f-a211-31a51af57be7&projectId=2dd913a0-fd4c-43f1-b4f3-f0d48537bce8","6C71201A70B74EBAB5383686320C87A4-2025-05-15-22-20-55","","14016","","[""<span style=\""color: red; font-size: 24px\""> NOW RECORDING</span><p>Please say out loud all the images you saw in part 1 of the experiment, as many as you can remember. The images can be said in any order.</p>""]","","2",""
"","","","","","instructions","10","145030","0.0-8.0","6C71201A70B74EBAB5383686320C87A4","6C71201A70B74EBAB5383686320C87A4","166d1019-c492-4d1f-a211-31a51af57be7","2dd913a0-fd4c-43f1-b4f3-f0d48537bce8","{""part"":""2"",""participantId"":""6C71201A70B74EBAB5383686320C87A4"",""assignmentId"":""166d1019-c492-4d1f-a211-31a51af57be7"",""projectId"":""2dd913a0-fd4c-43f1-b4f3-f0d48537bce8""}","https://test12345.live/?part=2&participantId=6C71201A70B74EBAB5383686320C87A4&assignmentId=166d1019-c492-4d1f-a211-31a51af57be7&projectId=2dd913a0-fd4c-43f1-b4f3-f0d48537bce8","6C71201A70B74EBAB5383686320C87A4-2025-05-15-22-20-55","[{""page_index"":0,""viewing_time"":2142}]","2143","","","","",""
"","","","","","image-button-response","11","151037","0.0-9.0-0.0","6C71201A70B74EBAB5383686320C87A4","6C71201A70B74EBAB5383686320C87A4","166d1019-c492-4d1f-a211-31a51af57be7","2dd913a0-fd4c-43f1-b4f3-f0d48537bce8","{""part"":""2"",""participantId"":""6C71201A70B74EBAB5383686320C87A4"",""assignmentId"":""166d1019-c492-4d1f-a211-31a51af57be7"",""projectId"":""2dd913a0-fd4c-43f1-b4f3-f0d48537bce8""}","https://test12345.live/?part=2&participantId=6C71201A70B74EBAB5383686320C87A4&assignmentId=166d1019-c492-4d1f-a211-31a51af57be7&projectId=2dd913a0-fd4c-43f1-b4f3-f0d48537bce8","6C71201A70B74EBAB5383686320C87A4-2025-05-15-22-20-55","","null","","images/semantic_sequence/visiting_cities_semantic/visiting_cities_semantic_0.png","null","",""
"","","","","","html-audio-response","12","194596","0.0-10.0","6C71201A70B74EBAB5383686320C87A4","6C71201A70B74EBAB5383686320C87A4","166d1019-c492-4d1f-a211-31a51af57be7","2dd913a0-fd4c-43f1-b4f3-f0d48537bce8","{""part"":""2"",""participantId"":""6C71201A70B74EBAB5383686320C87A4"",""assignmentId"":""166d1019-c492-4d1f-a211-31a51af57be7"",""projectId"":""2dd913a0-fd4c-43f1-b4f3-f0d48537bce8""}","https://test12345.live/?part=2&participantId=6C71201A70B74EBAB5383686320C87A4&assignmentId=166d1019-c492-4d1f-a211-31a51af57be7&projectId=2dd913a0-fd4c-43f1-b4f3-f0d48537bce8","6C71201A70B74EBAB5383686320C87A4-2025-05-15-22-20-55","","20192","","[""<span style=\""color: red; font-size: 24px\""> NOW RECORDING</span><p>Please say out loud all the images you saw in part 1 of the experiment, as many as you can remember. The images can be said in any order.</p>""]","","2","visiting_cities_semantic"
"","","","","","image-button-response","13","200606","0.0-11.0-0.0","6C71201A70B74EBAB5383686320C87A4","6C71201A70B74EBAB5383686320C87A4","166d1019-c492-4d1f-a211-31a51af57be7","2dd913a0-fd4c-43f1-b4f3-f0d48537bce8","{""part"":""2"",""participantId"":""6C71201A70B74EBAB5383686320C87A4"",""assignmentId"":""166d1019-c492-4d1f-a211-31a51af57be7"",""projectId"":""2dd913a0-fd4c-43f1-b4f3-f0d48537bce8""}","https://test12345.live/?part=2&participantId=6C71201A70B74EBAB5383686320C87A4&assignmentId=166d1019-c492-4d1f-a211-31a51af57be7&projectId=2dd913a0-fd4c-43f1-b4f3-f0d48537bce8","6C71201A70B74EBAB5383686320C87A4-2025-05-15-22-20-55","","null","","images/semantic_sequence/self_care_activities_semantic/self_care_activities_semantic_0.png","null","",""
"","","","","","html-audio-response","14","247859","0.0-12.0","6C71201A70B74EBAB5383686320C87A4","6C71201A70B74EBAB5383686320C87A4","166d1019-c492-4d1f-a211-31a51af57be7","2dd913a0-fd4c-43f1-b4f3-f0d48537bce8","{""part"":""2"",""participantId"":""6C71201A70B74EBAB5383686320C87A4"",""assignmentId"":""166d1019-c492-4d1f-a211-31a51af57be7"",""projectId"":""2dd913a0-fd4c-43f1-b4f3-f0d48537bce8""}","https://test12345.live/?part=2&participantId=6C71201A70B74EBAB5383686320C87A4&assignmentId=166d1019-c492-4d1f-a211-31a51af57be7&projectId=2dd913a0-fd4c-43f1-b4f3-f0d48537bce8","6C71201A70B74EBAB5383686320C87A4-2025-05-15-22-20-55","","22622","","[""<span style=\""color: red; font-size: 24px\""> NOW RECORDING</span><p>Please say out loud all the images you saw in part 1 of the experiment, as many as you can remember. The images can be said in any order.</p>""]","","4","self_care_activities_semantic"
"","","","","","image-button-response","15","253870","0.0-13.0-0.0","6C71201A70B74EBAB5383686320C87A4","6C71201A70B74EBAB5383686320C87A4","166d1019-c492-4d1f-a211-31a51af57be7","2dd913a0-fd4c-43f1-b4f3-f0d48537bce8","{""part"":""2"",""participantId"":""6C71201A70B74EBAB5383686320C87A4"",""assignmentId"":""166d1019-c492-4d1f-a211-31a51af57be7"",""projectId"":""2dd913a0-fd4c-43f1-b4f3-f0d48537bce8""}","https://test12345.live/?part=2&participantId=6C71201A70B74EBAB5383686320C87A4&assignmentId=166d1019-c492-4d1f-a211-31a51af57be7&projectId=2dd913a0-fd4c-43f1-b4f3-f0d48537bce8","6C71201A70B74EBAB5383686320C87A4-2025-05-15-22-20-55","","null","","images/semantic_sequence/physical_activity_semantic/physical_activity_semantic_0.png","null","",""
"","","","","","html-audio-response","16","322607","0.0-14.0","6C71201A70B74EBAB5383686320C87A4","6C71201A70B74EBAB5383686320C87A4","166d1019-c492-4d1f-a211-31a51af57be7","2dd913a0-fd4c-43f1-b4f3-f0d48537bce8","{""part"":""2"",""participantId"":""6C71201A70B74EBAB5383686320C87A4"",""assignmentId"":""166d1019-c492-4d1f-a211-31a51af57be7"",""projectId"":""2dd913a0-fd4c-43f1-b4f3-f0d48537bce8""}","https://test12345.live/?part=2&participantId=6C71201A70B74EBAB5383686320C87A4&assignmentId=166d1019-c492-4d1f-a211-31a51af57be7&projectId=2dd913a0-fd4c-43f1-b4f3-f0d48537bce8","6C71201A70B74EBAB5383686320C87A4-2025-05-15-22-20-55","","16520","","[""<span style=\""color: red; font-size: 24px\""> NOW RECORDING</span><p>Please say out loud all the images you saw in part 1 of the experiment, as many as you can remember. The images can be said in any order.</p>""]","","12","physical_activity_semantic"
"","","","","","image-button-response","17","328618","0.0-15.0-0.0","6C71201A70B74EBAB5383686320C87A4","6C71201A70B74EBAB5383686320C87A4","166d1019-c492-4d1f-a211-31a51af57be7","2dd913a0-fd4c-43f1-b4f3-f0d48537bce8","{""part"":""2"",""participantId"":""6C71201A70B74EBAB5383686320C87A4"",""assignmentId"":""166d1019-c492-4d1f-a211-31a51af57be7"",""projectId"":""2dd913a0-fd4c-43f1-b4f3-f0d48537bce8""}","https://test12345.live/?part=2&participantId=6C71201A70B74EBAB5383686320C87A4&assignmentId=166d1019-c492-4d1f-a211-31a51af57be7&projectId=2dd913a0-fd4c-43f1-b4f3-f0d48537bce8","6C71201A70B74EBAB5383686320C87A4-2025-05-15-22-20-55","","null","","images/causal_sequence/saving_a_cat_causal/saving_a_cat_causal_0.png","null","",""
"","","","","","html-audio-response","18","372512","0.0-16.0","6C71201A70B74EBAB5383686320C87A4","6C71201A70B74EBAB5383686320C87A4","166d1019-c492-4d1f-a211-31a51af57be7","2dd913a0-fd4c-43f1-b4f3-f0d48537bce8","{""part"":""2"",""participantId"":""6C71201A70B74EBAB5383686320C87A4"",""assignmentId"":""166d1019-c492-4d1f-a211-31a51af57be7"",""projectId"":""2dd913a0-fd4c-43f1-b4f3-f0d48537bce8""}","https://test12345.live/?part=2&participantId=6C71201A70B74EBAB5383686320C87A4&assignmentId=166d1019-c492-4d1f-a211-31a51af57be7&projectId=2dd913a0-fd4c-43f1-b4f3-f0d48537bce8","6C71201A70B74EBAB5383686320C87A4-2025-05-15-22-20-55","","40768","","[""<span style=\""color: red; font-size: 24px\""> NOW RECORDING</span><p>Please say out loud all the images you saw in part 1 of the experiment, as many as you can remember. The images can be said in any order.</p>""]","","2","saving_a_cat_causal"
"","","","","","image-button-response","19","378526","0.0-17.0-0.0","6C71201A70B74EBAB5383686320C87A4","6C71201A70B74EBAB5383686320C87A4","166d1019-c492-4d1f-a211-31a51af57be7","2dd913a0-fd4c-43f1-b4f3-f0d48537bce8","{""part"":""2"",""participantId"":""6C71201A70B74EBAB5383686320C87A4"",""assignmentId"":""166d1019-c492-4d1f-a211-31a51af57be7"",""projectId"":""2dd913a0-fd4c-43f1-b4f3-f0d48537bce8""}","https://test12345.live/?part=2&participantId=6C71201A70B74EBAB5383686320C87A4&assignmentId=166d1019-c492-4d1f-a211-31a51af57be7&projectId=2dd913a0-fd4c-43f1-b4f3-f0d48537bce8","6C71201A70B74EBAB5383686320C87A4-2025-05-15-22-20-55","","null","","images/semantic_sequence/redecorating_semantic/redecorating_semantic_0.png","null","",""
"","","","","","html-audio-response","20","405369","0.0-18.0","6C71201A70B74EBAB5383686320C87A4","6C71201A70B74EBAB5383686320C87A4","166d1019-c492-4d1f-a211-31a51af57be7","2dd913a0-fd4c-43f1-b4f3-f0d48537bce8","{""part"":""2"",""participantId"":""6C71201A70B74EBAB5383686320C87A4"",""assignmentId"":""166d1019-c492-4d1f-a211-31a51af57be7"",""projectId"":""2dd913a0-fd4c-43f1-b4f3-f0d48537bce8""}","https://test12345.live/?part=2&participantId=6C71201A70B74EBAB5383686320C87A4&assignmentId=166d1019-c492-4d1f-a211-31a51af57be7&projectId=2dd913a0-fd4c-43f1-b4f3-f0d48537bce8","6C71201A70B74EBAB5383686320C87A4-2025-05-15-22-20-55","","25962","","[""<span style=\""color: red; font-size: 24px\""> NOW RECORDING</span><p>Please say out loud all the images you saw in part 1 of the experiment, as many as you can remember. The images can be said in any order.</p>""]","","2","redecorating_semantic"
"","","","","","image-button-response","21","411385","0.0-19.0-0.0","6C71201A70B74EBAB5383686320C87A4","6C71201A70B74EBAB5383686320C87A4","166d1019-c492-4d1f-a211-31a51af57be7","2dd913a0-fd4c-43f1-b4f3-f0d48537bce8","{""part"":""2"",""participantId"":""6C71201A70B74EBAB5383686320C87A4"",""assignmentId"":""166d1019-c492-4d1f-a211-31a51af57be7"",""projectId"":""2dd913a0-fd4c-43f1-b4f3-f0d48537bce8""}","https://test12345.live/?part=2&participantId=6C71201A70B74EBAB5383686320C87A4&assignmentId=166d1019-c492-4d1f-a211-31a51af57be7&projectId=2dd913a0-fd4c-43f1-b4f3-f0d48537bce8","6C71201A70B74EBAB5383686320C87A4-2025-05-15-22-20-55","","null","","images/schematic_sequence/flight_scheme/flight_scheme_0.png","null","",""
"","","","","","html-audio-response","22","438128","0.0-20.0","6C71201A70B74EBAB5383686320C87A4","6C71201A70B74EBAB5383686320C87A4","166d1019-c492-4d1f-a211-31a51af57be7","2dd913a0-fd4c-43f1-b4f3-f0d48537bce8","{""part"":""2"",""participantId"":""6C71201A70B74EBAB5383686320C87A4"",""assignmentId"":""166d1019-c492-4d1f-a211-31a51af57be7"",""projectId"":""2dd913a0-fd4c-43f1-b4f3-f0d48537bce8""}","https://test12345.live/?part=2&participantId=6C71201A70B74EBAB5383686320C87A4&assignmentId=166d1019-c492-4d1f-a211-31a51af57be7&projectId=2dd913a0-fd4c-43f1-b4f3-f0d48537bce8","6C71201A70B74EBAB5383686320C87A4-2025-05-15-22-20-55","","25506","","[""<span style=\""color: red; font-size: 24px\""> NOW RECORDING</span><p>Please say out loud all the images you saw in part 1 of the experiment, as many as you can remember. The images can be said in any order.</p>""]","","2","flight_scheme"
"","","","","","image-button-response","23","444138","0.0-21.0-0.0","6C71201A70B74EBAB5383686320C87A4","6C71201A70B74EBAB5383686320C87A4","166d1019-c492-4d1f-a211-31a51af57be7","2dd913a0-fd4c-43f1-b4f3-f0d48537bce8","{""part"":""2"",""participantId"":""6C71201A70B74EBAB5383686320C87A4"",""assignmentId"":""166d1019-c492-4d1f-a211-31a51af57be7"",""projectId"":""2dd913a0-fd4c-43f1-b4f3-f0d48537bce8""}","https://test12345.live/?part=2&participantId=6C71201A70B74EBAB5383686320C87A4&assignmentId=166d1019-c492-4d1f-a211-31a51af57be7&projectId=2dd913a0-fd4c-43f1-b4f3-f0d48537bce8","6C71201A70B74EBAB5383686320C87A4-2025-05-15-22-20-55","","null","","images/causal_sequence/coin_causal/coin_causal_0.png","null","",""
"","","","","","html-audio-response","24","483074","0.0-22.0","6C71201A70B74EBAB5383686320C87A4","6C71201A70B74EBAB5383686320C87A4","166d1019-c492-4d1f-a211-31a51af57be7","2dd913a0-fd4c-43f1-b4f3-f0d48537bce8","{""part"":""2"",""participantId"":""6C71201A70B74EBAB5383686320C87A4"",""assignmentId"":""166d1019-c492-4d1f-a211-31a51af57be7"",""projectId"":""2dd913a0-fd4c-43f1-b4f3-f0d48537bce8""}","https://test12345.live/?part=2&participantId=6C71201A70B74EBAB5383686320C87A4&assignmentId=166d1019-c492-4d1f-a211-31a51af57be7&projectId=2dd913a0-fd4c-43f1-b4f3-f0d48537bce8","6C71201A70B74EBAB5383686320C87A4-2025-05-15-22-20-55","","38048","","[""<span style=\""color: red; font-size: 24px\""> NOW RECORDING</span><p>Please say out loud all the images you saw in part 1 of the experiment, as many as you can remember. The images can be said in any order.</p>""]","","2","coin_causal"
"","","","","","image-button-response","25","489091","0.0-23.0-0.0","6C71201A70B74EBAB5383686320C87A4","6C71201A70B74EBAB5383686320C87A4","166d1019-c492-4d1f-a211-31a51af57be7","2dd913a0-fd4c-43f1-b4f3-f0d48537bce8","{""part"":""2"",""participantId"":""6C71201A70B74EBAB5383686320C87A4"",""assignmentId"":""166d1019-c492-4d1f-a211-31a51af57be7"",""projectId"":""2dd913a0-fd4c-43f1-b4f3-f0d48537bce8""}","https://test12345.live/?part=2&participantId=6C71201A70B74EBAB5383686320C87A4&assignmentId=166d1019-c492-4d1f-a211-31a51af57be7&projectId=2dd913a0-fd4c-43f1-b4f3-f0d48537bce8","6C71201A70B74EBAB5383686320C87A4-2025-05-15-22-20-55","","null","","images/semantic_sequence/exploring_nature_semantic/exploring_nature_semantic_0.png","null","",""
"","","","","","html-audio-response","26","519989","0.0-24.0","6C71201A70B74EBAB5383686320C87A4","6C71201A70B74EBAB5383686320C87A4","166d1019-c492-4d1f-a211-31a51af57be7","2dd913a0-fd4c-43f1-b4f3-f0d48537bce8","{""part"":""2"",""participantId"":""6C71201A70B74EBAB5383686320C87A4"",""assignmentId"":""166d1019-c492-4d1f-a211-31a51af57be7"",""projectId"":""2dd913a0-fd4c-43f1-b4f3-f0d48537bce8""}","https://test12345.live/?part=2&participantId=6C71201A70B74EBAB5383686320C87A4&assignmentId=166d1019-c492-4d1f-a211-31a51af57be7&projectId=2dd913a0-fd4c-43f1-b4f3-f0d48537bce8","6C71201A70B74EBAB5383686320C87A4-2025-05-15-22-20-55","","29743","","[""<span style=\""color: red; font-size: 24px\""> NOW RECORDING</span><p>Please say out loud all the images you saw in part 1 of the experiment, as many as you can remember. The images can be said in any order.</p>""]","","1","exploring_nature_semantic"
"","","","","","image-button-response","27","526006","0.0-25.0-0.0","6C71201A70B74EBAB5383686320C87A4","6C71201A70B74EBAB5383686320C87A4","166d1019-c492-4d1f-a211-31a51af57be7","2dd913a0-fd4c-43f1-b4f3-f0d48537bce8","{""part"":""2"",""participantId"":""6C71201A70B74EBAB5383686320C87A4"",""assignmentId"":""166d1019-c492-4d1f-a211-31a51af57be7"",""projectId"":""2dd913a0-fd4c-43f1-b4f3-f0d48537bce8""}","https://test12345.live/?part=2&participantId=6C71201A70B74EBAB5383686320C87A4&assignmentId=166d1019-c492-4d1f-a211-31a51af57be7&projectId=2dd913a0-fd4c-43f1-b4f3-f0d48537bce8","6C71201A70B74EBAB5383686320C87A4-2025-05-15-22-20-55","","null","","images/causal_sequence/package_causal/package_causal_0.png","null","",""
"","","","","","html-audio-response","28","562928","0.0-26.0","6C71201A70B74EBAB5383686320C87A4","6C71201A70B74EBAB5383686320C87A4","166d1019-c492-4d1f-a211-31a51af57be7","2dd913a0-fd4c-43f1-b4f3-f0d48537bce8","{""part"":""2"",""participantId"":""6C71201A70B74EBAB5383686320C87A4"",""assignmentId"":""166d1019-c492-4d1f-a211-31a51af57be7"",""projectId"":""2dd913a0-fd4c-43f1-b4f3-f0d48537bce8""}","https://test12345.live/?part=2&participantId=6C71201A70B74EBAB5383686320C87A4&assignmentId=166d1019-c492-4d1f-a211-31a51af57be7&projectId=2dd913a0-fd4c-43f1-b4f3-f0d48537bce8","6C71201A70B74EBAB5383686320C87A4-2025-05-15-22-20-55","","36027","","[""<span style=\""color: red; font-size: 24px\""> NOW RECORDING</span><p>Please say out loud all the images you saw in part 1 of the experiment, as many as you can remember. The images can be said in any order.</p>""]","","2","package_causal"
"","","","","","image-button-response","29","568945","0.0-27.0-0.0","6C71201A70B74EBAB5383686320C87A4","6C71201A70B74EBAB5383686320C87A4","166d1019-c492-4d1f-a211-31a51af57be7","2dd913a0-fd4c-43f1-b4f3-f0d48537bce8","{""part"":""2"",""participantId"":""6C71201A70B74EBAB5383686320C87A4"",""assignmentId"":""166d1019-c492-4d1f-a211-31a51af57be7"",""projectId"":""2dd913a0-fd4c-43f1-b4f3-f0d48537bce8""}","https://test12345.live/?part=2&participantId=6C71201A70B74EBAB5383686320C87A4&assignmentId=166d1019-c492-4d1f-a211-31a51af57be7&projectId=2dd913a0-fd4c-43f1-b4f3-f0d48537bce8","6C71201A70B74EBAB5383686320C87A4-2025-05-15-22-20-55","","null","","images/semantic_sequence/maintaining_a_car_semantic/maintaining_a_car_semantic_0.png","null","",""
"","","","","","html-audio-response","30","597487","0.0-28.0","6C71201A70B74EBAB5383686320C87A4","6C71201A70B74EBAB5383686320C87A4","166d1019-c492-4d1f-a211-31a51af57be7","2dd913a0-fd4c-43f1-b4f3-f0d48537bce8","{""part"":""2"",""participantId"":""6C71201A70B74EBAB5383686320C87A4"",""assignmentId"":""166d1019-c492-4d1f-a211-31a51af57be7"",""projectId"":""2dd913a0-fd4c-43f1-b4f3-f0d48537bce8""}","https://test12345.live/?part=2&participantId=6C71201A70B74EBAB5383686320C87A4&assignmentId=166d1019-c492-4d1f-a211-31a51af57be7&projectId=2dd913a0-fd4c-43f1-b4f3-f0d48537bce8","6C71201A70B74EBAB5383686320C87A4-2025-05-15-22-20-55","","27606","","[""<span style=\""color: red; font-size: 24px\""> NOW RECORDING</span><p>Please say out loud all the images you saw in part 1 of the experiment, as many as you can remember. The images can be said in any order.</p>""]","","2","maintaining_a_car_semantic"
"","","","","","image-button-response","31","603505","0.0-29.0-0.0","6C71201A70B74EBAB5383686320C87A4","6C71201A70B74EBAB5383686320C87A4","166d1019-c492-4d1f-a211-31a51af57be7","2dd913a0-fd4c-43f1-b4f3-f0d48537bce8","{""part"":""2"",""participantId"":""6C71201A70B74EBAB5383686320C87A4"",""assignmentId"":""166d1019-c492-4d1f-a211-31a51af57be7"",""projectId"":""2dd913a0-fd4c-43f1-b4f3-f0d48537bce8""}","https://test12345.live/?part=2&participantId=6C71201A70B74EBAB5383686320C87A4&assignmentId=166d1019-c492-4d1f-a211-31a51af57be7&projectId=2dd913a0-fd4c-43f1-b4f3-f0d48537bce8","6C71201A70B74EBAB5383686320C87A4-2025-05-15-22-20-55","","null","","images/schematic_sequence/hotel_scheme/hotel_scheme_0.png","null","",""
"","","","","","html-audio-response","32","635697","0.0-30.0","6C71201A70B74EBAB5383686320C87A4","6C71201A70B74EBAB5383686320C87A4","166d1019-c492-4d1f-a211-31a51af57be7","2dd913a0-fd4c-43f1-b4f3-f0d48537bce8","{""part"":""2"",""participantId"":""6C71201A70B74EBAB5383686320C87A4"",""assignmentId"":""166d1019-c492-4d1f-a211-31a51af57be7"",""projectId"":""2dd913a0-fd4c-43f1-b4f3-f0d48537bce8""}","https://test12345.live/?part=2&participantId=6C71201A70B74EBAB5383686320C87A4&assignmentId=166d1019-c492-4d1f-a211-31a51af57be7&projectId=2dd913a0-fd4c-43f1-b4f3-f0d48537bce8","6C71201A70B74EBAB5383686320C87A4-2025-05-15-22-20-55","","30697","","[""<span style=\""color: red; font-size: 24px\""> NOW RECORDING</span><p>Please say out loud all the images you saw in part 1 of the experiment, as many as you can remember. The images can be said in any order.</p>""]","","1","hotel_scheme"
"","","","","","image-button-response","33","641709","0.0-31.0-0.0","6C71201A70B74EBAB5383686320C87A4","6C71201A70B74EBAB5383686320C87A4","166d1019-c492-4d1f-a211-31a51af57be7","2dd913a0-fd4c-43f1-b4f3-f0d48537bce8","{""part"":""2"",""participantId"":""6C71201A70B74EBAB5383686320C87A4"",""assignmentId"":""166d1019-c492-4d1f-a211-31a51af57be7"",""projectId"":""2dd913a0-fd4c-43f1-b4f3-f0d48537bce8""}","https://test12345.live/?part=2&participantId=6C71201A70B74EBAB5383686320C87A4&assignmentId=166d1019-c492-4d1f-a211-31a51af57be7&projectId=2dd913a0-fd4c-43f1-b4f3-f0d48537bce8","6C71201A70B74EBAB5383686320C87A4-2025-05-15-22-20-55","","null","","images/semantic_sequence/using_technology_semantic/using_technology_semantic_0.png","null","",""
"","","","","","html-audio-response","34","674452","0.0-32.0","6C71201A70B74EBAB5383686320C87A4","6C71201A70B74EBAB5383686320C87A4","166d1019-c492-4d1f-a211-31a51af57be7","2dd913a0-fd4c-43f1-b4f3-f0d48537bce8","{""part"":""2"",""participantId"":""6C71201A70B74EBAB5383686320C87A4"",""assignmentId"":""166d1019-c492-4d1f-a211-31a51af57be7"",""projectId"":""2dd913a0-fd4c-43f1-b4f3-f0d48537bce8""}","https://test12345.live/?part=2&participantId=6C71201A70B74EBAB5383686320C87A4&assignmentId=166d1019-c492-4d1f-a211-31a51af57be7&projectId=2dd913a0-fd4c-43f1-b4f3-f0d48537bce8","6C71201A70B74EBAB5383686320C87A4-2025-05-15-22-20-55","","29275","","[""<span style=\""color: red; font-size: 24px\""> NOW RECORDING</span><p>Please say out loud all the images you saw in part 1 of the experiment, as many as you can remember. The images can be said in any order.</p>""]","","2","using_technology_semantic"
"","","","","","image-button-response","35","680468","0.0-33.0-0.0","6C71201A70B74EBAB5383686320C87A4","6C71201A70B74EBAB5383686320C87A4","166d1019-c492-4d1f-a211-31a51af57be7","2dd913a0-fd4c-43f1-b4f3-f0d48537bce8","{""part"":""2"",""participantId"":""6C71201A70B74EBAB5383686320C87A4"",""assignmentId"":""166d1019-c492-4d1f-a211-31a51af57be7"",""projectId"":""2dd913a0-fd4c-43f1-b4f3-f0d48537bce8""}","https://test12345.live/?part=2&participantId=6C71201A70B74EBAB5383686320C87A4&assignmentId=166d1019-c492-4d1f-a211-31a51af57be7&projectId=2dd913a0-fd4c-43f1-b4f3-f0d48537bce8","6C71201A70B74EBAB5383686320C87A4-2025-05-15-22-20-55","","null","","images/semantic_sequence/cat_care_semantic/cat_care_semantic_0.png","null","",""
"","","","","","html-audio-response","36","701788","0.0-34.0","6C71201A70B74EBAB5383686320C87A4","6C71201A70B74EBAB5383686320C87A4","166d1019-c492-4d1f-a211-31a51af57be7","2dd913a0-fd4c-43f1-b4f3-f0d48537bce8","{""part"":""2"",""participantId"":""6C71201A70B74EBAB5383686320C87A4"",""assignmentId"":""166d1019-c492-4d1f-a211-31a51af57be7"",""projectId"":""2dd913a0-fd4c-43f1-b4f3-f0d48537bce8""}","https://test12345.live/?part=2&participantId=6C71201A70B74EBAB5383686320C87A4&assignmentId=166d1019-c492-4d1f-a211-31a51af57be7&projectId=2dd913a0-fd4c-43f1-b4f3-f0d48537bce8","6C71201A70B74EBAB5383686320C87A4-2025-05-15-22-20-55","","20503","","[""<span style=\""color: red; font-size: 24px\""> NOW RECORDING</span><p>Please say out loud all the images you saw in part 1 of the experiment, as many as you can remember. The images can be said in any order.</p>""]","","2","cat_care_semantic"
"","","","","","image-button-response","37","707797","0.0-35.0-0.0","6C71201A70B74EBAB5383686320C87A4","6C71201A70B74EBAB5383686320C87A4","166d1019-c492-4d1f-a211-31a51af57be7","2dd913a0-fd4c-43f1-b4f3-f0d48537bce8","{""part"":""2"",""participantId"":""6C71201A70B74EBAB5383686320C87A4"",""assignmentId"":""166d1019-c492-4d1f-a211-31a51af57be7"",""projectId"":""2dd913a0-fd4c-43f1-b4f3-f0d48537bce8""}","https://test12345.live/?part=2&participantId=6C71201A70B74EBAB5383686320C87A4&assignmentId=166d1019-c492-4d1f-a211-31a51af57be7&projectId=2dd913a0-fd4c-43f1-b4f3-f0d48537bce8","6C71201A70B74EBAB5383686320C87A4-2025-05-15-22-20-55","","null","","images/schematic_sequence/restaurant_scheme/restaurant_scheme_0.png","null","",""
"","","","","","html-audio-response","38","735643","0.0-36.0","6C71201A70B74EBAB5383686320C87A4","6C71201A70B74EBAB5383686320C87A4","166d1019-c492-4d1f-a211-31a51af57be7","2dd913a0-fd4c-43f1-b4f3-f0d48537bce8","{""part"":""2"",""participantId"":""6C71201A70B74EBAB5383686320C87A4"",""assignmentId"":""166d1019-c492-4d1f-a211-31a51af57be7"",""projectId"":""2dd913a0-fd4c-43f1-b4f3-f0d48537bce8""}","https://test12345.live/?part=2&participantId=6C71201A70B74EBAB5383686320C87A4&assignmentId=166d1019-c492-4d1f-a211-31a51af57be7&projectId=2dd913a0-fd4c-43f1-b4f3-f0d48537bce8","6C71201A70B74EBAB5383686320C87A4-2025-05-15-22-20-55","","26988","","[""<span style=\""color: red; font-size: 24px\""> NOW RECORDING</span><p>Please say out loud all the images you saw in part 1 of the experiment, as many as you can remember. The images can be said in any order.</p>""]","","2","restaurant_scheme"
"","","","","","image-button-response","39","741651","0.0-37.0-0.0","6C71201A70B74EBAB5383686320C87A4","6C71201A70B74EBAB5383686320C87A4","166d1019-c492-4d1f-a211-31a51af57be7","2dd913a0-fd4c-43f1-b4f3-f0d48537bce8","{""part"":""2"",""participantId"":""6C71201A70B74EBAB5383686320C87A4"",""assignmentId"":""166d1019-c492-4d1f-a211-31a51af57be7"",""projectId"":""2dd913a0-fd4c-43f1-b4f3-f0d48537bce8""}","https://test12345.live/?part=2&participantId=6C71201A70B74EBAB5383686320C87A4&assignmentId=166d1019-c492-4d1f-a211-31a51af57be7&projectId=2dd913a0-fd4c-43f1-b4f3-f0d48537bce8","6C71201A70B74EBAB5383686320C87A4-2025-05-15-22-20-55","","null","","images/schematic_sequence/interview_scheme/interview_scheme_0.png","null","",""
"","","","","","html-audio-response","40","782501","0.0-38.0","6C71201A70B74EBAB5383686320C87A4","6C71201A70B74EBAB5383686320C87A4","166d1019-c492-4d1f-a211-31a51af57be7","2dd913a0-fd4c-43f1-b4f3-f0d48537bce8","{""part"":""2"",""participantId"":""6C71201A70B74EBAB5383686320C87A4"",""assignmentId"":""166d1019-c492-4d1f-a211-31a51af57be7"",""projectId"":""2dd913a0-fd4c-43f1-b4f3-f0d48537bce8""}","https://test12345.live/?part=2&participantId=6C71201A70B74EBAB5383686320C87A4&assignmentId=166d1019-c492-4d1f-a211-31a51af57be7&projectId=2dd913a0-fd4c-43f1-b4f3-f0d48537bce8","6C71201A70B74EBAB5383686320C87A4-2025-05-15-22-20-55","","39609","","[""<span style=\""color: red; font-size: 24px\""> NOW RECORDING</span><p>Please say out loud all the images you saw in part 1 of the experiment, as many as you can remember. The images can be said in any order.</p>""]","","2","interview_scheme"
"","","","","","image-button-response","41","788520","0.0-39.0-0.0","6C71201A70B74EBAB5383686320C87A4","6C71201A70B74EBAB5383686320C87A4","166d1019-c492-4d1f-a211-31a51af57be7","2dd913a0-fd4c-43f1-b4f3-f0d48537bce8","{""part"":""2"",""participantId"":""6C71201A70B74EBAB5383686320C87A4"",""assignmentId"":""166d1019-c492-4d1f-a211-31a51af57be7"",""projectId"":""2dd913a0-fd4c-43f1-b4f3-f0d48537bce8""}","https://test12345.live/?part=2&participantId=6C71201A70B74EBAB5383686320C87A4&assignmentId=166d1019-c492-4d1f-a211-31a51af57be7&projectId=2dd913a0-fd4c-43f1-b4f3-f0d48537bce8","6C71201A70B74EBAB5383686320C87A4-2025-05-15-22-20-55","","null","","images/causal_sequence/dog_causal/dog_causal_0.png","null","",""
"","","","","","html-audio-response","42","830187","0.0-40.0","6C71201A70B74EBAB5383686320C87A4","6C71201A70B74EBAB5383686320C87A4","166d1019-c492-4d1f-a211-31a51af57be7","2dd913a0-fd4c-43f1-b4f3-f0d48537bce8","{""part"":""2"",""participantId"":""6C71201A70B74EBAB5383686320C87A4"",""assignmentId"":""166d1019-c492-4d1f-a211-31a51af57be7"",""projectId"":""2dd913a0-fd4c-43f1-b4f3-f0d48537bce8""}","https://test12345.live/?part=2&participantId=6C71201A70B74EBAB5383686320C87A4&assignmentId=166d1019-c492-4d1f-a211-31a51af57be7&projectId=2dd913a0-fd4c-43f1-b4f3-f0d48537bce8","6C71201A70B74EBAB5383686320C87A4-2025-05-15-22-20-55","","40137","","[""<span style=\""color: red; font-size: 24px\""> NOW RECORDING</span><p>Please say out loud all the images you saw in part 1 of the experiment, as many as you can remember. The images can be said in any order.</p>""]","","2","dog_causal"
"","","","","","image-button-response","43","836204","0.0-41.0-0.0","6C71201A70B74EBAB5383686320C87A4","6C71201A70B74EBAB5383686320C87A4","166d1019-c492-4d1f-a211-31a51af57be7","2dd913a0-fd4c-43f1-b4f3-f0d48537bce8","{""part"":""2"",""participantId"":""6C71201A70B74EBAB5383686320C87A4"",""assignmentId"":""166d1019-c492-4d1f-a211-31a51af57be7"",""projectId"":""2dd913a0-fd4c-43f1-b4f3-f0d48537bce8""}","https://test12345.live/?part=2&participantId=6C71201A70B74EBAB5383686320C87A4&assignmentId=166d1019-c492-4d1f-a211-31a51af57be7&projectId=2dd913a0-fd4c-43f1-b4f3-f0d48537bce8","6C71201A70B74EBAB5383686320C87A4-2025-05-15-22-20-55","","null","","images/schematic_sequence/dinner_party_scheme/dinner_party_scheme_0.png","null","",""
"","","","","","html-audio-response","44","1147707","0.0-42.0","6C71201A70B74EBAB5383686320C87A4","6C71201A70B74EBAB5383686320C87A4","166d1019-c492-4d1f-a211-31a51af57be7","2dd913a0-fd4c-43f1-b4f3-f0d48537bce8","{""part"":""2"",""participantId"":""6C71201A70B74EBAB5383686320C87A4"",""assignmentId"":""166d1019-c492-4d1f-a211-31a51af57be7"",""projectId"":""2dd913a0-fd4c-43f1-b4f3-f0d48537bce8""}","https://test12345.live/?part=2&participantId=6C71201A70B74EBAB5383686320C87A4&assignmentId=166d1019-c492-4d1f-a211-31a51af57be7&projectId=2dd913a0-fd4c-43f1-b4f3-f0d48537bce8","6C71201A70B74EBAB5383686320C87A4-2025-05-15-22-20-55","","24582","","[""<span style=\""color: red; font-size: 24px\""> NOW RECORDING</span><p>Please say out loud all the images you saw in part 1 of the experiment, as many as you can remember. The images can be said in any order.</p>""]","","2","dinner_party_scheme"
"","","","","","image-button-response","45","1153718","0.0-43.0-0.0","6C71201A70B74EBAB5383686320C87A4","6C71201A70B74EBAB5383686320C87A4","166d1019-c492-4d1f-a211-31a51af57be7","2dd913a0-fd4c-43f1-b4f3-f0d48537bce8","{""part"":""2"",""participantId"":""6C71201A70B74EBAB5383686320C87A4"",""assignmentId"":""166d1019-c492-4d1f-a211-31a51af57be7"",""projectId"":""2dd913a0-fd4c-43f1-b4f3-f0d48537bce8""}","https://test12345.live/?part=2&participantId=6C71201A70B74EBAB5383686320C87A4&assignmentId=166d1019-c492-4d1f-a211-31a51af57be7&projectId=2dd913a0-fd4c-43f1-b4f3-f0d48537bce8","6C71201A70B74EBAB5383686320C87A4-2025-05-15-22-20-55","","null","","images/causal_sequence/the_performance_causal/the_performance_causal_0.png","null","",""
"","","","","","html-audio-response","46","1193861","0.0-44.0","6C71201A70B74EBAB5383686320C87A4","6C71201A70B74EBAB5383686320C87A4","166d1019-c492-4d1f-a211-31a51af57be7","2dd913a0-fd4c-43f1-b4f3-f0d48537bce8","{""part"":""2"",""participantId"":""6C71201A70B74EBAB5383686320C87A4"",""assignmentId"":""166d1019-c492-4d1f-a211-31a51af57be7"",""projectId"":""2dd913a0-fd4c-43f1-b4f3-f0d48537bce8""}","https://test12345.live/?part=2&participantId=6C71201A70B74EBAB5383686320C87A4&assignmentId=166d1019-c492-4d1f-a211-31a51af57be7&projectId=2dd913a0-fd4c-43f1-b4f3-f0d48537bce8","6C71201A70B74EBAB5383686320C87A4-2025-05-15-22-20-55","","38964","","[""<span style=\""color: red; font-size: 24px\""> NOW RECORDING</span><p>Please say out loud all the images you saw in part 1 of the experiment, as many as you can remember. The images can be said in any order.</p>""]","","2","the_performance_causal"
"","","","","","image-button-response","47","1199876","0.0-45.0-0.0","6C71201A70B74EBAB5383686320C87A4","6C71201A70B74EBAB5383686320C87A4","166d1019-c492-4d1f-a211-31a51af57be7","2dd913a0-fd4c-43f1-b4f3-f0d48537bce8","{""part"":""2"",""participantId"":""6C71201A70B74EBAB5383686320C87A4"",""assignmentId"":""166d1019-c492-4d1f-a211-31a51af57be7"",""projectId"":""2dd913a0-fd4c-43f1-b4f3-f0d48537bce8""}","https://test12345.live/?part=2&participantId=6C71201A70B74EBAB5383686320C87A4&assignmentId=166d1019-c492-4d1f-a211-31a51af57be7&projectId=2dd913a0-fd4c-43f1-b4f3-f0d48537bce8","6C71201A70B74EBAB5383686320C87A4-2025-05-15-22-20-55","","null","","images/semantic_sequence/creative_activities_semantic/creative_activities_semantic_0.png","null","",""
"","","","","","html-audio-response","48","1225079","0.0-46.0","6C71201A70B74EBAB5383686320C87A4","6C71201A70B74EBAB5383686320C87A4","166d1019-c492-4d1f-a211-31a51af57be7","2dd913a0-fd4c-43f1-b4f3-f0d48537bce8","{""part"":""2"",""participantId"":""6C71201A70B74EBAB5383686320C87A4"",""assignmentId"":""166d1019-c492-4d1f-a211-31a51af57be7"",""projectId"":""2dd913a0-fd4c-43f1-b4f3-f0d48537bce8""}","https://test12345.live/?part=2&participantId=6C71201A70B74EBAB5383686320C87A4&assignmentId=166d1019-c492-4d1f-a211-31a51af57be7&projectId=2dd913a0-fd4c-43f1-b4f3-f0d48537bce8","6C71201A70B74EBAB5383686320C87A4-2025-05-15-22-20-55","","24320","","[""<span style=\""color: red; font-size: 24px\""> NOW RECORDING</span><p>Please say out loud all the images you saw in part 1 of the experiment, as many as you can remember. The images can be said in any order.</p>""]","","2","creative_activities_semantic"
"","","","","","image-button-response","49","1231090","0.0-47.0-0.0","6C71201A70B74EBAB5383686320C87A4","6C71201A70B74EBAB5383686320C87A4","166d1019-c492-4d1f-a211-31a51af57be7","2dd913a0-fd4c-43f1-b4f3-f0d48537bce8","{""part"":""2"",""participantId"":""6C71201A70B74EBAB5383686320C87A4"",""assignmentId"":""166d1019-c492-4d1f-a211-31a51af57be7"",""projectId"":""2dd913a0-fd4c-43f1-b4f3-f0d48537bce8""}","https://test12345.live/?part=2&participantId=6C71201A70B74EBAB5383686320C87A4&assignmentId=166d1019-c492-4d1f-a211-31a51af57be7&projectId=2dd913a0-fd4c-43f1-b4f3-f0d48537bce8","6C71201A70B74EBAB5383686320C87A4-2025-05-15-22-20-55","","null","","images/semantic_sequence/market_semantic/market_semantic_0.png","null","",""
"","","","","","html-audio-response","50","1260181","0.0-48.0","6C71201A70B74EBAB5383686320C87A4","6C71201A70B74EBAB5383686320C87A4","166d1019-c492-4d1f-a211-31a51af57be7","2dd913a0-fd4c-43f1-b4f3-f0d48537bce8","{""part"":""2"",""participantId"":""6C71201A70B74EBAB5383686320C87A4"",""assignmentId"":""166d1019-c492-4d1f-a211-31a51af57be7"",""projectId"":""2dd913a0-fd4c-43f1-b4f3-f0d48537bce8""}","https://test12345.live/?part=2&participantId=6C71201A70B74EBAB5383686320C87A4&assignmentId=166d1019-c492-4d1f-a211-31a51af57be7&projectId=2dd913a0-fd4c-43f1-b4f3-f0d48537bce8","6C71201A70B74EBAB5383686320C87A4-2025-05-15-22-20-55","","27811","","[""<span style=\""color: red; font-size: 24px\""> NOW RECORDING</span><p>Please say out loud all the images you saw in part 1 of the experiment, as many as you can remember. The images can be said in any order.</p>""]","","2","market_semantic"
"","","","","","image-button-response","51","1266194","0.0-49.0-0.0","6C71201A70B74EBAB5383686320C87A4","6C71201A70B74EBAB5383686320C87A4","166d1019-c492-4d1f-a211-31a51af57be7","2dd913a0-fd4c-43f1-b4f3-f0d48537bce8","{""part"":""2"",""participantId"":""6C71201A70B74EBAB5383686320C87A4"",""assignmentId"":""166d1019-c492-4d1f-a211-31a51af57be7"",""projectId"":""2dd913a0-fd4c-43f1-b4f3-f0d48537bce8""}","https://test12345.live/?part=2&participantId=6C71201A70B74EBAB5383686320C87A4&assignmentId=166d1019-c492-4d1f-a211-31a51af57be7&projectId=2dd913a0-fd4c-43f1-b4f3-f0d48537bce8","6C71201A70B74EBAB5383686320C87A4-2025-05-15-22-20-55","","null","","images/semantic_sequence/housework_semantic/housework_semantic_0.png","null","",""
"","","","","","html-audio-response","52","1312514","0.0-50.0","6C71201A70B74EBAB5383686320C87A4","6C71201A70B74EBAB5383686320C87A4","166d1019-c492-4d1f-a211-31a51af57be7","2dd913a0-fd4c-43f1-b4f3-f0d48537bce8","{""part"":""2"",""participantId"":""6C71201A70B74EBAB5383686320C87A4"",""assignmentId"":""166d1019-c492-4d1f-a211-31a51af57be7"",""projectId"":""2dd913a0-fd4c-43f1-b4f3-f0d48537bce8""}","https://test12345.live/?part=2&participantId=6C71201A70B74EBAB5383686320C87A4&assignmentId=166d1019-c492-4d1f-a211-31a51af57be7&projectId=2dd913a0-fd4c-43f1-b4f3-f0d48537bce8","6C71201A70B74EBAB5383686320C87A4-2025-05-15-22-20-55","","44672","","[""<span style=\""color: red; font-size: 24px\""> NOW RECORDING</span><p>Please say out loud all the images you saw in part 1 of the experiment, as many as you can remember. The images can be said in any order.</p>""]","","2","housework_semantic"
"","","","","","image-button-response","53","1318532","0.0-51.0-0.0","6C71201A70B74EBAB5383686320C87A4","6C71201A70B74EBAB5383686320C87A4","166d1019-c492-4d1f-a211-31a51af57be7","2dd913a0-fd4c-43f1-b4f3-f0d48537bce8","{""part"":""2"",""participantId"":""6C71201A70B74EBAB5383686320C87A4"",""assignmentId"":""166d1019-c492-4d1f-a211-31a51af57be7"",""projectId"":""2dd913a0-fd4c-43f1-b4f3-f0d48537bce8""}","https://test12345.live/?part=2&participantId=6C71201A70B74EBAB5383686320C87A4&assignmentId=166d1019-c492-4d1f-a211-31a51af57be7&projectId=2dd913a0-fd4c-43f1-b4f3-f0d48537bce8","6C71201A70B74EBAB5383686320C87A4-2025-05-15-22-20-55","","null","","images/schematic_sequence/supermarket_scheme/supermarket_scheme_0.png","null","",""
"","","","","","html-audio-response","54","1354716","0.0-52.0","6C71201A70B74EBAB5383686320C87A4","6C71201A70B74EBAB5383686320C87A4","166d1019-c492-4d1f-a211-31a51af57be7","2dd913a0-fd4c-43f1-b4f3-f0d48537bce8","{""part"":""2"",""participantId"":""6C71201A70B74EBAB5383686320C87A4"",""assignmentId"":""166d1019-c492-4d1f-a211-31a51af57be7"",""projectId"":""2dd913a0-fd4c-43f1-b4f3-f0d48537bce8""}","https://test12345.live/?part=2&participantId=6C71201A70B74EBAB5383686320C87A4&assignmentId=166d1019-c492-4d1f-a211-31a51af57be7&projectId=2dd913a0-fd4c-43f1-b4f3-f0d48537bce8","6C71201A70B74EBAB5383686320C87A4-2025-05-15-22-20-55","","35153","","[""<span style=\""color: red; font-size: 24px\""> NOW RECORDING</span><p>Please say out loud all the images you saw in part 1 of the experiment, as many as you can remember. The images can be said in any order.</p>""]","","2","supermarket_scheme"
"","","","","","image-button-response","55","1360736","0.0-53.0-0.0","6C71201A70B74EBAB5383686320C87A4","6C71201A70B74EBAB5383686320C87A4","166d1019-c492-4d1f-a211-31a51af57be7","2dd913a0-fd4c-43f1-b4f3-f0d48537bce8","{""part"":""2"",""participantId"":""6C71201A70B74EBAB5383686320C87A4"",""assignmentId"":""166d1019-c492-4d1f-a211-31a51af57be7"",""projectId"":""2dd913a0-fd4c-43f1-b4f3-f0d48537bce8""}","https://test12345.live/?part=2&participantId=6C71201A70B74EBAB5383686320C87A4&assignmentId=166d1019-c492-4d1f-a211-31a51af57be7&projectId=2dd913a0-fd4c-43f1-b4f3-f0d48537bce8","6C71201A70B74EBAB5383686320C87A4-2025-05-15-22-20-55","","null","","images/semantic_sequence/kitchen_operations_semantic/kitchen_operations_semantic_0.png","null","",""
"","","","","","html-audio-response","56","1391507","0.0-54.0","6C71201A70B74EBAB5383686320C87A4","6C71201A70B74EBAB5383686320C87A4","166d1019-c492-4d1f-a211-31a51af57be7","2dd913a0-fd4c-43f1-b4f3-f0d48537bce8","{""part"":""2"",""participantId"":""6C71201A70B74EBAB5383686320C87A4"",""assignmentId"":""166d1019-c492-4d1f-a211-31a51af57be7"",""projectId"":""2dd913a0-fd4c-43f1-b4f3-f0d48537bce8""}","https://test12345.live/?part=2&participantId=6C71201A70B74EBAB5383686320C87A4&assignmentId=166d1019-c492-4d1f-a211-31a51af57be7&projectId=2dd913a0-fd4c-43f1-b4f3-f0d48537bce8","6C71201A70B74EBAB5383686320C87A4-2025-05-15-22-20-55","","28959","","[""<span style=\""color: red; font-size: 24px\""> NOW RECORDING</span><p>Please say out loud all the images you saw in part 1 of the experiment, as many as you can remember. The images can be said in any order.</p>""]","","4","kitchen_operations_semantic"
"","","","","","image-button-response","57","1397521","0.0-55.0-0.0","6C71201A70B74EBAB5383686320C87A4","6C71201A70B74EBAB5383686320C87A4","166d1019-c492-4d1f-a211-31a51af57be7","2dd913a0-fd4c-43f1-b4f3-f0d48537bce8","{""part"":""2"",""participantId"":""6C71201A70B74EBAB5383686320C87A4"",""assignmentId"":""166d1019-c492-4d1f-a211-31a51af57be7"",""projectId"":""2dd913a0-fd4c-43f1-b4f3-f0d48537bce8""}","https://test12345.live/?part=2&participantId=6C71201A70B74EBAB5383686320C87A4&assignmentId=166d1019-c492-4d1f-a211-31a51af57be7&projectId=2dd913a0-fd4c-43f1-b4f3-f0d48537bce8","6C71201A70B74EBAB5383686320C87A4-2025-05-15-22-20-55","","null","","images/causal_sequence/museum_causal/museum_causal_0.png","null","",""
"","","","","","html-audio-response","58","1430213","0.0-56.0","6C71201A70B74EBAB5383686320C87A4","6C71201A70B74EBAB5383686320C87A4","166d1019-c492-4d1f-a211-31a51af57be7","2dd913a0-fd4c-43f1-b4f3-f0d48537bce8","{""part"":""2"",""participantId"":""6C71201A70B74EBAB5383686320C87A4"",""assignmentId"":""166d1019-c492-4d1f-a211-31a51af57be7"",""projectId"":""2dd913a0-fd4c-43f1-b4f3-f0d48537bce8""}","https://test12345.live/?part=2&participantId=6C71201A70B74EBAB5383686320C87A4&assignmentId=166d1019-c492-4d1f-a211-31a51af57be7&projectId=2dd913a0-fd4c-43f1-b4f3-f0d48537bce8","6C71201A70B74EBAB5383686320C87A4-2025-05-15-22-20-55","","31176","","[""<span style=\""color: red; font-size: 24px\""> NOW RECORDING</span><p>Please say out loud all the images you saw in part 1 of the experiment, as many as you can remember. The images can be said in any order.</p>""]","","2","museum_causal"
"","","","","","survey-text","59","1440936","0.0-57.0","6C71201A70B74EBAB5383686320C87A4","6C71201A70B74EBAB5383686320C87A4","166d1019-c492-4d1f-a211-31a51af57be7","2dd913a0-fd4c-43f1-b4f3-f0d48537bce8","{""part"":""2"",""participantId"":""6C71201A70B74EBAB5383686320C87A4"",""assignmentId"":""166d1019-c492-4d1f-a211-31a51af57be7"",""projectId"":""2dd913a0-fd4c-43f1-b4f3-f0d48537bce8""}","https://test12345.live/?part=2&participantId=6C71201A70B74EBAB5383686320C87A4&assignmentId=166d1019-c492-4d1f-a211-31a51af57be7&projectId=2dd913a0-fd4c-43f1-b4f3-f0d48537bce8","6C71201A70B74EBAB5383686320C87A4-2025-05-15-22-20-55","","10711","","","{""Q0"":""Female"",""Q1"":""19""}","",""
"","","","","","instructions","60","1448147","0.0-58.0","6C71201A70B74EBAB5383686320C87A4","6C71201A70B74EBAB5383686320C87A4","166d1019-c492-4d1f-a211-31a51af57be7","2dd913a0-fd4c-43f1-b4f3-f0d48537bce8","{""part"":""2"",""participantId"":""6C71201A70B74EBAB5383686320C87A4"",""assignmentId"":""166d1019-c492-4d1f-a211-31a51af57be7"",""projectId"":""2dd913a0-fd4c-43f1-b4f3-f0d48537bce8""}","https://test12345.live/?part=2&participantId=6C71201A70B74EBAB5383686320C87A4&assignmentId=166d1019-c492-4d1f-a211-31a51af57be7&projectId=2dd913a0-fd4c-43f1-b4f3-f0d48537bce8","6C71201A70B74EBAB5383686320C87A4-2025-05-15-22-20-55","[{""page_index"":0,""viewing_time"":7210}]","7210","","","","",""
"","","","","","survey-text","61","1451055","0.0-59.0","6C71201A70B74EBAB5383686320C87A4","6C71201A70B74EBAB5383686320C87A4","166d1019-c492-4d1f-a211-31a51af57be7","2dd913a0-fd4c-43f1-b4f3-f0d48537bce8","{""part"":""2"",""participantId"":""6C71201A70B74EBAB5383686320C87A4"",""assignmentId"":""166d1019-c492-4d1f-a211-31a51af57be7"",""projectId"":""2dd913a0-fd4c-43f1-b4f3-f0d48537bce8""}","https://test12345.live/?part=2&participantId=6C71201A70B74EBAB5383686320C87A4&assignmentId=166d1019-c492-4d1f-a211-31a51af57be7&projectId=2dd913a0-fd4c-43f1-b4f3-f0d48537bce8","6C71201A70B74EBAB5383686320C87A4-2025-05-15-22-20-55","","2905","","","{""Q0"":""AJFHBG896""}","",""
