"success","timeout","failed_images","failed_audio","failed_video","trial_type","trial_index","time_elapsed","internal_node_id","subject","subject_id","study_id","session_id","urlvar","current_url","audio_id","view_history","rt","device_id","stimulus","response","estimated_stimulus_onset","seq_name"
"true","false","[]","[]","[]","preload","0","6522","0.0-0.0","73DE64120BC64CAE8547ABCF5AA238D5","73DE64120BC64CAE8547ABCF5AA238D5","0198c2a0-2e6e-7503-8626-2e6bc28dd127","0198c075-3de9-7cab-996b-8cffe1adb15f","{""num_scrambled_semantic"":""8"",""num_scrambled_causal"":""4"",""num_scrambled_schematic"":""4"",""participantId"":""73DE64120BC64CAE8547ABCF5AA238D5"",""assignmentId"":""0198c2a0-2e6e-7503-8626-2e6bc28dd127"",""projectId"":""0198c075-3de9-7cab-996b-8cffe1adb15f""}","https://test12345.live/?num_scrambled_semantic=8&num_scrambled_causal=4&num_scrambled_schematic=4&participantId=73DE64120BC64CAE8547ABCF5AA238D5&assignmentId=0198c2a0-2e6e-7503-8626-2e6bc28dd127&projectId=0198c075-3de9-7cab-996b-8cffe1adb15f","73DE64120BC64CAE8547ABCF5AA238D5-2025-08-19-14-07-21","","","","","","",""
"","","","","","instructions","1","16268","0.0-1.0","73DE64120BC64CAE8547ABCF5AA238D5","73DE64120BC64CAE8547ABCF5AA238D5","0198c2a0-2e6e-7503-8626-2e6bc28dd127","0198c075-3de9-7cab-996b-8cffe1adb15f","{""num_scrambled_semantic"":""8"",""num_scrambled_causal"":""4"",""num_scrambled_schematic"":""4"",""participantId"":""73DE64120BC64CAE8547ABCF5AA238D5"",""assignmentId"":""0198c2a0-2e6e-7503-8626-2e6bc28dd127"",""projectId"":""0198c075-3de9-7cab-996b-8cffe1adb15f""}","https://test12345.live/?num_scrambled_semantic=8&num_scrambled_causal=4&num_scrambled_schematic=4&participantId=73DE64120BC64CAE8547ABCF5AA238D5&assignmentId=0198c2a0-2e6e-7503-8626-2e6bc28dd127&projectId=0198c075-3de9-7cab-996b-8cffe1adb15f","73DE64120BC64CAE8547ABCF5AA238D5-2025-08-19-14-07-21","[{""page_index"":0,""viewing_time"":9745}]","9745","","","","",""
"","","","","","instructions","2","18752","0.0-2.0","73DE64120BC64CAE8547ABCF5AA238D5","73DE64120BC64CAE8547ABCF5AA238D5","0198c2a0-2e6e-7503-8626-2e6bc28dd127","0198c075-3de9-7cab-996b-8cffe1adb15f","{""num_scrambled_semantic"":""8"",""num_scrambled_causal"":""4"",""num_scrambled_schematic"":""4"",""participantId"":""73DE64120BC64CAE8547ABCF5AA238D5"",""assignmentId"":""0198c2a0-2e6e-7503-8626-2e6bc28dd127"",""projectId"":""0198c075-3de9-7cab-996b-8cffe1adb15f""}","https://test12345.live/?num_scrambled_semantic=8&num_scrambled_causal=4&num_scrambled_schematic=4&participantId=73DE64120BC64CAE8547ABCF5AA238D5&assignmentId=0198c2a0-2e6e-7503-8626-2e6bc28dd127&projectId=0198c075-3de9-7cab-996b-8cffe1adb15f","73DE64120BC64CAE8547ABCF5AA238D5-2025-08-19-14-07-21","[{""page_index"":0,""viewing_time"":2473}]","2473","","","","",""
"true","","","","","fullscreen","3","24214","0.0-3.0","73DE64120BC64CAE8547ABCF5AA238D5","73DE64120BC64CAE8547ABCF5AA238D5","0198c2a0-2e6e-7503-8626-2e6bc28dd127","0198c075-3de9-7cab-996b-8cffe1adb15f","{""num_scrambled_semantic"":""8"",""num_scrambled_causal"":""4"",""num_scrambled_schematic"":""4"",""participantId"":""73DE64120BC64CAE8547ABCF5AA238D5"",""assignmentId"":""0198c2a0-2e6e-7503-8626-2e6bc28dd127"",""projectId"":""0198c075-3de9-7cab-996b-8cffe1adb15f""}","https://test12345.live/?num_scrambled_semantic=8&num_scrambled_causal=4&num_scrambled_schematic=4&participantId=73DE64120BC64CAE8547ABCF5AA238D5&assignmentId=0198c2a0-2e6e-7503-8626-2e6bc28dd127&projectId=0198c075-3de9-7cab-996b-8cffe1adb15f","73DE64120BC64CAE8547ABCF5AA238D5-2025-08-19-14-07-21","","4445","","","","",""
"","","","","","initialize-microphone","4","27845","0.0-4.0-0.0","73DE64120BC64CAE8547ABCF5AA238D5","73DE64120BC64CAE8547ABCF5AA238D5","0198c2a0-2e6e-7503-8626-2e6bc28dd127","0198c075-3de9-7cab-996b-8cffe1adb15f","{""num_scrambled_semantic"":""8"",""num_scrambled_causal"":""4"",""num_scrambled_schematic"":""4"",""participantId"":""73DE64120BC64CAE8547ABCF5AA238D5"",""assignmentId"":""0198c2a0-2e6e-7503-8626-2e6bc28dd127"",""projectId"":""0198c075-3de9-7cab-996b-8cffe1adb15f""}","https://test12345.live/?num_scrambled_semantic=8&num_scrambled_causal=4&num_scrambled_schematic=4&participantId=73DE64120BC64CAE8547ABCF5AA238D5&assignmentId=0198c2a0-2e6e-7503-8626-2e6bc28dd127&projectId=0198c075-3de9-7cab-996b-8cffe1adb15f","73DE64120BC64CAE8547ABCF5AA238D5-2025-08-19-14-07-21","","","b137c7f40fd404427208aded4af015693b7e9dfc4733cec3587ae9f5f9603880","","","",""
"","","","","","html-audio-response","5","36532","0.0-4.0-1.0","73DE64120BC64CAE8547ABCF5AA238D5","73DE64120BC64CAE8547ABCF5AA238D5","0198c2a0-2e6e-7503-8626-2e6bc28dd127","0198c075-3de9-7cab-996b-8cffe1adb15f","{""num_scrambled_semantic"":""8"",""num_scrambled_causal"":""4"",""num_scrambled_schematic"":""4"",""participantId"":""73DE64120BC64CAE8547ABCF5AA238D5"",""assignmentId"":""0198c2a0-2e6e-7503-8626-2e6bc28dd127"",""projectId"":""0198c075-3de9-7cab-996b-8cffe1adb15f""}","https://test12345.live/?num_scrambled_semantic=8&num_scrambled_causal=4&num_scrambled_schematic=4&participantId=73DE64120BC64CAE8547ABCF5AA238D5&assignmentId=0198c2a0-2e6e-7503-8626-2e6bc28dd127&projectId=0198c075-3de9-7cab-996b-8cffe1adb15f","73DE64120BC64CAE8547ABCF5AA238D5-2025-08-19-14-07-21","","3320","","<span style=""color: red; font-size: 24px""> NOW RECORDING</span>
        <p>Please test Microphone</p>","","4",""
"","","","","","html-button-response","6","38021","0.0-4.0-2.0","73DE64120BC64CAE8547ABCF5AA238D5","73DE64120BC64CAE8547ABCF5AA238D5","0198c2a0-2e6e-7503-8626-2e6bc28dd127","0198c075-3de9-7cab-996b-8cffe1adb15f","{""num_scrambled_semantic"":""8"",""num_scrambled_causal"":""4"",""num_scrambled_schematic"":""4"",""participantId"":""73DE64120BC64CAE8547ABCF5AA238D5"",""assignmentId"":""0198c2a0-2e6e-7503-8626-2e6bc28dd127"",""projectId"":""0198c075-3de9-7cab-996b-8cffe1adb15f""}","https://test12345.live/?num_scrambled_semantic=8&num_scrambled_causal=4&num_scrambled_schematic=4&participantId=73DE64120BC64CAE8547ABCF5AA238D5&assignmentId=0198c2a0-2e6e-7503-8626-2e6bc28dd127&projectId=0198c075-3de9-7cab-996b-8cffe1adb15f","73DE64120BC64CAE8547ABCF5AA238D5-2025-08-19-14-07-21","","1487","","<p style=""font-size:48px; color:red;"">Is Microphone OK?</p>","1","",""
"","","","","","instructions","7","56914","0.0-5.0","73DE64120BC64CAE8547ABCF5AA238D5","73DE64120BC64CAE8547ABCF5AA238D5","0198c2a0-2e6e-7503-8626-2e6bc28dd127","0198c075-3de9-7cab-996b-8cffe1adb15f","{""num_scrambled_semantic"":""8"",""num_scrambled_causal"":""4"",""num_scrambled_schematic"":""4"",""participantId"":""73DE64120BC64CAE8547ABCF5AA238D5"",""assignmentId"":""0198c2a0-2e6e-7503-8626-2e6bc28dd127"",""projectId"":""0198c075-3de9-7cab-996b-8cffe1adb15f""}","https://test12345.live/?num_scrambled_semantic=8&num_scrambled_causal=4&num_scrambled_schematic=4&participantId=73DE64120BC64CAE8547ABCF5AA238D5&assignmentId=0198c2a0-2e6e-7503-8626-2e6bc28dd127&projectId=0198c075-3de9-7cab-996b-8cffe1adb15f","73DE64120BC64CAE8547ABCF5AA238D5-2025-08-19-14-07-21","[{""page_index"":0,""viewing_time"":775},{""page_index"":1,""viewing_time"":11443},{""page_index"":2,""viewing_time"":6675}]","18893","","","","",""
"","","","","","image-button-response","8","62937","0.0-6.0-0.0","73DE64120BC64CAE8547ABCF5AA238D5","73DE64120BC64CAE8547ABCF5AA238D5","0198c2a0-2e6e-7503-8626-2e6bc28dd127","0198c075-3de9-7cab-996b-8cffe1adb15f","{""num_scrambled_semantic"":""8"",""num_scrambled_causal"":""4"",""num_scrambled_schematic"":""4"",""participantId"":""73DE64120BC64CAE8547ABCF5AA238D5"",""assignmentId"":""0198c2a0-2e6e-7503-8626-2e6bc28dd127"",""projectId"":""0198c075-3de9-7cab-996b-8cffe1adb15f""}","https://test12345.live/?num_scrambled_semantic=8&num_scrambled_causal=4&num_scrambled_schematic=4&participantId=73DE64120BC64CAE8547ABCF5AA238D5&assignmentId=0198c2a0-2e6e-7503-8626-2e6bc28dd127&projectId=0198c075-3de9-7cab-996b-8cffe1adb15f","73DE64120BC64CAE8547ABCF5AA238D5-2025-08-19-14-07-21","","null","","images/instructions/movie_0.png","null","",""
"","","","","","html-audio-response","9","130968","0.0-7.0","73DE64120BC64CAE8547ABCF5AA238D5","73DE64120BC64CAE8547ABCF5AA238D5","0198c2a0-2e6e-7503-8626-2e6bc28dd127","0198c075-3de9-7cab-996b-8cffe1adb15f","{""num_scrambled_semantic"":""8"",""num_scrambled_causal"":""4"",""num_scrambled_schematic"":""4"",""participantId"":""73DE64120BC64CAE8547ABCF5AA238D5"",""assignmentId"":""0198c2a0-2e6e-7503-8626-2e6bc28dd127"",""projectId"":""0198c075-3de9-7cab-996b-8cffe1adb15f""}","https://test12345.live/?num_scrambled_semantic=8&num_scrambled_causal=4&num_scrambled_schematic=4&participantId=73DE64120BC64CAE8547ABCF5AA238D5&assignmentId=0198c2a0-2e6e-7503-8626-2e6bc28dd127&projectId=0198c075-3de9-7cab-996b-8cffe1adb15f","73DE64120BC64CAE8547ABCF5AA238D5-2025-08-19-14-07-21","","10078","","[""<span style=\""color: red; font-size: 24px\""> NOW RECORDING</span><p>Please say out loud all the images you saw in part 1 of the experiment, as many as you can remember. The images can be said in any order.</p>""]","","1",""
"","","","","","instructions","10","131809","0.0-8.0","73DE64120BC64CAE8547ABCF5AA238D5","73DE64120BC64CAE8547ABCF5AA238D5","0198c2a0-2e6e-7503-8626-2e6bc28dd127","0198c075-3de9-7cab-996b-8cffe1adb15f","{""num_scrambled_semantic"":""8"",""num_scrambled_causal"":""4"",""num_scrambled_schematic"":""4"",""participantId"":""73DE64120BC64CAE8547ABCF5AA238D5"",""assignmentId"":""0198c2a0-2e6e-7503-8626-2e6bc28dd127"",""projectId"":""0198c075-3de9-7cab-996b-8cffe1adb15f""}","https://test12345.live/?num_scrambled_semantic=8&num_scrambled_causal=4&num_scrambled_schematic=4&participantId=73DE64120BC64CAE8547ABCF5AA238D5&assignmentId=0198c2a0-2e6e-7503-8626-2e6bc28dd127&projectId=0198c075-3de9-7cab-996b-8cffe1adb15f","73DE64120BC64CAE8547ABCF5AA238D5-2025-08-19-14-07-21","[{""page_index"":0,""viewing_time"":838}]","838","","","","",""
"","","","","","image-button-response","11","137813","0.0-9.0-0.0","73DE64120BC64CAE8547ABCF5AA238D5","73DE64120BC64CAE8547ABCF5AA238D5","0198c2a0-2e6e-7503-8626-2e6bc28dd127","0198c075-3de9-7cab-996b-8cffe1adb15f","{""num_scrambled_semantic"":""8"",""num_scrambled_causal"":""4"",""num_scrambled_schematic"":""4"",""participantId"":""73DE64120BC64CAE8547ABCF5AA238D5"",""assignmentId"":""0198c2a0-2e6e-7503-8626-2e6bc28dd127"",""projectId"":""0198c075-3de9-7cab-996b-8cffe1adb15f""}","https://test12345.live/?num_scrambled_semantic=8&num_scrambled_causal=4&num_scrambled_schematic=4&participantId=73DE64120BC64CAE8547ABCF5AA238D5&assignmentId=0198c2a0-2e6e-7503-8626-2e6bc28dd127&projectId=0198c075-3de9-7cab-996b-8cffe1adb15f","73DE64120BC64CAE8547ABCF5AA238D5-2025-08-19-14-07-21","","null","","images/semantic_sequence/maintaining_a_car_semantic/maintaining_a_car_semantic_0.png","null","",""
"","","","","","html-audio-response","12","161569","0.0-10.0","73DE64120BC64CAE8547ABCF5AA238D5","73DE64120BC64CAE8547ABCF5AA238D5","0198c2a0-2e6e-7503-8626-2e6bc28dd127","0198c075-3de9-7cab-996b-8cffe1adb15f","{""num_scrambled_semantic"":""8"",""num_scrambled_causal"":""4"",""num_scrambled_schematic"":""4"",""participantId"":""73DE64120BC64CAE8547ABCF5AA238D5"",""assignmentId"":""0198c2a0-2e6e-7503-8626-2e6bc28dd127"",""projectId"":""0198c075-3de9-7cab-996b-8cffe1adb15f""}","https://test12345.live/?num_scrambled_semantic=8&num_scrambled_causal=4&num_scrambled_schematic=4&participantId=73DE64120BC64CAE8547ABCF5AA238D5&assignmentId=0198c2a0-2e6e-7503-8626-2e6bc28dd127&projectId=0198c075-3de9-7cab-996b-8cffe1adb15f","73DE64120BC64CAE8547ABCF5AA238D5-2025-08-19-14-07-21","","9150","","[""<span style=\""color: red; font-size: 24px\""> NOW RECORDING</span><p>Please say out loud all the images you saw in part 1 of the experiment, as many as you can remember. The images can be said in any order.</p>""]","","1","maintaining_a_car_semantic"
"","","","","","image-button-response","13","167572","0.0-11.0-0.0","73DE64120BC64CAE8547ABCF5AA238D5","73DE64120BC64CAE8547ABCF5AA238D5","0198c2a0-2e6e-7503-8626-2e6bc28dd127","0198c075-3de9-7cab-996b-8cffe1adb15f","{""num_scrambled_semantic"":""8"",""num_scrambled_causal"":""4"",""num_scrambled_schematic"":""4"",""participantId"":""73DE64120BC64CAE8547ABCF5AA238D5"",""assignmentId"":""0198c2a0-2e6e-7503-8626-2e6bc28dd127"",""projectId"":""0198c075-3de9-7cab-996b-8cffe1adb15f""}","https://test12345.live/?num_scrambled_semantic=8&num_scrambled_causal=4&num_scrambled_schematic=4&participantId=73DE64120BC64CAE8547ABCF5AA238D5&assignmentId=0198c2a0-2e6e-7503-8626-2e6bc28dd127&projectId=0198c075-3de9-7cab-996b-8cffe1adb15f","73DE64120BC64CAE8547ABCF5AA238D5-2025-08-19-14-07-21","","null","","images/causal_sequence/the_performance_causal/the_performance_causal_0.png","null","",""
"","","","","","html-audio-response","14","189581","0.0-12.0","73DE64120BC64CAE8547ABCF5AA238D5","73DE64120BC64CAE8547ABCF5AA238D5","0198c2a0-2e6e-7503-8626-2e6bc28dd127","0198c075-3de9-7cab-996b-8cffe1adb15f","{""num_scrambled_semantic"":""8"",""num_scrambled_causal"":""4"",""num_scrambled_schematic"":""4"",""participantId"":""73DE64120BC64CAE8547ABCF5AA238D5"",""assignmentId"":""0198c2a0-2e6e-7503-8626-2e6bc28dd127"",""projectId"":""0198c075-3de9-7cab-996b-8cffe1adb15f""}","https://test12345.live/?num_scrambled_semantic=8&num_scrambled_causal=4&num_scrambled_schematic=4&participantId=73DE64120BC64CAE8547ABCF5AA238D5&assignmentId=0198c2a0-2e6e-7503-8626-2e6bc28dd127&projectId=0198c075-3de9-7cab-996b-8cffe1adb15f","73DE64120BC64CAE8547ABCF5AA238D5-2025-08-19-14-07-21","","20784","","[""<span style=\""color: red; font-size: 24px\""> NOW RECORDING</span><p>Please say out loud all the images you saw in part 1 of the experiment, as many as you can remember. The images can be said in any order.</p>""]","","1","the_performance_causal"
"","","","","","image-button-response","15","195596","0.0-13.0-0.0","73DE64120BC64CAE8547ABCF5AA238D5","73DE64120BC64CAE8547ABCF5AA238D5","0198c2a0-2e6e-7503-8626-2e6bc28dd127","0198c075-3de9-7cab-996b-8cffe1adb15f","{""num_scrambled_semantic"":""8"",""num_scrambled_causal"":""4"",""num_scrambled_schematic"":""4"",""participantId"":""73DE64120BC64CAE8547ABCF5AA238D5"",""assignmentId"":""0198c2a0-2e6e-7503-8626-2e6bc28dd127"",""projectId"":""0198c075-3de9-7cab-996b-8cffe1adb15f""}","https://test12345.live/?num_scrambled_semantic=8&num_scrambled_causal=4&num_scrambled_schematic=4&participantId=73DE64120BC64CAE8547ABCF5AA238D5&assignmentId=0198c2a0-2e6e-7503-8626-2e6bc28dd127&projectId=0198c075-3de9-7cab-996b-8cffe1adb15f","73DE64120BC64CAE8547ABCF5AA238D5-2025-08-19-14-07-21","","null","","images/causal_sequence/dog_causal/dog_causal_0.png","null","",""
"","","","","","html-audio-response","16","211177","0.0-14.0","73DE64120BC64CAE8547ABCF5AA238D5","73DE64120BC64CAE8547ABCF5AA238D5","0198c2a0-2e6e-7503-8626-2e6bc28dd127","0198c075-3de9-7cab-996b-8cffe1adb15f","{""num_scrambled_semantic"":""8"",""num_scrambled_causal"":""4"",""num_scrambled_schematic"":""4"",""participantId"":""73DE64120BC64CAE8547ABCF5AA238D5"",""assignmentId"":""0198c2a0-2e6e-7503-8626-2e6bc28dd127"",""projectId"":""0198c075-3de9-7cab-996b-8cffe1adb15f""}","https://test12345.live/?num_scrambled_semantic=8&num_scrambled_causal=4&num_scrambled_schematic=4&participantId=73DE64120BC64CAE8547ABCF5AA238D5&assignmentId=0198c2a0-2e6e-7503-8626-2e6bc28dd127&projectId=0198c075-3de9-7cab-996b-8cffe1adb15f","73DE64120BC64CAE8547ABCF5AA238D5-2025-08-19-14-07-21","","12210","","[""<span style=\""color: red; font-size: 24px\""> NOW RECORDING</span><p>Please say out loud all the images you saw in part 1 of the experiment, as many as you can remember. The images can be said in any order.</p>""]","","1","dog_causal"
"","","","","","image-button-response","17","217194","0.0-15.0-0.0","73DE64120BC64CAE8547ABCF5AA238D5","73DE64120BC64CAE8547ABCF5AA238D5","0198c2a0-2e6e-7503-8626-2e6bc28dd127","0198c075-3de9-7cab-996b-8cffe1adb15f","{""num_scrambled_semantic"":""8"",""num_scrambled_causal"":""4"",""num_scrambled_schematic"":""4"",""participantId"":""73DE64120BC64CAE8547ABCF5AA238D5"",""assignmentId"":""0198c2a0-2e6e-7503-8626-2e6bc28dd127"",""projectId"":""0198c075-3de9-7cab-996b-8cffe1adb15f""}","https://test12345.live/?num_scrambled_semantic=8&num_scrambled_causal=4&num_scrambled_schematic=4&participantId=73DE64120BC64CAE8547ABCF5AA238D5&assignmentId=0198c2a0-2e6e-7503-8626-2e6bc28dd127&projectId=0198c075-3de9-7cab-996b-8cffe1adb15f","73DE64120BC64CAE8547ABCF5AA238D5-2025-08-19-14-07-21","","null","","images/causal_sequence/museum_causal/museum_causal_0.png","null","",""
"","","","","","html-audio-response","18","232393","0.0-16.0","73DE64120BC64CAE8547ABCF5AA238D5","73DE64120BC64CAE8547ABCF5AA238D5","0198c2a0-2e6e-7503-8626-2e6bc28dd127","0198c075-3de9-7cab-996b-8cffe1adb15f","{""num_scrambled_semantic"":""8"",""num_scrambled_causal"":""4"",""num_scrambled_schematic"":""4"",""participantId"":""73DE64120BC64CAE8547ABCF5AA238D5"",""assignmentId"":""0198c2a0-2e6e-7503-8626-2e6bc28dd127"",""projectId"":""0198c075-3de9-7cab-996b-8cffe1adb15f""}","https://test12345.live/?num_scrambled_semantic=8&num_scrambled_causal=4&num_scrambled_schematic=4&participantId=73DE64120BC64CAE8547ABCF5AA238D5&assignmentId=0198c2a0-2e6e-7503-8626-2e6bc28dd127&projectId=0198c075-3de9-7cab-996b-8cffe1adb15f","73DE64120BC64CAE8547ABCF5AA238D5-2025-08-19-14-07-21","","14243","","[""<span style=\""color: red; font-size: 24px\""> NOW RECORDING</span><p>Please say out loud all the images you saw in part 1 of the experiment, as many as you can remember. The images can be said in any order.</p>""]","","1","museum_causal"
"","","","","","image-button-response","19","238398","0.0-17.0-0.0","73DE64120BC64CAE8547ABCF5AA238D5","73DE64120BC64CAE8547ABCF5AA238D5","0198c2a0-2e6e-7503-8626-2e6bc28dd127","0198c075-3de9-7cab-996b-8cffe1adb15f","{""num_scrambled_semantic"":""8"",""num_scrambled_causal"":""4"",""num_scrambled_schematic"":""4"",""participantId"":""73DE64120BC64CAE8547ABCF5AA238D5"",""assignmentId"":""0198c2a0-2e6e-7503-8626-2e6bc28dd127"",""projectId"":""0198c075-3de9-7cab-996b-8cffe1adb15f""}","https://test12345.live/?num_scrambled_semantic=8&num_scrambled_causal=4&num_scrambled_schematic=4&participantId=73DE64120BC64CAE8547ABCF5AA238D5&assignmentId=0198c2a0-2e6e-7503-8626-2e6bc28dd127&projectId=0198c075-3de9-7cab-996b-8cffe1adb15f","73DE64120BC64CAE8547ABCF5AA238D5-2025-08-19-14-07-21","","null","","images/semantic_sequence/using_technology_semantic/using_technology_semantic_0.png","null","",""
"","","","","","html-audio-response","20","265102","0.0-18.0","73DE64120BC64CAE8547ABCF5AA238D5","73DE64120BC64CAE8547ABCF5AA238D5","0198c2a0-2e6e-7503-8626-2e6bc28dd127","0198c075-3de9-7cab-996b-8cffe1adb15f","{""num_scrambled_semantic"":""8"",""num_scrambled_causal"":""4"",""num_scrambled_schematic"":""4"",""participantId"":""73DE64120BC64CAE8547ABCF5AA238D5"",""assignmentId"":""0198c2a0-2e6e-7503-8626-2e6bc28dd127"",""projectId"":""0198c075-3de9-7cab-996b-8cffe1adb15f""}","https://test12345.live/?num_scrambled_semantic=8&num_scrambled_causal=4&num_scrambled_schematic=4&participantId=73DE64120BC64CAE8547ABCF5AA238D5&assignmentId=0198c2a0-2e6e-7503-8626-2e6bc28dd127&projectId=0198c075-3de9-7cab-996b-8cffe1adb15f","73DE64120BC64CAE8547ABCF5AA238D5-2025-08-19-14-07-21","","9160","","[""<span style=\""color: red; font-size: 24px\""> NOW RECORDING</span><p>Please say out loud all the images you saw in part 1 of the experiment, as many as you can remember. The images can be said in any order.</p>""]","","1","using_technology_semantic"
"","","","","","image-button-response","21","271115","0.0-19.0-0.0","73DE64120BC64CAE8547ABCF5AA238D5","73DE64120BC64CAE8547ABCF5AA238D5","0198c2a0-2e6e-7503-8626-2e6bc28dd127","0198c075-3de9-7cab-996b-8cffe1adb15f","{""num_scrambled_semantic"":""8"",""num_scrambled_causal"":""4"",""num_scrambled_schematic"":""4"",""participantId"":""73DE64120BC64CAE8547ABCF5AA238D5"",""assignmentId"":""0198c2a0-2e6e-7503-8626-2e6bc28dd127"",""projectId"":""0198c075-3de9-7cab-996b-8cffe1adb15f""}","https://test12345.live/?num_scrambled_semantic=8&num_scrambled_causal=4&num_scrambled_schematic=4&participantId=73DE64120BC64CAE8547ABCF5AA238D5&assignmentId=0198c2a0-2e6e-7503-8626-2e6bc28dd127&projectId=0198c075-3de9-7cab-996b-8cffe1adb15f","73DE64120BC64CAE8547ABCF5AA238D5-2025-08-19-14-07-21","","null","","images/semantic_sequence/creative_activities_semantic/creative_activities_semantic_0.png","null","",""
"","","","","","html-audio-response","22","285236","0.0-20.0","73DE64120BC64CAE8547ABCF5AA238D5","73DE64120BC64CAE8547ABCF5AA238D5","0198c2a0-2e6e-7503-8626-2e6bc28dd127","0198c075-3de9-7cab-996b-8cffe1adb15f","{""num_scrambled_semantic"":""8"",""num_scrambled_causal"":""4"",""num_scrambled_schematic"":""4"",""participantId"":""73DE64120BC64CAE8547ABCF5AA238D5"",""assignmentId"":""0198c2a0-2e6e-7503-8626-2e6bc28dd127"",""projectId"":""0198c075-3de9-7cab-996b-8cffe1adb15f""}","https://test12345.live/?num_scrambled_semantic=8&num_scrambled_causal=4&num_scrambled_schematic=4&participantId=73DE64120BC64CAE8547ABCF5AA238D5&assignmentId=0198c2a0-2e6e-7503-8626-2e6bc28dd127&projectId=0198c075-3de9-7cab-996b-8cffe1adb15f","73DE64120BC64CAE8547ABCF5AA238D5-2025-08-19-14-07-21","","13178","","[""<span style=\""color: red; font-size: 24px\""> NOW RECORDING</span><p>Please say out loud all the images you saw in part 1 of the experiment, as many as you can remember. The images can be said in any order.</p>""]","","1","creative_activities_semantic"
"","","","","","image-button-response","23","291241","0.0-21.0-0.0","73DE64120BC64CAE8547ABCF5AA238D5","73DE64120BC64CAE8547ABCF5AA238D5","0198c2a0-2e6e-7503-8626-2e6bc28dd127","0198c075-3de9-7cab-996b-8cffe1adb15f","{""num_scrambled_semantic"":""8"",""num_scrambled_causal"":""4"",""num_scrambled_schematic"":""4"",""participantId"":""73DE64120BC64CAE8547ABCF5AA238D5"",""assignmentId"":""0198c2a0-2e6e-7503-8626-2e6bc28dd127"",""projectId"":""0198c075-3de9-7cab-996b-8cffe1adb15f""}","https://test12345.live/?num_scrambled_semantic=8&num_scrambled_causal=4&num_scrambled_schematic=4&participantId=73DE64120BC64CAE8547ABCF5AA238D5&assignmentId=0198c2a0-2e6e-7503-8626-2e6bc28dd127&projectId=0198c075-3de9-7cab-996b-8cffe1adb15f","73DE64120BC64CAE8547ABCF5AA238D5-2025-08-19-14-07-21","","null","","images/causal_sequence/saving_a_cat_causal/saving_a_cat_causal_0.png","null","",""
"","","","","","html-audio-response","24","343225","0.0-22.0","73DE64120BC64CAE8547ABCF5AA238D5","73DE64120BC64CAE8547ABCF5AA238D5","0198c2a0-2e6e-7503-8626-2e6bc28dd127","0198c075-3de9-7cab-996b-8cffe1adb15f","{""num_scrambled_semantic"":""8"",""num_scrambled_causal"":""4"",""num_scrambled_schematic"":""4"",""participantId"":""73DE64120BC64CAE8547ABCF5AA238D5"",""assignmentId"":""0198c2a0-2e6e-7503-8626-2e6bc28dd127"",""projectId"":""0198c075-3de9-7cab-996b-8cffe1adb15f""}","https://test12345.live/?num_scrambled_semantic=8&num_scrambled_causal=4&num_scrambled_schematic=4&participantId=73DE64120BC64CAE8547ABCF5AA238D5&assignmentId=0198c2a0-2e6e-7503-8626-2e6bc28dd127&projectId=0198c075-3de9-7cab-996b-8cffe1adb15f","73DE64120BC64CAE8547ABCF5AA238D5-2025-08-19-14-07-21","","13045","","[""<span style=\""color: red; font-size: 24px\""> NOW RECORDING</span><p>Please say out loud all the images you saw in part 1 of the experiment, as many as you can remember. The images can be said in any order.</p>""]","","14","saving_a_cat_causal"
"","","","","","image-button-response","25","349242","0.0-23.0-0.0","73DE64120BC64CAE8547ABCF5AA238D5","73DE64120BC64CAE8547ABCF5AA238D5","0198c2a0-2e6e-7503-8626-2e6bc28dd127","0198c075-3de9-7cab-996b-8cffe1adb15f","{""num_scrambled_semantic"":""8"",""num_scrambled_causal"":""4"",""num_scrambled_schematic"":""4"",""participantId"":""73DE64120BC64CAE8547ABCF5AA238D5"",""assignmentId"":""0198c2a0-2e6e-7503-8626-2e6bc28dd127"",""projectId"":""0198c075-3de9-7cab-996b-8cffe1adb15f""}","https://test12345.live/?num_scrambled_semantic=8&num_scrambled_causal=4&num_scrambled_schematic=4&participantId=73DE64120BC64CAE8547ABCF5AA238D5&assignmentId=0198c2a0-2e6e-7503-8626-2e6bc28dd127&projectId=0198c075-3de9-7cab-996b-8cffe1adb15f","73DE64120BC64CAE8547ABCF5AA238D5-2025-08-19-14-07-21","","null","","images/causal_sequence/package_causal/package_causal_0.png","null","",""
"","","","","","html-audio-response","26","363273","0.0-24.0","73DE64120BC64CAE8547ABCF5AA238D5","73DE64120BC64CAE8547ABCF5AA238D5","0198c2a0-2e6e-7503-8626-2e6bc28dd127","0198c075-3de9-7cab-996b-8cffe1adb15f","{""num_scrambled_semantic"":""8"",""num_scrambled_causal"":""4"",""num_scrambled_schematic"":""4"",""participantId"":""73DE64120BC64CAE8547ABCF5AA238D5"",""assignmentId"":""0198c2a0-2e6e-7503-8626-2e6bc28dd127"",""projectId"":""0198c075-3de9-7cab-996b-8cffe1adb15f""}","https://test12345.live/?num_scrambled_semantic=8&num_scrambled_causal=4&num_scrambled_schematic=4&participantId=73DE64120BC64CAE8547ABCF5AA238D5&assignmentId=0198c2a0-2e6e-7503-8626-2e6bc28dd127&projectId=0198c075-3de9-7cab-996b-8cffe1adb15f","73DE64120BC64CAE8547ABCF5AA238D5-2025-08-19-14-07-21","","13015","","[""<span style=\""color: red; font-size: 24px\""> NOW RECORDING</span><p>Please say out loud all the images you saw in part 1 of the experiment, as many as you can remember. The images can be said in any order.</p>""]","","1","package_causal"
"","","","","","image-button-response","27","369282","0.0-25.0-0.0","73DE64120BC64CAE8547ABCF5AA238D5","73DE64120BC64CAE8547ABCF5AA238D5","0198c2a0-2e6e-7503-8626-2e6bc28dd127","0198c075-3de9-7cab-996b-8cffe1adb15f","{""num_scrambled_semantic"":""8"",""num_scrambled_causal"":""4"",""num_scrambled_schematic"":""4"",""participantId"":""73DE64120BC64CAE8547ABCF5AA238D5"",""assignmentId"":""0198c2a0-2e6e-7503-8626-2e6bc28dd127"",""projectId"":""0198c075-3de9-7cab-996b-8cffe1adb15f""}","https://test12345.live/?num_scrambled_semantic=8&num_scrambled_causal=4&num_scrambled_schematic=4&participantId=73DE64120BC64CAE8547ABCF5AA238D5&assignmentId=0198c2a0-2e6e-7503-8626-2e6bc28dd127&projectId=0198c075-3de9-7cab-996b-8cffe1adb15f","73DE64120BC64CAE8547ABCF5AA238D5-2025-08-19-14-07-21","","null","","images/semantic_sequence/redecorating_semantic/redecorating_semantic_0.png","null","",""
"","","","","","html-audio-response","28","388363","0.0-26.0","73DE64120BC64CAE8547ABCF5AA238D5","73DE64120BC64CAE8547ABCF5AA238D5","0198c2a0-2e6e-7503-8626-2e6bc28dd127","0198c075-3de9-7cab-996b-8cffe1adb15f","{""num_scrambled_semantic"":""8"",""num_scrambled_causal"":""4"",""num_scrambled_schematic"":""4"",""participantId"":""73DE64120BC64CAE8547ABCF5AA238D5"",""assignmentId"":""0198c2a0-2e6e-7503-8626-2e6bc28dd127"",""projectId"":""0198c075-3de9-7cab-996b-8cffe1adb15f""}","https://test12345.live/?num_scrambled_semantic=8&num_scrambled_causal=4&num_scrambled_schematic=4&participantId=73DE64120BC64CAE8547ABCF5AA238D5&assignmentId=0198c2a0-2e6e-7503-8626-2e6bc28dd127&projectId=0198c075-3de9-7cab-996b-8cffe1adb15f","73DE64120BC64CAE8547ABCF5AA238D5-2025-08-19-14-07-21","","9335","","[""<span style=\""color: red; font-size: 24px\""> NOW RECORDING</span><p>Please say out loud all the images you saw in part 1 of the experiment, as many as you can remember. The images can be said in any order.</p>""]","","1","redecorating_semantic"
"","","","","","image-button-response","29","394368","0.0-27.0-0.0","73DE64120BC64CAE8547ABCF5AA238D5","73DE64120BC64CAE8547ABCF5AA238D5","0198c2a0-2e6e-7503-8626-2e6bc28dd127","0198c075-3de9-7cab-996b-8cffe1adb15f","{""num_scrambled_semantic"":""8"",""num_scrambled_causal"":""4"",""num_scrambled_schematic"":""4"",""participantId"":""73DE64120BC64CAE8547ABCF5AA238D5"",""assignmentId"":""0198c2a0-2e6e-7503-8626-2e6bc28dd127"",""projectId"":""0198c075-3de9-7cab-996b-8cffe1adb15f""}","https://test12345.live/?num_scrambled_semantic=8&num_scrambled_causal=4&num_scrambled_schematic=4&participantId=73DE64120BC64CAE8547ABCF5AA238D5&assignmentId=0198c2a0-2e6e-7503-8626-2e6bc28dd127&projectId=0198c075-3de9-7cab-996b-8cffe1adb15f","73DE64120BC64CAE8547ABCF5AA238D5-2025-08-19-14-07-21","","null","","images/semantic_sequence/housework_semantic/housework_semantic_0.png","null","",""
"","","","","","html-audio-response","30","431299","0.0-28.0","73DE64120BC64CAE8547ABCF5AA238D5","73DE64120BC64CAE8547ABCF5AA238D5","0198c2a0-2e6e-7503-8626-2e6bc28dd127","0198c075-3de9-7cab-996b-8cffe1adb15f","{""num_scrambled_semantic"":""8"",""num_scrambled_causal"":""4"",""num_scrambled_schematic"":""4"",""participantId"":""73DE64120BC64CAE8547ABCF5AA238D5"",""assignmentId"":""0198c2a0-2e6e-7503-8626-2e6bc28dd127"",""projectId"":""0198c075-3de9-7cab-996b-8cffe1adb15f""}","https://test12345.live/?num_scrambled_semantic=8&num_scrambled_causal=4&num_scrambled_schematic=4&participantId=73DE64120BC64CAE8547ABCF5AA238D5&assignmentId=0198c2a0-2e6e-7503-8626-2e6bc28dd127&projectId=0198c075-3de9-7cab-996b-8cffe1adb15f","73DE64120BC64CAE8547ABCF5AA238D5-2025-08-19-14-07-21","","6884","","[""<span style=\""color: red; font-size: 24px\""> NOW RECORDING</span><p>Please say out loud all the images you saw in part 1 of the experiment, as many as you can remember. The images can be said in any order.</p>""]","","1","housework_semantic"
"","","","","","image-button-response","31","437316","0.0-29.0-0.0","73DE64120BC64CAE8547ABCF5AA238D5","73DE64120BC64CAE8547ABCF5AA238D5","0198c2a0-2e6e-7503-8626-2e6bc28dd127","0198c075-3de9-7cab-996b-8cffe1adb15f","{""num_scrambled_semantic"":""8"",""num_scrambled_causal"":""4"",""num_scrambled_schematic"":""4"",""participantId"":""73DE64120BC64CAE8547ABCF5AA238D5"",""assignmentId"":""0198c2a0-2e6e-7503-8626-2e6bc28dd127"",""projectId"":""0198c075-3de9-7cab-996b-8cffe1adb15f""}","https://test12345.live/?num_scrambled_semantic=8&num_scrambled_causal=4&num_scrambled_schematic=4&participantId=73DE64120BC64CAE8547ABCF5AA238D5&assignmentId=0198c2a0-2e6e-7503-8626-2e6bc28dd127&projectId=0198c075-3de9-7cab-996b-8cffe1adb15f","73DE64120BC64CAE8547ABCF5AA238D5-2025-08-19-14-07-21","","null","","images/causal_sequence/coin_causal/coin_causal_0.png","null","",""
"","","","","","html-audio-response","32","451732","0.0-30.0","73DE64120BC64CAE8547ABCF5AA238D5","73DE64120BC64CAE8547ABCF5AA238D5","0198c2a0-2e6e-7503-8626-2e6bc28dd127","0198c075-3de9-7cab-996b-8cffe1adb15f","{""num_scrambled_semantic"":""8"",""num_scrambled_causal"":""4"",""num_scrambled_schematic"":""4"",""participantId"":""73DE64120BC64CAE8547ABCF5AA238D5"",""assignmentId"":""0198c2a0-2e6e-7503-8626-2e6bc28dd127"",""projectId"":""0198c075-3de9-7cab-996b-8cffe1adb15f""}","https://test12345.live/?num_scrambled_semantic=8&num_scrambled_causal=4&num_scrambled_schematic=4&participantId=73DE64120BC64CAE8547ABCF5AA238D5&assignmentId=0198c2a0-2e6e-7503-8626-2e6bc28dd127&projectId=0198c075-3de9-7cab-996b-8cffe1adb15f","73DE64120BC64CAE8547ABCF5AA238D5-2025-08-19-14-07-21","","13603","","[""<span style=\""color: red; font-size: 24px\""> NOW RECORDING</span><p>Please say out loud all the images you saw in part 1 of the experiment, as many as you can remember. The images can be said in any order.</p>""]","","1","coin_causal"
"","","","","","image-button-response","33","457741","0.0-31.0-0.0","73DE64120BC64CAE8547ABCF5AA238D5","73DE64120BC64CAE8547ABCF5AA238D5","0198c2a0-2e6e-7503-8626-2e6bc28dd127","0198c075-3de9-7cab-996b-8cffe1adb15f","{""num_scrambled_semantic"":""8"",""num_scrambled_causal"":""4"",""num_scrambled_schematic"":""4"",""participantId"":""73DE64120BC64CAE8547ABCF5AA238D5"",""assignmentId"":""0198c2a0-2e6e-7503-8626-2e6bc28dd127"",""projectId"":""0198c075-3de9-7cab-996b-8cffe1adb15f""}","https://test12345.live/?num_scrambled_semantic=8&num_scrambled_causal=4&num_scrambled_schematic=4&participantId=73DE64120BC64CAE8547ABCF5AA238D5&assignmentId=0198c2a0-2e6e-7503-8626-2e6bc28dd127&projectId=0198c075-3de9-7cab-996b-8cffe1adb15f","73DE64120BC64CAE8547ABCF5AA238D5-2025-08-19-14-07-21","","null","","images/semantic_sequence/cat_care_semantic/cat_care_semantic_0.png","null","",""
"","","","","","html-audio-response","34","475888","0.0-32.0","73DE64120BC64CAE8547ABCF5AA238D5","73DE64120BC64CAE8547ABCF5AA238D5","0198c2a0-2e6e-7503-8626-2e6bc28dd127","0198c075-3de9-7cab-996b-8cffe1adb15f","{""num_scrambled_semantic"":""8"",""num_scrambled_causal"":""4"",""num_scrambled_schematic"":""4"",""participantId"":""73DE64120BC64CAE8547ABCF5AA238D5"",""assignmentId"":""0198c2a0-2e6e-7503-8626-2e6bc28dd127"",""projectId"":""0198c075-3de9-7cab-996b-8cffe1adb15f""}","https://test12345.live/?num_scrambled_semantic=8&num_scrambled_causal=4&num_scrambled_schematic=4&participantId=73DE64120BC64CAE8547ABCF5AA238D5&assignmentId=0198c2a0-2e6e-7503-8626-2e6bc28dd127&projectId=0198c075-3de9-7cab-996b-8cffe1adb15f","73DE64120BC64CAE8547ABCF5AA238D5-2025-08-19-14-07-21","","17536","","[""<span style=\""color: red; font-size: 24px\""> NOW RECORDING</span><p>Please say out loud all the images you saw in part 1 of the experiment, as many as you can remember. The images can be said in any order.</p>""]","","1","cat_care_semantic"
"","","","","","image-button-response","35","481894","0.0-33.0-0.0","73DE64120BC64CAE8547ABCF5AA238D5","73DE64120BC64CAE8547ABCF5AA238D5","0198c2a0-2e6e-7503-8626-2e6bc28dd127","0198c075-3de9-7cab-996b-8cffe1adb15f","{""num_scrambled_semantic"":""8"",""num_scrambled_causal"":""4"",""num_scrambled_schematic"":""4"",""participantId"":""73DE64120BC64CAE8547ABCF5AA238D5"",""assignmentId"":""0198c2a0-2e6e-7503-8626-2e6bc28dd127"",""projectId"":""0198c075-3de9-7cab-996b-8cffe1adb15f""}","https://test12345.live/?num_scrambled_semantic=8&num_scrambled_causal=4&num_scrambled_schematic=4&participantId=73DE64120BC64CAE8547ABCF5AA238D5&assignmentId=0198c2a0-2e6e-7503-8626-2e6bc28dd127&projectId=0198c075-3de9-7cab-996b-8cffe1adb15f","73DE64120BC64CAE8547ABCF5AA238D5-2025-08-19-14-07-21","","null","","images/semantic_sequence/physical_activity_semantic/physical_activity_semantic_0.png","null","",""
"","","","","","html-audio-response","36","502742","0.0-34.0","73DE64120BC64CAE8547ABCF5AA238D5","73DE64120BC64CAE8547ABCF5AA238D5","0198c2a0-2e6e-7503-8626-2e6bc28dd127","0198c075-3de9-7cab-996b-8cffe1adb15f","{""num_scrambled_semantic"":""8"",""num_scrambled_causal"":""4"",""num_scrambled_schematic"":""4"",""participantId"":""73DE64120BC64CAE8547ABCF5AA238D5"",""assignmentId"":""0198c2a0-2e6e-7503-8626-2e6bc28dd127"",""projectId"":""0198c075-3de9-7cab-996b-8cffe1adb15f""}","https://test12345.live/?num_scrambled_semantic=8&num_scrambled_causal=4&num_scrambled_schematic=4&participantId=73DE64120BC64CAE8547ABCF5AA238D5&assignmentId=0198c2a0-2e6e-7503-8626-2e6bc28dd127&projectId=0198c075-3de9-7cab-996b-8cffe1adb15f","73DE64120BC64CAE8547ABCF5AA238D5-2025-08-19-14-07-21","","10396","","[""<span style=\""color: red; font-size: 24px\""> NOW RECORDING</span><p>Please say out loud all the images you saw in part 1 of the experiment, as many as you can remember. The images can be said in any order.</p>""]","","1","physical_activity_semantic"
"","","","","","survey-text","37","509072","0.0-35.0","73DE64120BC64CAE8547ABCF5AA238D5","73DE64120BC64CAE8547ABCF5AA238D5","0198c2a0-2e6e-7503-8626-2e6bc28dd127","0198c075-3de9-7cab-996b-8cffe1adb15f","{""num_scrambled_semantic"":""8"",""num_scrambled_causal"":""4"",""num_scrambled_schematic"":""4"",""participantId"":""73DE64120BC64CAE8547ABCF5AA238D5"",""assignmentId"":""0198c2a0-2e6e-7503-8626-2e6bc28dd127"",""projectId"":""0198c075-3de9-7cab-996b-8cffe1adb15f""}","https://test12345.live/?num_scrambled_semantic=8&num_scrambled_causal=4&num_scrambled_schematic=4&participantId=73DE64120BC64CAE8547ABCF5AA238D5&assignmentId=0198c2a0-2e6e-7503-8626-2e6bc28dd127&projectId=0198c075-3de9-7cab-996b-8cffe1adb15f","73DE64120BC64CAE8547ABCF5AA238D5-2025-08-19-14-07-21","","6325","","","{""Q0"":""MALE"",""Q1"":""33""}","",""
"","","","","","instructions","38","514061","0.0-36.0","73DE64120BC64CAE8547ABCF5AA238D5","73DE64120BC64CAE8547ABCF5AA238D5","0198c2a0-2e6e-7503-8626-2e6bc28dd127","0198c075-3de9-7cab-996b-8cffe1adb15f","{""num_scrambled_semantic"":""8"",""num_scrambled_causal"":""4"",""num_scrambled_schematic"":""4"",""participantId"":""73DE64120BC64CAE8547ABCF5AA238D5"",""assignmentId"":""0198c2a0-2e6e-7503-8626-2e6bc28dd127"",""projectId"":""0198c075-3de9-7cab-996b-8cffe1adb15f""}","https://test12345.live/?num_scrambled_semantic=8&num_scrambled_causal=4&num_scrambled_schematic=4&participantId=73DE64120BC64CAE8547ABCF5AA238D5&assignmentId=0198c2a0-2e6e-7503-8626-2e6bc28dd127&projectId=0198c075-3de9-7cab-996b-8cffe1adb15f","73DE64120BC64CAE8547ABCF5AA238D5-2025-08-19-14-07-21","[{""page_index"":0,""viewing_time"":4989}]","4989","","","","",""
"","","","","","survey-text","39","516249","0.0-37.0","73DE64120BC64CAE8547ABCF5AA238D5","73DE64120BC64CAE8547ABCF5AA238D5","0198c2a0-2e6e-7503-8626-2e6bc28dd127","0198c075-3de9-7cab-996b-8cffe1adb15f","{""num_scrambled_semantic"":""8"",""num_scrambled_causal"":""4"",""num_scrambled_schematic"":""4"",""participantId"":""73DE64120BC64CAE8547ABCF5AA238D5"",""assignmentId"":""0198c2a0-2e6e-7503-8626-2e6bc28dd127"",""projectId"":""0198c075-3de9-7cab-996b-8cffe1adb15f""}","https://test12345.live/?num_scrambled_semantic=8&num_scrambled_causal=4&num_scrambled_schematic=4&participantId=73DE64120BC64CAE8547ABCF5AA238D5&assignmentId=0198c2a0-2e6e-7503-8626-2e6bc28dd127&projectId=0198c075-3de9-7cab-996b-8cffe1adb15f","73DE64120BC64CAE8547ABCF5AA238D5-2025-08-19-14-07-21","","2187","","","{""Q0"":""AJFHBG896""}","",""
