"success","timeout","failed_images","failed_audio","failed_video","trial_type","trial_index","time_elapsed","internal_node_id","subject","subject_id","study_id","session_id","urlvar","current_url","audio_id","view_history","rt","device_id","stimulus","response","estimated_stimulus_onset","seq_name"
"true","false","[]","[]","[]","preload","0","5575","0.0-0.0","74BAFA9EE1904D45AD73CF23223309E8","74BAFA9EE1904D45AD73CF23223309E8","0198befd-0856-7cbe-8457-47da2e30947e","0198beef-981a-7243-9790-051e10551090","{""num_scrambled_semantic"":""8"",""num_scrambled_causal"":""4"",""num_scrambled_schematic"":""4"",""participantId"":""74BAFA9EE1904D45AD73CF23223309E8"",""assignmentId"":""0198befd-0856-7cbe-8457-47da2e30947e"",""projectId"":""0198beef-981a-7243-9790-051e10551090""}","https://test12345.live/?num_scrambled_semantic=8&num_scrambled_causal=4&num_scrambled_schematic=4&participantId=74BAFA9EE1904D45AD73CF23223309E8&assignmentId=0198befd-0856-7cbe-8457-47da2e30947e&projectId=0198beef-981a-7243-9790-051e10551090","74BAFA9EE1904D45AD73CF23223309E8-2025-08-18-21-09-14","","","","","","",""
"","","","","","instructions","1","29130","0.0-1.0","74BAFA9EE1904D45AD73CF23223309E8","74BAFA9EE1904D45AD73CF23223309E8","0198befd-0856-7cbe-8457-47da2e30947e","0198beef-981a-7243-9790-051e10551090","{""num_scrambled_semantic"":""8"",""num_scrambled_causal"":""4"",""num_scrambled_schematic"":""4"",""participantId"":""74BAFA9EE1904D45AD73CF23223309E8"",""assignmentId"":""0198befd-0856-7cbe-8457-47da2e30947e"",""projectId"":""0198beef-981a-7243-9790-051e10551090""}","https://test12345.live/?num_scrambled_semantic=8&num_scrambled_causal=4&num_scrambled_schematic=4&participantId=74BAFA9EE1904D45AD73CF23223309E8&assignmentId=0198befd-0856-7cbe-8457-47da2e30947e&projectId=0198beef-981a-7243-9790-051e10551090","74BAFA9EE1904D45AD73CF23223309E8-2025-08-18-21-09-14","[{""page_index"":0,""viewing_time"":23554}]","23554","","","","",""
"","","","","","instructions","2","42380","0.0-2.0","74BAFA9EE1904D45AD73CF23223309E8","74BAFA9EE1904D45AD73CF23223309E8","0198befd-0856-7cbe-8457-47da2e30947e","0198beef-981a-7243-9790-051e10551090","{""num_scrambled_semantic"":""8"",""num_scrambled_causal"":""4"",""num_scrambled_schematic"":""4"",""participantId"":""74BAFA9EE1904D45AD73CF23223309E8"",""assignmentId"":""0198befd-0856-7cbe-8457-47da2e30947e"",""projectId"":""0198beef-981a-7243-9790-051e10551090""}","https://test12345.live/?num_scrambled_semantic=8&num_scrambled_causal=4&num_scrambled_schematic=4&participantId=74BAFA9EE1904D45AD73CF23223309E8&assignmentId=0198befd-0856-7cbe-8457-47da2e30947e&projectId=0198beef-981a-7243-9790-051e10551090","74BAFA9EE1904D45AD73CF23223309E8-2025-08-18-21-09-14","[{""page_index"":0,""viewing_time"":13250}]","13250","","","","",""
"true","","","","","fullscreen","3","44921","0.0-3.0","74BAFA9EE1904D45AD73CF23223309E8","74BAFA9EE1904D45AD73CF23223309E8","0198befd-0856-7cbe-8457-47da2e30947e","0198beef-981a-7243-9790-051e10551090","{""num_scrambled_semantic"":""8"",""num_scrambled_causal"":""4"",""num_scrambled_schematic"":""4"",""participantId"":""74BAFA9EE1904D45AD73CF23223309E8"",""assignmentId"":""0198befd-0856-7cbe-8457-47da2e30947e"",""projectId"":""0198beef-981a-7243-9790-051e10551090""}","https://test12345.live/?num_scrambled_semantic=8&num_scrambled_causal=4&num_scrambled_schematic=4&participantId=74BAFA9EE1904D45AD73CF23223309E8&assignmentId=0198befd-0856-7cbe-8457-47da2e30947e&projectId=0198beef-981a-7243-9790-051e10551090","74BAFA9EE1904D45AD73CF23223309E8-2025-08-18-21-09-14","","1526","","","","",""
"","","","","","initialize-microphone","4","49591","0.0-4.0-0.0","74BAFA9EE1904D45AD73CF23223309E8","74BAFA9EE1904D45AD73CF23223309E8","0198befd-0856-7cbe-8457-47da2e30947e","0198beef-981a-7243-9790-051e10551090","{""num_scrambled_semantic"":""8"",""num_scrambled_causal"":""4"",""num_scrambled_schematic"":""4"",""participantId"":""74BAFA9EE1904D45AD73CF23223309E8"",""assignmentId"":""0198befd-0856-7cbe-8457-47da2e30947e"",""projectId"":""0198beef-981a-7243-9790-051e10551090""}","https://test12345.live/?num_scrambled_semantic=8&num_scrambled_causal=4&num_scrambled_schematic=4&participantId=74BAFA9EE1904D45AD73CF23223309E8&assignmentId=0198befd-0856-7cbe-8457-47da2e30947e&projectId=0198beef-981a-7243-9790-051e10551090","74BAFA9EE1904D45AD73CF23223309E8-2025-08-18-21-09-14","","","75eb657a5009e00f4108dc5731a73df1e76f926a3b8b0c073d7e69859c3a8913","","","",""
"","","","","","html-audio-response","5","56481","0.0-4.0-1.0","74BAFA9EE1904D45AD73CF23223309E8","74BAFA9EE1904D45AD73CF23223309E8","0198befd-0856-7cbe-8457-47da2e30947e","0198beef-981a-7243-9790-051e10551090","{""num_scrambled_semantic"":""8"",""num_scrambled_causal"":""4"",""num_scrambled_schematic"":""4"",""participantId"":""74BAFA9EE1904D45AD73CF23223309E8"",""assignmentId"":""0198befd-0856-7cbe-8457-47da2e30947e"",""projectId"":""0198beef-981a-7243-9790-051e10551090""}","https://test12345.live/?num_scrambled_semantic=8&num_scrambled_causal=4&num_scrambled_schematic=4&participantId=74BAFA9EE1904D45AD73CF23223309E8&assignmentId=0198befd-0856-7cbe-8457-47da2e30947e&projectId=0198beef-981a-7243-9790-051e10551090","74BAFA9EE1904D45AD73CF23223309E8-2025-08-18-21-09-14","","2945","","<span style=""color: red; font-size: 24px""> NOW RECORDING</span>
        <p>Please test Microphone</p>","","3",""
"","","","","","html-button-response","6","58465","0.0-4.0-2.0","74BAFA9EE1904D45AD73CF23223309E8","74BAFA9EE1904D45AD73CF23223309E8","0198befd-0856-7cbe-8457-47da2e30947e","0198beef-981a-7243-9790-051e10551090","{""num_scrambled_semantic"":""8"",""num_scrambled_causal"":""4"",""num_scrambled_schematic"":""4"",""participantId"":""74BAFA9EE1904D45AD73CF23223309E8"",""assignmentId"":""0198befd-0856-7cbe-8457-47da2e30947e"",""projectId"":""0198beef-981a-7243-9790-051e10551090""}","https://test12345.live/?num_scrambled_semantic=8&num_scrambled_causal=4&num_scrambled_schematic=4&participantId=74BAFA9EE1904D45AD73CF23223309E8&assignmentId=0198befd-0856-7cbe-8457-47da2e30947e&projectId=0198beef-981a-7243-9790-051e10551090","74BAFA9EE1904D45AD73CF23223309E8-2025-08-18-21-09-14","","1983","","<p style=""font-size:48px; color:red;"">Is Microphone OK?</p>","1","",""
"","","","","","instructions","7","64317","0.0-5.0","74BAFA9EE1904D45AD73CF23223309E8","74BAFA9EE1904D45AD73CF23223309E8","0198befd-0856-7cbe-8457-47da2e30947e","0198beef-981a-7243-9790-051e10551090","{""num_scrambled_semantic"":""8"",""num_scrambled_causal"":""4"",""num_scrambled_schematic"":""4"",""participantId"":""74BAFA9EE1904D45AD73CF23223309E8"",""assignmentId"":""0198befd-0856-7cbe-8457-47da2e30947e"",""projectId"":""0198beef-981a-7243-9790-051e10551090""}","https://test12345.live/?num_scrambled_semantic=8&num_scrambled_causal=4&num_scrambled_schematic=4&participantId=74BAFA9EE1904D45AD73CF23223309E8&assignmentId=0198befd-0856-7cbe-8457-47da2e30947e&projectId=0198beef-981a-7243-9790-051e10551090","74BAFA9EE1904D45AD73CF23223309E8-2025-08-18-21-09-14","[{""page_index"":0,""viewing_time"":1183},{""page_index"":1,""viewing_time"":2522},{""page_index"":2,""viewing_time"":2147}]","5852","","","","",""
"","","","","","image-button-response","8","70320","0.0-6.0-0.0","74BAFA9EE1904D45AD73CF23223309E8","74BAFA9EE1904D45AD73CF23223309E8","0198befd-0856-7cbe-8457-47da2e30947e","0198beef-981a-7243-9790-051e10551090","{""num_scrambled_semantic"":""8"",""num_scrambled_causal"":""4"",""num_scrambled_schematic"":""4"",""participantId"":""74BAFA9EE1904D45AD73CF23223309E8"",""assignmentId"":""0198befd-0856-7cbe-8457-47da2e30947e"",""projectId"":""0198beef-981a-7243-9790-051e10551090""}","https://test12345.live/?num_scrambled_semantic=8&num_scrambled_causal=4&num_scrambled_schematic=4&participantId=74BAFA9EE1904D45AD73CF23223309E8&assignmentId=0198befd-0856-7cbe-8457-47da2e30947e&projectId=0198beef-981a-7243-9790-051e10551090","74BAFA9EE1904D45AD73CF23223309E8-2025-08-18-21-09-14","","null","","images/instructions/movie_0.png","null","",""
"","","","","","html-audio-response","9","87613","0.0-7.0","74BAFA9EE1904D45AD73CF23223309E8","74BAFA9EE1904D45AD73CF23223309E8","0198befd-0856-7cbe-8457-47da2e30947e","0198beef-981a-7243-9790-051e10551090","{""num_scrambled_semantic"":""8"",""num_scrambled_causal"":""4"",""num_scrambled_schematic"":""4"",""participantId"":""74BAFA9EE1904D45AD73CF23223309E8"",""assignmentId"":""0198befd-0856-7cbe-8457-47da2e30947e"",""projectId"":""0198beef-981a-7243-9790-051e10551090""}","https://test12345.live/?num_scrambled_semantic=8&num_scrambled_causal=4&num_scrambled_schematic=4&participantId=74BAFA9EE1904D45AD73CF23223309E8&assignmentId=0198befd-0856-7cbe-8457-47da2e30947e&projectId=0198beef-981a-7243-9790-051e10551090","74BAFA9EE1904D45AD73CF23223309E8-2025-08-18-21-09-14","","15257","","[""<span style=\""color: red; font-size: 24px\""> NOW RECORDING</span><p>Please say out loud all the images you saw in part 1 of the experiment, as many as you can remember. The images can be said in any order.</p>""]","","1",""
"","","","","","instructions","10","89764","0.0-8.0","74BAFA9EE1904D45AD73CF23223309E8","74BAFA9EE1904D45AD73CF23223309E8","0198befd-0856-7cbe-8457-47da2e30947e","0198beef-981a-7243-9790-051e10551090","{""num_scrambled_semantic"":""8"",""num_scrambled_causal"":""4"",""num_scrambled_schematic"":""4"",""participantId"":""74BAFA9EE1904D45AD73CF23223309E8"",""assignmentId"":""0198befd-0856-7cbe-8457-47da2e30947e"",""projectId"":""0198beef-981a-7243-9790-051e10551090""}","https://test12345.live/?num_scrambled_semantic=8&num_scrambled_causal=4&num_scrambled_schematic=4&participantId=74BAFA9EE1904D45AD73CF23223309E8&assignmentId=0198befd-0856-7cbe-8457-47da2e30947e&projectId=0198beef-981a-7243-9790-051e10551090","74BAFA9EE1904D45AD73CF23223309E8-2025-08-18-21-09-14","[{""page_index"":0,""viewing_time"":2149}]","2149","","","","",""
"","","","","","image-button-response","11","95766","0.0-9.0-0.0","74BAFA9EE1904D45AD73CF23223309E8","74BAFA9EE1904D45AD73CF23223309E8","0198befd-0856-7cbe-8457-47da2e30947e","0198beef-981a-7243-9790-051e10551090","{""num_scrambled_semantic"":""8"",""num_scrambled_causal"":""4"",""num_scrambled_schematic"":""4"",""participantId"":""74BAFA9EE1904D45AD73CF23223309E8"",""assignmentId"":""0198befd-0856-7cbe-8457-47da2e30947e"",""projectId"":""0198beef-981a-7243-9790-051e10551090""}","https://test12345.live/?num_scrambled_semantic=8&num_scrambled_causal=4&num_scrambled_schematic=4&participantId=74BAFA9EE1904D45AD73CF23223309E8&assignmentId=0198befd-0856-7cbe-8457-47da2e30947e&projectId=0198beef-981a-7243-9790-051e10551090","74BAFA9EE1904D45AD73CF23223309E8-2025-08-18-21-09-14","","null","","images/semantic_sequence/maintaining_a_car_semantic/maintaining_a_car_semantic_0.png","null","",""
"","","","","","html-audio-response","12","109563","0.0-10.0","74BAFA9EE1904D45AD73CF23223309E8","74BAFA9EE1904D45AD73CF23223309E8","0198befd-0856-7cbe-8457-47da2e30947e","0198beef-981a-7243-9790-051e10551090","{""num_scrambled_semantic"":""8"",""num_scrambled_causal"":""4"",""num_scrambled_schematic"":""4"",""participantId"":""74BAFA9EE1904D45AD73CF23223309E8"",""assignmentId"":""0198befd-0856-7cbe-8457-47da2e30947e"",""projectId"":""0198beef-981a-7243-9790-051e10551090""}","https://test12345.live/?num_scrambled_semantic=8&num_scrambled_causal=4&num_scrambled_schematic=4&participantId=74BAFA9EE1904D45AD73CF23223309E8&assignmentId=0198befd-0856-7cbe-8457-47da2e30947e&projectId=0198beef-981a-7243-9790-051e10551090","74BAFA9EE1904D45AD73CF23223309E8-2025-08-18-21-09-14","","9833","","[""<span style=\""color: red; font-size: 24px\""> NOW RECORDING</span><p>Please say out loud all the images you saw in part 1 of the experiment, as many as you can remember. The images can be said in any order.</p>""]","","1","maintaining_a_car_semantic"
"","","","","","image-button-response","13","115566","0.0-11.0-0.0","74BAFA9EE1904D45AD73CF23223309E8","74BAFA9EE1904D45AD73CF23223309E8","0198befd-0856-7cbe-8457-47da2e30947e","0198beef-981a-7243-9790-051e10551090","{""num_scrambled_semantic"":""8"",""num_scrambled_causal"":""4"",""num_scrambled_schematic"":""4"",""participantId"":""74BAFA9EE1904D45AD73CF23223309E8"",""assignmentId"":""0198befd-0856-7cbe-8457-47da2e30947e"",""projectId"":""0198beef-981a-7243-9790-051e10551090""}","https://test12345.live/?num_scrambled_semantic=8&num_scrambled_causal=4&num_scrambled_schematic=4&participantId=74BAFA9EE1904D45AD73CF23223309E8&assignmentId=0198befd-0856-7cbe-8457-47da2e30947e&projectId=0198beef-981a-7243-9790-051e10551090","74BAFA9EE1904D45AD73CF23223309E8-2025-08-18-21-09-14","","null","","images/semantic_sequence/redecorating_semantic/redecorating_semantic_0.png","null","",""
"","","","","","html-audio-response","14","125269","0.0-12.0","74BAFA9EE1904D45AD73CF23223309E8","74BAFA9EE1904D45AD73CF23223309E8","0198befd-0856-7cbe-8457-47da2e30947e","0198beef-981a-7243-9790-051e10551090","{""num_scrambled_semantic"":""8"",""num_scrambled_causal"":""4"",""num_scrambled_schematic"":""4"",""participantId"":""74BAFA9EE1904D45AD73CF23223309E8"",""assignmentId"":""0198befd-0856-7cbe-8457-47da2e30947e"",""projectId"":""0198beef-981a-7243-9790-051e10551090""}","https://test12345.live/?num_scrambled_semantic=8&num_scrambled_causal=4&num_scrambled_schematic=4&participantId=74BAFA9EE1904D45AD73CF23223309E8&assignmentId=0198befd-0856-7cbe-8457-47da2e30947e&projectId=0198beef-981a-7243-9790-051e10551090","74BAFA9EE1904D45AD73CF23223309E8-2025-08-18-21-09-14","","6538","","[""<span style=\""color: red; font-size: 24px\""> NOW RECORDING</span><p>Please say out loud all the images you saw in part 1 of the experiment, as many as you can remember. The images can be said in any order.</p>""]","","1","redecorating_semantic"
"","","","","","image-button-response","15","131271","0.0-13.0-0.0","74BAFA9EE1904D45AD73CF23223309E8","74BAFA9EE1904D45AD73CF23223309E8","0198befd-0856-7cbe-8457-47da2e30947e","0198beef-981a-7243-9790-051e10551090","{""num_scrambled_semantic"":""8"",""num_scrambled_causal"":""4"",""num_scrambled_schematic"":""4"",""participantId"":""74BAFA9EE1904D45AD73CF23223309E8"",""assignmentId"":""0198befd-0856-7cbe-8457-47da2e30947e"",""projectId"":""0198beef-981a-7243-9790-051e10551090""}","https://test12345.live/?num_scrambled_semantic=8&num_scrambled_causal=4&num_scrambled_schematic=4&participantId=74BAFA9EE1904D45AD73CF23223309E8&assignmentId=0198befd-0856-7cbe-8457-47da2e30947e&projectId=0198beef-981a-7243-9790-051e10551090","74BAFA9EE1904D45AD73CF23223309E8-2025-08-18-21-09-14","","null","","images/semantic_sequence/using_technology_semantic/using_technology_semantic_0.png","null","",""
"","","","","","html-audio-response","16","141715","0.0-14.0","74BAFA9EE1904D45AD73CF23223309E8","74BAFA9EE1904D45AD73CF23223309E8","0198befd-0856-7cbe-8457-47da2e30947e","0198beef-981a-7243-9790-051e10551090","{""num_scrambled_semantic"":""8"",""num_scrambled_causal"":""4"",""num_scrambled_schematic"":""4"",""participantId"":""74BAFA9EE1904D45AD73CF23223309E8"",""assignmentId"":""0198befd-0856-7cbe-8457-47da2e30947e"",""projectId"":""0198beef-981a-7243-9790-051e10551090""}","https://test12345.live/?num_scrambled_semantic=8&num_scrambled_causal=4&num_scrambled_schematic=4&participantId=74BAFA9EE1904D45AD73CF23223309E8&assignmentId=0198befd-0856-7cbe-8457-47da2e30947e&projectId=0198beef-981a-7243-9790-051e10551090","74BAFA9EE1904D45AD73CF23223309E8-2025-08-18-21-09-14","","9719","","[""<span style=\""color: red; font-size: 24px\""> NOW RECORDING</span><p>Please say out loud all the images you saw in part 1 of the experiment, as many as you can remember. The images can be said in any order.</p>""]","","1","using_technology_semantic"
"","","","","","image-button-response","17","147718","0.0-15.0-0.0","74BAFA9EE1904D45AD73CF23223309E8","74BAFA9EE1904D45AD73CF23223309E8","0198befd-0856-7cbe-8457-47da2e30947e","0198beef-981a-7243-9790-051e10551090","{""num_scrambled_semantic"":""8"",""num_scrambled_causal"":""4"",""num_scrambled_schematic"":""4"",""participantId"":""74BAFA9EE1904D45AD73CF23223309E8"",""assignmentId"":""0198befd-0856-7cbe-8457-47da2e30947e"",""projectId"":""0198beef-981a-7243-9790-051e10551090""}","https://test12345.live/?num_scrambled_semantic=8&num_scrambled_causal=4&num_scrambled_schematic=4&participantId=74BAFA9EE1904D45AD73CF23223309E8&assignmentId=0198befd-0856-7cbe-8457-47da2e30947e&projectId=0198beef-981a-7243-9790-051e10551090","74BAFA9EE1904D45AD73CF23223309E8-2025-08-18-21-09-14","","null","","images/semantic_sequence/creative_activities_semantic/creative_activities_semantic_0.png","null","",""
"","","","","","html-audio-response","18","167858","0.0-16.0","74BAFA9EE1904D45AD73CF23223309E8","74BAFA9EE1904D45AD73CF23223309E8","0198befd-0856-7cbe-8457-47da2e30947e","0198beef-981a-7243-9790-051e10551090","{""num_scrambled_semantic"":""8"",""num_scrambled_causal"":""4"",""num_scrambled_schematic"":""4"",""participantId"":""74BAFA9EE1904D45AD73CF23223309E8"",""assignmentId"":""0198befd-0856-7cbe-8457-47da2e30947e"",""projectId"":""0198beef-981a-7243-9790-051e10551090""}","https://test12345.live/?num_scrambled_semantic=8&num_scrambled_causal=4&num_scrambled_schematic=4&participantId=74BAFA9EE1904D45AD73CF23223309E8&assignmentId=0198befd-0856-7cbe-8457-47da2e30947e&projectId=0198beef-981a-7243-9790-051e10551090","74BAFA9EE1904D45AD73CF23223309E8-2025-08-18-21-09-14","","14212","","[""<span style=\""color: red; font-size: 24px\""> NOW RECORDING</span><p>Please say out loud all the images you saw in part 1 of the experiment, as many as you can remember. The images can be said in any order.</p>""]","","1","creative_activities_semantic"
"","","","","","image-button-response","19","173861","0.0-17.0-0.0","74BAFA9EE1904D45AD73CF23223309E8","74BAFA9EE1904D45AD73CF23223309E8","0198befd-0856-7cbe-8457-47da2e30947e","0198beef-981a-7243-9790-051e10551090","{""num_scrambled_semantic"":""8"",""num_scrambled_causal"":""4"",""num_scrambled_schematic"":""4"",""participantId"":""74BAFA9EE1904D45AD73CF23223309E8"",""assignmentId"":""0198befd-0856-7cbe-8457-47da2e30947e"",""projectId"":""0198beef-981a-7243-9790-051e10551090""}","https://test12345.live/?num_scrambled_semantic=8&num_scrambled_causal=4&num_scrambled_schematic=4&participantId=74BAFA9EE1904D45AD73CF23223309E8&assignmentId=0198befd-0856-7cbe-8457-47da2e30947e&projectId=0198beef-981a-7243-9790-051e10551090","74BAFA9EE1904D45AD73CF23223309E8-2025-08-18-21-09-14","","null","","images/causal_sequence/saving_a_cat_causal/saving_a_cat_causal_0.png","null","",""
"","","","","","html-audio-response","20","199784","0.0-18.0","74BAFA9EE1904D45AD73CF23223309E8","74BAFA9EE1904D45AD73CF23223309E8","0198befd-0856-7cbe-8457-47da2e30947e","0198beef-981a-7243-9790-051e10551090","{""num_scrambled_semantic"":""8"",""num_scrambled_causal"":""4"",""num_scrambled_schematic"":""4"",""participantId"":""74BAFA9EE1904D45AD73CF23223309E8"",""assignmentId"":""0198befd-0856-7cbe-8457-47da2e30947e"",""projectId"":""0198beef-981a-7243-9790-051e10551090""}","https://test12345.live/?num_scrambled_semantic=8&num_scrambled_causal=4&num_scrambled_schematic=4&participantId=74BAFA9EE1904D45AD73CF23223309E8&assignmentId=0198befd-0856-7cbe-8457-47da2e30947e&projectId=0198beef-981a-7243-9790-051e10551090","74BAFA9EE1904D45AD73CF23223309E8-2025-08-18-21-09-14","","24039","","[""<span style=\""color: red; font-size: 24px\""> NOW RECORDING</span><p>Please say out loud all the images you saw in part 1 of the experiment, as many as you can remember. The images can be said in any order.</p>""]","","1","saving_a_cat_causal"
"","","","","","image-button-response","21","205787","0.0-19.0-0.0","74BAFA9EE1904D45AD73CF23223309E8","74BAFA9EE1904D45AD73CF23223309E8","0198befd-0856-7cbe-8457-47da2e30947e","0198beef-981a-7243-9790-051e10551090","{""num_scrambled_semantic"":""8"",""num_scrambled_causal"":""4"",""num_scrambled_schematic"":""4"",""participantId"":""74BAFA9EE1904D45AD73CF23223309E8"",""assignmentId"":""0198befd-0856-7cbe-8457-47da2e30947e"",""projectId"":""0198beef-981a-7243-9790-051e10551090""}","https://test12345.live/?num_scrambled_semantic=8&num_scrambled_causal=4&num_scrambled_schematic=4&participantId=74BAFA9EE1904D45AD73CF23223309E8&assignmentId=0198befd-0856-7cbe-8457-47da2e30947e&projectId=0198beef-981a-7243-9790-051e10551090","74BAFA9EE1904D45AD73CF23223309E8-2025-08-18-21-09-14","","null","","images/causal_sequence/dog_causal/dog_causal_0.png","null","",""
"","","","","","html-audio-response","22","240298","0.0-20.0","74BAFA9EE1904D45AD73CF23223309E8","74BAFA9EE1904D45AD73CF23223309E8","0198befd-0856-7cbe-8457-47da2e30947e","0198beef-981a-7243-9790-051e10551090","{""num_scrambled_semantic"":""8"",""num_scrambled_causal"":""4"",""num_scrambled_schematic"":""4"",""participantId"":""74BAFA9EE1904D45AD73CF23223309E8"",""assignmentId"":""0198befd-0856-7cbe-8457-47da2e30947e"",""projectId"":""0198beef-981a-7243-9790-051e10551090""}","https://test12345.live/?num_scrambled_semantic=8&num_scrambled_causal=4&num_scrambled_schematic=4&participantId=74BAFA9EE1904D45AD73CF23223309E8&assignmentId=0198befd-0856-7cbe-8457-47da2e30947e&projectId=0198beef-981a-7243-9790-051e10551090","74BAFA9EE1904D45AD73CF23223309E8-2025-08-18-21-09-14","","33392","","[""<span style=\""color: red; font-size: 24px\""> NOW RECORDING</span><p>Please say out loud all the images you saw in part 1 of the experiment, as many as you can remember. The images can be said in any order.</p>""]","","1","dog_causal"
"","","","","","image-button-response","23","246302","0.0-21.0-0.0","74BAFA9EE1904D45AD73CF23223309E8","74BAFA9EE1904D45AD73CF23223309E8","0198befd-0856-7cbe-8457-47da2e30947e","0198beef-981a-7243-9790-051e10551090","{""num_scrambled_semantic"":""8"",""num_scrambled_causal"":""4"",""num_scrambled_schematic"":""4"",""participantId"":""74BAFA9EE1904D45AD73CF23223309E8"",""assignmentId"":""0198befd-0856-7cbe-8457-47da2e30947e"",""projectId"":""0198beef-981a-7243-9790-051e10551090""}","https://test12345.live/?num_scrambled_semantic=8&num_scrambled_causal=4&num_scrambled_schematic=4&participantId=74BAFA9EE1904D45AD73CF23223309E8&assignmentId=0198befd-0856-7cbe-8457-47da2e30947e&projectId=0198beef-981a-7243-9790-051e10551090","74BAFA9EE1904D45AD73CF23223309E8-2025-08-18-21-09-14","","null","","images/causal_sequence/the_performance_causal/the_performance_causal_0.png","null","",""
"","","","","","html-audio-response","24","275938","0.0-22.0","74BAFA9EE1904D45AD73CF23223309E8","74BAFA9EE1904D45AD73CF23223309E8","0198befd-0856-7cbe-8457-47da2e30947e","0198beef-981a-7243-9790-051e10551090","{""num_scrambled_semantic"":""8"",""num_scrambled_causal"":""4"",""num_scrambled_schematic"":""4"",""participantId"":""74BAFA9EE1904D45AD73CF23223309E8"",""assignmentId"":""0198befd-0856-7cbe-8457-47da2e30947e"",""projectId"":""0198beef-981a-7243-9790-051e10551090""}","https://test12345.live/?num_scrambled_semantic=8&num_scrambled_causal=4&num_scrambled_schematic=4&participantId=74BAFA9EE1904D45AD73CF23223309E8&assignmentId=0198befd-0856-7cbe-8457-47da2e30947e&projectId=0198beef-981a-7243-9790-051e10551090","74BAFA9EE1904D45AD73CF23223309E8-2025-08-18-21-09-14","","28759","","[""<span style=\""color: red; font-size: 24px\""> NOW RECORDING</span><p>Please say out loud all the images you saw in part 1 of the experiment, as many as you can remember. The images can be said in any order.</p>""]","","1","the_performance_causal"
"","","","","","image-button-response","25","281942","0.0-23.0-0.0","74BAFA9EE1904D45AD73CF23223309E8","74BAFA9EE1904D45AD73CF23223309E8","0198befd-0856-7cbe-8457-47da2e30947e","0198beef-981a-7243-9790-051e10551090","{""num_scrambled_semantic"":""8"",""num_scrambled_causal"":""4"",""num_scrambled_schematic"":""4"",""participantId"":""74BAFA9EE1904D45AD73CF23223309E8"",""assignmentId"":""0198befd-0856-7cbe-8457-47da2e30947e"",""projectId"":""0198beef-981a-7243-9790-051e10551090""}","https://test12345.live/?num_scrambled_semantic=8&num_scrambled_causal=4&num_scrambled_schematic=4&participantId=74BAFA9EE1904D45AD73CF23223309E8&assignmentId=0198befd-0856-7cbe-8457-47da2e30947e&projectId=0198beef-981a-7243-9790-051e10551090","74BAFA9EE1904D45AD73CF23223309E8-2025-08-18-21-09-14","","null","","images/semantic_sequence/housework_semantic/housework_semantic_0.png","null","",""
"","","","","","html-audio-response","26","294171","0.0-24.0","74BAFA9EE1904D45AD73CF23223309E8","74BAFA9EE1904D45AD73CF23223309E8","0198befd-0856-7cbe-8457-47da2e30947e","0198beef-981a-7243-9790-051e10551090","{""num_scrambled_semantic"":""8"",""num_scrambled_causal"":""4"",""num_scrambled_schematic"":""4"",""participantId"":""74BAFA9EE1904D45AD73CF23223309E8"",""assignmentId"":""0198befd-0856-7cbe-8457-47da2e30947e"",""projectId"":""0198beef-981a-7243-9790-051e10551090""}","https://test12345.live/?num_scrambled_semantic=8&num_scrambled_causal=4&num_scrambled_schematic=4&participantId=74BAFA9EE1904D45AD73CF23223309E8&assignmentId=0198befd-0856-7cbe-8457-47da2e30947e&projectId=0198beef-981a-7243-9790-051e10551090","74BAFA9EE1904D45AD73CF23223309E8-2025-08-18-21-09-14","","11484","","[""<span style=\""color: red; font-size: 24px\""> NOW RECORDING</span><p>Please say out loud all the images you saw in part 1 of the experiment, as many as you can remember. The images can be said in any order.</p>""]","","1","housework_semantic"
"","","","","","image-button-response","27","300174","0.0-25.0-0.0","74BAFA9EE1904D45AD73CF23223309E8","74BAFA9EE1904D45AD73CF23223309E8","0198befd-0856-7cbe-8457-47da2e30947e","0198beef-981a-7243-9790-051e10551090","{""num_scrambled_semantic"":""8"",""num_scrambled_causal"":""4"",""num_scrambled_schematic"":""4"",""participantId"":""74BAFA9EE1904D45AD73CF23223309E8"",""assignmentId"":""0198befd-0856-7cbe-8457-47da2e30947e"",""projectId"":""0198beef-981a-7243-9790-051e10551090""}","https://test12345.live/?num_scrambled_semantic=8&num_scrambled_causal=4&num_scrambled_schematic=4&participantId=74BAFA9EE1904D45AD73CF23223309E8&assignmentId=0198befd-0856-7cbe-8457-47da2e30947e&projectId=0198beef-981a-7243-9790-051e10551090","74BAFA9EE1904D45AD73CF23223309E8-2025-08-18-21-09-14","","null","","images/causal_sequence/museum_causal/museum_causal_0.png","null","",""
"","","","","","html-audio-response","28","332238","0.0-26.0","74BAFA9EE1904D45AD73CF23223309E8","74BAFA9EE1904D45AD73CF23223309E8","0198befd-0856-7cbe-8457-47da2e30947e","0198beef-981a-7243-9790-051e10551090","{""num_scrambled_semantic"":""8"",""num_scrambled_causal"":""4"",""num_scrambled_schematic"":""4"",""participantId"":""74BAFA9EE1904D45AD73CF23223309E8"",""assignmentId"":""0198befd-0856-7cbe-8457-47da2e30947e"",""projectId"":""0198beef-981a-7243-9790-051e10551090""}","https://test12345.live/?num_scrambled_semantic=8&num_scrambled_causal=4&num_scrambled_schematic=4&participantId=74BAFA9EE1904D45AD73CF23223309E8&assignmentId=0198befd-0856-7cbe-8457-47da2e30947e&projectId=0198beef-981a-7243-9790-051e10551090","74BAFA9EE1904D45AD73CF23223309E8-2025-08-18-21-09-14","","31242","","[""<span style=\""color: red; font-size: 24px\""> NOW RECORDING</span><p>Please say out loud all the images you saw in part 1 of the experiment, as many as you can remember. The images can be said in any order.</p>""]","","1","museum_causal"
"","","","","","image-button-response","29","338241","0.0-27.0-0.0","74BAFA9EE1904D45AD73CF23223309E8","74BAFA9EE1904D45AD73CF23223309E8","0198befd-0856-7cbe-8457-47da2e30947e","0198beef-981a-7243-9790-051e10551090","{""num_scrambled_semantic"":""8"",""num_scrambled_causal"":""4"",""num_scrambled_schematic"":""4"",""participantId"":""74BAFA9EE1904D45AD73CF23223309E8"",""assignmentId"":""0198befd-0856-7cbe-8457-47da2e30947e"",""projectId"":""0198beef-981a-7243-9790-051e10551090""}","https://test12345.live/?num_scrambled_semantic=8&num_scrambled_causal=4&num_scrambled_schematic=4&participantId=74BAFA9EE1904D45AD73CF23223309E8&assignmentId=0198befd-0856-7cbe-8457-47da2e30947e&projectId=0198beef-981a-7243-9790-051e10551090","74BAFA9EE1904D45AD73CF23223309E8-2025-08-18-21-09-14","","null","","images/semantic_sequence/physical_activity_semantic/physical_activity_semantic_0.png","null","",""
"","","","","","html-audio-response","30","347693","0.0-28.0","74BAFA9EE1904D45AD73CF23223309E8","74BAFA9EE1904D45AD73CF23223309E8","0198befd-0856-7cbe-8457-47da2e30947e","0198beef-981a-7243-9790-051e10551090","{""num_scrambled_semantic"":""8"",""num_scrambled_causal"":""4"",""num_scrambled_schematic"":""4"",""participantId"":""74BAFA9EE1904D45AD73CF23223309E8"",""assignmentId"":""0198befd-0856-7cbe-8457-47da2e30947e"",""projectId"":""0198beef-981a-7243-9790-051e10551090""}","https://test12345.live/?num_scrambled_semantic=8&num_scrambled_causal=4&num_scrambled_schematic=4&participantId=74BAFA9EE1904D45AD73CF23223309E8&assignmentId=0198befd-0856-7cbe-8457-47da2e30947e&projectId=0198beef-981a-7243-9790-051e10551090","74BAFA9EE1904D45AD73CF23223309E8-2025-08-18-21-09-14","","7193","","[""<span style=\""color: red; font-size: 24px\""> NOW RECORDING</span><p>Please say out loud all the images you saw in part 1 of the experiment, as many as you can remember. The images can be said in any order.</p>""]","","1","physical_activity_semantic"
"","","","","","image-button-response","31","353695","0.0-29.0-0.0","74BAFA9EE1904D45AD73CF23223309E8","74BAFA9EE1904D45AD73CF23223309E8","0198befd-0856-7cbe-8457-47da2e30947e","0198beef-981a-7243-9790-051e10551090","{""num_scrambled_semantic"":""8"",""num_scrambled_causal"":""4"",""num_scrambled_schematic"":""4"",""participantId"":""74BAFA9EE1904D45AD73CF23223309E8"",""assignmentId"":""0198befd-0856-7cbe-8457-47da2e30947e"",""projectId"":""0198beef-981a-7243-9790-051e10551090""}","https://test12345.live/?num_scrambled_semantic=8&num_scrambled_causal=4&num_scrambled_schematic=4&participantId=74BAFA9EE1904D45AD73CF23223309E8&assignmentId=0198befd-0856-7cbe-8457-47da2e30947e&projectId=0198beef-981a-7243-9790-051e10551090","74BAFA9EE1904D45AD73CF23223309E8-2025-08-18-21-09-14","","null","","images/causal_sequence/coin_causal/coin_causal_0.png","null","",""
"","","","","","html-audio-response","32","385305","0.0-30.0","74BAFA9EE1904D45AD73CF23223309E8","74BAFA9EE1904D45AD73CF23223309E8","0198befd-0856-7cbe-8457-47da2e30947e","0198beef-981a-7243-9790-051e10551090","{""num_scrambled_semantic"":""8"",""num_scrambled_causal"":""4"",""num_scrambled_schematic"":""4"",""participantId"":""74BAFA9EE1904D45AD73CF23223309E8"",""assignmentId"":""0198befd-0856-7cbe-8457-47da2e30947e"",""projectId"":""0198beef-981a-7243-9790-051e10551090""}","https://test12345.live/?num_scrambled_semantic=8&num_scrambled_causal=4&num_scrambled_schematic=4&participantId=74BAFA9EE1904D45AD73CF23223309E8&assignmentId=0198befd-0856-7cbe-8457-47da2e30947e&projectId=0198beef-981a-7243-9790-051e10551090","74BAFA9EE1904D45AD73CF23223309E8-2025-08-18-21-09-14","","30846","","[""<span style=\""color: red; font-size: 24px\""> NOW RECORDING</span><p>Please say out loud all the images you saw in part 1 of the experiment, as many as you can remember. The images can be said in any order.</p>""]","","1","coin_causal"
"","","","","","image-button-response","33","391309","0.0-31.0-0.0","74BAFA9EE1904D45AD73CF23223309E8","74BAFA9EE1904D45AD73CF23223309E8","0198befd-0856-7cbe-8457-47da2e30947e","0198beef-981a-7243-9790-051e10551090","{""num_scrambled_semantic"":""8"",""num_scrambled_causal"":""4"",""num_scrambled_schematic"":""4"",""participantId"":""74BAFA9EE1904D45AD73CF23223309E8"",""assignmentId"":""0198befd-0856-7cbe-8457-47da2e30947e"",""projectId"":""0198beef-981a-7243-9790-051e10551090""}","https://test12345.live/?num_scrambled_semantic=8&num_scrambled_causal=4&num_scrambled_schematic=4&participantId=74BAFA9EE1904D45AD73CF23223309E8&assignmentId=0198befd-0856-7cbe-8457-47da2e30947e&projectId=0198beef-981a-7243-9790-051e10551090","74BAFA9EE1904D45AD73CF23223309E8-2025-08-18-21-09-14","","null","","images/causal_sequence/package_causal/package_causal_0.png","null","",""
"","","","","","html-audio-response","34","417836","0.0-32.0","74BAFA9EE1904D45AD73CF23223309E8","74BAFA9EE1904D45AD73CF23223309E8","0198befd-0856-7cbe-8457-47da2e30947e","0198beef-981a-7243-9790-051e10551090","{""num_scrambled_semantic"":""8"",""num_scrambled_causal"":""4"",""num_scrambled_schematic"":""4"",""participantId"":""74BAFA9EE1904D45AD73CF23223309E8"",""assignmentId"":""0198befd-0856-7cbe-8457-47da2e30947e"",""projectId"":""0198beef-981a-7243-9790-051e10551090""}","https://test12345.live/?num_scrambled_semantic=8&num_scrambled_causal=4&num_scrambled_schematic=4&participantId=74BAFA9EE1904D45AD73CF23223309E8&assignmentId=0198befd-0856-7cbe-8457-47da2e30947e&projectId=0198beef-981a-7243-9790-051e10551090","74BAFA9EE1904D45AD73CF23223309E8-2025-08-18-21-09-14","","25040","","[""<span style=\""color: red; font-size: 24px\""> NOW RECORDING</span><p>Please say out loud all the images you saw in part 1 of the experiment, as many as you can remember. The images can be said in any order.</p>""]","","1","package_causal"
"","","","","","image-button-response","35","423840","0.0-33.0-0.0","74BAFA9EE1904D45AD73CF23223309E8","74BAFA9EE1904D45AD73CF23223309E8","0198befd-0856-7cbe-8457-47da2e30947e","0198beef-981a-7243-9790-051e10551090","{""num_scrambled_semantic"":""8"",""num_scrambled_causal"":""4"",""num_scrambled_schematic"":""4"",""participantId"":""74BAFA9EE1904D45AD73CF23223309E8"",""assignmentId"":""0198befd-0856-7cbe-8457-47da2e30947e"",""projectId"":""0198beef-981a-7243-9790-051e10551090""}","https://test12345.live/?num_scrambled_semantic=8&num_scrambled_causal=4&num_scrambled_schematic=4&participantId=74BAFA9EE1904D45AD73CF23223309E8&assignmentId=0198befd-0856-7cbe-8457-47da2e30947e&projectId=0198beef-981a-7243-9790-051e10551090","74BAFA9EE1904D45AD73CF23223309E8-2025-08-18-21-09-14","","null","","images/semantic_sequence/cat_care_semantic/cat_care_semantic_0.png","null","",""
"","","","","","html-audio-response","36","438710","0.0-34.0","74BAFA9EE1904D45AD73CF23223309E8","74BAFA9EE1904D45AD73CF23223309E8","0198befd-0856-7cbe-8457-47da2e30947e","0198beef-981a-7243-9790-051e10551090","{""num_scrambled_semantic"":""8"",""num_scrambled_causal"":""4"",""num_scrambled_schematic"":""4"",""participantId"":""74BAFA9EE1904D45AD73CF23223309E8"",""assignmentId"":""0198befd-0856-7cbe-8457-47da2e30947e"",""projectId"":""0198beef-981a-7243-9790-051e10551090""}","https://test12345.live/?num_scrambled_semantic=8&num_scrambled_causal=4&num_scrambled_schematic=4&participantId=74BAFA9EE1904D45AD73CF23223309E8&assignmentId=0198befd-0856-7cbe-8457-47da2e30947e&projectId=0198beef-981a-7243-9790-051e10551090","74BAFA9EE1904D45AD73CF23223309E8-2025-08-18-21-09-14","","14098","","[""<span style=\""color: red; font-size: 24px\""> NOW RECORDING</span><p>Please say out loud all the images you saw in part 1 of the experiment, as many as you can remember. The images can be said in any order.</p>""]","","1","cat_care_semantic"
"","","","","","survey-text","37","446997","0.0-35.0","74BAFA9EE1904D45AD73CF23223309E8","74BAFA9EE1904D45AD73CF23223309E8","0198befd-0856-7cbe-8457-47da2e30947e","0198beef-981a-7243-9790-051e10551090","{""num_scrambled_semantic"":""8"",""num_scrambled_causal"":""4"",""num_scrambled_schematic"":""4"",""participantId"":""74BAFA9EE1904D45AD73CF23223309E8"",""assignmentId"":""0198befd-0856-7cbe-8457-47da2e30947e"",""projectId"":""0198beef-981a-7243-9790-051e10551090""}","https://test12345.live/?num_scrambled_semantic=8&num_scrambled_causal=4&num_scrambled_schematic=4&participantId=74BAFA9EE1904D45AD73CF23223309E8&assignmentId=0198befd-0856-7cbe-8457-47da2e30947e&projectId=0198beef-981a-7243-9790-051e10551090","74BAFA9EE1904D45AD73CF23223309E8-2025-08-18-21-09-14","","8283","","","{""Q0"":""Male"",""Q1"":""30""}","",""
"","","","","","instructions","38","457236","0.0-36.0","74BAFA9EE1904D45AD73CF23223309E8","74BAFA9EE1904D45AD73CF23223309E8","0198befd-0856-7cbe-8457-47da2e30947e","0198beef-981a-7243-9790-051e10551090","{""num_scrambled_semantic"":""8"",""num_scrambled_causal"":""4"",""num_scrambled_schematic"":""4"",""participantId"":""74BAFA9EE1904D45AD73CF23223309E8"",""assignmentId"":""0198befd-0856-7cbe-8457-47da2e30947e"",""projectId"":""0198beef-981a-7243-9790-051e10551090""}","https://test12345.live/?num_scrambled_semantic=8&num_scrambled_causal=4&num_scrambled_schematic=4&participantId=74BAFA9EE1904D45AD73CF23223309E8&assignmentId=0198befd-0856-7cbe-8457-47da2e30947e&projectId=0198beef-981a-7243-9790-051e10551090","74BAFA9EE1904D45AD73CF23223309E8-2025-08-18-21-09-14","[{""page_index"":0,""viewing_time"":10239}]","10239","","","","",""
"","","","","","survey-text","39","460342","0.0-37.0","74BAFA9EE1904D45AD73CF23223309E8","74BAFA9EE1904D45AD73CF23223309E8","0198befd-0856-7cbe-8457-47da2e30947e","0198beef-981a-7243-9790-051e10551090","{""num_scrambled_semantic"":""8"",""num_scrambled_causal"":""4"",""num_scrambled_schematic"":""4"",""participantId"":""74BAFA9EE1904D45AD73CF23223309E8"",""assignmentId"":""0198befd-0856-7cbe-8457-47da2e30947e"",""projectId"":""0198beef-981a-7243-9790-051e10551090""}","https://test12345.live/?num_scrambled_semantic=8&num_scrambled_causal=4&num_scrambled_schematic=4&participantId=74BAFA9EE1904D45AD73CF23223309E8&assignmentId=0198befd-0856-7cbe-8457-47da2e30947e&projectId=0198beef-981a-7243-9790-051e10551090","74BAFA9EE1904D45AD73CF23223309E8-2025-08-18-21-09-14","","3105","","","{""Q0"":""AJFHBG896""}","",""
