"success","timeout","failed_images","failed_audio","failed_video","trial_type","trial_index","time_elapsed","internal_node_id","subject","subject_id","study_id","session_id","urlvar","current_url","audio_id","view_history","rt","device_id","stimulus","response","estimated_stimulus_onset","seq_name"
"true","false","[]","[]","[]","preload","0","14271","0.0-0.0","77EAAFE50DDB4B858F8BC3FF4BB9F7C7","77EAAFE50DDB4B858F8BC3FF4BB9F7C7","a71e10cb-9326-49a6-b6f2-bbb35256737a","920300cb-ef92-407e-8025-8071213f24fb","{""part"":""2"",""participantId"":""77EAAFE50DDB4B858F8BC3FF4BB9F7C7"",""assignmentId"":""a71e10cb-9326-49a6-b6f2-bbb35256737a"",""projectId"":""920300cb-ef92-407e-8025-8071213f24fb""}","https://test12345.live/?part=2&participantId=77EAAFE50DDB4B858F8BC3FF4BB9F7C7&assignmentId=a71e10cb-9326-49a6-b6f2-bbb35256737a&projectId=920300cb-ef92-407e-8025-8071213f24fb","77EAAFE50DDB4B858F8BC3FF4BB9F7C7-2025-05-23-18-46-11","","","","","","",""
"","","","","","instructions","1","34794","0.0-1.0","77EAAFE50DDB4B858F8BC3FF4BB9F7C7","77EAAFE50DDB4B858F8BC3FF4BB9F7C7","a71e10cb-9326-49a6-b6f2-bbb35256737a","920300cb-ef92-407e-8025-8071213f24fb","{""part"":""2"",""participantId"":""77EAAFE50DDB4B858F8BC3FF4BB9F7C7"",""assignmentId"":""a71e10cb-9326-49a6-b6f2-bbb35256737a"",""projectId"":""920300cb-ef92-407e-8025-8071213f24fb""}","https://test12345.live/?part=2&participantId=77EAAFE50DDB4B858F8BC3FF4BB9F7C7&assignmentId=a71e10cb-9326-49a6-b6f2-bbb35256737a&projectId=920300cb-ef92-407e-8025-8071213f24fb","77EAAFE50DDB4B858F8BC3FF4BB9F7C7-2025-05-23-18-46-11","[{""page_index"":0,""viewing_time"":20523}]","20523","","","","",""
"","","","","","instructions","2","68508","0.0-2.0","77EAAFE50DDB4B858F8BC3FF4BB9F7C7","77EAAFE50DDB4B858F8BC3FF4BB9F7C7","a71e10cb-9326-49a6-b6f2-bbb35256737a","920300cb-ef92-407e-8025-8071213f24fb","{""part"":""2"",""participantId"":""77EAAFE50DDB4B858F8BC3FF4BB9F7C7"",""assignmentId"":""a71e10cb-9326-49a6-b6f2-bbb35256737a"",""projectId"":""920300cb-ef92-407e-8025-8071213f24fb""}","https://test12345.live/?part=2&participantId=77EAAFE50DDB4B858F8BC3FF4BB9F7C7&assignmentId=a71e10cb-9326-49a6-b6f2-bbb35256737a&projectId=920300cb-ef92-407e-8025-8071213f24fb","77EAAFE50DDB4B858F8BC3FF4BB9F7C7-2025-05-23-18-46-11","[{""page_index"":0,""viewing_time"":33714}]","33714","","","","",""
"true","","","","","fullscreen","3","71481","0.0-3.0","77EAAFE50DDB4B858F8BC3FF4BB9F7C7","77EAAFE50DDB4B858F8BC3FF4BB9F7C7","a71e10cb-9326-49a6-b6f2-bbb35256737a","920300cb-ef92-407e-8025-8071213f24fb","{""part"":""2"",""participantId"":""77EAAFE50DDB4B858F8BC3FF4BB9F7C7"",""assignmentId"":""a71e10cb-9326-49a6-b6f2-bbb35256737a"",""projectId"":""920300cb-ef92-407e-8025-8071213f24fb""}","https://test12345.live/?part=2&participantId=77EAAFE50DDB4B858F8BC3FF4BB9F7C7&assignmentId=a71e10cb-9326-49a6-b6f2-bbb35256737a&projectId=920300cb-ef92-407e-8025-8071213f24fb","77EAAFE50DDB4B858F8BC3FF4BB9F7C7-2025-05-23-18-46-11","","1971","","","","",""
"","","","","","initialize-microphone","4","73808","0.0-4.0-0.0","77EAAFE50DDB4B858F8BC3FF4BB9F7C7","77EAAFE50DDB4B858F8BC3FF4BB9F7C7","a71e10cb-9326-49a6-b6f2-bbb35256737a","920300cb-ef92-407e-8025-8071213f24fb","{""part"":""2"",""participantId"":""77EAAFE50DDB4B858F8BC3FF4BB9F7C7"",""assignmentId"":""a71e10cb-9326-49a6-b6f2-bbb35256737a"",""projectId"":""920300cb-ef92-407e-8025-8071213f24fb""}","https://test12345.live/?part=2&participantId=77EAAFE50DDB4B858F8BC3FF4BB9F7C7&assignmentId=a71e10cb-9326-49a6-b6f2-bbb35256737a&projectId=920300cb-ef92-407e-8025-8071213f24fb","77EAAFE50DDB4B858F8BC3FF4BB9F7C7-2025-05-23-18-46-11","","","46da827da34bba3416be94ce57d8952f958f0df86370d4c76e51e869cbfdbdc0","","","",""
"","","","","","html-audio-response","5","89346","0.0-4.0-1.0","77EAAFE50DDB4B858F8BC3FF4BB9F7C7","77EAAFE50DDB4B858F8BC3FF4BB9F7C7","a71e10cb-9326-49a6-b6f2-bbb35256737a","920300cb-ef92-407e-8025-8071213f24fb","{""part"":""2"",""participantId"":""77EAAFE50DDB4B858F8BC3FF4BB9F7C7"",""assignmentId"":""a71e10cb-9326-49a6-b6f2-bbb35256737a"",""projectId"":""920300cb-ef92-407e-8025-8071213f24fb""}","https://test12345.live/?part=2&participantId=77EAAFE50DDB4B858F8BC3FF4BB9F7C7&assignmentId=a71e10cb-9326-49a6-b6f2-bbb35256737a&projectId=920300cb-ef92-407e-8025-8071213f24fb","77EAAFE50DDB4B858F8BC3FF4BB9F7C7-2025-05-23-18-46-11","","7166","","<span style=""color: red; font-size: 24px""> NOW RECORDING</span>
        <p>Please test Microphone</p>","","6",""
"","","","","","html-button-response","6","90710","0.0-4.0-2.0","77EAAFE50DDB4B858F8BC3FF4BB9F7C7","77EAAFE50DDB4B858F8BC3FF4BB9F7C7","a71e10cb-9326-49a6-b6f2-bbb35256737a","920300cb-ef92-407e-8025-8071213f24fb","{""part"":""2"",""participantId"":""77EAAFE50DDB4B858F8BC3FF4BB9F7C7"",""assignmentId"":""a71e10cb-9326-49a6-b6f2-bbb35256737a"",""projectId"":""920300cb-ef92-407e-8025-8071213f24fb""}","https://test12345.live/?part=2&participantId=77EAAFE50DDB4B858F8BC3FF4BB9F7C7&assignmentId=a71e10cb-9326-49a6-b6f2-bbb35256737a&projectId=920300cb-ef92-407e-8025-8071213f24fb","77EAAFE50DDB4B858F8BC3FF4BB9F7C7-2025-05-23-18-46-11","","1363","","<p style=""font-size:48px; color:red;"">Is Microphone OK?</p>","1","",""
"","","","","","instructions","7","109563","0.0-5.0","77EAAFE50DDB4B858F8BC3FF4BB9F7C7","77EAAFE50DDB4B858F8BC3FF4BB9F7C7","a71e10cb-9326-49a6-b6f2-bbb35256737a","920300cb-ef92-407e-8025-8071213f24fb","{""part"":""2"",""participantId"":""77EAAFE50DDB4B858F8BC3FF4BB9F7C7"",""assignmentId"":""a71e10cb-9326-49a6-b6f2-bbb35256737a"",""projectId"":""920300cb-ef92-407e-8025-8071213f24fb""}","https://test12345.live/?part=2&participantId=77EAAFE50DDB4B858F8BC3FF4BB9F7C7&assignmentId=a71e10cb-9326-49a6-b6f2-bbb35256737a&projectId=920300cb-ef92-407e-8025-8071213f24fb","77EAAFE50DDB4B858F8BC3FF4BB9F7C7-2025-05-23-18-46-11","[{""page_index"":0,""viewing_time"":1390},{""page_index"":1,""viewing_time"":7152},{""page_index"":2,""viewing_time"":10311}]","18853","","","","",""
"","","","","","image-button-response","8","115565","0.0-6.0-0.0","77EAAFE50DDB4B858F8BC3FF4BB9F7C7","77EAAFE50DDB4B858F8BC3FF4BB9F7C7","a71e10cb-9326-49a6-b6f2-bbb35256737a","920300cb-ef92-407e-8025-8071213f24fb","{""part"":""2"",""participantId"":""77EAAFE50DDB4B858F8BC3FF4BB9F7C7"",""assignmentId"":""a71e10cb-9326-49a6-b6f2-bbb35256737a"",""projectId"":""920300cb-ef92-407e-8025-8071213f24fb""}","https://test12345.live/?part=2&participantId=77EAAFE50DDB4B858F8BC3FF4BB9F7C7&assignmentId=a71e10cb-9326-49a6-b6f2-bbb35256737a&projectId=920300cb-ef92-407e-8025-8071213f24fb","77EAAFE50DDB4B858F8BC3FF4BB9F7C7-2025-05-23-18-46-11","","null","","images/instructions/movie_0.png","null","",""
"","","","","","html-audio-response","9","153650","0.0-7.0","77EAAFE50DDB4B858F8BC3FF4BB9F7C7","77EAAFE50DDB4B858F8BC3FF4BB9F7C7","a71e10cb-9326-49a6-b6f2-bbb35256737a","920300cb-ef92-407e-8025-8071213f24fb","{""part"":""2"",""participantId"":""77EAAFE50DDB4B858F8BC3FF4BB9F7C7"",""assignmentId"":""a71e10cb-9326-49a6-b6f2-bbb35256737a"",""projectId"":""920300cb-ef92-407e-8025-8071213f24fb""}","https://test12345.live/?part=2&participantId=77EAAFE50DDB4B858F8BC3FF4BB9F7C7&assignmentId=a71e10cb-9326-49a6-b6f2-bbb35256737a&projectId=920300cb-ef92-407e-8025-8071213f24fb","77EAAFE50DDB4B858F8BC3FF4BB9F7C7-2025-05-23-18-46-11","","28738","","[""<span style=\""color: red; font-size: 24px\""> NOW RECORDING</span><p>Please say out loud all the images you saw in part 1 of the experiment, in the exact order you saw them. Try to recall as many images as you can, but remember: getting the order right is more important than the number of images you recall.</p>""]","","6",""
"","","","","","instructions","10","157101","0.0-8.0","77EAAFE50DDB4B858F8BC3FF4BB9F7C7","77EAAFE50DDB4B858F8BC3FF4BB9F7C7","a71e10cb-9326-49a6-b6f2-bbb35256737a","920300cb-ef92-407e-8025-8071213f24fb","{""part"":""2"",""participantId"":""77EAAFE50DDB4B858F8BC3FF4BB9F7C7"",""assignmentId"":""a71e10cb-9326-49a6-b6f2-bbb35256737a"",""projectId"":""920300cb-ef92-407e-8025-8071213f24fb""}","https://test12345.live/?part=2&participantId=77EAAFE50DDB4B858F8BC3FF4BB9F7C7&assignmentId=a71e10cb-9326-49a6-b6f2-bbb35256737a&projectId=920300cb-ef92-407e-8025-8071213f24fb","77EAAFE50DDB4B858F8BC3FF4BB9F7C7-2025-05-23-18-46-11","[{""page_index"":0,""viewing_time"":3447}]","3447","","","","",""
"","","","","","image-button-response","11","163103","0.0-9.0-0.0","77EAAFE50DDB4B858F8BC3FF4BB9F7C7","77EAAFE50DDB4B858F8BC3FF4BB9F7C7","a71e10cb-9326-49a6-b6f2-bbb35256737a","920300cb-ef92-407e-8025-8071213f24fb","{""part"":""2"",""participantId"":""77EAAFE50DDB4B858F8BC3FF4BB9F7C7"",""assignmentId"":""a71e10cb-9326-49a6-b6f2-bbb35256737a"",""projectId"":""920300cb-ef92-407e-8025-8071213f24fb""}","https://test12345.live/?part=2&participantId=77EAAFE50DDB4B858F8BC3FF4BB9F7C7&assignmentId=a71e10cb-9326-49a6-b6f2-bbb35256737a&projectId=920300cb-ef92-407e-8025-8071213f24fb","77EAAFE50DDB4B858F8BC3FF4BB9F7C7-2025-05-23-18-46-11","","null","","images/causal_sequence/museum_causal/museum_causal_0.png","null","",""
"","","","","","html-audio-response","12","187500","0.0-10.0","77EAAFE50DDB4B858F8BC3FF4BB9F7C7","77EAAFE50DDB4B858F8BC3FF4BB9F7C7","a71e10cb-9326-49a6-b6f2-bbb35256737a","920300cb-ef92-407e-8025-8071213f24fb","{""part"":""2"",""participantId"":""77EAAFE50DDB4B858F8BC3FF4BB9F7C7"",""assignmentId"":""a71e10cb-9326-49a6-b6f2-bbb35256737a"",""projectId"":""920300cb-ef92-407e-8025-8071213f24fb""}","https://test12345.live/?part=2&participantId=77EAAFE50DDB4B858F8BC3FF4BB9F7C7&assignmentId=a71e10cb-9326-49a6-b6f2-bbb35256737a&projectId=920300cb-ef92-407e-8025-8071213f24fb","77EAAFE50DDB4B858F8BC3FF4BB9F7C7-2025-05-23-18-46-11","","23060","","[""<span style=\""color: red; font-size: 24px\""> NOW RECORDING</span><p>Please say out loud all the images you saw in part 1 of the experiment, in the exact order you saw them. Try to recall as many images as you can, but remember: getting the order right is more important than the number of images you recall. </p>""]","","4","museum_causal"
"","","","","","image-button-response","13","193506","0.0-11.0-0.0","77EAAFE50DDB4B858F8BC3FF4BB9F7C7","77EAAFE50DDB4B858F8BC3FF4BB9F7C7","a71e10cb-9326-49a6-b6f2-bbb35256737a","920300cb-ef92-407e-8025-8071213f24fb","{""part"":""2"",""participantId"":""77EAAFE50DDB4B858F8BC3FF4BB9F7C7"",""assignmentId"":""a71e10cb-9326-49a6-b6f2-bbb35256737a"",""projectId"":""920300cb-ef92-407e-8025-8071213f24fb""}","https://test12345.live/?part=2&participantId=77EAAFE50DDB4B858F8BC3FF4BB9F7C7&assignmentId=a71e10cb-9326-49a6-b6f2-bbb35256737a&projectId=920300cb-ef92-407e-8025-8071213f24fb","77EAAFE50DDB4B858F8BC3FF4BB9F7C7-2025-05-23-18-46-11","","null","","images/semantic_sequence/cat_care_semantic/cat_care_semantic_0.png","null","",""
"","","","","","html-audio-response","14","213184","0.0-12.0","77EAAFE50DDB4B858F8BC3FF4BB9F7C7","77EAAFE50DDB4B858F8BC3FF4BB9F7C7","a71e10cb-9326-49a6-b6f2-bbb35256737a","920300cb-ef92-407e-8025-8071213f24fb","{""part"":""2"",""participantId"":""77EAAFE50DDB4B858F8BC3FF4BB9F7C7"",""assignmentId"":""a71e10cb-9326-49a6-b6f2-bbb35256737a"",""projectId"":""920300cb-ef92-407e-8025-8071213f24fb""}","https://test12345.live/?part=2&participantId=77EAAFE50DDB4B858F8BC3FF4BB9F7C7&assignmentId=a71e10cb-9326-49a6-b6f2-bbb35256737a&projectId=920300cb-ef92-407e-8025-8071213f24fb","77EAAFE50DDB4B858F8BC3FF4BB9F7C7-2025-05-23-18-46-11","","18342","","[""<span style=\""color: red; font-size: 24px\""> NOW RECORDING</span><p>Please say out loud all the images you saw in part 1 of the experiment, in the exact order you saw them. Try to recall as many images as you can, but remember: getting the order right is more important than the number of images you recall. </p>""]","","5","cat_care_semantic"
"","","","","","image-button-response","15","219192","0.0-13.0-0.0","77EAAFE50DDB4B858F8BC3FF4BB9F7C7","77EAAFE50DDB4B858F8BC3FF4BB9F7C7","a71e10cb-9326-49a6-b6f2-bbb35256737a","920300cb-ef92-407e-8025-8071213f24fb","{""part"":""2"",""participantId"":""77EAAFE50DDB4B858F8BC3FF4BB9F7C7"",""assignmentId"":""a71e10cb-9326-49a6-b6f2-bbb35256737a"",""projectId"":""920300cb-ef92-407e-8025-8071213f24fb""}","https://test12345.live/?part=2&participantId=77EAAFE50DDB4B858F8BC3FF4BB9F7C7&assignmentId=a71e10cb-9326-49a6-b6f2-bbb35256737a&projectId=920300cb-ef92-407e-8025-8071213f24fb","77EAAFE50DDB4B858F8BC3FF4BB9F7C7-2025-05-23-18-46-11","","null","","images/semantic_sequence/exploring_nature_semantic/exploring_nature_semantic_0.png","null","",""
"","","","","","html-audio-response","16","233767","0.0-14.0","77EAAFE50DDB4B858F8BC3FF4BB9F7C7","77EAAFE50DDB4B858F8BC3FF4BB9F7C7","a71e10cb-9326-49a6-b6f2-bbb35256737a","920300cb-ef92-407e-8025-8071213f24fb","{""part"":""2"",""participantId"":""77EAAFE50DDB4B858F8BC3FF4BB9F7C7"",""assignmentId"":""a71e10cb-9326-49a6-b6f2-bbb35256737a"",""projectId"":""920300cb-ef92-407e-8025-8071213f24fb""}","https://test12345.live/?part=2&participantId=77EAAFE50DDB4B858F8BC3FF4BB9F7C7&assignmentId=a71e10cb-9326-49a6-b6f2-bbb35256737a&projectId=920300cb-ef92-407e-8025-8071213f24fb","77EAAFE50DDB4B858F8BC3FF4BB9F7C7-2025-05-23-18-46-11","","13641","","[""<span style=\""color: red; font-size: 24px\""> NOW RECORDING</span><p>Please say out loud all the images you saw in part 1 of the experiment, in the exact order you saw them. Try to recall as many images as you can, but remember: getting the order right is more important than the number of images you recall. </p>""]","","5","exploring_nature_semantic"
"","","","","","image-button-response","17","239774","0.0-15.0-0.0","77EAAFE50DDB4B858F8BC3FF4BB9F7C7","77EAAFE50DDB4B858F8BC3FF4BB9F7C7","a71e10cb-9326-49a6-b6f2-bbb35256737a","920300cb-ef92-407e-8025-8071213f24fb","{""part"":""2"",""participantId"":""77EAAFE50DDB4B858F8BC3FF4BB9F7C7"",""assignmentId"":""a71e10cb-9326-49a6-b6f2-bbb35256737a"",""projectId"":""920300cb-ef92-407e-8025-8071213f24fb""}","https://test12345.live/?part=2&participantId=77EAAFE50DDB4B858F8BC3FF4BB9F7C7&assignmentId=a71e10cb-9326-49a6-b6f2-bbb35256737a&projectId=920300cb-ef92-407e-8025-8071213f24fb","77EAAFE50DDB4B858F8BC3FF4BB9F7C7-2025-05-23-18-46-11","","null","","images/causal_sequence/coin_causal/coin_causal_0.png","null","",""
"","","","","","html-audio-response","18","280800","0.0-16.0","77EAAFE50DDB4B858F8BC3FF4BB9F7C7","77EAAFE50DDB4B858F8BC3FF4BB9F7C7","a71e10cb-9326-49a6-b6f2-bbb35256737a","920300cb-ef92-407e-8025-8071213f24fb","{""part"":""2"",""participantId"":""77EAAFE50DDB4B858F8BC3FF4BB9F7C7"",""assignmentId"":""a71e10cb-9326-49a6-b6f2-bbb35256737a"",""projectId"":""920300cb-ef92-407e-8025-8071213f24fb""}","https://test12345.live/?part=2&participantId=77EAAFE50DDB4B858F8BC3FF4BB9F7C7&assignmentId=a71e10cb-9326-49a6-b6f2-bbb35256737a&projectId=920300cb-ef92-407e-8025-8071213f24fb","77EAAFE50DDB4B858F8BC3FF4BB9F7C7-2025-05-23-18-46-11","","27179","","[""<span style=\""color: red; font-size: 24px\""> NOW RECORDING</span><p>Please say out loud all the images you saw in part 1 of the experiment, in the exact order you saw them. Try to recall as many images as you can, but remember: getting the order right is more important than the number of images you recall. </p>""]","","3","coin_causal"
"","","","","","image-button-response","19","286804","0.0-17.0-0.0","77EAAFE50DDB4B858F8BC3FF4BB9F7C7","77EAAFE50DDB4B858F8BC3FF4BB9F7C7","a71e10cb-9326-49a6-b6f2-bbb35256737a","920300cb-ef92-407e-8025-8071213f24fb","{""part"":""2"",""participantId"":""77EAAFE50DDB4B858F8BC3FF4BB9F7C7"",""assignmentId"":""a71e10cb-9326-49a6-b6f2-bbb35256737a"",""projectId"":""920300cb-ef92-407e-8025-8071213f24fb""}","https://test12345.live/?part=2&participantId=77EAAFE50DDB4B858F8BC3FF4BB9F7C7&assignmentId=a71e10cb-9326-49a6-b6f2-bbb35256737a&projectId=920300cb-ef92-407e-8025-8071213f24fb","77EAAFE50DDB4B858F8BC3FF4BB9F7C7-2025-05-23-18-46-11","","null","","images/semantic_sequence/kitchen_operations_semantic/kitchen_operations_semantic_0.png","null","",""
"","","","","","html-audio-response","20","303974","0.0-18.0","77EAAFE50DDB4B858F8BC3FF4BB9F7C7","77EAAFE50DDB4B858F8BC3FF4BB9F7C7","a71e10cb-9326-49a6-b6f2-bbb35256737a","920300cb-ef92-407e-8025-8071213f24fb","{""part"":""2"",""participantId"":""77EAAFE50DDB4B858F8BC3FF4BB9F7C7"",""assignmentId"":""a71e10cb-9326-49a6-b6f2-bbb35256737a"",""projectId"":""920300cb-ef92-407e-8025-8071213f24fb""}","https://test12345.live/?part=2&participantId=77EAAFE50DDB4B858F8BC3FF4BB9F7C7&assignmentId=a71e10cb-9326-49a6-b6f2-bbb35256737a&projectId=920300cb-ef92-407e-8025-8071213f24fb","77EAAFE50DDB4B858F8BC3FF4BB9F7C7-2025-05-23-18-46-11","","16078","","[""<span style=\""color: red; font-size: 24px\""> NOW RECORDING</span><p>Please say out loud all the images you saw in part 1 of the experiment, in the exact order you saw them. Try to recall as many images as you can, but remember: getting the order right is more important than the number of images you recall. </p>""]","","5","kitchen_operations_semantic"
"","","","","","image-button-response","21","309977","0.0-19.0-0.0","77EAAFE50DDB4B858F8BC3FF4BB9F7C7","77EAAFE50DDB4B858F8BC3FF4BB9F7C7","a71e10cb-9326-49a6-b6f2-bbb35256737a","920300cb-ef92-407e-8025-8071213f24fb","{""part"":""2"",""participantId"":""77EAAFE50DDB4B858F8BC3FF4BB9F7C7"",""assignmentId"":""a71e10cb-9326-49a6-b6f2-bbb35256737a"",""projectId"":""920300cb-ef92-407e-8025-8071213f24fb""}","https://test12345.live/?part=2&participantId=77EAAFE50DDB4B858F8BC3FF4BB9F7C7&assignmentId=a71e10cb-9326-49a6-b6f2-bbb35256737a&projectId=920300cb-ef92-407e-8025-8071213f24fb","77EAAFE50DDB4B858F8BC3FF4BB9F7C7-2025-05-23-18-46-11","","null","","images/semantic_sequence/physical_activity_semantic/physical_activity_semantic_0.png","null","",""
"","","","","","html-audio-response","22","325740","0.0-20.0","77EAAFE50DDB4B858F8BC3FF4BB9F7C7","77EAAFE50DDB4B858F8BC3FF4BB9F7C7","a71e10cb-9326-49a6-b6f2-bbb35256737a","920300cb-ef92-407e-8025-8071213f24fb","{""part"":""2"",""participantId"":""77EAAFE50DDB4B858F8BC3FF4BB9F7C7"",""assignmentId"":""a71e10cb-9326-49a6-b6f2-bbb35256737a"",""projectId"":""920300cb-ef92-407e-8025-8071213f24fb""}","https://test12345.live/?part=2&participantId=77EAAFE50DDB4B858F8BC3FF4BB9F7C7&assignmentId=a71e10cb-9326-49a6-b6f2-bbb35256737a&projectId=920300cb-ef92-407e-8025-8071213f24fb","77EAAFE50DDB4B858F8BC3FF4BB9F7C7-2025-05-23-18-46-11","","14373","","[""<span style=\""color: red; font-size: 24px\""> NOW RECORDING</span><p>Please say out loud all the images you saw in part 1 of the experiment, in the exact order you saw them. Try to recall as many images as you can, but remember: getting the order right is more important than the number of images you recall. </p>""]","","5","physical_activity_semantic"
"","","","","","image-button-response","23","331743","0.0-21.0-0.0","77EAAFE50DDB4B858F8BC3FF4BB9F7C7","77EAAFE50DDB4B858F8BC3FF4BB9F7C7","a71e10cb-9326-49a6-b6f2-bbb35256737a","920300cb-ef92-407e-8025-8071213f24fb","{""part"":""2"",""participantId"":""77EAAFE50DDB4B858F8BC3FF4BB9F7C7"",""assignmentId"":""a71e10cb-9326-49a6-b6f2-bbb35256737a"",""projectId"":""920300cb-ef92-407e-8025-8071213f24fb""}","https://test12345.live/?part=2&participantId=77EAAFE50DDB4B858F8BC3FF4BB9F7C7&assignmentId=a71e10cb-9326-49a6-b6f2-bbb35256737a&projectId=920300cb-ef92-407e-8025-8071213f24fb","77EAAFE50DDB4B858F8BC3FF4BB9F7C7-2025-05-23-18-46-11","","null","","images/schematic_sequence/restaurant_scheme/restaurant_scheme_0.png","null","",""
"","","","","","html-audio-response","24","356159","0.0-22.0","77EAAFE50DDB4B858F8BC3FF4BB9F7C7","77EAAFE50DDB4B858F8BC3FF4BB9F7C7","a71e10cb-9326-49a6-b6f2-bbb35256737a","920300cb-ef92-407e-8025-8071213f24fb","{""part"":""2"",""participantId"":""77EAAFE50DDB4B858F8BC3FF4BB9F7C7"",""assignmentId"":""a71e10cb-9326-49a6-b6f2-bbb35256737a"",""projectId"":""920300cb-ef92-407e-8025-8071213f24fb""}","https://test12345.live/?part=2&participantId=77EAAFE50DDB4B858F8BC3FF4BB9F7C7&assignmentId=a71e10cb-9326-49a6-b6f2-bbb35256737a&projectId=920300cb-ef92-407e-8025-8071213f24fb","77EAAFE50DDB4B858F8BC3FF4BB9F7C7-2025-05-23-18-46-11","","2022","","[""<span style=\""color: red; font-size: 24px\""> NOW RECORDING</span><p>Please say out loud all the images you saw in part 1 of the experiment, in the exact order you saw them. Try to recall as many images as you can, but remember: getting the order right is more important than the number of images you recall. </p>""]","","5","restaurant_scheme"
"","","","","","image-button-response","25","362162","0.0-23.0-0.0","77EAAFE50DDB4B858F8BC3FF4BB9F7C7","77EAAFE50DDB4B858F8BC3FF4BB9F7C7","a71e10cb-9326-49a6-b6f2-bbb35256737a","920300cb-ef92-407e-8025-8071213f24fb","{""part"":""2"",""participantId"":""77EAAFE50DDB4B858F8BC3FF4BB9F7C7"",""assignmentId"":""a71e10cb-9326-49a6-b6f2-bbb35256737a"",""projectId"":""920300cb-ef92-407e-8025-8071213f24fb""}","https://test12345.live/?part=2&participantId=77EAAFE50DDB4B858F8BC3FF4BB9F7C7&assignmentId=a71e10cb-9326-49a6-b6f2-bbb35256737a&projectId=920300cb-ef92-407e-8025-8071213f24fb","77EAAFE50DDB4B858F8BC3FF4BB9F7C7-2025-05-23-18-46-11","","null","","images/semantic_sequence/visiting_cities_semantic/visiting_cities_semantic_0.png","null","",""
"","","","","","html-audio-response","26","382428","0.0-24.0","77EAAFE50DDB4B858F8BC3FF4BB9F7C7","77EAAFE50DDB4B858F8BC3FF4BB9F7C7","a71e10cb-9326-49a6-b6f2-bbb35256737a","920300cb-ef92-407e-8025-8071213f24fb","{""part"":""2"",""participantId"":""77EAAFE50DDB4B858F8BC3FF4BB9F7C7"",""assignmentId"":""a71e10cb-9326-49a6-b6f2-bbb35256737a"",""projectId"":""920300cb-ef92-407e-8025-8071213f24fb""}","https://test12345.live/?part=2&participantId=77EAAFE50DDB4B858F8BC3FF4BB9F7C7&assignmentId=a71e10cb-9326-49a6-b6f2-bbb35256737a&projectId=920300cb-ef92-407e-8025-8071213f24fb","77EAAFE50DDB4B858F8BC3FF4BB9F7C7-2025-05-23-18-46-11","","12387","","[""<span style=\""color: red; font-size: 24px\""> NOW RECORDING</span><p>Please say out loud all the images you saw in part 1 of the experiment, in the exact order you saw them. Try to recall as many images as you can, but remember: getting the order right is more important than the number of images you recall. </p>""]","","3","visiting_cities_semantic"
"","","","","","image-button-response","27","388432","0.0-25.0-0.0","77EAAFE50DDB4B858F8BC3FF4BB9F7C7","77EAAFE50DDB4B858F8BC3FF4BB9F7C7","a71e10cb-9326-49a6-b6f2-bbb35256737a","920300cb-ef92-407e-8025-8071213f24fb","{""part"":""2"",""participantId"":""77EAAFE50DDB4B858F8BC3FF4BB9F7C7"",""assignmentId"":""a71e10cb-9326-49a6-b6f2-bbb35256737a"",""projectId"":""920300cb-ef92-407e-8025-8071213f24fb""}","https://test12345.live/?part=2&participantId=77EAAFE50DDB4B858F8BC3FF4BB9F7C7&assignmentId=a71e10cb-9326-49a6-b6f2-bbb35256737a&projectId=920300cb-ef92-407e-8025-8071213f24fb","77EAAFE50DDB4B858F8BC3FF4BB9F7C7-2025-05-23-18-46-11","","null","","images/schematic_sequence/flight_scheme/flight_scheme_0.png","null","",""
"","","","","","html-audio-response","28","422083","0.0-26.0","77EAAFE50DDB4B858F8BC3FF4BB9F7C7","77EAAFE50DDB4B858F8BC3FF4BB9F7C7","a71e10cb-9326-49a6-b6f2-bbb35256737a","920300cb-ef92-407e-8025-8071213f24fb","{""part"":""2"",""participantId"":""77EAAFE50DDB4B858F8BC3FF4BB9F7C7"",""assignmentId"":""a71e10cb-9326-49a6-b6f2-bbb35256737a"",""projectId"":""920300cb-ef92-407e-8025-8071213f24fb""}","https://test12345.live/?part=2&participantId=77EAAFE50DDB4B858F8BC3FF4BB9F7C7&assignmentId=a71e10cb-9326-49a6-b6f2-bbb35256737a&projectId=920300cb-ef92-407e-8025-8071213f24fb","77EAAFE50DDB4B858F8BC3FF4BB9F7C7-2025-05-23-18-46-11","","28259","","[""<span style=\""color: red; font-size: 24px\""> NOW RECORDING</span><p>Please say out loud all the images you saw in part 1 of the experiment, in the exact order you saw them. Try to recall as many images as you can, but remember: getting the order right is more important than the number of images you recall. </p>""]","","1","flight_scheme"
"","","","","","image-button-response","29","428088","0.0-27.0-0.0","77EAAFE50DDB4B858F8BC3FF4BB9F7C7","77EAAFE50DDB4B858F8BC3FF4BB9F7C7","a71e10cb-9326-49a6-b6f2-bbb35256737a","920300cb-ef92-407e-8025-8071213f24fb","{""part"":""2"",""participantId"":""77EAAFE50DDB4B858F8BC3FF4BB9F7C7"",""assignmentId"":""a71e10cb-9326-49a6-b6f2-bbb35256737a"",""projectId"":""920300cb-ef92-407e-8025-8071213f24fb""}","https://test12345.live/?part=2&participantId=77EAAFE50DDB4B858F8BC3FF4BB9F7C7&assignmentId=a71e10cb-9326-49a6-b6f2-bbb35256737a&projectId=920300cb-ef92-407e-8025-8071213f24fb","77EAAFE50DDB4B858F8BC3FF4BB9F7C7-2025-05-23-18-46-11","","null","","images/semantic_sequence/redecorating_semantic/redecorating_semantic_0.png","null","",""
"","","","","","html-audio-response","30","448447","0.0-28.0","77EAAFE50DDB4B858F8BC3FF4BB9F7C7","77EAAFE50DDB4B858F8BC3FF4BB9F7C7","a71e10cb-9326-49a6-b6f2-bbb35256737a","920300cb-ef92-407e-8025-8071213f24fb","{""part"":""2"",""participantId"":""77EAAFE50DDB4B858F8BC3FF4BB9F7C7"",""assignmentId"":""a71e10cb-9326-49a6-b6f2-bbb35256737a"",""projectId"":""920300cb-ef92-407e-8025-8071213f24fb""}","https://test12345.live/?part=2&participantId=77EAAFE50DDB4B858F8BC3FF4BB9F7C7&assignmentId=a71e10cb-9326-49a6-b6f2-bbb35256737a&projectId=920300cb-ef92-407e-8025-8071213f24fb","77EAAFE50DDB4B858F8BC3FF4BB9F7C7-2025-05-23-18-46-11","","19447","","[""<span style=\""color: red; font-size: 24px\""> NOW RECORDING</span><p>Please say out loud all the images you saw in part 1 of the experiment, in the exact order you saw them. Try to recall as many images as you can, but remember: getting the order right is more important than the number of images you recall. </p>""]","","6","redecorating_semantic"
"","","","","","image-button-response","31","454450","0.0-29.0-0.0","77EAAFE50DDB4B858F8BC3FF4BB9F7C7","77EAAFE50DDB4B858F8BC3FF4BB9F7C7","a71e10cb-9326-49a6-b6f2-bbb35256737a","920300cb-ef92-407e-8025-8071213f24fb","{""part"":""2"",""participantId"":""77EAAFE50DDB4B858F8BC3FF4BB9F7C7"",""assignmentId"":""a71e10cb-9326-49a6-b6f2-bbb35256737a"",""projectId"":""920300cb-ef92-407e-8025-8071213f24fb""}","https://test12345.live/?part=2&participantId=77EAAFE50DDB4B858F8BC3FF4BB9F7C7&assignmentId=a71e10cb-9326-49a6-b6f2-bbb35256737a&projectId=920300cb-ef92-407e-8025-8071213f24fb","77EAAFE50DDB4B858F8BC3FF4BB9F7C7-2025-05-23-18-46-11","","null","","images/causal_sequence/the_performance_causal/the_performance_causal_0.png","null","",""
"","","","","","html-audio-response","32","492317","0.0-30.0","77EAAFE50DDB4B858F8BC3FF4BB9F7C7","77EAAFE50DDB4B858F8BC3FF4BB9F7C7","a71e10cb-9326-49a6-b6f2-bbb35256737a","920300cb-ef92-407e-8025-8071213f24fb","{""part"":""2"",""participantId"":""77EAAFE50DDB4B858F8BC3FF4BB9F7C7"",""assignmentId"":""a71e10cb-9326-49a6-b6f2-bbb35256737a"",""projectId"":""920300cb-ef92-407e-8025-8071213f24fb""}","https://test12345.live/?part=2&participantId=77EAAFE50DDB4B858F8BC3FF4BB9F7C7&assignmentId=a71e10cb-9326-49a6-b6f2-bbb35256737a&projectId=920300cb-ef92-407e-8025-8071213f24fb","77EAAFE50DDB4B858F8BC3FF4BB9F7C7-2025-05-23-18-46-11","","37071","","[""<span style=\""color: red; font-size: 24px\""> NOW RECORDING</span><p>Please say out loud all the images you saw in part 1 of the experiment, in the exact order you saw them. Try to recall as many images as you can, but remember: getting the order right is more important than the number of images you recall. </p>""]","","6","the_performance_causal"
"","","","","","image-button-response","33","498326","0.0-31.0-0.0","77EAAFE50DDB4B858F8BC3FF4BB9F7C7","77EAAFE50DDB4B858F8BC3FF4BB9F7C7","a71e10cb-9326-49a6-b6f2-bbb35256737a","920300cb-ef92-407e-8025-8071213f24fb","{""part"":""2"",""participantId"":""77EAAFE50DDB4B858F8BC3FF4BB9F7C7"",""assignmentId"":""a71e10cb-9326-49a6-b6f2-bbb35256737a"",""projectId"":""920300cb-ef92-407e-8025-8071213f24fb""}","https://test12345.live/?part=2&participantId=77EAAFE50DDB4B858F8BC3FF4BB9F7C7&assignmentId=a71e10cb-9326-49a6-b6f2-bbb35256737a&projectId=920300cb-ef92-407e-8025-8071213f24fb","77EAAFE50DDB4B858F8BC3FF4BB9F7C7-2025-05-23-18-46-11","","null","","images/causal_sequence/dog_causal/dog_causal_0.png","null","",""
"","","","","","html-audio-response","34","517774","0.0-32.0","77EAAFE50DDB4B858F8BC3FF4BB9F7C7","77EAAFE50DDB4B858F8BC3FF4BB9F7C7","a71e10cb-9326-49a6-b6f2-bbb35256737a","920300cb-ef92-407e-8025-8071213f24fb","{""part"":""2"",""participantId"":""77EAAFE50DDB4B858F8BC3FF4BB9F7C7"",""assignmentId"":""a71e10cb-9326-49a6-b6f2-bbb35256737a"",""projectId"":""920300cb-ef92-407e-8025-8071213f24fb""}","https://test12345.live/?part=2&participantId=77EAAFE50DDB4B858F8BC3FF4BB9F7C7&assignmentId=a71e10cb-9326-49a6-b6f2-bbb35256737a&projectId=920300cb-ef92-407e-8025-8071213f24fb","77EAAFE50DDB4B858F8BC3FF4BB9F7C7-2025-05-23-18-46-11","","18762","","[""<span style=\""color: red; font-size: 24px\""> NOW RECORDING</span><p>Please say out loud all the images you saw in part 1 of the experiment, in the exact order you saw them. Try to recall as many images as you can, but remember: getting the order right is more important than the number of images you recall. </p>""]","","3","dog_causal"
"","","","","","image-button-response","35","523781","0.0-33.0-0.0","77EAAFE50DDB4B858F8BC3FF4BB9F7C7","77EAAFE50DDB4B858F8BC3FF4BB9F7C7","a71e10cb-9326-49a6-b6f2-bbb35256737a","920300cb-ef92-407e-8025-8071213f24fb","{""part"":""2"",""participantId"":""77EAAFE50DDB4B858F8BC3FF4BB9F7C7"",""assignmentId"":""a71e10cb-9326-49a6-b6f2-bbb35256737a"",""projectId"":""920300cb-ef92-407e-8025-8071213f24fb""}","https://test12345.live/?part=2&participantId=77EAAFE50DDB4B858F8BC3FF4BB9F7C7&assignmentId=a71e10cb-9326-49a6-b6f2-bbb35256737a&projectId=920300cb-ef92-407e-8025-8071213f24fb","77EAAFE50DDB4B858F8BC3FF4BB9F7C7-2025-05-23-18-46-11","","null","","images/semantic_sequence/housework_semantic/housework_semantic_0.png","null","",""
"","","","","","html-audio-response","36","538408","0.0-34.0","77EAAFE50DDB4B858F8BC3FF4BB9F7C7","77EAAFE50DDB4B858F8BC3FF4BB9F7C7","a71e10cb-9326-49a6-b6f2-bbb35256737a","920300cb-ef92-407e-8025-8071213f24fb","{""part"":""2"",""participantId"":""77EAAFE50DDB4B858F8BC3FF4BB9F7C7"",""assignmentId"":""a71e10cb-9326-49a6-b6f2-bbb35256737a"",""projectId"":""920300cb-ef92-407e-8025-8071213f24fb""}","https://test12345.live/?part=2&participantId=77EAAFE50DDB4B858F8BC3FF4BB9F7C7&assignmentId=a71e10cb-9326-49a6-b6f2-bbb35256737a&projectId=920300cb-ef92-407e-8025-8071213f24fb","77EAAFE50DDB4B858F8BC3FF4BB9F7C7-2025-05-23-18-46-11","","13291","","[""<span style=\""color: red; font-size: 24px\""> NOW RECORDING</span><p>Please say out loud all the images you saw in part 1 of the experiment, in the exact order you saw them. Try to recall as many images as you can, but remember: getting the order right is more important than the number of images you recall. </p>""]","","4","housework_semantic"
"","","","","","image-button-response","37","544411","0.0-35.0-0.0","77EAAFE50DDB4B858F8BC3FF4BB9F7C7","77EAAFE50DDB4B858F8BC3FF4BB9F7C7","a71e10cb-9326-49a6-b6f2-bbb35256737a","920300cb-ef92-407e-8025-8071213f24fb","{""part"":""2"",""participantId"":""77EAAFE50DDB4B858F8BC3FF4BB9F7C7"",""assignmentId"":""a71e10cb-9326-49a6-b6f2-bbb35256737a"",""projectId"":""920300cb-ef92-407e-8025-8071213f24fb""}","https://test12345.live/?part=2&participantId=77EAAFE50DDB4B858F8BC3FF4BB9F7C7&assignmentId=a71e10cb-9326-49a6-b6f2-bbb35256737a&projectId=920300cb-ef92-407e-8025-8071213f24fb","77EAAFE50DDB4B858F8BC3FF4BB9F7C7-2025-05-23-18-46-11","","null","","images/semantic_sequence/using_technology_semantic/using_technology_semantic_0.png","null","",""
"","","","","","html-audio-response","38","562960","0.0-36.0","77EAAFE50DDB4B858F8BC3FF4BB9F7C7","77EAAFE50DDB4B858F8BC3FF4BB9F7C7","a71e10cb-9326-49a6-b6f2-bbb35256737a","920300cb-ef92-407e-8025-8071213f24fb","{""part"":""2"",""participantId"":""77EAAFE50DDB4B858F8BC3FF4BB9F7C7"",""assignmentId"":""a71e10cb-9326-49a6-b6f2-bbb35256737a"",""projectId"":""920300cb-ef92-407e-8025-8071213f24fb""}","https://test12345.live/?part=2&participantId=77EAAFE50DDB4B858F8BC3FF4BB9F7C7&assignmentId=a71e10cb-9326-49a6-b6f2-bbb35256737a&projectId=920300cb-ef92-407e-8025-8071213f24fb","77EAAFE50DDB4B858F8BC3FF4BB9F7C7-2025-05-23-18-46-11","","17609","","[""<span style=\""color: red; font-size: 24px\""> NOW RECORDING</span><p>Please say out loud all the images you saw in part 1 of the experiment, in the exact order you saw them. Try to recall as many images as you can, but remember: getting the order right is more important than the number of images you recall. </p>""]","","3","using_technology_semantic"
"","","","","","image-button-response","39","568964","0.0-37.0-0.0","77EAAFE50DDB4B858F8BC3FF4BB9F7C7","77EAAFE50DDB4B858F8BC3FF4BB9F7C7","a71e10cb-9326-49a6-b6f2-bbb35256737a","920300cb-ef92-407e-8025-8071213f24fb","{""part"":""2"",""participantId"":""77EAAFE50DDB4B858F8BC3FF4BB9F7C7"",""assignmentId"":""a71e10cb-9326-49a6-b6f2-bbb35256737a"",""projectId"":""920300cb-ef92-407e-8025-8071213f24fb""}","https://test12345.live/?part=2&participantId=77EAAFE50DDB4B858F8BC3FF4BB9F7C7&assignmentId=a71e10cb-9326-49a6-b6f2-bbb35256737a&projectId=920300cb-ef92-407e-8025-8071213f24fb","77EAAFE50DDB4B858F8BC3FF4BB9F7C7-2025-05-23-18-46-11","","null","","images/schematic_sequence/supermarket_scheme/supermarket_scheme_0.png","null","",""
"","","","","","html-audio-response","40","596877","0.0-38.0","77EAAFE50DDB4B858F8BC3FF4BB9F7C7","77EAAFE50DDB4B858F8BC3FF4BB9F7C7","a71e10cb-9326-49a6-b6f2-bbb35256737a","920300cb-ef92-407e-8025-8071213f24fb","{""part"":""2"",""participantId"":""77EAAFE50DDB4B858F8BC3FF4BB9F7C7"",""assignmentId"":""a71e10cb-9326-49a6-b6f2-bbb35256737a"",""projectId"":""920300cb-ef92-407e-8025-8071213f24fb""}","https://test12345.live/?part=2&participantId=77EAAFE50DDB4B858F8BC3FF4BB9F7C7&assignmentId=a71e10cb-9326-49a6-b6f2-bbb35256737a&projectId=920300cb-ef92-407e-8025-8071213f24fb","77EAAFE50DDB4B858F8BC3FF4BB9F7C7-2025-05-23-18-46-11","","26893","","[""<span style=\""color: red; font-size: 24px\""> NOW RECORDING</span><p>Please say out loud all the images you saw in part 1 of the experiment, in the exact order you saw them. Try to recall as many images as you can, but remember: getting the order right is more important than the number of images you recall. </p>""]","","7","supermarket_scheme"
"","","","","","image-button-response","41","602886","0.0-39.0-0.0","77EAAFE50DDB4B858F8BC3FF4BB9F7C7","77EAAFE50DDB4B858F8BC3FF4BB9F7C7","a71e10cb-9326-49a6-b6f2-bbb35256737a","920300cb-ef92-407e-8025-8071213f24fb","{""part"":""2"",""participantId"":""77EAAFE50DDB4B858F8BC3FF4BB9F7C7"",""assignmentId"":""a71e10cb-9326-49a6-b6f2-bbb35256737a"",""projectId"":""920300cb-ef92-407e-8025-8071213f24fb""}","https://test12345.live/?part=2&participantId=77EAAFE50DDB4B858F8BC3FF4BB9F7C7&assignmentId=a71e10cb-9326-49a6-b6f2-bbb35256737a&projectId=920300cb-ef92-407e-8025-8071213f24fb","77EAAFE50DDB4B858F8BC3FF4BB9F7C7-2025-05-23-18-46-11","","null","","images/schematic_sequence/dinner_party_scheme/dinner_party_scheme_0.png","null","",""
"","","","","","html-audio-response","42","617516","0.0-40.0","77EAAFE50DDB4B858F8BC3FF4BB9F7C7","77EAAFE50DDB4B858F8BC3FF4BB9F7C7","a71e10cb-9326-49a6-b6f2-bbb35256737a","920300cb-ef92-407e-8025-8071213f24fb","{""part"":""2"",""participantId"":""77EAAFE50DDB4B858F8BC3FF4BB9F7C7"",""assignmentId"":""a71e10cb-9326-49a6-b6f2-bbb35256737a"",""projectId"":""920300cb-ef92-407e-8025-8071213f24fb""}","https://test12345.live/?part=2&participantId=77EAAFE50DDB4B858F8BC3FF4BB9F7C7&assignmentId=a71e10cb-9326-49a6-b6f2-bbb35256737a&projectId=920300cb-ef92-407e-8025-8071213f24fb","77EAAFE50DDB4B858F8BC3FF4BB9F7C7-2025-05-23-18-46-11","","12076","","[""<span style=\""color: red; font-size: 24px\""> NOW RECORDING</span><p>Please say out loud all the images you saw in part 1 of the experiment, in the exact order you saw them. Try to recall as many images as you can, but remember: getting the order right is more important than the number of images you recall. </p>""]","","3","dinner_party_scheme"
"","","","","","image-button-response","43","623522","0.0-41.0-0.0","77EAAFE50DDB4B858F8BC3FF4BB9F7C7","77EAAFE50DDB4B858F8BC3FF4BB9F7C7","a71e10cb-9326-49a6-b6f2-bbb35256737a","920300cb-ef92-407e-8025-8071213f24fb","{""part"":""2"",""participantId"":""77EAAFE50DDB4B858F8BC3FF4BB9F7C7"",""assignmentId"":""a71e10cb-9326-49a6-b6f2-bbb35256737a"",""projectId"":""920300cb-ef92-407e-8025-8071213f24fb""}","https://test12345.live/?part=2&participantId=77EAAFE50DDB4B858F8BC3FF4BB9F7C7&assignmentId=a71e10cb-9326-49a6-b6f2-bbb35256737a&projectId=920300cb-ef92-407e-8025-8071213f24fb","77EAAFE50DDB4B858F8BC3FF4BB9F7C7-2025-05-23-18-46-11","","null","","images/schematic_sequence/hotel_scheme/hotel_scheme_0.png","null","",""
"","","","","","html-audio-response","44","650149","0.0-42.0","77EAAFE50DDB4B858F8BC3FF4BB9F7C7","77EAAFE50DDB4B858F8BC3FF4BB9F7C7","a71e10cb-9326-49a6-b6f2-bbb35256737a","920300cb-ef92-407e-8025-8071213f24fb","{""part"":""2"",""participantId"":""77EAAFE50DDB4B858F8BC3FF4BB9F7C7"",""assignmentId"":""a71e10cb-9326-49a6-b6f2-bbb35256737a"",""projectId"":""920300cb-ef92-407e-8025-8071213f24fb""}","https://test12345.live/?part=2&participantId=77EAAFE50DDB4B858F8BC3FF4BB9F7C7&assignmentId=a71e10cb-9326-49a6-b6f2-bbb35256737a&projectId=920300cb-ef92-407e-8025-8071213f24fb","77EAAFE50DDB4B858F8BC3FF4BB9F7C7-2025-05-23-18-46-11","","25890","","[""<span style=\""color: red; font-size: 24px\""> NOW RECORDING</span><p>Please say out loud all the images you saw in part 1 of the experiment, in the exact order you saw them. Try to recall as many images as you can, but remember: getting the order right is more important than the number of images you recall. </p>""]","","1","hotel_scheme"
"","","","","","image-button-response","45","656155","0.0-43.0-0.0","77EAAFE50DDB4B858F8BC3FF4BB9F7C7","77EAAFE50DDB4B858F8BC3FF4BB9F7C7","a71e10cb-9326-49a6-b6f2-bbb35256737a","920300cb-ef92-407e-8025-8071213f24fb","{""part"":""2"",""participantId"":""77EAAFE50DDB4B858F8BC3FF4BB9F7C7"",""assignmentId"":""a71e10cb-9326-49a6-b6f2-bbb35256737a"",""projectId"":""920300cb-ef92-407e-8025-8071213f24fb""}","https://test12345.live/?part=2&participantId=77EAAFE50DDB4B858F8BC3FF4BB9F7C7&assignmentId=a71e10cb-9326-49a6-b6f2-bbb35256737a&projectId=920300cb-ef92-407e-8025-8071213f24fb","77EAAFE50DDB4B858F8BC3FF4BB9F7C7-2025-05-23-18-46-11","","null","","images/causal_sequence/saving_a_cat_causal/saving_a_cat_causal_0.png","null","",""
"","","","","","html-audio-response","46","675602","0.0-44.0","77EAAFE50DDB4B858F8BC3FF4BB9F7C7","77EAAFE50DDB4B858F8BC3FF4BB9F7C7","a71e10cb-9326-49a6-b6f2-bbb35256737a","920300cb-ef92-407e-8025-8071213f24fb","{""part"":""2"",""participantId"":""77EAAFE50DDB4B858F8BC3FF4BB9F7C7"",""assignmentId"":""a71e10cb-9326-49a6-b6f2-bbb35256737a"",""projectId"":""920300cb-ef92-407e-8025-8071213f24fb""}","https://test12345.live/?part=2&participantId=77EAAFE50DDB4B858F8BC3FF4BB9F7C7&assignmentId=a71e10cb-9326-49a6-b6f2-bbb35256737a&projectId=920300cb-ef92-407e-8025-8071213f24fb","77EAAFE50DDB4B858F8BC3FF4BB9F7C7-2025-05-23-18-46-11","","18404","","[""<span style=\""color: red; font-size: 24px\""> NOW RECORDING</span><p>Please say out loud all the images you saw in part 1 of the experiment, in the exact order you saw them. Try to recall as many images as you can, but remember: getting the order right is more important than the number of images you recall. </p>""]","","2","saving_a_cat_causal"
"","","","","","image-button-response","47","681609","0.0-45.0-0.0","77EAAFE50DDB4B858F8BC3FF4BB9F7C7","77EAAFE50DDB4B858F8BC3FF4BB9F7C7","a71e10cb-9326-49a6-b6f2-bbb35256737a","920300cb-ef92-407e-8025-8071213f24fb","{""part"":""2"",""participantId"":""77EAAFE50DDB4B858F8BC3FF4BB9F7C7"",""assignmentId"":""a71e10cb-9326-49a6-b6f2-bbb35256737a"",""projectId"":""920300cb-ef92-407e-8025-8071213f24fb""}","https://test12345.live/?part=2&participantId=77EAAFE50DDB4B858F8BC3FF4BB9F7C7&assignmentId=a71e10cb-9326-49a6-b6f2-bbb35256737a&projectId=920300cb-ef92-407e-8025-8071213f24fb","77EAAFE50DDB4B858F8BC3FF4BB9F7C7-2025-05-23-18-46-11","","null","","images/causal_sequence/package_causal/package_causal_0.png","null","",""
"","","","","","html-audio-response","48","724036","0.0-46.0","77EAAFE50DDB4B858F8BC3FF4BB9F7C7","77EAAFE50DDB4B858F8BC3FF4BB9F7C7","a71e10cb-9326-49a6-b6f2-bbb35256737a","920300cb-ef92-407e-8025-8071213f24fb","{""part"":""2"",""participantId"":""77EAAFE50DDB4B858F8BC3FF4BB9F7C7"",""assignmentId"":""a71e10cb-9326-49a6-b6f2-bbb35256737a"",""projectId"":""920300cb-ef92-407e-8025-8071213f24fb""}","https://test12345.live/?part=2&participantId=77EAAFE50DDB4B858F8BC3FF4BB9F7C7&assignmentId=a71e10cb-9326-49a6-b6f2-bbb35256737a&projectId=920300cb-ef92-407e-8025-8071213f24fb","77EAAFE50DDB4B858F8BC3FF4BB9F7C7-2025-05-23-18-46-11","","41088","","[""<span style=\""color: red; font-size: 24px\""> NOW RECORDING</span><p>Please say out loud all the images you saw in part 1 of the experiment, in the exact order you saw them. Try to recall as many images as you can, but remember: getting the order right is more important than the number of images you recall. </p>""]","","1","package_causal"
"","","","","","image-button-response","49","730046","0.0-47.0-0.0","77EAAFE50DDB4B858F8BC3FF4BB9F7C7","77EAAFE50DDB4B858F8BC3FF4BB9F7C7","a71e10cb-9326-49a6-b6f2-bbb35256737a","920300cb-ef92-407e-8025-8071213f24fb","{""part"":""2"",""participantId"":""77EAAFE50DDB4B858F8BC3FF4BB9F7C7"",""assignmentId"":""a71e10cb-9326-49a6-b6f2-bbb35256737a"",""projectId"":""920300cb-ef92-407e-8025-8071213f24fb""}","https://test12345.live/?part=2&participantId=77EAAFE50DDB4B858F8BC3FF4BB9F7C7&assignmentId=a71e10cb-9326-49a6-b6f2-bbb35256737a&projectId=920300cb-ef92-407e-8025-8071213f24fb","77EAAFE50DDB4B858F8BC3FF4BB9F7C7-2025-05-23-18-46-11","","null","","images/schematic_sequence/interview_scheme/interview_scheme_0.png","null","",""
"","","","","","html-audio-response","50","756009","0.0-48.0","77EAAFE50DDB4B858F8BC3FF4BB9F7C7","77EAAFE50DDB4B858F8BC3FF4BB9F7C7","a71e10cb-9326-49a6-b6f2-bbb35256737a","920300cb-ef92-407e-8025-8071213f24fb","{""part"":""2"",""participantId"":""77EAAFE50DDB4B858F8BC3FF4BB9F7C7"",""assignmentId"":""a71e10cb-9326-49a6-b6f2-bbb35256737a"",""projectId"":""920300cb-ef92-407e-8025-8071213f24fb""}","https://test12345.live/?part=2&participantId=77EAAFE50DDB4B858F8BC3FF4BB9F7C7&assignmentId=a71e10cb-9326-49a6-b6f2-bbb35256737a&projectId=920300cb-ef92-407e-8025-8071213f24fb","77EAAFE50DDB4B858F8BC3FF4BB9F7C7-2025-05-23-18-46-11","","25036","","[""<span style=\""color: red; font-size: 24px\""> NOW RECORDING</span><p>Please say out loud all the images you saw in part 1 of the experiment, in the exact order you saw them. Try to recall as many images as you can, but remember: getting the order right is more important than the number of images you recall. </p>""]","","3","interview_scheme"
"","","","","","image-button-response","51","762016","0.0-49.0-0.0","77EAAFE50DDB4B858F8BC3FF4BB9F7C7","77EAAFE50DDB4B858F8BC3FF4BB9F7C7","a71e10cb-9326-49a6-b6f2-bbb35256737a","920300cb-ef92-407e-8025-8071213f24fb","{""part"":""2"",""participantId"":""77EAAFE50DDB4B858F8BC3FF4BB9F7C7"",""assignmentId"":""a71e10cb-9326-49a6-b6f2-bbb35256737a"",""projectId"":""920300cb-ef92-407e-8025-8071213f24fb""}","https://test12345.live/?part=2&participantId=77EAAFE50DDB4B858F8BC3FF4BB9F7C7&assignmentId=a71e10cb-9326-49a6-b6f2-bbb35256737a&projectId=920300cb-ef92-407e-8025-8071213f24fb","77EAAFE50DDB4B858F8BC3FF4BB9F7C7-2025-05-23-18-46-11","","null","","images/semantic_sequence/maintaining_a_car_semantic/maintaining_a_car_semantic_0.png","null","",""
"","","","","","html-audio-response","52","781016","0.0-50.0","77EAAFE50DDB4B858F8BC3FF4BB9F7C7","77EAAFE50DDB4B858F8BC3FF4BB9F7C7","a71e10cb-9326-49a6-b6f2-bbb35256737a","920300cb-ef92-407e-8025-8071213f24fb","{""part"":""2"",""participantId"":""77EAAFE50DDB4B858F8BC3FF4BB9F7C7"",""assignmentId"":""a71e10cb-9326-49a6-b6f2-bbb35256737a"",""projectId"":""920300cb-ef92-407e-8025-8071213f24fb""}","https://test12345.live/?part=2&participantId=77EAAFE50DDB4B858F8BC3FF4BB9F7C7&assignmentId=a71e10cb-9326-49a6-b6f2-bbb35256737a&projectId=920300cb-ef92-407e-8025-8071213f24fb","77EAAFE50DDB4B858F8BC3FF4BB9F7C7-2025-05-23-18-46-11","","18210","","[""<span style=\""color: red; font-size: 24px\""> NOW RECORDING</span><p>Please say out loud all the images you saw in part 1 of the experiment, in the exact order you saw them. Try to recall as many images as you can, but remember: getting the order right is more important than the number of images you recall. </p>""]","","5","maintaining_a_car_semantic"
"","","","","","image-button-response","53","787023","0.0-51.0-0.0","77EAAFE50DDB4B858F8BC3FF4BB9F7C7","77EAAFE50DDB4B858F8BC3FF4BB9F7C7","a71e10cb-9326-49a6-b6f2-bbb35256737a","920300cb-ef92-407e-8025-8071213f24fb","{""part"":""2"",""participantId"":""77EAAFE50DDB4B858F8BC3FF4BB9F7C7"",""assignmentId"":""a71e10cb-9326-49a6-b6f2-bbb35256737a"",""projectId"":""920300cb-ef92-407e-8025-8071213f24fb""}","https://test12345.live/?part=2&participantId=77EAAFE50DDB4B858F8BC3FF4BB9F7C7&assignmentId=a71e10cb-9326-49a6-b6f2-bbb35256737a&projectId=920300cb-ef92-407e-8025-8071213f24fb","77EAAFE50DDB4B858F8BC3FF4BB9F7C7-2025-05-23-18-46-11","","null","","images/semantic_sequence/market_semantic/market_semantic_0.png","null","",""
"","","","","","html-audio-response","54","805929","0.0-52.0","77EAAFE50DDB4B858F8BC3FF4BB9F7C7","77EAAFE50DDB4B858F8BC3FF4BB9F7C7","a71e10cb-9326-49a6-b6f2-bbb35256737a","920300cb-ef92-407e-8025-8071213f24fb","{""part"":""2"",""participantId"":""77EAAFE50DDB4B858F8BC3FF4BB9F7C7"",""assignmentId"":""a71e10cb-9326-49a6-b6f2-bbb35256737a"",""projectId"":""920300cb-ef92-407e-8025-8071213f24fb""}","https://test12345.live/?part=2&participantId=77EAAFE50DDB4B858F8BC3FF4BB9F7C7&assignmentId=a71e10cb-9326-49a6-b6f2-bbb35256737a&projectId=920300cb-ef92-407e-8025-8071213f24fb","77EAAFE50DDB4B858F8BC3FF4BB9F7C7-2025-05-23-18-46-11","","17946","","[""<span style=\""color: red; font-size: 24px\""> NOW RECORDING</span><p>Please say out loud all the images you saw in part 1 of the experiment, in the exact order you saw them. Try to recall as many images as you can, but remember: getting the order right is more important than the number of images you recall. </p>""]","","3","market_semantic"
"","","","","","image-button-response","55","811933","0.0-53.0-0.0","77EAAFE50DDB4B858F8BC3FF4BB9F7C7","77EAAFE50DDB4B858F8BC3FF4BB9F7C7","a71e10cb-9326-49a6-b6f2-bbb35256737a","920300cb-ef92-407e-8025-8071213f24fb","{""part"":""2"",""participantId"":""77EAAFE50DDB4B858F8BC3FF4BB9F7C7"",""assignmentId"":""a71e10cb-9326-49a6-b6f2-bbb35256737a"",""projectId"":""920300cb-ef92-407e-8025-8071213f24fb""}","https://test12345.live/?part=2&participantId=77EAAFE50DDB4B858F8BC3FF4BB9F7C7&assignmentId=a71e10cb-9326-49a6-b6f2-bbb35256737a&projectId=920300cb-ef92-407e-8025-8071213f24fb","77EAAFE50DDB4B858F8BC3FF4BB9F7C7-2025-05-23-18-46-11","","null","","images/semantic_sequence/self_care_activities_semantic/self_care_activities_semantic_0.png","null","",""
"","","","","","html-audio-response","56","816276","0.0-54.0","77EAAFE50DDB4B858F8BC3FF4BB9F7C7","77EAAFE50DDB4B858F8BC3FF4BB9F7C7","a71e10cb-9326-49a6-b6f2-bbb35256737a","920300cb-ef92-407e-8025-8071213f24fb","{""part"":""2"",""participantId"":""77EAAFE50DDB4B858F8BC3FF4BB9F7C7"",""assignmentId"":""a71e10cb-9326-49a6-b6f2-bbb35256737a"",""projectId"":""920300cb-ef92-407e-8025-8071213f24fb""}","https://test12345.live/?part=2&participantId=77EAAFE50DDB4B858F8BC3FF4BB9F7C7&assignmentId=a71e10cb-9326-49a6-b6f2-bbb35256737a&projectId=920300cb-ef92-407e-8025-8071213f24fb","77EAAFE50DDB4B858F8BC3FF4BB9F7C7-2025-05-23-18-46-11","","3499","","[""<span style=\""color: red; font-size: 24px\""> NOW RECORDING</span><p>Please say out loud all the images you saw in part 1 of the experiment, in the exact order you saw them. Try to recall as many images as you can, but remember: getting the order right is more important than the number of images you recall. </p>""]","","1","self_care_activities_semantic"
"","","","","","image-button-response","57","822278","0.0-55.0-0.0","77EAAFE50DDB4B858F8BC3FF4BB9F7C7","77EAAFE50DDB4B858F8BC3FF4BB9F7C7","a71e10cb-9326-49a6-b6f2-bbb35256737a","920300cb-ef92-407e-8025-8071213f24fb","{""part"":""2"",""participantId"":""77EAAFE50DDB4B858F8BC3FF4BB9F7C7"",""assignmentId"":""a71e10cb-9326-49a6-b6f2-bbb35256737a"",""projectId"":""920300cb-ef92-407e-8025-8071213f24fb""}","https://test12345.live/?part=2&participantId=77EAAFE50DDB4B858F8BC3FF4BB9F7C7&assignmentId=a71e10cb-9326-49a6-b6f2-bbb35256737a&projectId=920300cb-ef92-407e-8025-8071213f24fb","77EAAFE50DDB4B858F8BC3FF4BB9F7C7-2025-05-23-18-46-11","","null","","images/semantic_sequence/creative_activities_semantic/creative_activities_semantic_0.png","null","",""
"","","","","","html-audio-response","58","831641","0.0-56.0","77EAAFE50DDB4B858F8BC3FF4BB9F7C7","77EAAFE50DDB4B858F8BC3FF4BB9F7C7","a71e10cb-9326-49a6-b6f2-bbb35256737a","920300cb-ef92-407e-8025-8071213f24fb","{""part"":""2"",""participantId"":""77EAAFE50DDB4B858F8BC3FF4BB9F7C7"",""assignmentId"":""a71e10cb-9326-49a6-b6f2-bbb35256737a"",""projectId"":""920300cb-ef92-407e-8025-8071213f24fb""}","https://test12345.live/?part=2&participantId=77EAAFE50DDB4B858F8BC3FF4BB9F7C7&assignmentId=a71e10cb-9326-49a6-b6f2-bbb35256737a&projectId=920300cb-ef92-407e-8025-8071213f24fb","77EAAFE50DDB4B858F8BC3FF4BB9F7C7-2025-05-23-18-46-11","","8417","","[""<span style=\""color: red; font-size: 24px\""> NOW RECORDING</span><p>Please say out loud all the images you saw in part 1 of the experiment, in the exact order you saw them. Try to recall as many images as you can, but remember: getting the order right is more important than the number of images you recall. </p>""]","","7","creative_activities_semantic"
"","","","","","survey-text","59","838917","0.0-57.0","77EAAFE50DDB4B858F8BC3FF4BB9F7C7","77EAAFE50DDB4B858F8BC3FF4BB9F7C7","a71e10cb-9326-49a6-b6f2-bbb35256737a","920300cb-ef92-407e-8025-8071213f24fb","{""part"":""2"",""participantId"":""77EAAFE50DDB4B858F8BC3FF4BB9F7C7"",""assignmentId"":""a71e10cb-9326-49a6-b6f2-bbb35256737a"",""projectId"":""920300cb-ef92-407e-8025-8071213f24fb""}","https://test12345.live/?part=2&participantId=77EAAFE50DDB4B858F8BC3FF4BB9F7C7&assignmentId=a71e10cb-9326-49a6-b6f2-bbb35256737a&projectId=920300cb-ef92-407e-8025-8071213f24fb","77EAAFE50DDB4B858F8BC3FF4BB9F7C7-2025-05-23-18-46-11","","7272","","","{""Q0"":""Male"",""Q1"":""35""}","",""
"","","","","","instructions","60","843367","0.0-58.0","77EAAFE50DDB4B858F8BC3FF4BB9F7C7","77EAAFE50DDB4B858F8BC3FF4BB9F7C7","a71e10cb-9326-49a6-b6f2-bbb35256737a","920300cb-ef92-407e-8025-8071213f24fb","{""part"":""2"",""participantId"":""77EAAFE50DDB4B858F8BC3FF4BB9F7C7"",""assignmentId"":""a71e10cb-9326-49a6-b6f2-bbb35256737a"",""projectId"":""920300cb-ef92-407e-8025-8071213f24fb""}","https://test12345.live/?part=2&participantId=77EAAFE50DDB4B858F8BC3FF4BB9F7C7&assignmentId=a71e10cb-9326-49a6-b6f2-bbb35256737a&projectId=920300cb-ef92-407e-8025-8071213f24fb","77EAAFE50DDB4B858F8BC3FF4BB9F7C7-2025-05-23-18-46-11","[{""page_index"":0,""viewing_time"":4450}]","4450","","","","",""
"","","","","","survey-text","61","846893","0.0-59.0","77EAAFE50DDB4B858F8BC3FF4BB9F7C7","77EAAFE50DDB4B858F8BC3FF4BB9F7C7","a71e10cb-9326-49a6-b6f2-bbb35256737a","920300cb-ef92-407e-8025-8071213f24fb","{""part"":""2"",""participantId"":""77EAAFE50DDB4B858F8BC3FF4BB9F7C7"",""assignmentId"":""a71e10cb-9326-49a6-b6f2-bbb35256737a"",""projectId"":""920300cb-ef92-407e-8025-8071213f24fb""}","https://test12345.live/?part=2&participantId=77EAAFE50DDB4B858F8BC3FF4BB9F7C7&assignmentId=a71e10cb-9326-49a6-b6f2-bbb35256737a&projectId=920300cb-ef92-407e-8025-8071213f24fb","77EAAFE50DDB4B858F8BC3FF4BB9F7C7-2025-05-23-18-46-11","","3525","","","{""Q0"":""AJFHBG896""}","",""
