"success","timeout","failed_images","failed_audio","failed_video","trial_type","trial_index","time_elapsed","internal_node_id","subject","subject_id","study_id","session_id","urlvar","current_url","audio_id","view_history","rt","device_id","stimulus","response","estimated_stimulus_onset","seq_name"
"true","false","[]","[]","[]","preload","0","1242","0.0-0.0","7A2FD3C07D83434E8933F2F44369452E","7A2FD3C07D83434E8933F2F44369452E","ce1cbca1-31c9-4d6a-bb93-38c6365cb6eb","9596d7a2-d401-47b1-aedd-70105f5f2f42","{""part"":""2"",""participantId"":""7A2FD3C07D83434E8933F2F44369452E"",""assignmentId"":""ce1cbca1-31c9-4d6a-bb93-38c6365cb6eb"",""projectId"":""9596d7a2-d401-47b1-aedd-70105f5f2f42""}","https://test12345.live/?part=2&participantId=7A2FD3C07D83434E8933F2F44369452E&assignmentId=ce1cbca1-31c9-4d6a-bb93-38c6365cb6eb&projectId=9596d7a2-d401-47b1-aedd-70105f5f2f42","7A2FD3C07D83434E8933F2F44369452E-2025-05-28-18-31-25","","","","","","",""
"","","","","","instructions","1","69931","0.0-1.0","7A2FD3C07D83434E8933F2F44369452E","7A2FD3C07D83434E8933F2F44369452E","ce1cbca1-31c9-4d6a-bb93-38c6365cb6eb","9596d7a2-d401-47b1-aedd-70105f5f2f42","{""part"":""2"",""participantId"":""7A2FD3C07D83434E8933F2F44369452E"",""assignmentId"":""ce1cbca1-31c9-4d6a-bb93-38c6365cb6eb"",""projectId"":""9596d7a2-d401-47b1-aedd-70105f5f2f42""}","https://test12345.live/?part=2&participantId=7A2FD3C07D83434E8933F2F44369452E&assignmentId=ce1cbca1-31c9-4d6a-bb93-38c6365cb6eb&projectId=9596d7a2-d401-47b1-aedd-70105f5f2f42","7A2FD3C07D83434E8933F2F44369452E-2025-05-28-18-31-25","[{""page_index"":0,""viewing_time"":68688}]","68688","","","","",""
"","","","","","instructions","2","109155","0.0-2.0","7A2FD3C07D83434E8933F2F44369452E","7A2FD3C07D83434E8933F2F44369452E","ce1cbca1-31c9-4d6a-bb93-38c6365cb6eb","9596d7a2-d401-47b1-aedd-70105f5f2f42","{""part"":""2"",""participantId"":""7A2FD3C07D83434E8933F2F44369452E"",""assignmentId"":""ce1cbca1-31c9-4d6a-bb93-38c6365cb6eb"",""projectId"":""9596d7a2-d401-47b1-aedd-70105f5f2f42""}","https://test12345.live/?part=2&participantId=7A2FD3C07D83434E8933F2F44369452E&assignmentId=ce1cbca1-31c9-4d6a-bb93-38c6365cb6eb&projectId=9596d7a2-d401-47b1-aedd-70105f5f2f42","7A2FD3C07D83434E8933F2F44369452E-2025-05-28-18-31-25","[{""page_index"":0,""viewing_time"":39224}]","39224","","","","",""
"true","","","","","fullscreen","3","112530","0.0-3.0","7A2FD3C07D83434E8933F2F44369452E","7A2FD3C07D83434E8933F2F44369452E","ce1cbca1-31c9-4d6a-bb93-38c6365cb6eb","9596d7a2-d401-47b1-aedd-70105f5f2f42","{""part"":""2"",""participantId"":""7A2FD3C07D83434E8933F2F44369452E"",""assignmentId"":""ce1cbca1-31c9-4d6a-bb93-38c6365cb6eb"",""projectId"":""9596d7a2-d401-47b1-aedd-70105f5f2f42""}","https://test12345.live/?part=2&participantId=7A2FD3C07D83434E8933F2F44369452E&assignmentId=ce1cbca1-31c9-4d6a-bb93-38c6365cb6eb&projectId=9596d7a2-d401-47b1-aedd-70105f5f2f42","7A2FD3C07D83434E8933F2F44369452E-2025-05-28-18-31-25","","2347","","","","",""
"","","","","","initialize-microphone","4","122646","0.0-4.0-0.0","7A2FD3C07D83434E8933F2F44369452E","7A2FD3C07D83434E8933F2F44369452E","ce1cbca1-31c9-4d6a-bb93-38c6365cb6eb","9596d7a2-d401-47b1-aedd-70105f5f2f42","{""part"":""2"",""participantId"":""7A2FD3C07D83434E8933F2F44369452E"",""assignmentId"":""ce1cbca1-31c9-4d6a-bb93-38c6365cb6eb"",""projectId"":""9596d7a2-d401-47b1-aedd-70105f5f2f42""}","https://test12345.live/?part=2&participantId=7A2FD3C07D83434E8933F2F44369452E&assignmentId=ce1cbca1-31c9-4d6a-bb93-38c6365cb6eb&projectId=9596d7a2-d401-47b1-aedd-70105f5f2f42","7A2FD3C07D83434E8933F2F44369452E-2025-05-28-18-31-25","","","MqCg9fbViIGc04RgT5jcf6jpDDb6fWRShn3CwsQEMlE=","","","",""
"","","","","","html-audio-response","5","249602","0.0-4.0-1.0","7A2FD3C07D83434E8933F2F44369452E","7A2FD3C07D83434E8933F2F44369452E","ce1cbca1-31c9-4d6a-bb93-38c6365cb6eb","9596d7a2-d401-47b1-aedd-70105f5f2f42","{""part"":""2"",""participantId"":""7A2FD3C07D83434E8933F2F44369452E"",""assignmentId"":""ce1cbca1-31c9-4d6a-bb93-38c6365cb6eb"",""projectId"":""9596d7a2-d401-47b1-aedd-70105f5f2f42""}","https://test12345.live/?part=2&participantId=7A2FD3C07D83434E8933F2F44369452E&assignmentId=ce1cbca1-31c9-4d6a-bb93-38c6365cb6eb&projectId=9596d7a2-d401-47b1-aedd-70105f5f2f42","7A2FD3C07D83434E8933F2F44369452E-2025-05-28-18-31-25","","null","","<span style=""color: red; font-size: 24px""> NOW RECORDING</span>
        <p>Please test Microphone</p>","","1",""
"","","","","","html-button-response","6","251660","0.0-4.0-2.0","7A2FD3C07D83434E8933F2F44369452E","7A2FD3C07D83434E8933F2F44369452E","ce1cbca1-31c9-4d6a-bb93-38c6365cb6eb","9596d7a2-d401-47b1-aedd-70105f5f2f42","{""part"":""2"",""participantId"":""7A2FD3C07D83434E8933F2F44369452E"",""assignmentId"":""ce1cbca1-31c9-4d6a-bb93-38c6365cb6eb"",""projectId"":""9596d7a2-d401-47b1-aedd-70105f5f2f42""}","https://test12345.live/?part=2&participantId=7A2FD3C07D83434E8933F2F44369452E&assignmentId=ce1cbca1-31c9-4d6a-bb93-38c6365cb6eb&projectId=9596d7a2-d401-47b1-aedd-70105f5f2f42","7A2FD3C07D83434E8933F2F44369452E-2025-05-28-18-31-25","","2054","","<p style=""font-size:48px; color:red;"">Is Microphone OK?</p>","1","",""
"","","","","","instructions","7","278468","0.0-5.0","7A2FD3C07D83434E8933F2F44369452E","7A2FD3C07D83434E8933F2F44369452E","ce1cbca1-31c9-4d6a-bb93-38c6365cb6eb","9596d7a2-d401-47b1-aedd-70105f5f2f42","{""part"":""2"",""participantId"":""7A2FD3C07D83434E8933F2F44369452E"",""assignmentId"":""ce1cbca1-31c9-4d6a-bb93-38c6365cb6eb"",""projectId"":""9596d7a2-d401-47b1-aedd-70105f5f2f42""}","https://test12345.live/?part=2&participantId=7A2FD3C07D83434E8933F2F44369452E&assignmentId=ce1cbca1-31c9-4d6a-bb93-38c6365cb6eb&projectId=9596d7a2-d401-47b1-aedd-70105f5f2f42","7A2FD3C07D83434E8933F2F44369452E-2025-05-28-18-31-25","[{""page_index"":0,""viewing_time"":1602},{""page_index"":1,""viewing_time"":10304},{""page_index"":2,""viewing_time"":14901}]","26807","","","","",""
"","","","","","image-button-response","8","284485","0.0-6.0-0.0","7A2FD3C07D83434E8933F2F44369452E","7A2FD3C07D83434E8933F2F44369452E","ce1cbca1-31c9-4d6a-bb93-38c6365cb6eb","9596d7a2-d401-47b1-aedd-70105f5f2f42","{""part"":""2"",""participantId"":""7A2FD3C07D83434E8933F2F44369452E"",""assignmentId"":""ce1cbca1-31c9-4d6a-bb93-38c6365cb6eb"",""projectId"":""9596d7a2-d401-47b1-aedd-70105f5f2f42""}","https://test12345.live/?part=2&participantId=7A2FD3C07D83434E8933F2F44369452E&assignmentId=ce1cbca1-31c9-4d6a-bb93-38c6365cb6eb&projectId=9596d7a2-d401-47b1-aedd-70105f5f2f42","7A2FD3C07D83434E8933F2F44369452E-2025-05-28-18-31-25","","null","","images/instructions/movie_0.png","null","",""
"","","","","","html-audio-response","9","345855","0.0-7.0","7A2FD3C07D83434E8933F2F44369452E","7A2FD3C07D83434E8933F2F44369452E","ce1cbca1-31c9-4d6a-bb93-38c6365cb6eb","9596d7a2-d401-47b1-aedd-70105f5f2f42","{""part"":""2"",""participantId"":""7A2FD3C07D83434E8933F2F44369452E"",""assignmentId"":""ce1cbca1-31c9-4d6a-bb93-38c6365cb6eb"",""projectId"":""9596d7a2-d401-47b1-aedd-70105f5f2f42""}","https://test12345.live/?part=2&participantId=7A2FD3C07D83434E8933F2F44369452E&assignmentId=ce1cbca1-31c9-4d6a-bb93-38c6365cb6eb&projectId=9596d7a2-d401-47b1-aedd-70105f5f2f42","7A2FD3C07D83434E8933F2F44369452E-2025-05-28-18-31-25","","null","","[""<span style=\""color: red; font-size: 24px\""> NOW RECORDING</span><p>Please say out loud all the images you saw in part 1 of the experiment, in the exact order you saw them. Try to recall as many images as you can, but remember: getting the order right is more important than the number of images you recall.</p>""]","","1",""
"","","","","","instructions","10","350173","0.0-8.0","7A2FD3C07D83434E8933F2F44369452E","7A2FD3C07D83434E8933F2F44369452E","ce1cbca1-31c9-4d6a-bb93-38c6365cb6eb","9596d7a2-d401-47b1-aedd-70105f5f2f42","{""part"":""2"",""participantId"":""7A2FD3C07D83434E8933F2F44369452E"",""assignmentId"":""ce1cbca1-31c9-4d6a-bb93-38c6365cb6eb"",""projectId"":""9596d7a2-d401-47b1-aedd-70105f5f2f42""}","https://test12345.live/?part=2&participantId=7A2FD3C07D83434E8933F2F44369452E&assignmentId=ce1cbca1-31c9-4d6a-bb93-38c6365cb6eb&projectId=9596d7a2-d401-47b1-aedd-70105f5f2f42","7A2FD3C07D83434E8933F2F44369452E-2025-05-28-18-31-25","[{""page_index"":0,""viewing_time"":4313}]","4313","","","","",""
"","","","","","image-button-response","11","356200","0.0-9.0-0.0","7A2FD3C07D83434E8933F2F44369452E","7A2FD3C07D83434E8933F2F44369452E","ce1cbca1-31c9-4d6a-bb93-38c6365cb6eb","9596d7a2-d401-47b1-aedd-70105f5f2f42","{""part"":""2"",""participantId"":""7A2FD3C07D83434E8933F2F44369452E"",""assignmentId"":""ce1cbca1-31c9-4d6a-bb93-38c6365cb6eb"",""projectId"":""9596d7a2-d401-47b1-aedd-70105f5f2f42""}","https://test12345.live/?part=2&participantId=7A2FD3C07D83434E8933F2F44369452E&assignmentId=ce1cbca1-31c9-4d6a-bb93-38c6365cb6eb&projectId=9596d7a2-d401-47b1-aedd-70105f5f2f42","7A2FD3C07D83434E8933F2F44369452E-2025-05-28-18-31-25","","null","","images/semantic_sequence/using_technology_semantic/using_technology_semantic_0.png","null","",""
"","","","","","html-audio-response","12","425808","0.0-10.0","7A2FD3C07D83434E8933F2F44369452E","7A2FD3C07D83434E8933F2F44369452E","ce1cbca1-31c9-4d6a-bb93-38c6365cb6eb","9596d7a2-d401-47b1-aedd-70105f5f2f42","{""part"":""2"",""participantId"":""7A2FD3C07D83434E8933F2F44369452E"",""assignmentId"":""ce1cbca1-31c9-4d6a-bb93-38c6365cb6eb"",""projectId"":""9596d7a2-d401-47b1-aedd-70105f5f2f42""}","https://test12345.live/?part=2&participantId=7A2FD3C07D83434E8933F2F44369452E&assignmentId=ce1cbca1-31c9-4d6a-bb93-38c6365cb6eb&projectId=9596d7a2-d401-47b1-aedd-70105f5f2f42","7A2FD3C07D83434E8933F2F44369452E-2025-05-28-18-31-25","","null","","[""<span style=\""color: red; font-size: 24px\""> NOW RECORDING</span><p>Please say out loud all the images you saw in part 1 of the experiment, in the exact order you saw them. Try to recall as many images as you can, but remember: getting the order right is more important than the number of images you recall. </p>""]","","0","using_technology_semantic"
"","","","","","image-button-response","13","431837","0.0-11.0-0.0","7A2FD3C07D83434E8933F2F44369452E","7A2FD3C07D83434E8933F2F44369452E","ce1cbca1-31c9-4d6a-bb93-38c6365cb6eb","9596d7a2-d401-47b1-aedd-70105f5f2f42","{""part"":""2"",""participantId"":""7A2FD3C07D83434E8933F2F44369452E"",""assignmentId"":""ce1cbca1-31c9-4d6a-bb93-38c6365cb6eb"",""projectId"":""9596d7a2-d401-47b1-aedd-70105f5f2f42""}","https://test12345.live/?part=2&participantId=7A2FD3C07D83434E8933F2F44369452E&assignmentId=ce1cbca1-31c9-4d6a-bb93-38c6365cb6eb&projectId=9596d7a2-d401-47b1-aedd-70105f5f2f42","7A2FD3C07D83434E8933F2F44369452E-2025-05-28-18-31-25","","null","","images/semantic_sequence/self_care_activities_semantic/self_care_activities_semantic_0.png","null","",""
"","","","","","html-audio-response","14","498546","0.0-12.0","7A2FD3C07D83434E8933F2F44369452E","7A2FD3C07D83434E8933F2F44369452E","ce1cbca1-31c9-4d6a-bb93-38c6365cb6eb","9596d7a2-d401-47b1-aedd-70105f5f2f42","{""part"":""2"",""participantId"":""7A2FD3C07D83434E8933F2F44369452E"",""assignmentId"":""ce1cbca1-31c9-4d6a-bb93-38c6365cb6eb"",""projectId"":""9596d7a2-d401-47b1-aedd-70105f5f2f42""}","https://test12345.live/?part=2&participantId=7A2FD3C07D83434E8933F2F44369452E&assignmentId=ce1cbca1-31c9-4d6a-bb93-38c6365cb6eb&projectId=9596d7a2-d401-47b1-aedd-70105f5f2f42","7A2FD3C07D83434E8933F2F44369452E-2025-05-28-18-31-25","","null","","[""<span style=\""color: red; font-size: 24px\""> NOW RECORDING</span><p>Please say out loud all the images you saw in part 1 of the experiment, in the exact order you saw them. Try to recall as many images as you can, but remember: getting the order right is more important than the number of images you recall. </p>""]","","1","self_care_activities_semantic"
"","","","","","image-button-response","15","504790","0.0-13.0-0.0","7A2FD3C07D83434E8933F2F44369452E","7A2FD3C07D83434E8933F2F44369452E","ce1cbca1-31c9-4d6a-bb93-38c6365cb6eb","9596d7a2-d401-47b1-aedd-70105f5f2f42","{""part"":""2"",""participantId"":""7A2FD3C07D83434E8933F2F44369452E"",""assignmentId"":""ce1cbca1-31c9-4d6a-bb93-38c6365cb6eb"",""projectId"":""9596d7a2-d401-47b1-aedd-70105f5f2f42""}","https://test12345.live/?part=2&participantId=7A2FD3C07D83434E8933F2F44369452E&assignmentId=ce1cbca1-31c9-4d6a-bb93-38c6365cb6eb&projectId=9596d7a2-d401-47b1-aedd-70105f5f2f42","7A2FD3C07D83434E8933F2F44369452E-2025-05-28-18-31-25","","null","","images/semantic_sequence/creative_activities_semantic/creative_activities_semantic_0.png","null","",""
"","","","","","html-audio-response","16","572498","0.0-14.0","7A2FD3C07D83434E8933F2F44369452E","7A2FD3C07D83434E8933F2F44369452E","ce1cbca1-31c9-4d6a-bb93-38c6365cb6eb","9596d7a2-d401-47b1-aedd-70105f5f2f42","{""part"":""2"",""participantId"":""7A2FD3C07D83434E8933F2F44369452E"",""assignmentId"":""ce1cbca1-31c9-4d6a-bb93-38c6365cb6eb"",""projectId"":""9596d7a2-d401-47b1-aedd-70105f5f2f42""}","https://test12345.live/?part=2&participantId=7A2FD3C07D83434E8933F2F44369452E&assignmentId=ce1cbca1-31c9-4d6a-bb93-38c6365cb6eb&projectId=9596d7a2-d401-47b1-aedd-70105f5f2f42","7A2FD3C07D83434E8933F2F44369452E-2025-05-28-18-31-25","","null","","[""<span style=\""color: red; font-size: 24px\""> NOW RECORDING</span><p>Please say out loud all the images you saw in part 1 of the experiment, in the exact order you saw them. Try to recall as many images as you can, but remember: getting the order right is more important than the number of images you recall. </p>""]","","0","creative_activities_semantic"
"","","","","","image-button-response","17","578954","0.0-15.0-0.0","7A2FD3C07D83434E8933F2F44369452E","7A2FD3C07D83434E8933F2F44369452E","ce1cbca1-31c9-4d6a-bb93-38c6365cb6eb","9596d7a2-d401-47b1-aedd-70105f5f2f42","{""part"":""2"",""participantId"":""7A2FD3C07D83434E8933F2F44369452E"",""assignmentId"":""ce1cbca1-31c9-4d6a-bb93-38c6365cb6eb"",""projectId"":""9596d7a2-d401-47b1-aedd-70105f5f2f42""}","https://test12345.live/?part=2&participantId=7A2FD3C07D83434E8933F2F44369452E&assignmentId=ce1cbca1-31c9-4d6a-bb93-38c6365cb6eb&projectId=9596d7a2-d401-47b1-aedd-70105f5f2f42","7A2FD3C07D83434E8933F2F44369452E-2025-05-28-18-31-25","","null","","images/semantic_sequence/cat_care_semantic/cat_care_semantic_0.png","null","",""
"","","","","","html-audio-response","18","640814","0.0-16.0","7A2FD3C07D83434E8933F2F44369452E","7A2FD3C07D83434E8933F2F44369452E","ce1cbca1-31c9-4d6a-bb93-38c6365cb6eb","9596d7a2-d401-47b1-aedd-70105f5f2f42","{""part"":""2"",""participantId"":""7A2FD3C07D83434E8933F2F44369452E"",""assignmentId"":""ce1cbca1-31c9-4d6a-bb93-38c6365cb6eb"",""projectId"":""9596d7a2-d401-47b1-aedd-70105f5f2f42""}","https://test12345.live/?part=2&participantId=7A2FD3C07D83434E8933F2F44369452E&assignmentId=ce1cbca1-31c9-4d6a-bb93-38c6365cb6eb&projectId=9596d7a2-d401-47b1-aedd-70105f5f2f42","7A2FD3C07D83434E8933F2F44369452E-2025-05-28-18-31-25","","null","","[""<span style=\""color: red; font-size: 24px\""> NOW RECORDING</span><p>Please say out loud all the images you saw in part 1 of the experiment, in the exact order you saw them. Try to recall as many images as you can, but remember: getting the order right is more important than the number of images you recall. </p>""]","","1","cat_care_semantic"
"","","","","","image-button-response","19","646832","0.0-17.0-0.0","7A2FD3C07D83434E8933F2F44369452E","7A2FD3C07D83434E8933F2F44369452E","ce1cbca1-31c9-4d6a-bb93-38c6365cb6eb","9596d7a2-d401-47b1-aedd-70105f5f2f42","{""part"":""2"",""participantId"":""7A2FD3C07D83434E8933F2F44369452E"",""assignmentId"":""ce1cbca1-31c9-4d6a-bb93-38c6365cb6eb"",""projectId"":""9596d7a2-d401-47b1-aedd-70105f5f2f42""}","https://test12345.live/?part=2&participantId=7A2FD3C07D83434E8933F2F44369452E&assignmentId=ce1cbca1-31c9-4d6a-bb93-38c6365cb6eb&projectId=9596d7a2-d401-47b1-aedd-70105f5f2f42","7A2FD3C07D83434E8933F2F44369452E-2025-05-28-18-31-25","","null","","images/schematic_sequence/hotel_scheme/hotel_scheme_0.png","null","",""
"","","","","","html-audio-response","20","717197","0.0-18.0","7A2FD3C07D83434E8933F2F44369452E","7A2FD3C07D83434E8933F2F44369452E","ce1cbca1-31c9-4d6a-bb93-38c6365cb6eb","9596d7a2-d401-47b1-aedd-70105f5f2f42","{""part"":""2"",""participantId"":""7A2FD3C07D83434E8933F2F44369452E"",""assignmentId"":""ce1cbca1-31c9-4d6a-bb93-38c6365cb6eb"",""projectId"":""9596d7a2-d401-47b1-aedd-70105f5f2f42""}","https://test12345.live/?part=2&participantId=7A2FD3C07D83434E8933F2F44369452E&assignmentId=ce1cbca1-31c9-4d6a-bb93-38c6365cb6eb&projectId=9596d7a2-d401-47b1-aedd-70105f5f2f42","7A2FD3C07D83434E8933F2F44369452E-2025-05-28-18-31-25","","null","","[""<span style=\""color: red; font-size: 24px\""> NOW RECORDING</span><p>Please say out loud all the images you saw in part 1 of the experiment, in the exact order you saw them. Try to recall as many images as you can, but remember: getting the order right is more important than the number of images you recall. </p>""]","","1","hotel_scheme"
"","","","","","image-button-response","21","723215","0.0-19.0-0.0","7A2FD3C07D83434E8933F2F44369452E","7A2FD3C07D83434E8933F2F44369452E","ce1cbca1-31c9-4d6a-bb93-38c6365cb6eb","9596d7a2-d401-47b1-aedd-70105f5f2f42","{""part"":""2"",""participantId"":""7A2FD3C07D83434E8933F2F44369452E"",""assignmentId"":""ce1cbca1-31c9-4d6a-bb93-38c6365cb6eb"",""projectId"":""9596d7a2-d401-47b1-aedd-70105f5f2f42""}","https://test12345.live/?part=2&participantId=7A2FD3C07D83434E8933F2F44369452E&assignmentId=ce1cbca1-31c9-4d6a-bb93-38c6365cb6eb&projectId=9596d7a2-d401-47b1-aedd-70105f5f2f42","7A2FD3C07D83434E8933F2F44369452E-2025-05-28-18-31-25","","null","","images/semantic_sequence/exploring_nature_semantic/exploring_nature_semantic_0.png","null","",""
"","","","","","html-audio-response","22","786652","0.0-20.0","7A2FD3C07D83434E8933F2F44369452E","7A2FD3C07D83434E8933F2F44369452E","ce1cbca1-31c9-4d6a-bb93-38c6365cb6eb","9596d7a2-d401-47b1-aedd-70105f5f2f42","{""part"":""2"",""participantId"":""7A2FD3C07D83434E8933F2F44369452E"",""assignmentId"":""ce1cbca1-31c9-4d6a-bb93-38c6365cb6eb"",""projectId"":""9596d7a2-d401-47b1-aedd-70105f5f2f42""}","https://test12345.live/?part=2&participantId=7A2FD3C07D83434E8933F2F44369452E&assignmentId=ce1cbca1-31c9-4d6a-bb93-38c6365cb6eb&projectId=9596d7a2-d401-47b1-aedd-70105f5f2f42","7A2FD3C07D83434E8933F2F44369452E-2025-05-28-18-31-25","","null","","[""<span style=\""color: red; font-size: 24px\""> NOW RECORDING</span><p>Please say out loud all the images you saw in part 1 of the experiment, in the exact order you saw them. Try to recall as many images as you can, but remember: getting the order right is more important than the number of images you recall. </p>""]","","0","exploring_nature_semantic"
"","","","","","image-button-response","23","792710","0.0-21.0-0.0","7A2FD3C07D83434E8933F2F44369452E","7A2FD3C07D83434E8933F2F44369452E","ce1cbca1-31c9-4d6a-bb93-38c6365cb6eb","9596d7a2-d401-47b1-aedd-70105f5f2f42","{""part"":""2"",""participantId"":""7A2FD3C07D83434E8933F2F44369452E"",""assignmentId"":""ce1cbca1-31c9-4d6a-bb93-38c6365cb6eb"",""projectId"":""9596d7a2-d401-47b1-aedd-70105f5f2f42""}","https://test12345.live/?part=2&participantId=7A2FD3C07D83434E8933F2F44369452E&assignmentId=ce1cbca1-31c9-4d6a-bb93-38c6365cb6eb&projectId=9596d7a2-d401-47b1-aedd-70105f5f2f42","7A2FD3C07D83434E8933F2F44369452E-2025-05-28-18-31-25","","null","","images/schematic_sequence/dinner_party_scheme/dinner_party_scheme_0.png","null","",""
"","","","","","html-audio-response","24","865553","0.0-22.0","7A2FD3C07D83434E8933F2F44369452E","7A2FD3C07D83434E8933F2F44369452E","ce1cbca1-31c9-4d6a-bb93-38c6365cb6eb","9596d7a2-d401-47b1-aedd-70105f5f2f42","{""part"":""2"",""participantId"":""7A2FD3C07D83434E8933F2F44369452E"",""assignmentId"":""ce1cbca1-31c9-4d6a-bb93-38c6365cb6eb"",""projectId"":""9596d7a2-d401-47b1-aedd-70105f5f2f42""}","https://test12345.live/?part=2&participantId=7A2FD3C07D83434E8933F2F44369452E&assignmentId=ce1cbca1-31c9-4d6a-bb93-38c6365cb6eb&projectId=9596d7a2-d401-47b1-aedd-70105f5f2f42","7A2FD3C07D83434E8933F2F44369452E-2025-05-28-18-31-25","","null","","[""<span style=\""color: red; font-size: 24px\""> NOW RECORDING</span><p>Please say out loud all the images you saw in part 1 of the experiment, in the exact order you saw them. Try to recall as many images as you can, but remember: getting the order right is more important than the number of images you recall. </p>""]","","1","dinner_party_scheme"
"","","","","","image-button-response","25","871737","0.0-23.0-0.0","7A2FD3C07D83434E8933F2F44369452E","7A2FD3C07D83434E8933F2F44369452E","ce1cbca1-31c9-4d6a-bb93-38c6365cb6eb","9596d7a2-d401-47b1-aedd-70105f5f2f42","{""part"":""2"",""participantId"":""7A2FD3C07D83434E8933F2F44369452E"",""assignmentId"":""ce1cbca1-31c9-4d6a-bb93-38c6365cb6eb"",""projectId"":""9596d7a2-d401-47b1-aedd-70105f5f2f42""}","https://test12345.live/?part=2&participantId=7A2FD3C07D83434E8933F2F44369452E&assignmentId=ce1cbca1-31c9-4d6a-bb93-38c6365cb6eb&projectId=9596d7a2-d401-47b1-aedd-70105f5f2f42","7A2FD3C07D83434E8933F2F44369452E-2025-05-28-18-31-25","","null","","images/semantic_sequence/housework_semantic/housework_semantic_0.png","null","",""
"","","","","","html-audio-response","26","943005","0.0-24.0","7A2FD3C07D83434E8933F2F44369452E","7A2FD3C07D83434E8933F2F44369452E","ce1cbca1-31c9-4d6a-bb93-38c6365cb6eb","9596d7a2-d401-47b1-aedd-70105f5f2f42","{""part"":""2"",""participantId"":""7A2FD3C07D83434E8933F2F44369452E"",""assignmentId"":""ce1cbca1-31c9-4d6a-bb93-38c6365cb6eb"",""projectId"":""9596d7a2-d401-47b1-aedd-70105f5f2f42""}","https://test12345.live/?part=2&participantId=7A2FD3C07D83434E8933F2F44369452E&assignmentId=ce1cbca1-31c9-4d6a-bb93-38c6365cb6eb&projectId=9596d7a2-d401-47b1-aedd-70105f5f2f42","7A2FD3C07D83434E8933F2F44369452E-2025-05-28-18-31-25","","null","","[""<span style=\""color: red; font-size: 24px\""> NOW RECORDING</span><p>Please say out loud all the images you saw in part 1 of the experiment, in the exact order you saw them. Try to recall as many images as you can, but remember: getting the order right is more important than the number of images you recall. </p>""]","","2","housework_semantic"
"","","","","","image-button-response","27","949085","0.0-25.0-0.0","7A2FD3C07D83434E8933F2F44369452E","7A2FD3C07D83434E8933F2F44369452E","ce1cbca1-31c9-4d6a-bb93-38c6365cb6eb","9596d7a2-d401-47b1-aedd-70105f5f2f42","{""part"":""2"",""participantId"":""7A2FD3C07D83434E8933F2F44369452E"",""assignmentId"":""ce1cbca1-31c9-4d6a-bb93-38c6365cb6eb"",""projectId"":""9596d7a2-d401-47b1-aedd-70105f5f2f42""}","https://test12345.live/?part=2&participantId=7A2FD3C07D83434E8933F2F44369452E&assignmentId=ce1cbca1-31c9-4d6a-bb93-38c6365cb6eb&projectId=9596d7a2-d401-47b1-aedd-70105f5f2f42","7A2FD3C07D83434E8933F2F44369452E-2025-05-28-18-31-25","","null","","images/semantic_sequence/visiting_cities_semantic/visiting_cities_semantic_0.png","null","",""
"","","","","","html-audio-response","28","1014935","0.0-26.0","7A2FD3C07D83434E8933F2F44369452E","7A2FD3C07D83434E8933F2F44369452E","ce1cbca1-31c9-4d6a-bb93-38c6365cb6eb","9596d7a2-d401-47b1-aedd-70105f5f2f42","{""part"":""2"",""participantId"":""7A2FD3C07D83434E8933F2F44369452E"",""assignmentId"":""ce1cbca1-31c9-4d6a-bb93-38c6365cb6eb"",""projectId"":""9596d7a2-d401-47b1-aedd-70105f5f2f42""}","https://test12345.live/?part=2&participantId=7A2FD3C07D83434E8933F2F44369452E&assignmentId=ce1cbca1-31c9-4d6a-bb93-38c6365cb6eb&projectId=9596d7a2-d401-47b1-aedd-70105f5f2f42","7A2FD3C07D83434E8933F2F44369452E-2025-05-28-18-31-25","","null","","[""<span style=\""color: red; font-size: 24px\""> NOW RECORDING</span><p>Please say out loud all the images you saw in part 1 of the experiment, in the exact order you saw them. Try to recall as many images as you can, but remember: getting the order right is more important than the number of images you recall. </p>""]","","1","visiting_cities_semantic"
"","","","","","image-button-response","29","1021335","0.0-27.0-0.0","7A2FD3C07D83434E8933F2F44369452E","7A2FD3C07D83434E8933F2F44369452E","ce1cbca1-31c9-4d6a-bb93-38c6365cb6eb","9596d7a2-d401-47b1-aedd-70105f5f2f42","{""part"":""2"",""participantId"":""7A2FD3C07D83434E8933F2F44369452E"",""assignmentId"":""ce1cbca1-31c9-4d6a-bb93-38c6365cb6eb"",""projectId"":""9596d7a2-d401-47b1-aedd-70105f5f2f42""}","https://test12345.live/?part=2&participantId=7A2FD3C07D83434E8933F2F44369452E&assignmentId=ce1cbca1-31c9-4d6a-bb93-38c6365cb6eb&projectId=9596d7a2-d401-47b1-aedd-70105f5f2f42","7A2FD3C07D83434E8933F2F44369452E-2025-05-28-18-31-25","","null","","images/semantic_sequence/maintaining_a_car_semantic/maintaining_a_car_semantic_0.png","null","",""
"","","","","","html-audio-response","30","1085718","0.0-28.0","7A2FD3C07D83434E8933F2F44369452E","7A2FD3C07D83434E8933F2F44369452E","ce1cbca1-31c9-4d6a-bb93-38c6365cb6eb","9596d7a2-d401-47b1-aedd-70105f5f2f42","{""part"":""2"",""participantId"":""7A2FD3C07D83434E8933F2F44369452E"",""assignmentId"":""ce1cbca1-31c9-4d6a-bb93-38c6365cb6eb"",""projectId"":""9596d7a2-d401-47b1-aedd-70105f5f2f42""}","https://test12345.live/?part=2&participantId=7A2FD3C07D83434E8933F2F44369452E&assignmentId=ce1cbca1-31c9-4d6a-bb93-38c6365cb6eb&projectId=9596d7a2-d401-47b1-aedd-70105f5f2f42","7A2FD3C07D83434E8933F2F44369452E-2025-05-28-18-31-25","","null","","[""<span style=\""color: red; font-size: 24px\""> NOW RECORDING</span><p>Please say out loud all the images you saw in part 1 of the experiment, in the exact order you saw them. Try to recall as many images as you can, but remember: getting the order right is more important than the number of images you recall. </p>""]","","1","maintaining_a_car_semantic"
"","","","","","image-button-response","31","1091834","0.0-29.0-0.0","7A2FD3C07D83434E8933F2F44369452E","7A2FD3C07D83434E8933F2F44369452E","ce1cbca1-31c9-4d6a-bb93-38c6365cb6eb","9596d7a2-d401-47b1-aedd-70105f5f2f42","{""part"":""2"",""participantId"":""7A2FD3C07D83434E8933F2F44369452E"",""assignmentId"":""ce1cbca1-31c9-4d6a-bb93-38c6365cb6eb"",""projectId"":""9596d7a2-d401-47b1-aedd-70105f5f2f42""}","https://test12345.live/?part=2&participantId=7A2FD3C07D83434E8933F2F44369452E&assignmentId=ce1cbca1-31c9-4d6a-bb93-38c6365cb6eb&projectId=9596d7a2-d401-47b1-aedd-70105f5f2f42","7A2FD3C07D83434E8933F2F44369452E-2025-05-28-18-31-25","","null","","images/semantic_sequence/physical_activity_semantic/physical_activity_semantic_0.png","null","",""
"","","","","","html-audio-response","32","1161024","0.0-30.0","7A2FD3C07D83434E8933F2F44369452E","7A2FD3C07D83434E8933F2F44369452E","ce1cbca1-31c9-4d6a-bb93-38c6365cb6eb","9596d7a2-d401-47b1-aedd-70105f5f2f42","{""part"":""2"",""participantId"":""7A2FD3C07D83434E8933F2F44369452E"",""assignmentId"":""ce1cbca1-31c9-4d6a-bb93-38c6365cb6eb"",""projectId"":""9596d7a2-d401-47b1-aedd-70105f5f2f42""}","https://test12345.live/?part=2&participantId=7A2FD3C07D83434E8933F2F44369452E&assignmentId=ce1cbca1-31c9-4d6a-bb93-38c6365cb6eb&projectId=9596d7a2-d401-47b1-aedd-70105f5f2f42","7A2FD3C07D83434E8933F2F44369452E-2025-05-28-18-31-25","","null","","[""<span style=\""color: red; font-size: 24px\""> NOW RECORDING</span><p>Please say out loud all the images you saw in part 1 of the experiment, in the exact order you saw them. Try to recall as many images as you can, but remember: getting the order right is more important than the number of images you recall. </p>""]","","1","physical_activity_semantic"
"","","","","","image-button-response","33","1167536","0.0-31.0-0.0","7A2FD3C07D83434E8933F2F44369452E","7A2FD3C07D83434E8933F2F44369452E","ce1cbca1-31c9-4d6a-bb93-38c6365cb6eb","9596d7a2-d401-47b1-aedd-70105f5f2f42","{""part"":""2"",""participantId"":""7A2FD3C07D83434E8933F2F44369452E"",""assignmentId"":""ce1cbca1-31c9-4d6a-bb93-38c6365cb6eb"",""projectId"":""9596d7a2-d401-47b1-aedd-70105f5f2f42""}","https://test12345.live/?part=2&participantId=7A2FD3C07D83434E8933F2F44369452E&assignmentId=ce1cbca1-31c9-4d6a-bb93-38c6365cb6eb&projectId=9596d7a2-d401-47b1-aedd-70105f5f2f42","7A2FD3C07D83434E8933F2F44369452E-2025-05-28-18-31-25","","null","","images/causal_sequence/the_performance_causal/the_performance_causal_0.png","null","",""
"","","","","","html-audio-response","34","1241954","0.0-32.0","7A2FD3C07D83434E8933F2F44369452E","7A2FD3C07D83434E8933F2F44369452E","ce1cbca1-31c9-4d6a-bb93-38c6365cb6eb","9596d7a2-d401-47b1-aedd-70105f5f2f42","{""part"":""2"",""participantId"":""7A2FD3C07D83434E8933F2F44369452E"",""assignmentId"":""ce1cbca1-31c9-4d6a-bb93-38c6365cb6eb"",""projectId"":""9596d7a2-d401-47b1-aedd-70105f5f2f42""}","https://test12345.live/?part=2&participantId=7A2FD3C07D83434E8933F2F44369452E&assignmentId=ce1cbca1-31c9-4d6a-bb93-38c6365cb6eb&projectId=9596d7a2-d401-47b1-aedd-70105f5f2f42","7A2FD3C07D83434E8933F2F44369452E-2025-05-28-18-31-25","","null","","[""<span style=\""color: red; font-size: 24px\""> NOW RECORDING</span><p>Please say out loud all the images you saw in part 1 of the experiment, in the exact order you saw them. Try to recall as many images as you can, but remember: getting the order right is more important than the number of images you recall. </p>""]","","1","the_performance_causal"
"","","","","","image-button-response","35","1248296","0.0-33.0-0.0","7A2FD3C07D83434E8933F2F44369452E","7A2FD3C07D83434E8933F2F44369452E","ce1cbca1-31c9-4d6a-bb93-38c6365cb6eb","9596d7a2-d401-47b1-aedd-70105f5f2f42","{""part"":""2"",""participantId"":""7A2FD3C07D83434E8933F2F44369452E"",""assignmentId"":""ce1cbca1-31c9-4d6a-bb93-38c6365cb6eb"",""projectId"":""9596d7a2-d401-47b1-aedd-70105f5f2f42""}","https://test12345.live/?part=2&participantId=7A2FD3C07D83434E8933F2F44369452E&assignmentId=ce1cbca1-31c9-4d6a-bb93-38c6365cb6eb&projectId=9596d7a2-d401-47b1-aedd-70105f5f2f42","7A2FD3C07D83434E8933F2F44369452E-2025-05-28-18-31-25","","null","","images/causal_sequence/coin_causal/coin_causal_0.png","null","",""
"","","","","","html-audio-response","36","1317163","0.0-34.0","7A2FD3C07D83434E8933F2F44369452E","7A2FD3C07D83434E8933F2F44369452E","ce1cbca1-31c9-4d6a-bb93-38c6365cb6eb","9596d7a2-d401-47b1-aedd-70105f5f2f42","{""part"":""2"",""participantId"":""7A2FD3C07D83434E8933F2F44369452E"",""assignmentId"":""ce1cbca1-31c9-4d6a-bb93-38c6365cb6eb"",""projectId"":""9596d7a2-d401-47b1-aedd-70105f5f2f42""}","https://test12345.live/?part=2&participantId=7A2FD3C07D83434E8933F2F44369452E&assignmentId=ce1cbca1-31c9-4d6a-bb93-38c6365cb6eb&projectId=9596d7a2-d401-47b1-aedd-70105f5f2f42","7A2FD3C07D83434E8933F2F44369452E-2025-05-28-18-31-25","","null","","[""<span style=\""color: red; font-size: 24px\""> NOW RECORDING</span><p>Please say out loud all the images you saw in part 1 of the experiment, in the exact order you saw them. Try to recall as many images as you can, but remember: getting the order right is more important than the number of images you recall. </p>""]","","1","coin_causal"
"","","","","","instructions","37","1319980","0.0-35.0","7A2FD3C07D83434E8933F2F44369452E","7A2FD3C07D83434E8933F2F44369452E","ce1cbca1-31c9-4d6a-bb93-38c6365cb6eb","9596d7a2-d401-47b1-aedd-70105f5f2f42","{""part"":""2"",""participantId"":""7A2FD3C07D83434E8933F2F44369452E"",""assignmentId"":""ce1cbca1-31c9-4d6a-bb93-38c6365cb6eb"",""projectId"":""9596d7a2-d401-47b1-aedd-70105f5f2f42""}","https://test12345.live/?part=2&participantId=7A2FD3C07D83434E8933F2F44369452E&assignmentId=ce1cbca1-31c9-4d6a-bb93-38c6365cb6eb&projectId=9596d7a2-d401-47b1-aedd-70105f5f2f42","7A2FD3C07D83434E8933F2F44369452E-2025-05-28-18-31-25","[{""page_index"":0,""viewing_time"":2807}]","2807","","","","",""
"","","","","","image-button-response","38","1326011","0.0-36.0-0.0","7A2FD3C07D83434E8933F2F44369452E","7A2FD3C07D83434E8933F2F44369452E","ce1cbca1-31c9-4d6a-bb93-38c6365cb6eb","9596d7a2-d401-47b1-aedd-70105f5f2f42","{""part"":""2"",""participantId"":""7A2FD3C07D83434E8933F2F44369452E"",""assignmentId"":""ce1cbca1-31c9-4d6a-bb93-38c6365cb6eb"",""projectId"":""9596d7a2-d401-47b1-aedd-70105f5f2f42""}","https://test12345.live/?part=2&participantId=7A2FD3C07D83434E8933F2F44369452E&assignmentId=ce1cbca1-31c9-4d6a-bb93-38c6365cb6eb&projectId=9596d7a2-d401-47b1-aedd-70105f5f2f42","7A2FD3C07D83434E8933F2F44369452E-2025-05-28-18-31-25","","null","","images/causal_sequence/saving_a_cat_causal/saving_a_cat_causal_0.png","null","",""
"","","","","","html-audio-response","39","1388386","0.0-37.0","7A2FD3C07D83434E8933F2F44369452E","7A2FD3C07D83434E8933F2F44369452E","ce1cbca1-31c9-4d6a-bb93-38c6365cb6eb","9596d7a2-d401-47b1-aedd-70105f5f2f42","{""part"":""2"",""participantId"":""7A2FD3C07D83434E8933F2F44369452E"",""assignmentId"":""ce1cbca1-31c9-4d6a-bb93-38c6365cb6eb"",""projectId"":""9596d7a2-d401-47b1-aedd-70105f5f2f42""}","https://test12345.live/?part=2&participantId=7A2FD3C07D83434E8933F2F44369452E&assignmentId=ce1cbca1-31c9-4d6a-bb93-38c6365cb6eb&projectId=9596d7a2-d401-47b1-aedd-70105f5f2f42","7A2FD3C07D83434E8933F2F44369452E-2025-05-28-18-31-25","","null","","[""<span style=\""color: red; font-size: 24px\""> NOW RECORDING</span><p>Please say out loud all the images you saw in part 1 of the experiment, in the exact order you saw them. Try to recall as many images as you can, but remember: getting the order right is more important than the number of images you recall. </p>""]","","1","saving_a_cat_causal"
"","","","","","image-button-response","40","1394725","0.0-38.0-0.0","7A2FD3C07D83434E8933F2F44369452E","7A2FD3C07D83434E8933F2F44369452E","ce1cbca1-31c9-4d6a-bb93-38c6365cb6eb","9596d7a2-d401-47b1-aedd-70105f5f2f42","{""part"":""2"",""participantId"":""7A2FD3C07D83434E8933F2F44369452E"",""assignmentId"":""ce1cbca1-31c9-4d6a-bb93-38c6365cb6eb"",""projectId"":""9596d7a2-d401-47b1-aedd-70105f5f2f42""}","https://test12345.live/?part=2&participantId=7A2FD3C07D83434E8933F2F44369452E&assignmentId=ce1cbca1-31c9-4d6a-bb93-38c6365cb6eb&projectId=9596d7a2-d401-47b1-aedd-70105f5f2f42","7A2FD3C07D83434E8933F2F44369452E-2025-05-28-18-31-25","","null","","images/schematic_sequence/supermarket_scheme/supermarket_scheme_0.png","null","",""
"","","","","","html-audio-response","41","1459788","0.0-39.0","7A2FD3C07D83434E8933F2F44369452E","7A2FD3C07D83434E8933F2F44369452E","ce1cbca1-31c9-4d6a-bb93-38c6365cb6eb","9596d7a2-d401-47b1-aedd-70105f5f2f42","{""part"":""2"",""participantId"":""7A2FD3C07D83434E8933F2F44369452E"",""assignmentId"":""ce1cbca1-31c9-4d6a-bb93-38c6365cb6eb"",""projectId"":""9596d7a2-d401-47b1-aedd-70105f5f2f42""}","https://test12345.live/?part=2&participantId=7A2FD3C07D83434E8933F2F44369452E&assignmentId=ce1cbca1-31c9-4d6a-bb93-38c6365cb6eb&projectId=9596d7a2-d401-47b1-aedd-70105f5f2f42","7A2FD3C07D83434E8933F2F44369452E-2025-05-28-18-31-25","","null","","[""<span style=\""color: red; font-size: 24px\""> NOW RECORDING</span><p>Please say out loud all the images you saw in part 1 of the experiment, in the exact order you saw them. Try to recall as many images as you can, but remember: getting the order right is more important than the number of images you recall. </p>""]","","2","supermarket_scheme"
"","","","","","image-button-response","42","1466242","0.0-40.0-0.0","7A2FD3C07D83434E8933F2F44369452E","7A2FD3C07D83434E8933F2F44369452E","ce1cbca1-31c9-4d6a-bb93-38c6365cb6eb","9596d7a2-d401-47b1-aedd-70105f5f2f42","{""part"":""2"",""participantId"":""7A2FD3C07D83434E8933F2F44369452E"",""assignmentId"":""ce1cbca1-31c9-4d6a-bb93-38c6365cb6eb"",""projectId"":""9596d7a2-d401-47b1-aedd-70105f5f2f42""}","https://test12345.live/?part=2&participantId=7A2FD3C07D83434E8933F2F44369452E&assignmentId=ce1cbca1-31c9-4d6a-bb93-38c6365cb6eb&projectId=9596d7a2-d401-47b1-aedd-70105f5f2f42","7A2FD3C07D83434E8933F2F44369452E-2025-05-28-18-31-25","","null","","images/causal_sequence/package_causal/package_causal_0.png","null","",""
"","","","","","html-audio-response","43","1532232","0.0-41.0","7A2FD3C07D83434E8933F2F44369452E","7A2FD3C07D83434E8933F2F44369452E","ce1cbca1-31c9-4d6a-bb93-38c6365cb6eb","9596d7a2-d401-47b1-aedd-70105f5f2f42","{""part"":""2"",""participantId"":""7A2FD3C07D83434E8933F2F44369452E"",""assignmentId"":""ce1cbca1-31c9-4d6a-bb93-38c6365cb6eb"",""projectId"":""9596d7a2-d401-47b1-aedd-70105f5f2f42""}","https://test12345.live/?part=2&participantId=7A2FD3C07D83434E8933F2F44369452E&assignmentId=ce1cbca1-31c9-4d6a-bb93-38c6365cb6eb&projectId=9596d7a2-d401-47b1-aedd-70105f5f2f42","7A2FD3C07D83434E8933F2F44369452E-2025-05-28-18-31-25","","null","","[""<span style=\""color: red; font-size: 24px\""> NOW RECORDING</span><p>Please say out loud all the images you saw in part 1 of the experiment, in the exact order you saw them. Try to recall as many images as you can, but remember: getting the order right is more important than the number of images you recall. </p>""]","","1","package_causal"
"","","","","","image-button-response","44","1538258","0.0-42.0-0.0","7A2FD3C07D83434E8933F2F44369452E","7A2FD3C07D83434E8933F2F44369452E","ce1cbca1-31c9-4d6a-bb93-38c6365cb6eb","9596d7a2-d401-47b1-aedd-70105f5f2f42","{""part"":""2"",""participantId"":""7A2FD3C07D83434E8933F2F44369452E"",""assignmentId"":""ce1cbca1-31c9-4d6a-bb93-38c6365cb6eb"",""projectId"":""9596d7a2-d401-47b1-aedd-70105f5f2f42""}","https://test12345.live/?part=2&participantId=7A2FD3C07D83434E8933F2F44369452E&assignmentId=ce1cbca1-31c9-4d6a-bb93-38c6365cb6eb&projectId=9596d7a2-d401-47b1-aedd-70105f5f2f42","7A2FD3C07D83434E8933F2F44369452E-2025-05-28-18-31-25","","null","","images/causal_sequence/museum_causal/museum_causal_0.png","null","",""
"","","","","","html-audio-response","45","1606217","0.0-43.0","7A2FD3C07D83434E8933F2F44369452E","7A2FD3C07D83434E8933F2F44369452E","ce1cbca1-31c9-4d6a-bb93-38c6365cb6eb","9596d7a2-d401-47b1-aedd-70105f5f2f42","{""part"":""2"",""participantId"":""7A2FD3C07D83434E8933F2F44369452E"",""assignmentId"":""ce1cbca1-31c9-4d6a-bb93-38c6365cb6eb"",""projectId"":""9596d7a2-d401-47b1-aedd-70105f5f2f42""}","https://test12345.live/?part=2&participantId=7A2FD3C07D83434E8933F2F44369452E&assignmentId=ce1cbca1-31c9-4d6a-bb93-38c6365cb6eb&projectId=9596d7a2-d401-47b1-aedd-70105f5f2f42","7A2FD3C07D83434E8933F2F44369452E-2025-05-28-18-31-25","","null","","[""<span style=\""color: red; font-size: 24px\""> NOW RECORDING</span><p>Please say out loud all the images you saw in part 1 of the experiment, in the exact order you saw them. Try to recall as many images as you can, but remember: getting the order right is more important than the number of images you recall. </p>""]","","1","museum_causal"
"","","","","","image-button-response","46","1612240","0.0-44.0-0.0","7A2FD3C07D83434E8933F2F44369452E","7A2FD3C07D83434E8933F2F44369452E","ce1cbca1-31c9-4d6a-bb93-38c6365cb6eb","9596d7a2-d401-47b1-aedd-70105f5f2f42","{""part"":""2"",""participantId"":""7A2FD3C07D83434E8933F2F44369452E"",""assignmentId"":""ce1cbca1-31c9-4d6a-bb93-38c6365cb6eb"",""projectId"":""9596d7a2-d401-47b1-aedd-70105f5f2f42""}","https://test12345.live/?part=2&participantId=7A2FD3C07D83434E8933F2F44369452E&assignmentId=ce1cbca1-31c9-4d6a-bb93-38c6365cb6eb&projectId=9596d7a2-d401-47b1-aedd-70105f5f2f42","7A2FD3C07D83434E8933F2F44369452E-2025-05-28-18-31-25","","null","","images/schematic_sequence/interview_scheme/interview_scheme_0.png","null","",""
"","","","","","html-audio-response","47","1678914","0.0-45.0","7A2FD3C07D83434E8933F2F44369452E","7A2FD3C07D83434E8933F2F44369452E","ce1cbca1-31c9-4d6a-bb93-38c6365cb6eb","9596d7a2-d401-47b1-aedd-70105f5f2f42","{""part"":""2"",""participantId"":""7A2FD3C07D83434E8933F2F44369452E"",""assignmentId"":""ce1cbca1-31c9-4d6a-bb93-38c6365cb6eb"",""projectId"":""9596d7a2-d401-47b1-aedd-70105f5f2f42""}","https://test12345.live/?part=2&participantId=7A2FD3C07D83434E8933F2F44369452E&assignmentId=ce1cbca1-31c9-4d6a-bb93-38c6365cb6eb&projectId=9596d7a2-d401-47b1-aedd-70105f5f2f42","7A2FD3C07D83434E8933F2F44369452E-2025-05-28-18-31-25","","null","","[""<span style=\""color: red; font-size: 24px\""> NOW RECORDING</span><p>Please say out loud all the images you saw in part 1 of the experiment, in the exact order you saw them. Try to recall as many images as you can, but remember: getting the order right is more important than the number of images you recall. </p>""]","","0","interview_scheme"
"","","","","","image-button-response","48","1685249","0.0-46.0-0.0","7A2FD3C07D83434E8933F2F44369452E","7A2FD3C07D83434E8933F2F44369452E","ce1cbca1-31c9-4d6a-bb93-38c6365cb6eb","9596d7a2-d401-47b1-aedd-70105f5f2f42","{""part"":""2"",""participantId"":""7A2FD3C07D83434E8933F2F44369452E"",""assignmentId"":""ce1cbca1-31c9-4d6a-bb93-38c6365cb6eb"",""projectId"":""9596d7a2-d401-47b1-aedd-70105f5f2f42""}","https://test12345.live/?part=2&participantId=7A2FD3C07D83434E8933F2F44369452E&assignmentId=ce1cbca1-31c9-4d6a-bb93-38c6365cb6eb&projectId=9596d7a2-d401-47b1-aedd-70105f5f2f42","7A2FD3C07D83434E8933F2F44369452E-2025-05-28-18-31-25","","null","","images/semantic_sequence/market_semantic/market_semantic_0.png","null","",""
"","","","","","html-audio-response","49","1747348","0.0-47.0","7A2FD3C07D83434E8933F2F44369452E","7A2FD3C07D83434E8933F2F44369452E","ce1cbca1-31c9-4d6a-bb93-38c6365cb6eb","9596d7a2-d401-47b1-aedd-70105f5f2f42","{""part"":""2"",""participantId"":""7A2FD3C07D83434E8933F2F44369452E"",""assignmentId"":""ce1cbca1-31c9-4d6a-bb93-38c6365cb6eb"",""projectId"":""9596d7a2-d401-47b1-aedd-70105f5f2f42""}","https://test12345.live/?part=2&participantId=7A2FD3C07D83434E8933F2F44369452E&assignmentId=ce1cbca1-31c9-4d6a-bb93-38c6365cb6eb&projectId=9596d7a2-d401-47b1-aedd-70105f5f2f42","7A2FD3C07D83434E8933F2F44369452E-2025-05-28-18-31-25","","null","","[""<span style=\""color: red; font-size: 24px\""> NOW RECORDING</span><p>Please say out loud all the images you saw in part 1 of the experiment, in the exact order you saw them. Try to recall as many images as you can, but remember: getting the order right is more important than the number of images you recall. </p>""]","","1","market_semantic"
"","","","","","image-button-response","50","1753408","0.0-48.0-0.0","7A2FD3C07D83434E8933F2F44369452E","7A2FD3C07D83434E8933F2F44369452E","ce1cbca1-31c9-4d6a-bb93-38c6365cb6eb","9596d7a2-d401-47b1-aedd-70105f5f2f42","{""part"":""2"",""participantId"":""7A2FD3C07D83434E8933F2F44369452E"",""assignmentId"":""ce1cbca1-31c9-4d6a-bb93-38c6365cb6eb"",""projectId"":""9596d7a2-d401-47b1-aedd-70105f5f2f42""}","https://test12345.live/?part=2&participantId=7A2FD3C07D83434E8933F2F44369452E&assignmentId=ce1cbca1-31c9-4d6a-bb93-38c6365cb6eb&projectId=9596d7a2-d401-47b1-aedd-70105f5f2f42","7A2FD3C07D83434E8933F2F44369452E-2025-05-28-18-31-25","","null","","images/causal_sequence/dog_causal/dog_causal_0.png","null","",""
"","","","","","html-audio-response","51","1817963","0.0-49.0","7A2FD3C07D83434E8933F2F44369452E","7A2FD3C07D83434E8933F2F44369452E","ce1cbca1-31c9-4d6a-bb93-38c6365cb6eb","9596d7a2-d401-47b1-aedd-70105f5f2f42","{""part"":""2"",""participantId"":""7A2FD3C07D83434E8933F2F44369452E"",""assignmentId"":""ce1cbca1-31c9-4d6a-bb93-38c6365cb6eb"",""projectId"":""9596d7a2-d401-47b1-aedd-70105f5f2f42""}","https://test12345.live/?part=2&participantId=7A2FD3C07D83434E8933F2F44369452E&assignmentId=ce1cbca1-31c9-4d6a-bb93-38c6365cb6eb&projectId=9596d7a2-d401-47b1-aedd-70105f5f2f42","7A2FD3C07D83434E8933F2F44369452E-2025-05-28-18-31-25","","null","","[""<span style=\""color: red; font-size: 24px\""> NOW RECORDING</span><p>Please say out loud all the images you saw in part 1 of the experiment, in the exact order you saw them. Try to recall as many images as you can, but remember: getting the order right is more important than the number of images you recall. </p>""]","","0","dog_causal"
"","","","","","image-button-response","52","1824039","0.0-50.0-0.0","7A2FD3C07D83434E8933F2F44369452E","7A2FD3C07D83434E8933F2F44369452E","ce1cbca1-31c9-4d6a-bb93-38c6365cb6eb","9596d7a2-d401-47b1-aedd-70105f5f2f42","{""part"":""2"",""participantId"":""7A2FD3C07D83434E8933F2F44369452E"",""assignmentId"":""ce1cbca1-31c9-4d6a-bb93-38c6365cb6eb"",""projectId"":""9596d7a2-d401-47b1-aedd-70105f5f2f42""}","https://test12345.live/?part=2&participantId=7A2FD3C07D83434E8933F2F44369452E&assignmentId=ce1cbca1-31c9-4d6a-bb93-38c6365cb6eb&projectId=9596d7a2-d401-47b1-aedd-70105f5f2f42","7A2FD3C07D83434E8933F2F44369452E-2025-05-28-18-31-25","","null","","images/schematic_sequence/flight_scheme/flight_scheme_0.png","null","",""
"","","","","","html-audio-response","53","1886258","0.0-51.0","7A2FD3C07D83434E8933F2F44369452E","7A2FD3C07D83434E8933F2F44369452E","ce1cbca1-31c9-4d6a-bb93-38c6365cb6eb","9596d7a2-d401-47b1-aedd-70105f5f2f42","{""part"":""2"",""participantId"":""7A2FD3C07D83434E8933F2F44369452E"",""assignmentId"":""ce1cbca1-31c9-4d6a-bb93-38c6365cb6eb"",""projectId"":""9596d7a2-d401-47b1-aedd-70105f5f2f42""}","https://test12345.live/?part=2&participantId=7A2FD3C07D83434E8933F2F44369452E&assignmentId=ce1cbca1-31c9-4d6a-bb93-38c6365cb6eb&projectId=9596d7a2-d401-47b1-aedd-70105f5f2f42","7A2FD3C07D83434E8933F2F44369452E-2025-05-28-18-31-25","","null","","[""<span style=\""color: red; font-size: 24px\""> NOW RECORDING</span><p>Please say out loud all the images you saw in part 1 of the experiment, in the exact order you saw them. Try to recall as many images as you can, but remember: getting the order right is more important than the number of images you recall. </p>""]","","0","flight_scheme"
"","","","","","image-button-response","54","1892355","0.0-52.0-0.0","7A2FD3C07D83434E8933F2F44369452E","7A2FD3C07D83434E8933F2F44369452E","ce1cbca1-31c9-4d6a-bb93-38c6365cb6eb","9596d7a2-d401-47b1-aedd-70105f5f2f42","{""part"":""2"",""participantId"":""7A2FD3C07D83434E8933F2F44369452E"",""assignmentId"":""ce1cbca1-31c9-4d6a-bb93-38c6365cb6eb"",""projectId"":""9596d7a2-d401-47b1-aedd-70105f5f2f42""}","https://test12345.live/?part=2&participantId=7A2FD3C07D83434E8933F2F44369452E&assignmentId=ce1cbca1-31c9-4d6a-bb93-38c6365cb6eb&projectId=9596d7a2-d401-47b1-aedd-70105f5f2f42","7A2FD3C07D83434E8933F2F44369452E-2025-05-28-18-31-25","","null","","images/semantic_sequence/redecorating_semantic/redecorating_semantic_0.png","null","",""
"","","","","","html-audio-response","55","1959832","0.0-53.0","7A2FD3C07D83434E8933F2F44369452E","7A2FD3C07D83434E8933F2F44369452E","ce1cbca1-31c9-4d6a-bb93-38c6365cb6eb","9596d7a2-d401-47b1-aedd-70105f5f2f42","{""part"":""2"",""participantId"":""7A2FD3C07D83434E8933F2F44369452E"",""assignmentId"":""ce1cbca1-31c9-4d6a-bb93-38c6365cb6eb"",""projectId"":""9596d7a2-d401-47b1-aedd-70105f5f2f42""}","https://test12345.live/?part=2&participantId=7A2FD3C07D83434E8933F2F44369452E&assignmentId=ce1cbca1-31c9-4d6a-bb93-38c6365cb6eb&projectId=9596d7a2-d401-47b1-aedd-70105f5f2f42","7A2FD3C07D83434E8933F2F44369452E-2025-05-28-18-31-25","","null","","[""<span style=\""color: red; font-size: 24px\""> NOW RECORDING</span><p>Please say out loud all the images you saw in part 1 of the experiment, in the exact order you saw them. Try to recall as many images as you can, but remember: getting the order right is more important than the number of images you recall. </p>""]","","1","redecorating_semantic"
"","","","","","image-button-response","56","1966171","0.0-54.0-0.0","7A2FD3C07D83434E8933F2F44369452E","7A2FD3C07D83434E8933F2F44369452E","ce1cbca1-31c9-4d6a-bb93-38c6365cb6eb","9596d7a2-d401-47b1-aedd-70105f5f2f42","{""part"":""2"",""participantId"":""7A2FD3C07D83434E8933F2F44369452E"",""assignmentId"":""ce1cbca1-31c9-4d6a-bb93-38c6365cb6eb"",""projectId"":""9596d7a2-d401-47b1-aedd-70105f5f2f42""}","https://test12345.live/?part=2&participantId=7A2FD3C07D83434E8933F2F44369452E&assignmentId=ce1cbca1-31c9-4d6a-bb93-38c6365cb6eb&projectId=9596d7a2-d401-47b1-aedd-70105f5f2f42","7A2FD3C07D83434E8933F2F44369452E-2025-05-28-18-31-25","","null","","images/semantic_sequence/kitchen_operations_semantic/kitchen_operations_semantic_0.png","null","",""
"","","","","","html-audio-response","57","2028726","0.0-55.0","7A2FD3C07D83434E8933F2F44369452E","7A2FD3C07D83434E8933F2F44369452E","ce1cbca1-31c9-4d6a-bb93-38c6365cb6eb","9596d7a2-d401-47b1-aedd-70105f5f2f42","{""part"":""2"",""participantId"":""7A2FD3C07D83434E8933F2F44369452E"",""assignmentId"":""ce1cbca1-31c9-4d6a-bb93-38c6365cb6eb"",""projectId"":""9596d7a2-d401-47b1-aedd-70105f5f2f42""}","https://test12345.live/?part=2&participantId=7A2FD3C07D83434E8933F2F44369452E&assignmentId=ce1cbca1-31c9-4d6a-bb93-38c6365cb6eb&projectId=9596d7a2-d401-47b1-aedd-70105f5f2f42","7A2FD3C07D83434E8933F2F44369452E-2025-05-28-18-31-25","","null","","[""<span style=\""color: red; font-size: 24px\""> NOW RECORDING</span><p>Please say out loud all the images you saw in part 1 of the experiment, in the exact order you saw them. Try to recall as many images as you can, but remember: getting the order right is more important than the number of images you recall. </p>""]","","0","kitchen_operations_semantic"
"","","","","","image-button-response","58","2034793","0.0-56.0-0.0","7A2FD3C07D83434E8933F2F44369452E","7A2FD3C07D83434E8933F2F44369452E","ce1cbca1-31c9-4d6a-bb93-38c6365cb6eb","9596d7a2-d401-47b1-aedd-70105f5f2f42","{""part"":""2"",""participantId"":""7A2FD3C07D83434E8933F2F44369452E"",""assignmentId"":""ce1cbca1-31c9-4d6a-bb93-38c6365cb6eb"",""projectId"":""9596d7a2-d401-47b1-aedd-70105f5f2f42""}","https://test12345.live/?part=2&participantId=7A2FD3C07D83434E8933F2F44369452E&assignmentId=ce1cbca1-31c9-4d6a-bb93-38c6365cb6eb&projectId=9596d7a2-d401-47b1-aedd-70105f5f2f42","7A2FD3C07D83434E8933F2F44369452E-2025-05-28-18-31-25","","null","","images/schematic_sequence/restaurant_scheme/restaurant_scheme_0.png","null","",""
"","","","","","html-audio-response","59","2110296","0.0-57.0","7A2FD3C07D83434E8933F2F44369452E","7A2FD3C07D83434E8933F2F44369452E","ce1cbca1-31c9-4d6a-bb93-38c6365cb6eb","9596d7a2-d401-47b1-aedd-70105f5f2f42","{""part"":""2"",""participantId"":""7A2FD3C07D83434E8933F2F44369452E"",""assignmentId"":""ce1cbca1-31c9-4d6a-bb93-38c6365cb6eb"",""projectId"":""9596d7a2-d401-47b1-aedd-70105f5f2f42""}","https://test12345.live/?part=2&participantId=7A2FD3C07D83434E8933F2F44369452E&assignmentId=ce1cbca1-31c9-4d6a-bb93-38c6365cb6eb&projectId=9596d7a2-d401-47b1-aedd-70105f5f2f42","7A2FD3C07D83434E8933F2F44369452E-2025-05-28-18-31-25","","null","","[""<span style=\""color: red; font-size: 24px\""> NOW RECORDING</span><p>Please say out loud all the images you saw in part 1 of the experiment, in the exact order you saw them. Try to recall as many images as you can, but remember: getting the order right is more important than the number of images you recall. </p>""]","","1","restaurant_scheme"
"","","","","","survey-text","60","2125337","0.0-58.0","7A2FD3C07D83434E8933F2F44369452E","7A2FD3C07D83434E8933F2F44369452E","ce1cbca1-31c9-4d6a-bb93-38c6365cb6eb","9596d7a2-d401-47b1-aedd-70105f5f2f42","{""part"":""2"",""participantId"":""7A2FD3C07D83434E8933F2F44369452E"",""assignmentId"":""ce1cbca1-31c9-4d6a-bb93-38c6365cb6eb"",""projectId"":""9596d7a2-d401-47b1-aedd-70105f5f2f42""}","https://test12345.live/?part=2&participantId=7A2FD3C07D83434E8933F2F44369452E&assignmentId=ce1cbca1-31c9-4d6a-bb93-38c6365cb6eb&projectId=9596d7a2-d401-47b1-aedd-70105f5f2f42","7A2FD3C07D83434E8933F2F44369452E-2025-05-28-18-31-25","","14979","","","{""Q0"":""MALE"",""Q1"":""33""}","",""
"","","","","","instructions","61","2147283","0.0-59.0","7A2FD3C07D83434E8933F2F44369452E","7A2FD3C07D83434E8933F2F44369452E","ce1cbca1-31c9-4d6a-bb93-38c6365cb6eb","9596d7a2-d401-47b1-aedd-70105f5f2f42","{""part"":""2"",""participantId"":""7A2FD3C07D83434E8933F2F44369452E"",""assignmentId"":""ce1cbca1-31c9-4d6a-bb93-38c6365cb6eb"",""projectId"":""9596d7a2-d401-47b1-aedd-70105f5f2f42""}","https://test12345.live/?part=2&participantId=7A2FD3C07D83434E8933F2F44369452E&assignmentId=ce1cbca1-31c9-4d6a-bb93-38c6365cb6eb&projectId=9596d7a2-d401-47b1-aedd-70105f5f2f42","7A2FD3C07D83434E8933F2F44369452E-2025-05-28-18-31-25","[{""page_index"":0,""viewing_time"":21945}]","21945","","","","",""
"","","","","","survey-text","62","2158927","0.0-60.0","7A2FD3C07D83434E8933F2F44369452E","7A2FD3C07D83434E8933F2F44369452E","ce1cbca1-31c9-4d6a-bb93-38c6365cb6eb","9596d7a2-d401-47b1-aedd-70105f5f2f42","{""part"":""2"",""participantId"":""7A2FD3C07D83434E8933F2F44369452E"",""assignmentId"":""ce1cbca1-31c9-4d6a-bb93-38c6365cb6eb"",""projectId"":""9596d7a2-d401-47b1-aedd-70105f5f2f42""}","https://test12345.live/?part=2&participantId=7A2FD3C07D83434E8933F2F44369452E&assignmentId=ce1cbca1-31c9-4d6a-bb93-38c6365cb6eb&projectId=9596d7a2-d401-47b1-aedd-70105f5f2f42","7A2FD3C07D83434E8933F2F44369452E-2025-05-28-18-31-25","","11637","","","{""Q0"":""AJFHBG896""}","",""
