"success","timeout","failed_images","failed_audio","failed_video","trial_type","trial_index","time_elapsed","internal_node_id","subject","subject_id","study_id","session_id","urlvar","current_url","audio_id","view_history","rt","device_id","stimulus","response","estimated_stimulus_onset","seq_name"
"true","false","[]","[]","[]","preload","0","1272","0.0-0.0","7AA92B1CB5674A608F501EB531B7AA8E","7AA92B1CB5674A608F501EB531B7AA8E","48c9a319-c189-4fd2-bbad-4100dc02acae","81dd14e9-200e-48d1-afc5-b6c2b3ebd11b","{""part"":""2"",""participantId"":""7AA92B1CB5674A608F501EB531B7AA8E"",""assignmentId"":""48c9a319-c189-4fd2-bbad-4100dc02acae"",""projectId"":""81dd14e9-200e-48d1-afc5-b6c2b3ebd11b""}","https://test12345.live/?part=2&participantId=7AA92B1CB5674A608F501EB531B7AA8E&assignmentId=48c9a319-c189-4fd2-bbad-4100dc02acae&projectId=81dd14e9-200e-48d1-afc5-b6c2b3ebd11b","7AA92B1CB5674A608F501EB531B7AA8E-2025-05-15-19-03-33","","","","","","",""
"","","","","","instructions","1","16457","0.0-1.0","7AA92B1CB5674A608F501EB531B7AA8E","7AA92B1CB5674A608F501EB531B7AA8E","48c9a319-c189-4fd2-bbad-4100dc02acae","81dd14e9-200e-48d1-afc5-b6c2b3ebd11b","{""part"":""2"",""participantId"":""7AA92B1CB5674A608F501EB531B7AA8E"",""assignmentId"":""48c9a319-c189-4fd2-bbad-4100dc02acae"",""projectId"":""81dd14e9-200e-48d1-afc5-b6c2b3ebd11b""}","https://test12345.live/?part=2&participantId=7AA92B1CB5674A608F501EB531B7AA8E&assignmentId=48c9a319-c189-4fd2-bbad-4100dc02acae&projectId=81dd14e9-200e-48d1-afc5-b6c2b3ebd11b","7AA92B1CB5674A608F501EB531B7AA8E-2025-05-15-19-03-33","[{""page_index"":0,""viewing_time"":15184}]","15184","","","","",""
"","","","","","instructions","2","20543","0.0-2.0","7AA92B1CB5674A608F501EB531B7AA8E","7AA92B1CB5674A608F501EB531B7AA8E","48c9a319-c189-4fd2-bbad-4100dc02acae","81dd14e9-200e-48d1-afc5-b6c2b3ebd11b","{""part"":""2"",""participantId"":""7AA92B1CB5674A608F501EB531B7AA8E"",""assignmentId"":""48c9a319-c189-4fd2-bbad-4100dc02acae"",""projectId"":""81dd14e9-200e-48d1-afc5-b6c2b3ebd11b""}","https://test12345.live/?part=2&participantId=7AA92B1CB5674A608F501EB531B7AA8E&assignmentId=48c9a319-c189-4fd2-bbad-4100dc02acae&projectId=81dd14e9-200e-48d1-afc5-b6c2b3ebd11b","7AA92B1CB5674A608F501EB531B7AA8E-2025-05-15-19-03-33","[{""page_index"":0,""viewing_time"":4085}]","4085","","","","",""
"true","","","","","fullscreen","3","23404","0.0-3.0","7AA92B1CB5674A608F501EB531B7AA8E","7AA92B1CB5674A608F501EB531B7AA8E","48c9a319-c189-4fd2-bbad-4100dc02acae","81dd14e9-200e-48d1-afc5-b6c2b3ebd11b","{""part"":""2"",""participantId"":""7AA92B1CB5674A608F501EB531B7AA8E"",""assignmentId"":""48c9a319-c189-4fd2-bbad-4100dc02acae"",""projectId"":""81dd14e9-200e-48d1-afc5-b6c2b3ebd11b""}","https://test12345.live/?part=2&participantId=7AA92B1CB5674A608F501EB531B7AA8E&assignmentId=48c9a319-c189-4fd2-bbad-4100dc02acae&projectId=81dd14e9-200e-48d1-afc5-b6c2b3ebd11b","7AA92B1CB5674A608F501EB531B7AA8E-2025-05-15-19-03-33","","1852","","","","",""
"","","","","","initialize-microphone","4","29727","0.0-4.0-0.0","7AA92B1CB5674A608F501EB531B7AA8E","7AA92B1CB5674A608F501EB531B7AA8E","48c9a319-c189-4fd2-bbad-4100dc02acae","81dd14e9-200e-48d1-afc5-b6c2b3ebd11b","{""part"":""2"",""participantId"":""7AA92B1CB5674A608F501EB531B7AA8E"",""assignmentId"":""48c9a319-c189-4fd2-bbad-4100dc02acae"",""projectId"":""81dd14e9-200e-48d1-afc5-b6c2b3ebd11b""}","https://test12345.live/?part=2&participantId=7AA92B1CB5674A608F501EB531B7AA8E&assignmentId=48c9a319-c189-4fd2-bbad-4100dc02acae&projectId=81dd14e9-200e-48d1-afc5-b6c2b3ebd11b","7AA92B1CB5674A608F501EB531B7AA8E-2025-05-15-19-03-33","","","9ead6b3b1232dd555b9ee9d36d2ae8ae7a328e0aea0960a4d5ff7fb63803646a","","","",""
"","","","","","html-audio-response","5","33975","0.0-4.0-1.0","7AA92B1CB5674A608F501EB531B7AA8E","7AA92B1CB5674A608F501EB531B7AA8E","48c9a319-c189-4fd2-bbad-4100dc02acae","81dd14e9-200e-48d1-afc5-b6c2b3ebd11b","{""part"":""2"",""participantId"":""7AA92B1CB5674A608F501EB531B7AA8E"",""assignmentId"":""48c9a319-c189-4fd2-bbad-4100dc02acae"",""projectId"":""81dd14e9-200e-48d1-afc5-b6c2b3ebd11b""}","https://test12345.live/?part=2&participantId=7AA92B1CB5674A608F501EB531B7AA8E&assignmentId=48c9a319-c189-4fd2-bbad-4100dc02acae&projectId=81dd14e9-200e-48d1-afc5-b6c2b3ebd11b","7AA92B1CB5674A608F501EB531B7AA8E-2025-05-15-19-03-33","","2721","","<span style=""color: red; font-size: 24px""> NOW RECORDING</span>
        <p>Please test Microphone</p>","","15",""
"","","","","","html-button-response","6","35477","0.0-4.0-2.0","7AA92B1CB5674A608F501EB531B7AA8E","7AA92B1CB5674A608F501EB531B7AA8E","48c9a319-c189-4fd2-bbad-4100dc02acae","81dd14e9-200e-48d1-afc5-b6c2b3ebd11b","{""part"":""2"",""participantId"":""7AA92B1CB5674A608F501EB531B7AA8E"",""assignmentId"":""48c9a319-c189-4fd2-bbad-4100dc02acae"",""projectId"":""81dd14e9-200e-48d1-afc5-b6c2b3ebd11b""}","https://test12345.live/?part=2&participantId=7AA92B1CB5674A608F501EB531B7AA8E&assignmentId=48c9a319-c189-4fd2-bbad-4100dc02acae&projectId=81dd14e9-200e-48d1-afc5-b6c2b3ebd11b","7AA92B1CB5674A608F501EB531B7AA8E-2025-05-15-19-03-33","","1500","","<p style=""font-size:48px; color:red;"">Is Microphone OK?</p>","1","",""
"","","","","","instructions","7","45601","0.0-5.0","7AA92B1CB5674A608F501EB531B7AA8E","7AA92B1CB5674A608F501EB531B7AA8E","48c9a319-c189-4fd2-bbad-4100dc02acae","81dd14e9-200e-48d1-afc5-b6c2b3ebd11b","{""part"":""2"",""participantId"":""7AA92B1CB5674A608F501EB531B7AA8E"",""assignmentId"":""48c9a319-c189-4fd2-bbad-4100dc02acae"",""projectId"":""81dd14e9-200e-48d1-afc5-b6c2b3ebd11b""}","https://test12345.live/?part=2&participantId=7AA92B1CB5674A608F501EB531B7AA8E&assignmentId=48c9a319-c189-4fd2-bbad-4100dc02acae&projectId=81dd14e9-200e-48d1-afc5-b6c2b3ebd11b","7AA92B1CB5674A608F501EB531B7AA8E-2025-05-15-19-03-33","[{""page_index"":0,""viewing_time"":1599},{""page_index"":1,""viewing_time"":3276},{""page_index"":2,""viewing_time"":5246}]","10123","","","","",""
"","","","","","image-button-response","8","51624","0.0-6.0-0.0","7AA92B1CB5674A608F501EB531B7AA8E","7AA92B1CB5674A608F501EB531B7AA8E","48c9a319-c189-4fd2-bbad-4100dc02acae","81dd14e9-200e-48d1-afc5-b6c2b3ebd11b","{""part"":""2"",""participantId"":""7AA92B1CB5674A608F501EB531B7AA8E"",""assignmentId"":""48c9a319-c189-4fd2-bbad-4100dc02acae"",""projectId"":""81dd14e9-200e-48d1-afc5-b6c2b3ebd11b""}","https://test12345.live/?part=2&participantId=7AA92B1CB5674A608F501EB531B7AA8E&assignmentId=48c9a319-c189-4fd2-bbad-4100dc02acae&projectId=81dd14e9-200e-48d1-afc5-b6c2b3ebd11b","7AA92B1CB5674A608F501EB531B7AA8E-2025-05-15-19-03-33","","null","","images/instructions/movie_0.png","null","",""
"","","","","","html-audio-response","9","76386","0.0-7.0","7AA92B1CB5674A608F501EB531B7AA8E","7AA92B1CB5674A608F501EB531B7AA8E","48c9a319-c189-4fd2-bbad-4100dc02acae","81dd14e9-200e-48d1-afc5-b6c2b3ebd11b","{""part"":""2"",""participantId"":""7AA92B1CB5674A608F501EB531B7AA8E"",""assignmentId"":""48c9a319-c189-4fd2-bbad-4100dc02acae"",""projectId"":""81dd14e9-200e-48d1-afc5-b6c2b3ebd11b""}","https://test12345.live/?part=2&participantId=7AA92B1CB5674A608F501EB531B7AA8E&assignmentId=48c9a319-c189-4fd2-bbad-4100dc02acae&projectId=81dd14e9-200e-48d1-afc5-b6c2b3ebd11b","7AA92B1CB5674A608F501EB531B7AA8E-2025-05-15-19-03-33","","22795","","[""<span style=\""color: red; font-size: 24px\""> NOW RECORDING</span><p>Please say out loud all the images you saw in part 1 of the experiment, as many as you can remember. The images can be said in any order.</p>""]","","1",""
"","","","","","instructions","10","77489","0.0-8.0","7AA92B1CB5674A608F501EB531B7AA8E","7AA92B1CB5674A608F501EB531B7AA8E","48c9a319-c189-4fd2-bbad-4100dc02acae","81dd14e9-200e-48d1-afc5-b6c2b3ebd11b","{""part"":""2"",""participantId"":""7AA92B1CB5674A608F501EB531B7AA8E"",""assignmentId"":""48c9a319-c189-4fd2-bbad-4100dc02acae"",""projectId"":""81dd14e9-200e-48d1-afc5-b6c2b3ebd11b""}","https://test12345.live/?part=2&participantId=7AA92B1CB5674A608F501EB531B7AA8E&assignmentId=48c9a319-c189-4fd2-bbad-4100dc02acae&projectId=81dd14e9-200e-48d1-afc5-b6c2b3ebd11b","7AA92B1CB5674A608F501EB531B7AA8E-2025-05-15-19-03-33","[{""page_index"":0,""viewing_time"":1092}]","1092","","","","",""
"","","","","","image-button-response","11","83502","0.0-9.0-0.0","7AA92B1CB5674A608F501EB531B7AA8E","7AA92B1CB5674A608F501EB531B7AA8E","48c9a319-c189-4fd2-bbad-4100dc02acae","81dd14e9-200e-48d1-afc5-b6c2b3ebd11b","{""part"":""2"",""participantId"":""7AA92B1CB5674A608F501EB531B7AA8E"",""assignmentId"":""48c9a319-c189-4fd2-bbad-4100dc02acae"",""projectId"":""81dd14e9-200e-48d1-afc5-b6c2b3ebd11b""}","https://test12345.live/?part=2&participantId=7AA92B1CB5674A608F501EB531B7AA8E&assignmentId=48c9a319-c189-4fd2-bbad-4100dc02acae&projectId=81dd14e9-200e-48d1-afc5-b6c2b3ebd11b","7AA92B1CB5674A608F501EB531B7AA8E-2025-05-15-19-03-33","","null","","images/semantic_sequence/maintaining_a_car_semantic/maintaining_a_car_semantic_0.png","null","",""
"","","","","","html-audio-response","12","115818","0.0-10.0","7AA92B1CB5674A608F501EB531B7AA8E","7AA92B1CB5674A608F501EB531B7AA8E","48c9a319-c189-4fd2-bbad-4100dc02acae","81dd14e9-200e-48d1-afc5-b6c2b3ebd11b","{""part"":""2"",""participantId"":""7AA92B1CB5674A608F501EB531B7AA8E"",""assignmentId"":""48c9a319-c189-4fd2-bbad-4100dc02acae"",""projectId"":""81dd14e9-200e-48d1-afc5-b6c2b3ebd11b""}","https://test12345.live/?part=2&participantId=7AA92B1CB5674A608F501EB531B7AA8E&assignmentId=48c9a319-c189-4fd2-bbad-4100dc02acae&projectId=81dd14e9-200e-48d1-afc5-b6c2b3ebd11b","7AA92B1CB5674A608F501EB531B7AA8E-2025-05-15-19-03-33","","31053","","[""<span style=\""color: red; font-size: 24px\""> NOW RECORDING</span><p>Please say out loud all the images you saw in part 1 of the experiment, as many as you can remember. The images can be said in any order.</p>""]","","1","maintaining_a_car_semantic"
"","","","","","image-button-response","13","121831","0.0-11.0-0.0","7AA92B1CB5674A608F501EB531B7AA8E","7AA92B1CB5674A608F501EB531B7AA8E","48c9a319-c189-4fd2-bbad-4100dc02acae","81dd14e9-200e-48d1-afc5-b6c2b3ebd11b","{""part"":""2"",""participantId"":""7AA92B1CB5674A608F501EB531B7AA8E"",""assignmentId"":""48c9a319-c189-4fd2-bbad-4100dc02acae"",""projectId"":""81dd14e9-200e-48d1-afc5-b6c2b3ebd11b""}","https://test12345.live/?part=2&participantId=7AA92B1CB5674A608F501EB531B7AA8E&assignmentId=48c9a319-c189-4fd2-bbad-4100dc02acae&projectId=81dd14e9-200e-48d1-afc5-b6c2b3ebd11b","7AA92B1CB5674A608F501EB531B7AA8E-2025-05-15-19-03-33","","null","","images/causal_sequence/coin_causal/coin_causal_0.png","null","",""
"","","","","","html-audio-response","14","152610","0.0-12.0","7AA92B1CB5674A608F501EB531B7AA8E","7AA92B1CB5674A608F501EB531B7AA8E","48c9a319-c189-4fd2-bbad-4100dc02acae","81dd14e9-200e-48d1-afc5-b6c2b3ebd11b","{""part"":""2"",""participantId"":""7AA92B1CB5674A608F501EB531B7AA8E"",""assignmentId"":""48c9a319-c189-4fd2-bbad-4100dc02acae"",""projectId"":""81dd14e9-200e-48d1-afc5-b6c2b3ebd11b""}","https://test12345.live/?part=2&participantId=7AA92B1CB5674A608F501EB531B7AA8E&assignmentId=48c9a319-c189-4fd2-bbad-4100dc02acae&projectId=81dd14e9-200e-48d1-afc5-b6c2b3ebd11b","7AA92B1CB5674A608F501EB531B7AA8E-2025-05-15-19-03-33","","29631","","[""<span style=\""color: red; font-size: 24px\""> NOW RECORDING</span><p>Please say out loud all the images you saw in part 1 of the experiment, as many as you can remember. The images can be said in any order.</p>""]","","2","coin_causal"
"","","","","","image-button-response","15","158633","0.0-13.0-0.0","7AA92B1CB5674A608F501EB531B7AA8E","7AA92B1CB5674A608F501EB531B7AA8E","48c9a319-c189-4fd2-bbad-4100dc02acae","81dd14e9-200e-48d1-afc5-b6c2b3ebd11b","{""part"":""2"",""participantId"":""7AA92B1CB5674A608F501EB531B7AA8E"",""assignmentId"":""48c9a319-c189-4fd2-bbad-4100dc02acae"",""projectId"":""81dd14e9-200e-48d1-afc5-b6c2b3ebd11b""}","https://test12345.live/?part=2&participantId=7AA92B1CB5674A608F501EB531B7AA8E&assignmentId=48c9a319-c189-4fd2-bbad-4100dc02acae&projectId=81dd14e9-200e-48d1-afc5-b6c2b3ebd11b","7AA92B1CB5674A608F501EB531B7AA8E-2025-05-15-19-03-33","","null","","images/causal_sequence/package_causal/package_causal_0.png","null","",""
"","","","","","html-audio-response","16","201458","0.0-14.0","7AA92B1CB5674A608F501EB531B7AA8E","7AA92B1CB5674A608F501EB531B7AA8E","48c9a319-c189-4fd2-bbad-4100dc02acae","81dd14e9-200e-48d1-afc5-b6c2b3ebd11b","{""part"":""2"",""participantId"":""7AA92B1CB5674A608F501EB531B7AA8E"",""assignmentId"":""48c9a319-c189-4fd2-bbad-4100dc02acae"",""projectId"":""81dd14e9-200e-48d1-afc5-b6c2b3ebd11b""}","https://test12345.live/?part=2&participantId=7AA92B1CB5674A608F501EB531B7AA8E&assignmentId=48c9a319-c189-4fd2-bbad-4100dc02acae&projectId=81dd14e9-200e-48d1-afc5-b6c2b3ebd11b","7AA92B1CB5674A608F501EB531B7AA8E-2025-05-15-19-03-33","","41644","","[""<span style=\""color: red; font-size: 24px\""> NOW RECORDING</span><p>Please say out loud all the images you saw in part 1 of the experiment, as many as you can remember. The images can be said in any order.</p>""]","","13","package_causal"
"","","","","","image-button-response","17","207475","0.0-15.0-0.0","7AA92B1CB5674A608F501EB531B7AA8E","7AA92B1CB5674A608F501EB531B7AA8E","48c9a319-c189-4fd2-bbad-4100dc02acae","81dd14e9-200e-48d1-afc5-b6c2b3ebd11b","{""part"":""2"",""participantId"":""7AA92B1CB5674A608F501EB531B7AA8E"",""assignmentId"":""48c9a319-c189-4fd2-bbad-4100dc02acae"",""projectId"":""81dd14e9-200e-48d1-afc5-b6c2b3ebd11b""}","https://test12345.live/?part=2&participantId=7AA92B1CB5674A608F501EB531B7AA8E&assignmentId=48c9a319-c189-4fd2-bbad-4100dc02acae&projectId=81dd14e9-200e-48d1-afc5-b6c2b3ebd11b","7AA92B1CB5674A608F501EB531B7AA8E-2025-05-15-19-03-33","","null","","images/causal_sequence/museum_causal/museum_causal_0.png","null","",""
"","","","","","html-audio-response","18","244940","0.0-16.0","7AA92B1CB5674A608F501EB531B7AA8E","7AA92B1CB5674A608F501EB531B7AA8E","48c9a319-c189-4fd2-bbad-4100dc02acae","81dd14e9-200e-48d1-afc5-b6c2b3ebd11b","{""part"":""2"",""participantId"":""7AA92B1CB5674A608F501EB531B7AA8E"",""assignmentId"":""48c9a319-c189-4fd2-bbad-4100dc02acae"",""projectId"":""81dd14e9-200e-48d1-afc5-b6c2b3ebd11b""}","https://test12345.live/?part=2&participantId=7AA92B1CB5674A608F501EB531B7AA8E&assignmentId=48c9a319-c189-4fd2-bbad-4100dc02acae&projectId=81dd14e9-200e-48d1-afc5-b6c2b3ebd11b","7AA92B1CB5674A608F501EB531B7AA8E-2025-05-15-19-03-33","","36340","","[""<span style=\""color: red; font-size: 24px\""> NOW RECORDING</span><p>Please say out loud all the images you saw in part 1 of the experiment, as many as you can remember. The images can be said in any order.</p>""]","","2","museum_causal"
"","","","","","image-button-response","19","250963","0.0-17.0-0.0","7AA92B1CB5674A608F501EB531B7AA8E","7AA92B1CB5674A608F501EB531B7AA8E","48c9a319-c189-4fd2-bbad-4100dc02acae","81dd14e9-200e-48d1-afc5-b6c2b3ebd11b","{""part"":""2"",""participantId"":""7AA92B1CB5674A608F501EB531B7AA8E"",""assignmentId"":""48c9a319-c189-4fd2-bbad-4100dc02acae"",""projectId"":""81dd14e9-200e-48d1-afc5-b6c2b3ebd11b""}","https://test12345.live/?part=2&participantId=7AA92B1CB5674A608F501EB531B7AA8E&assignmentId=48c9a319-c189-4fd2-bbad-4100dc02acae&projectId=81dd14e9-200e-48d1-afc5-b6c2b3ebd11b","7AA92B1CB5674A608F501EB531B7AA8E-2025-05-15-19-03-33","","null","","images/semantic_sequence/kitchen_operations_semantic/kitchen_operations_semantic_0.png","null","",""
"","","","","","html-audio-response","20","280950","0.0-18.0","7AA92B1CB5674A608F501EB531B7AA8E","7AA92B1CB5674A608F501EB531B7AA8E","48c9a319-c189-4fd2-bbad-4100dc02acae","81dd14e9-200e-48d1-afc5-b6c2b3ebd11b","{""part"":""2"",""participantId"":""7AA92B1CB5674A608F501EB531B7AA8E"",""assignmentId"":""48c9a319-c189-4fd2-bbad-4100dc02acae"",""projectId"":""81dd14e9-200e-48d1-afc5-b6c2b3ebd11b""}","https://test12345.live/?part=2&participantId=7AA92B1CB5674A608F501EB531B7AA8E&assignmentId=48c9a319-c189-4fd2-bbad-4100dc02acae&projectId=81dd14e9-200e-48d1-afc5-b6c2b3ebd11b","7AA92B1CB5674A608F501EB531B7AA8E-2025-05-15-19-03-33","","28967","","[""<span style=\""color: red; font-size: 24px\""> NOW RECORDING</span><p>Please say out loud all the images you saw in part 1 of the experiment, as many as you can remember. The images can be said in any order.</p>""]","","1","kitchen_operations_semantic"
"","","","","","image-button-response","21","286967","0.0-19.0-0.0","7AA92B1CB5674A608F501EB531B7AA8E","7AA92B1CB5674A608F501EB531B7AA8E","48c9a319-c189-4fd2-bbad-4100dc02acae","81dd14e9-200e-48d1-afc5-b6c2b3ebd11b","{""part"":""2"",""participantId"":""7AA92B1CB5674A608F501EB531B7AA8E"",""assignmentId"":""48c9a319-c189-4fd2-bbad-4100dc02acae"",""projectId"":""81dd14e9-200e-48d1-afc5-b6c2b3ebd11b""}","https://test12345.live/?part=2&participantId=7AA92B1CB5674A608F501EB531B7AA8E&assignmentId=48c9a319-c189-4fd2-bbad-4100dc02acae&projectId=81dd14e9-200e-48d1-afc5-b6c2b3ebd11b","7AA92B1CB5674A608F501EB531B7AA8E-2025-05-15-19-03-33","","null","","images/schematic_sequence/dinner_party_scheme/dinner_party_scheme_0.png","null","",""
"","","","","","html-audio-response","22","318260","0.0-20.0","7AA92B1CB5674A608F501EB531B7AA8E","7AA92B1CB5674A608F501EB531B7AA8E","48c9a319-c189-4fd2-bbad-4100dc02acae","81dd14e9-200e-48d1-afc5-b6c2b3ebd11b","{""part"":""2"",""participantId"":""7AA92B1CB5674A608F501EB531B7AA8E"",""assignmentId"":""48c9a319-c189-4fd2-bbad-4100dc02acae"",""projectId"":""81dd14e9-200e-48d1-afc5-b6c2b3ebd11b""}","https://test12345.live/?part=2&participantId=7AA92B1CB5674A608F501EB531B7AA8E&assignmentId=48c9a319-c189-4fd2-bbad-4100dc02acae&projectId=81dd14e9-200e-48d1-afc5-b6c2b3ebd11b","7AA92B1CB5674A608F501EB531B7AA8E-2025-05-15-19-03-33","","29680","","[""<span style=\""color: red; font-size: 24px\""> NOW RECORDING</span><p>Please say out loud all the images you saw in part 1 of the experiment, as many as you can remember. The images can be said in any order.</p>""]","","2","dinner_party_scheme"
"","","","","","image-button-response","23","324275","0.0-21.0-0.0","7AA92B1CB5674A608F501EB531B7AA8E","7AA92B1CB5674A608F501EB531B7AA8E","48c9a319-c189-4fd2-bbad-4100dc02acae","81dd14e9-200e-48d1-afc5-b6c2b3ebd11b","{""part"":""2"",""participantId"":""7AA92B1CB5674A608F501EB531B7AA8E"",""assignmentId"":""48c9a319-c189-4fd2-bbad-4100dc02acae"",""projectId"":""81dd14e9-200e-48d1-afc5-b6c2b3ebd11b""}","https://test12345.live/?part=2&participantId=7AA92B1CB5674A608F501EB531B7AA8E&assignmentId=48c9a319-c189-4fd2-bbad-4100dc02acae&projectId=81dd14e9-200e-48d1-afc5-b6c2b3ebd11b","7AA92B1CB5674A608F501EB531B7AA8E-2025-05-15-19-03-33","","null","","images/semantic_sequence/market_semantic/market_semantic_0.png","null","",""
"","","","","","html-audio-response","24","351361","0.0-22.0","7AA92B1CB5674A608F501EB531B7AA8E","7AA92B1CB5674A608F501EB531B7AA8E","48c9a319-c189-4fd2-bbad-4100dc02acae","81dd14e9-200e-48d1-afc5-b6c2b3ebd11b","{""part"":""2"",""participantId"":""7AA92B1CB5674A608F501EB531B7AA8E"",""assignmentId"":""48c9a319-c189-4fd2-bbad-4100dc02acae"",""projectId"":""81dd14e9-200e-48d1-afc5-b6c2b3ebd11b""}","https://test12345.live/?part=2&participantId=7AA92B1CB5674A608F501EB531B7AA8E&assignmentId=48c9a319-c189-4fd2-bbad-4100dc02acae&projectId=81dd14e9-200e-48d1-afc5-b6c2b3ebd11b","7AA92B1CB5674A608F501EB531B7AA8E-2025-05-15-19-03-33","","25928","","[""<span style=\""color: red; font-size: 24px\""> NOW RECORDING</span><p>Please say out loud all the images you saw in part 1 of the experiment, as many as you can remember. The images can be said in any order.</p>""]","","15","market_semantic"
"","","","","","image-button-response","25","357377","0.0-23.0-0.0","7AA92B1CB5674A608F501EB531B7AA8E","7AA92B1CB5674A608F501EB531B7AA8E","48c9a319-c189-4fd2-bbad-4100dc02acae","81dd14e9-200e-48d1-afc5-b6c2b3ebd11b","{""part"":""2"",""participantId"":""7AA92B1CB5674A608F501EB531B7AA8E"",""assignmentId"":""48c9a319-c189-4fd2-bbad-4100dc02acae"",""projectId"":""81dd14e9-200e-48d1-afc5-b6c2b3ebd11b""}","https://test12345.live/?part=2&participantId=7AA92B1CB5674A608F501EB531B7AA8E&assignmentId=48c9a319-c189-4fd2-bbad-4100dc02acae&projectId=81dd14e9-200e-48d1-afc5-b6c2b3ebd11b","7AA92B1CB5674A608F501EB531B7AA8E-2025-05-15-19-03-33","","null","","images/semantic_sequence/visiting_cities_semantic/visiting_cities_semantic_0.png","null","",""
"","","","","","html-audio-response","26","380200","0.0-24.0","7AA92B1CB5674A608F501EB531B7AA8E","7AA92B1CB5674A608F501EB531B7AA8E","48c9a319-c189-4fd2-bbad-4100dc02acae","81dd14e9-200e-48d1-afc5-b6c2b3ebd11b","{""part"":""2"",""participantId"":""7AA92B1CB5674A608F501EB531B7AA8E"",""assignmentId"":""48c9a319-c189-4fd2-bbad-4100dc02acae"",""projectId"":""81dd14e9-200e-48d1-afc5-b6c2b3ebd11b""}","https://test12345.live/?part=2&participantId=7AA92B1CB5674A608F501EB531B7AA8E&assignmentId=48c9a319-c189-4fd2-bbad-4100dc02acae&projectId=81dd14e9-200e-48d1-afc5-b6c2b3ebd11b","7AA92B1CB5674A608F501EB531B7AA8E-2025-05-15-19-03-33","","21679","","[""<span style=\""color: red; font-size: 24px\""> NOW RECORDING</span><p>Please say out loud all the images you saw in part 1 of the experiment, as many as you can remember. The images can be said in any order.</p>""]","","1","visiting_cities_semantic"
"","","","","","image-button-response","27","386213","0.0-25.0-0.0","7AA92B1CB5674A608F501EB531B7AA8E","7AA92B1CB5674A608F501EB531B7AA8E","48c9a319-c189-4fd2-bbad-4100dc02acae","81dd14e9-200e-48d1-afc5-b6c2b3ebd11b","{""part"":""2"",""participantId"":""7AA92B1CB5674A608F501EB531B7AA8E"",""assignmentId"":""48c9a319-c189-4fd2-bbad-4100dc02acae"",""projectId"":""81dd14e9-200e-48d1-afc5-b6c2b3ebd11b""}","https://test12345.live/?part=2&participantId=7AA92B1CB5674A608F501EB531B7AA8E&assignmentId=48c9a319-c189-4fd2-bbad-4100dc02acae&projectId=81dd14e9-200e-48d1-afc5-b6c2b3ebd11b","7AA92B1CB5674A608F501EB531B7AA8E-2025-05-15-19-03-33","","null","","images/schematic_sequence/restaurant_scheme/restaurant_scheme_0.png","null","",""
"","","","","","html-audio-response","28","407848","0.0-26.0","7AA92B1CB5674A608F501EB531B7AA8E","7AA92B1CB5674A608F501EB531B7AA8E","48c9a319-c189-4fd2-bbad-4100dc02acae","81dd14e9-200e-48d1-afc5-b6c2b3ebd11b","{""part"":""2"",""participantId"":""7AA92B1CB5674A608F501EB531B7AA8E"",""assignmentId"":""48c9a319-c189-4fd2-bbad-4100dc02acae"",""projectId"":""81dd14e9-200e-48d1-afc5-b6c2b3ebd11b""}","https://test12345.live/?part=2&participantId=7AA92B1CB5674A608F501EB531B7AA8E&assignmentId=48c9a319-c189-4fd2-bbad-4100dc02acae&projectId=81dd14e9-200e-48d1-afc5-b6c2b3ebd11b","7AA92B1CB5674A608F501EB531B7AA8E-2025-05-15-19-03-33","","20351","","[""<span style=\""color: red; font-size: 24px\""> NOW RECORDING</span><p>Please say out loud all the images you saw in part 1 of the experiment, as many as you can remember. The images can be said in any order.</p>""]","","14","restaurant_scheme"
"","","","","","image-button-response","29","413867","0.0-27.0-0.0","7AA92B1CB5674A608F501EB531B7AA8E","7AA92B1CB5674A608F501EB531B7AA8E","48c9a319-c189-4fd2-bbad-4100dc02acae","81dd14e9-200e-48d1-afc5-b6c2b3ebd11b","{""part"":""2"",""participantId"":""7AA92B1CB5674A608F501EB531B7AA8E"",""assignmentId"":""48c9a319-c189-4fd2-bbad-4100dc02acae"",""projectId"":""81dd14e9-200e-48d1-afc5-b6c2b3ebd11b""}","https://test12345.live/?part=2&participantId=7AA92B1CB5674A608F501EB531B7AA8E&assignmentId=48c9a319-c189-4fd2-bbad-4100dc02acae&projectId=81dd14e9-200e-48d1-afc5-b6c2b3ebd11b","7AA92B1CB5674A608F501EB531B7AA8E-2025-05-15-19-03-33","","null","","images/schematic_sequence/supermarket_scheme/supermarket_scheme_0.png","null","",""
"","","","","","html-audio-response","30","442021","0.0-28.0","7AA92B1CB5674A608F501EB531B7AA8E","7AA92B1CB5674A608F501EB531B7AA8E","48c9a319-c189-4fd2-bbad-4100dc02acae","81dd14e9-200e-48d1-afc5-b6c2b3ebd11b","{""part"":""2"",""participantId"":""7AA92B1CB5674A608F501EB531B7AA8E"",""assignmentId"":""48c9a319-c189-4fd2-bbad-4100dc02acae"",""projectId"":""81dd14e9-200e-48d1-afc5-b6c2b3ebd11b""}","https://test12345.live/?part=2&participantId=7AA92B1CB5674A608F501EB531B7AA8E&assignmentId=48c9a319-c189-4fd2-bbad-4100dc02acae&projectId=81dd14e9-200e-48d1-afc5-b6c2b3ebd11b","7AA92B1CB5674A608F501EB531B7AA8E-2025-05-15-19-03-33","","27011","","[""<span style=\""color: red; font-size: 24px\""> NOW RECORDING</span><p>Please say out loud all the images you saw in part 1 of the experiment, as many as you can remember. The images can be said in any order.</p>""]","","1","supermarket_scheme"
"","","","","","image-button-response","31","448040","0.0-29.0-0.0","7AA92B1CB5674A608F501EB531B7AA8E","7AA92B1CB5674A608F501EB531B7AA8E","48c9a319-c189-4fd2-bbad-4100dc02acae","81dd14e9-200e-48d1-afc5-b6c2b3ebd11b","{""part"":""2"",""participantId"":""7AA92B1CB5674A608F501EB531B7AA8E"",""assignmentId"":""48c9a319-c189-4fd2-bbad-4100dc02acae"",""projectId"":""81dd14e9-200e-48d1-afc5-b6c2b3ebd11b""}","https://test12345.live/?part=2&participantId=7AA92B1CB5674A608F501EB531B7AA8E&assignmentId=48c9a319-c189-4fd2-bbad-4100dc02acae&projectId=81dd14e9-200e-48d1-afc5-b6c2b3ebd11b","7AA92B1CB5674A608F501EB531B7AA8E-2025-05-15-19-03-33","","null","","images/semantic_sequence/using_technology_semantic/using_technology_semantic_0.png","null","",""
"","","","","","html-audio-response","32","474739","0.0-30.0","7AA92B1CB5674A608F501EB531B7AA8E","7AA92B1CB5674A608F501EB531B7AA8E","48c9a319-c189-4fd2-bbad-4100dc02acae","81dd14e9-200e-48d1-afc5-b6c2b3ebd11b","{""part"":""2"",""participantId"":""7AA92B1CB5674A608F501EB531B7AA8E"",""assignmentId"":""48c9a319-c189-4fd2-bbad-4100dc02acae"",""projectId"":""81dd14e9-200e-48d1-afc5-b6c2b3ebd11b""}","https://test12345.live/?part=2&participantId=7AA92B1CB5674A608F501EB531B7AA8E&assignmentId=48c9a319-c189-4fd2-bbad-4100dc02acae&projectId=81dd14e9-200e-48d1-afc5-b6c2b3ebd11b","7AA92B1CB5674A608F501EB531B7AA8E-2025-05-15-19-03-33","","25751","","[""<span style=\""color: red; font-size: 24px\""> NOW RECORDING</span><p>Please say out loud all the images you saw in part 1 of the experiment, as many as you can remember. The images can be said in any order.</p>""]","","1","using_technology_semantic"
"","","","","","image-button-response","33","480759","0.0-31.0-0.0","7AA92B1CB5674A608F501EB531B7AA8E","7AA92B1CB5674A608F501EB531B7AA8E","48c9a319-c189-4fd2-bbad-4100dc02acae","81dd14e9-200e-48d1-afc5-b6c2b3ebd11b","{""part"":""2"",""participantId"":""7AA92B1CB5674A608F501EB531B7AA8E"",""assignmentId"":""48c9a319-c189-4fd2-bbad-4100dc02acae"",""projectId"":""81dd14e9-200e-48d1-afc5-b6c2b3ebd11b""}","https://test12345.live/?part=2&participantId=7AA92B1CB5674A608F501EB531B7AA8E&assignmentId=48c9a319-c189-4fd2-bbad-4100dc02acae&projectId=81dd14e9-200e-48d1-afc5-b6c2b3ebd11b","7AA92B1CB5674A608F501EB531B7AA8E-2025-05-15-19-03-33","","null","","images/causal_sequence/dog_causal/dog_causal_0.png","null","",""
"","","","","","html-audio-response","34","511599","0.0-32.0","7AA92B1CB5674A608F501EB531B7AA8E","7AA92B1CB5674A608F501EB531B7AA8E","48c9a319-c189-4fd2-bbad-4100dc02acae","81dd14e9-200e-48d1-afc5-b6c2b3ebd11b","{""part"":""2"",""participantId"":""7AA92B1CB5674A608F501EB531B7AA8E"",""assignmentId"":""48c9a319-c189-4fd2-bbad-4100dc02acae"",""projectId"":""81dd14e9-200e-48d1-afc5-b6c2b3ebd11b""}","https://test12345.live/?part=2&participantId=7AA92B1CB5674A608F501EB531B7AA8E&assignmentId=48c9a319-c189-4fd2-bbad-4100dc02acae&projectId=81dd14e9-200e-48d1-afc5-b6c2b3ebd11b","7AA92B1CB5674A608F501EB531B7AA8E-2025-05-15-19-03-33","","29652","","[""<span style=\""color: red; font-size: 24px\""> NOW RECORDING</span><p>Please say out loud all the images you saw in part 1 of the experiment, as many as you can remember. The images can be said in any order.</p>""]","","1","dog_causal"
"","","","","","image-button-response","35","517610","0.0-33.0-0.0","7AA92B1CB5674A608F501EB531B7AA8E","7AA92B1CB5674A608F501EB531B7AA8E","48c9a319-c189-4fd2-bbad-4100dc02acae","81dd14e9-200e-48d1-afc5-b6c2b3ebd11b","{""part"":""2"",""participantId"":""7AA92B1CB5674A608F501EB531B7AA8E"",""assignmentId"":""48c9a319-c189-4fd2-bbad-4100dc02acae"",""projectId"":""81dd14e9-200e-48d1-afc5-b6c2b3ebd11b""}","https://test12345.live/?part=2&participantId=7AA92B1CB5674A608F501EB531B7AA8E&assignmentId=48c9a319-c189-4fd2-bbad-4100dc02acae&projectId=81dd14e9-200e-48d1-afc5-b6c2b3ebd11b","7AA92B1CB5674A608F501EB531B7AA8E-2025-05-15-19-03-33","","null","","images/semantic_sequence/creative_activities_semantic/creative_activities_semantic_0.png","null","",""
"","","","","","html-audio-response","36","553469","0.0-34.0","7AA92B1CB5674A608F501EB531B7AA8E","7AA92B1CB5674A608F501EB531B7AA8E","48c9a319-c189-4fd2-bbad-4100dc02acae","81dd14e9-200e-48d1-afc5-b6c2b3ebd11b","{""part"":""2"",""participantId"":""7AA92B1CB5674A608F501EB531B7AA8E"",""assignmentId"":""48c9a319-c189-4fd2-bbad-4100dc02acae"",""projectId"":""81dd14e9-200e-48d1-afc5-b6c2b3ebd11b""}","https://test12345.live/?part=2&participantId=7AA92B1CB5674A608F501EB531B7AA8E&assignmentId=48c9a319-c189-4fd2-bbad-4100dc02acae&projectId=81dd14e9-200e-48d1-afc5-b6c2b3ebd11b","7AA92B1CB5674A608F501EB531B7AA8E-2025-05-15-19-03-33","","34798","","[""<span style=\""color: red; font-size: 24px\""> NOW RECORDING</span><p>Please say out loud all the images you saw in part 1 of the experiment, as many as you can remember. The images can be said in any order.</p>""]","","1","creative_activities_semantic"
"","","","","","image-button-response","37","559494","0.0-35.0-0.0","7AA92B1CB5674A608F501EB531B7AA8E","7AA92B1CB5674A608F501EB531B7AA8E","48c9a319-c189-4fd2-bbad-4100dc02acae","81dd14e9-200e-48d1-afc5-b6c2b3ebd11b","{""part"":""2"",""participantId"":""7AA92B1CB5674A608F501EB531B7AA8E"",""assignmentId"":""48c9a319-c189-4fd2-bbad-4100dc02acae"",""projectId"":""81dd14e9-200e-48d1-afc5-b6c2b3ebd11b""}","https://test12345.live/?part=2&participantId=7AA92B1CB5674A608F501EB531B7AA8E&assignmentId=48c9a319-c189-4fd2-bbad-4100dc02acae&projectId=81dd14e9-200e-48d1-afc5-b6c2b3ebd11b","7AA92B1CB5674A608F501EB531B7AA8E-2025-05-15-19-03-33","","null","","images/schematic_sequence/interview_scheme/interview_scheme_0.png","null","",""
"","","","","","html-audio-response","38","585902","0.0-36.0","7AA92B1CB5674A608F501EB531B7AA8E","7AA92B1CB5674A608F501EB531B7AA8E","48c9a319-c189-4fd2-bbad-4100dc02acae","81dd14e9-200e-48d1-afc5-b6c2b3ebd11b","{""part"":""2"",""participantId"":""7AA92B1CB5674A608F501EB531B7AA8E"",""assignmentId"":""48c9a319-c189-4fd2-bbad-4100dc02acae"",""projectId"":""81dd14e9-200e-48d1-afc5-b6c2b3ebd11b""}","https://test12345.live/?part=2&participantId=7AA92B1CB5674A608F501EB531B7AA8E&assignmentId=48c9a319-c189-4fd2-bbad-4100dc02acae&projectId=81dd14e9-200e-48d1-afc5-b6c2b3ebd11b","7AA92B1CB5674A608F501EB531B7AA8E-2025-05-15-19-03-33","","25466","","[""<span style=\""color: red; font-size: 24px\""> NOW RECORDING</span><p>Please say out loud all the images you saw in part 1 of the experiment, as many as you can remember. The images can be said in any order.</p>""]","","1","interview_scheme"
"","","","","","image-button-response","39","591915","0.0-37.0-0.0","7AA92B1CB5674A608F501EB531B7AA8E","7AA92B1CB5674A608F501EB531B7AA8E","48c9a319-c189-4fd2-bbad-4100dc02acae","81dd14e9-200e-48d1-afc5-b6c2b3ebd11b","{""part"":""2"",""participantId"":""7AA92B1CB5674A608F501EB531B7AA8E"",""assignmentId"":""48c9a319-c189-4fd2-bbad-4100dc02acae"",""projectId"":""81dd14e9-200e-48d1-afc5-b6c2b3ebd11b""}","https://test12345.live/?part=2&participantId=7AA92B1CB5674A608F501EB531B7AA8E&assignmentId=48c9a319-c189-4fd2-bbad-4100dc02acae&projectId=81dd14e9-200e-48d1-afc5-b6c2b3ebd11b","7AA92B1CB5674A608F501EB531B7AA8E-2025-05-15-19-03-33","","null","","images/schematic_sequence/hotel_scheme/hotel_scheme_0.png","null","",""
"","","","","","html-audio-response","40","623387","0.0-38.0","7AA92B1CB5674A608F501EB531B7AA8E","7AA92B1CB5674A608F501EB531B7AA8E","48c9a319-c189-4fd2-bbad-4100dc02acae","81dd14e9-200e-48d1-afc5-b6c2b3ebd11b","{""part"":""2"",""participantId"":""7AA92B1CB5674A608F501EB531B7AA8E"",""assignmentId"":""48c9a319-c189-4fd2-bbad-4100dc02acae"",""projectId"":""81dd14e9-200e-48d1-afc5-b6c2b3ebd11b""}","https://test12345.live/?part=2&participantId=7AA92B1CB5674A608F501EB531B7AA8E&assignmentId=48c9a319-c189-4fd2-bbad-4100dc02acae&projectId=81dd14e9-200e-48d1-afc5-b6c2b3ebd11b","7AA92B1CB5674A608F501EB531B7AA8E-2025-05-15-19-03-33","","29984","","[""<span style=\""color: red; font-size: 24px\""> NOW RECORDING</span><p>Please say out loud all the images you saw in part 1 of the experiment, as many as you can remember. The images can be said in any order.</p>""]","","1","hotel_scheme"
"","","","","","image-button-response","41","629406","0.0-39.0-0.0","7AA92B1CB5674A608F501EB531B7AA8E","7AA92B1CB5674A608F501EB531B7AA8E","48c9a319-c189-4fd2-bbad-4100dc02acae","81dd14e9-200e-48d1-afc5-b6c2b3ebd11b","{""part"":""2"",""participantId"":""7AA92B1CB5674A608F501EB531B7AA8E"",""assignmentId"":""48c9a319-c189-4fd2-bbad-4100dc02acae"",""projectId"":""81dd14e9-200e-48d1-afc5-b6c2b3ebd11b""}","https://test12345.live/?part=2&participantId=7AA92B1CB5674A608F501EB531B7AA8E&assignmentId=48c9a319-c189-4fd2-bbad-4100dc02acae&projectId=81dd14e9-200e-48d1-afc5-b6c2b3ebd11b","7AA92B1CB5674A608F501EB531B7AA8E-2025-05-15-19-03-33","","null","","images/causal_sequence/the_performance_causal/the_performance_causal_0.png","null","",""
"","","","","","html-audio-response","42","658210","0.0-40.0","7AA92B1CB5674A608F501EB531B7AA8E","7AA92B1CB5674A608F501EB531B7AA8E","48c9a319-c189-4fd2-bbad-4100dc02acae","81dd14e9-200e-48d1-afc5-b6c2b3ebd11b","{""part"":""2"",""participantId"":""7AA92B1CB5674A608F501EB531B7AA8E"",""assignmentId"":""48c9a319-c189-4fd2-bbad-4100dc02acae"",""projectId"":""81dd14e9-200e-48d1-afc5-b6c2b3ebd11b""}","https://test12345.live/?part=2&participantId=7AA92B1CB5674A608F501EB531B7AA8E&assignmentId=48c9a319-c189-4fd2-bbad-4100dc02acae&projectId=81dd14e9-200e-48d1-afc5-b6c2b3ebd11b","7AA92B1CB5674A608F501EB531B7AA8E-2025-05-15-19-03-33","","27701","","[""<span style=\""color: red; font-size: 24px\""> NOW RECORDING</span><p>Please say out loud all the images you saw in part 1 of the experiment, as many as you can remember. The images can be said in any order.</p>""]","","1","the_performance_causal"
"","","","","","image-button-response","43","664220","0.0-41.0-0.0","7AA92B1CB5674A608F501EB531B7AA8E","7AA92B1CB5674A608F501EB531B7AA8E","48c9a319-c189-4fd2-bbad-4100dc02acae","81dd14e9-200e-48d1-afc5-b6c2b3ebd11b","{""part"":""2"",""participantId"":""7AA92B1CB5674A608F501EB531B7AA8E"",""assignmentId"":""48c9a319-c189-4fd2-bbad-4100dc02acae"",""projectId"":""81dd14e9-200e-48d1-afc5-b6c2b3ebd11b""}","https://test12345.live/?part=2&participantId=7AA92B1CB5674A608F501EB531B7AA8E&assignmentId=48c9a319-c189-4fd2-bbad-4100dc02acae&projectId=81dd14e9-200e-48d1-afc5-b6c2b3ebd11b","7AA92B1CB5674A608F501EB531B7AA8E-2025-05-15-19-03-33","","null","","images/semantic_sequence/redecorating_semantic/redecorating_semantic_0.png","null","",""
"","","","","","html-audio-response","44","694220","0.0-42.0","7AA92B1CB5674A608F501EB531B7AA8E","7AA92B1CB5674A608F501EB531B7AA8E","48c9a319-c189-4fd2-bbad-4100dc02acae","81dd14e9-200e-48d1-afc5-b6c2b3ebd11b","{""part"":""2"",""participantId"":""7AA92B1CB5674A608F501EB531B7AA8E"",""assignmentId"":""48c9a319-c189-4fd2-bbad-4100dc02acae"",""projectId"":""81dd14e9-200e-48d1-afc5-b6c2b3ebd11b""}","https://test12345.live/?part=2&participantId=7AA92B1CB5674A608F501EB531B7AA8E&assignmentId=48c9a319-c189-4fd2-bbad-4100dc02acae&projectId=81dd14e9-200e-48d1-afc5-b6c2b3ebd11b","7AA92B1CB5674A608F501EB531B7AA8E-2025-05-15-19-03-33","","28893","","[""<span style=\""color: red; font-size: 24px\""> NOW RECORDING</span><p>Please say out loud all the images you saw in part 1 of the experiment, as many as you can remember. The images can be said in any order.</p>""]","","11","redecorating_semantic"
"","","","","","image-button-response","45","700245","0.0-43.0-0.0","7AA92B1CB5674A608F501EB531B7AA8E","7AA92B1CB5674A608F501EB531B7AA8E","48c9a319-c189-4fd2-bbad-4100dc02acae","81dd14e9-200e-48d1-afc5-b6c2b3ebd11b","{""part"":""2"",""participantId"":""7AA92B1CB5674A608F501EB531B7AA8E"",""assignmentId"":""48c9a319-c189-4fd2-bbad-4100dc02acae"",""projectId"":""81dd14e9-200e-48d1-afc5-b6c2b3ebd11b""}","https://test12345.live/?part=2&participantId=7AA92B1CB5674A608F501EB531B7AA8E&assignmentId=48c9a319-c189-4fd2-bbad-4100dc02acae&projectId=81dd14e9-200e-48d1-afc5-b6c2b3ebd11b","7AA92B1CB5674A608F501EB531B7AA8E-2025-05-15-19-03-33","","null","","images/schematic_sequence/flight_scheme/flight_scheme_0.png","null","",""
"","","","","","html-audio-response","46","729220","0.0-44.0","7AA92B1CB5674A608F501EB531B7AA8E","7AA92B1CB5674A608F501EB531B7AA8E","48c9a319-c189-4fd2-bbad-4100dc02acae","81dd14e9-200e-48d1-afc5-b6c2b3ebd11b","{""part"":""2"",""participantId"":""7AA92B1CB5674A608F501EB531B7AA8E"",""assignmentId"":""48c9a319-c189-4fd2-bbad-4100dc02acae"",""projectId"":""81dd14e9-200e-48d1-afc5-b6c2b3ebd11b""}","https://test12345.live/?part=2&participantId=7AA92B1CB5674A608F501EB531B7AA8E&assignmentId=48c9a319-c189-4fd2-bbad-4100dc02acae&projectId=81dd14e9-200e-48d1-afc5-b6c2b3ebd11b","7AA92B1CB5674A608F501EB531B7AA8E-2025-05-15-19-03-33","","27839","","[""<span style=\""color: red; font-size: 24px\""> NOW RECORDING</span><p>Please say out loud all the images you saw in part 1 of the experiment, as many as you can remember. The images can be said in any order.</p>""]","","1","flight_scheme"
"","","","","","image-button-response","47","735237","0.0-45.0-0.0","7AA92B1CB5674A608F501EB531B7AA8E","7AA92B1CB5674A608F501EB531B7AA8E","48c9a319-c189-4fd2-bbad-4100dc02acae","81dd14e9-200e-48d1-afc5-b6c2b3ebd11b","{""part"":""2"",""participantId"":""7AA92B1CB5674A608F501EB531B7AA8E"",""assignmentId"":""48c9a319-c189-4fd2-bbad-4100dc02acae"",""projectId"":""81dd14e9-200e-48d1-afc5-b6c2b3ebd11b""}","https://test12345.live/?part=2&participantId=7AA92B1CB5674A608F501EB531B7AA8E&assignmentId=48c9a319-c189-4fd2-bbad-4100dc02acae&projectId=81dd14e9-200e-48d1-afc5-b6c2b3ebd11b","7AA92B1CB5674A608F501EB531B7AA8E-2025-05-15-19-03-33","","null","","images/semantic_sequence/housework_semantic/housework_semantic_0.png","null","",""
"","","","","","html-audio-response","48","771460","0.0-46.0","7AA92B1CB5674A608F501EB531B7AA8E","7AA92B1CB5674A608F501EB531B7AA8E","48c9a319-c189-4fd2-bbad-4100dc02acae","81dd14e9-200e-48d1-afc5-b6c2b3ebd11b","{""part"":""2"",""participantId"":""7AA92B1CB5674A608F501EB531B7AA8E"",""assignmentId"":""48c9a319-c189-4fd2-bbad-4100dc02acae"",""projectId"":""81dd14e9-200e-48d1-afc5-b6c2b3ebd11b""}","https://test12345.live/?part=2&participantId=7AA92B1CB5674A608F501EB531B7AA8E&assignmentId=48c9a319-c189-4fd2-bbad-4100dc02acae&projectId=81dd14e9-200e-48d1-afc5-b6c2b3ebd11b","7AA92B1CB5674A608F501EB531B7AA8E-2025-05-15-19-03-33","","34955","","[""<span style=\""color: red; font-size: 24px\""> NOW RECORDING</span><p>Please say out loud all the images you saw in part 1 of the experiment, as many as you can remember. The images can be said in any order.</p>""]","","1","housework_semantic"
"","","","","","image-button-response","49","777479","0.0-47.0-0.0","7AA92B1CB5674A608F501EB531B7AA8E","7AA92B1CB5674A608F501EB531B7AA8E","48c9a319-c189-4fd2-bbad-4100dc02acae","81dd14e9-200e-48d1-afc5-b6c2b3ebd11b","{""part"":""2"",""participantId"":""7AA92B1CB5674A608F501EB531B7AA8E"",""assignmentId"":""48c9a319-c189-4fd2-bbad-4100dc02acae"",""projectId"":""81dd14e9-200e-48d1-afc5-b6c2b3ebd11b""}","https://test12345.live/?part=2&participantId=7AA92B1CB5674A608F501EB531B7AA8E&assignmentId=48c9a319-c189-4fd2-bbad-4100dc02acae&projectId=81dd14e9-200e-48d1-afc5-b6c2b3ebd11b","7AA92B1CB5674A608F501EB531B7AA8E-2025-05-15-19-03-33","","null","","images/semantic_sequence/self_care_activities_semantic/self_care_activities_semantic_0.png","null","",""
"","","","","","html-audio-response","50","794468","0.0-48.0","7AA92B1CB5674A608F501EB531B7AA8E","7AA92B1CB5674A608F501EB531B7AA8E","48c9a319-c189-4fd2-bbad-4100dc02acae","81dd14e9-200e-48d1-afc5-b6c2b3ebd11b","{""part"":""2"",""participantId"":""7AA92B1CB5674A608F501EB531B7AA8E"",""assignmentId"":""48c9a319-c189-4fd2-bbad-4100dc02acae"",""projectId"":""81dd14e9-200e-48d1-afc5-b6c2b3ebd11b""}","https://test12345.live/?part=2&participantId=7AA92B1CB5674A608F501EB531B7AA8E&assignmentId=48c9a319-c189-4fd2-bbad-4100dc02acae&projectId=81dd14e9-200e-48d1-afc5-b6c2b3ebd11b","7AA92B1CB5674A608F501EB531B7AA8E-2025-05-15-19-03-33","","15956","","[""<span style=\""color: red; font-size: 24px\""> NOW RECORDING</span><p>Please say out loud all the images you saw in part 1 of the experiment, as many as you can remember. The images can be said in any order.</p>""]","","1","self_care_activities_semantic"
"","","","","","image-button-response","51","800489","0.0-49.0-0.0","7AA92B1CB5674A608F501EB531B7AA8E","7AA92B1CB5674A608F501EB531B7AA8E","48c9a319-c189-4fd2-bbad-4100dc02acae","81dd14e9-200e-48d1-afc5-b6c2b3ebd11b","{""part"":""2"",""participantId"":""7AA92B1CB5674A608F501EB531B7AA8E"",""assignmentId"":""48c9a319-c189-4fd2-bbad-4100dc02acae"",""projectId"":""81dd14e9-200e-48d1-afc5-b6c2b3ebd11b""}","https://test12345.live/?part=2&participantId=7AA92B1CB5674A608F501EB531B7AA8E&assignmentId=48c9a319-c189-4fd2-bbad-4100dc02acae&projectId=81dd14e9-200e-48d1-afc5-b6c2b3ebd11b","7AA92B1CB5674A608F501EB531B7AA8E-2025-05-15-19-03-33","","null","","images/semantic_sequence/exploring_nature_semantic/exploring_nature_semantic_0.png","null","",""
"","","","","","html-audio-response","52","837464","0.0-50.0","7AA92B1CB5674A608F501EB531B7AA8E","7AA92B1CB5674A608F501EB531B7AA8E","48c9a319-c189-4fd2-bbad-4100dc02acae","81dd14e9-200e-48d1-afc5-b6c2b3ebd11b","{""part"":""2"",""participantId"":""7AA92B1CB5674A608F501EB531B7AA8E"",""assignmentId"":""48c9a319-c189-4fd2-bbad-4100dc02acae"",""projectId"":""81dd14e9-200e-48d1-afc5-b6c2b3ebd11b""}","https://test12345.live/?part=2&participantId=7AA92B1CB5674A608F501EB531B7AA8E&assignmentId=48c9a319-c189-4fd2-bbad-4100dc02acae&projectId=81dd14e9-200e-48d1-afc5-b6c2b3ebd11b","7AA92B1CB5674A608F501EB531B7AA8E-2025-05-15-19-03-33","","33439","","[""<span style=\""color: red; font-size: 24px\""> NOW RECORDING</span><p>Please say out loud all the images you saw in part 1 of the experiment, as many as you can remember. The images can be said in any order.</p>""]","","1","exploring_nature_semantic"
"","","","","","image-button-response","53","843482","0.0-51.0-0.0","7AA92B1CB5674A608F501EB531B7AA8E","7AA92B1CB5674A608F501EB531B7AA8E","48c9a319-c189-4fd2-bbad-4100dc02acae","81dd14e9-200e-48d1-afc5-b6c2b3ebd11b","{""part"":""2"",""participantId"":""7AA92B1CB5674A608F501EB531B7AA8E"",""assignmentId"":""48c9a319-c189-4fd2-bbad-4100dc02acae"",""projectId"":""81dd14e9-200e-48d1-afc5-b6c2b3ebd11b""}","https://test12345.live/?part=2&participantId=7AA92B1CB5674A608F501EB531B7AA8E&assignmentId=48c9a319-c189-4fd2-bbad-4100dc02acae&projectId=81dd14e9-200e-48d1-afc5-b6c2b3ebd11b","7AA92B1CB5674A608F501EB531B7AA8E-2025-05-15-19-03-33","","null","","images/semantic_sequence/cat_care_semantic/cat_care_semantic_0.png","null","",""
"","","","","","html-audio-response","54","867631","0.0-52.0","7AA92B1CB5674A608F501EB531B7AA8E","7AA92B1CB5674A608F501EB531B7AA8E","48c9a319-c189-4fd2-bbad-4100dc02acae","81dd14e9-200e-48d1-afc5-b6c2b3ebd11b","{""part"":""2"",""participantId"":""7AA92B1CB5674A608F501EB531B7AA8E"",""assignmentId"":""48c9a319-c189-4fd2-bbad-4100dc02acae"",""projectId"":""81dd14e9-200e-48d1-afc5-b6c2b3ebd11b""}","https://test12345.live/?part=2&participantId=7AA92B1CB5674A608F501EB531B7AA8E&assignmentId=48c9a319-c189-4fd2-bbad-4100dc02acae&projectId=81dd14e9-200e-48d1-afc5-b6c2b3ebd11b","7AA92B1CB5674A608F501EB531B7AA8E-2025-05-15-19-03-33","","23000","","[""<span style=\""color: red; font-size: 24px\""> NOW RECORDING</span><p>Please say out loud all the images you saw in part 1 of the experiment, as many as you can remember. The images can be said in any order.</p>""]","","1","cat_care_semantic"
"","","","","","image-button-response","55","873651","0.0-53.0-0.0","7AA92B1CB5674A608F501EB531B7AA8E","7AA92B1CB5674A608F501EB531B7AA8E","48c9a319-c189-4fd2-bbad-4100dc02acae","81dd14e9-200e-48d1-afc5-b6c2b3ebd11b","{""part"":""2"",""participantId"":""7AA92B1CB5674A608F501EB531B7AA8E"",""assignmentId"":""48c9a319-c189-4fd2-bbad-4100dc02acae"",""projectId"":""81dd14e9-200e-48d1-afc5-b6c2b3ebd11b""}","https://test12345.live/?part=2&participantId=7AA92B1CB5674A608F501EB531B7AA8E&assignmentId=48c9a319-c189-4fd2-bbad-4100dc02acae&projectId=81dd14e9-200e-48d1-afc5-b6c2b3ebd11b","7AA92B1CB5674A608F501EB531B7AA8E-2025-05-15-19-03-33","","null","","images/causal_sequence/saving_a_cat_causal/saving_a_cat_causal_0.png","null","",""
"","","","","","html-audio-response","56","906725","0.0-54.0","7AA92B1CB5674A608F501EB531B7AA8E","7AA92B1CB5674A608F501EB531B7AA8E","48c9a319-c189-4fd2-bbad-4100dc02acae","81dd14e9-200e-48d1-afc5-b6c2b3ebd11b","{""part"":""2"",""participantId"":""7AA92B1CB5674A608F501EB531B7AA8E"",""assignmentId"":""48c9a319-c189-4fd2-bbad-4100dc02acae"",""projectId"":""81dd14e9-200e-48d1-afc5-b6c2b3ebd11b""}","https://test12345.live/?part=2&participantId=7AA92B1CB5674A608F501EB531B7AA8E&assignmentId=48c9a319-c189-4fd2-bbad-4100dc02acae&projectId=81dd14e9-200e-48d1-afc5-b6c2b3ebd11b","7AA92B1CB5674A608F501EB531B7AA8E-2025-05-15-19-03-33","","31906","","[""<span style=\""color: red; font-size: 24px\""> NOW RECORDING</span><p>Please say out loud all the images you saw in part 1 of the experiment, as many as you can remember. The images can be said in any order.</p>""]","","1","saving_a_cat_causal"
"","","","","","image-button-response","57","912744","0.0-55.0-0.0","7AA92B1CB5674A608F501EB531B7AA8E","7AA92B1CB5674A608F501EB531B7AA8E","48c9a319-c189-4fd2-bbad-4100dc02acae","81dd14e9-200e-48d1-afc5-b6c2b3ebd11b","{""part"":""2"",""participantId"":""7AA92B1CB5674A608F501EB531B7AA8E"",""assignmentId"":""48c9a319-c189-4fd2-bbad-4100dc02acae"",""projectId"":""81dd14e9-200e-48d1-afc5-b6c2b3ebd11b""}","https://test12345.live/?part=2&participantId=7AA92B1CB5674A608F501EB531B7AA8E&assignmentId=48c9a319-c189-4fd2-bbad-4100dc02acae&projectId=81dd14e9-200e-48d1-afc5-b6c2b3ebd11b","7AA92B1CB5674A608F501EB531B7AA8E-2025-05-15-19-03-33","","null","","images/semantic_sequence/physical_activity_semantic/physical_activity_semantic_0.png","null","",""
"","","","","","html-audio-response","58","940026","0.0-56.0","7AA92B1CB5674A608F501EB531B7AA8E","7AA92B1CB5674A608F501EB531B7AA8E","48c9a319-c189-4fd2-bbad-4100dc02acae","81dd14e9-200e-48d1-afc5-b6c2b3ebd11b","{""part"":""2"",""participantId"":""7AA92B1CB5674A608F501EB531B7AA8E"",""assignmentId"":""48c9a319-c189-4fd2-bbad-4100dc02acae"",""projectId"":""81dd14e9-200e-48d1-afc5-b6c2b3ebd11b""}","https://test12345.live/?part=2&participantId=7AA92B1CB5674A608F501EB531B7AA8E&assignmentId=48c9a319-c189-4fd2-bbad-4100dc02acae&projectId=81dd14e9-200e-48d1-afc5-b6c2b3ebd11b","7AA92B1CB5674A608F501EB531B7AA8E-2025-05-15-19-03-33","","26063","","[""<span style=\""color: red; font-size: 24px\""> NOW RECORDING</span><p>Please say out loud all the images you saw in part 1 of the experiment, as many as you can remember. The images can be said in any order.</p>""]","","1","physical_activity_semantic"
"","","","","","survey-text","59","946236","0.0-57.0","7AA92B1CB5674A608F501EB531B7AA8E","7AA92B1CB5674A608F501EB531B7AA8E","48c9a319-c189-4fd2-bbad-4100dc02acae","81dd14e9-200e-48d1-afc5-b6c2b3ebd11b","{""part"":""2"",""participantId"":""7AA92B1CB5674A608F501EB531B7AA8E"",""assignmentId"":""48c9a319-c189-4fd2-bbad-4100dc02acae"",""projectId"":""81dd14e9-200e-48d1-afc5-b6c2b3ebd11b""}","https://test12345.live/?part=2&participantId=7AA92B1CB5674A608F501EB531B7AA8E&assignmentId=48c9a319-c189-4fd2-bbad-4100dc02acae&projectId=81dd14e9-200e-48d1-afc5-b6c2b3ebd11b","7AA92B1CB5674A608F501EB531B7AA8E-2025-05-15-19-03-33","","6195","","","{""Q0"":""female"",""Q1"":""35""}","",""
"","","","","","instructions","60","950202","0.0-58.0","7AA92B1CB5674A608F501EB531B7AA8E","7AA92B1CB5674A608F501EB531B7AA8E","48c9a319-c189-4fd2-bbad-4100dc02acae","81dd14e9-200e-48d1-afc5-b6c2b3ebd11b","{""part"":""2"",""participantId"":""7AA92B1CB5674A608F501EB531B7AA8E"",""assignmentId"":""48c9a319-c189-4fd2-bbad-4100dc02acae"",""projectId"":""81dd14e9-200e-48d1-afc5-b6c2b3ebd11b""}","https://test12345.live/?part=2&participantId=7AA92B1CB5674A608F501EB531B7AA8E&assignmentId=48c9a319-c189-4fd2-bbad-4100dc02acae&projectId=81dd14e9-200e-48d1-afc5-b6c2b3ebd11b","7AA92B1CB5674A608F501EB531B7AA8E-2025-05-15-19-03-33","[{""page_index"":0,""viewing_time"":3964}]","3965","","","","",""
"","","","","","survey-text","61","953298","0.0-59.0","7AA92B1CB5674A608F501EB531B7AA8E","7AA92B1CB5674A608F501EB531B7AA8E","48c9a319-c189-4fd2-bbad-4100dc02acae","81dd14e9-200e-48d1-afc5-b6c2b3ebd11b","{""part"":""2"",""participantId"":""7AA92B1CB5674A608F501EB531B7AA8E"",""assignmentId"":""48c9a319-c189-4fd2-bbad-4100dc02acae"",""projectId"":""81dd14e9-200e-48d1-afc5-b6c2b3ebd11b""}","https://test12345.live/?part=2&participantId=7AA92B1CB5674A608F501EB531B7AA8E&assignmentId=48c9a319-c189-4fd2-bbad-4100dc02acae&projectId=81dd14e9-200e-48d1-afc5-b6c2b3ebd11b","7AA92B1CB5674A608F501EB531B7AA8E-2025-05-15-19-03-33","","3088","","","{""Q0"":""AJFHBG896""}","",""
