"success","timeout","failed_images","failed_audio","failed_video","trial_type","trial_index","time_elapsed","internal_node_id","subject","subject_id","study_id","session_id","urlvar","current_url","audio_id","view_history","rt","device_id","stimulus","response","estimated_stimulus_onset","seq_name"
"true","false","[]","[]","[]","preload","0","779","0.0-0.0","7CF9BDBEF5A8487E9059DF7AEDC12B6A","7CF9BDBEF5A8487E9059DF7AEDC12B6A","e02b9a02-7d1f-447e-a75c-a5c543032e3b","2dd913a0-fd4c-43f1-b4f3-f0d48537bce8","{""part"":""2"",""participantId"":""7CF9BDBEF5A8487E9059DF7AEDC12B6A"",""assignmentId"":""e02b9a02-7d1f-447e-a75c-a5c543032e3b"",""projectId"":""2dd913a0-fd4c-43f1-b4f3-f0d48537bce8""}","https://test12345.live/?part=2&participantId=7CF9BDBEF5A8487E9059DF7AEDC12B6A&assignmentId=e02b9a02-7d1f-447e-a75c-a5c543032e3b&projectId=2dd913a0-fd4c-43f1-b4f3-f0d48537bce8","7CF9BDBEF5A8487E9059DF7AEDC12B6A-2025-05-15-21-00-55","","","","","","",""
"","","","","","instructions","1","11362","0.0-1.0","7CF9BDBEF5A8487E9059DF7AEDC12B6A","7CF9BDBEF5A8487E9059DF7AEDC12B6A","e02b9a02-7d1f-447e-a75c-a5c543032e3b","2dd913a0-fd4c-43f1-b4f3-f0d48537bce8","{""part"":""2"",""participantId"":""7CF9BDBEF5A8487E9059DF7AEDC12B6A"",""assignmentId"":""e02b9a02-7d1f-447e-a75c-a5c543032e3b"",""projectId"":""2dd913a0-fd4c-43f1-b4f3-f0d48537bce8""}","https://test12345.live/?part=2&participantId=7CF9BDBEF5A8487E9059DF7AEDC12B6A&assignmentId=e02b9a02-7d1f-447e-a75c-a5c543032e3b&projectId=2dd913a0-fd4c-43f1-b4f3-f0d48537bce8","7CF9BDBEF5A8487E9059DF7AEDC12B6A-2025-05-15-21-00-55","[{""page_index"":0,""viewing_time"":10583}]","10583","","","","",""
"","","","","","instructions","2","18117","0.0-2.0","7CF9BDBEF5A8487E9059DF7AEDC12B6A","7CF9BDBEF5A8487E9059DF7AEDC12B6A","e02b9a02-7d1f-447e-a75c-a5c543032e3b","2dd913a0-fd4c-43f1-b4f3-f0d48537bce8","{""part"":""2"",""participantId"":""7CF9BDBEF5A8487E9059DF7AEDC12B6A"",""assignmentId"":""e02b9a02-7d1f-447e-a75c-a5c543032e3b"",""projectId"":""2dd913a0-fd4c-43f1-b4f3-f0d48537bce8""}","https://test12345.live/?part=2&participantId=7CF9BDBEF5A8487E9059DF7AEDC12B6A&assignmentId=e02b9a02-7d1f-447e-a75c-a5c543032e3b&projectId=2dd913a0-fd4c-43f1-b4f3-f0d48537bce8","7CF9BDBEF5A8487E9059DF7AEDC12B6A-2025-05-15-21-00-55","[{""page_index"":0,""viewing_time"":6753}]","6753","","","","",""
"true","","","","","fullscreen","3","20677","0.0-3.0","7CF9BDBEF5A8487E9059DF7AEDC12B6A","7CF9BDBEF5A8487E9059DF7AEDC12B6A","e02b9a02-7d1f-447e-a75c-a5c543032e3b","2dd913a0-fd4c-43f1-b4f3-f0d48537bce8","{""part"":""2"",""participantId"":""7CF9BDBEF5A8487E9059DF7AEDC12B6A"",""assignmentId"":""e02b9a02-7d1f-447e-a75c-a5c543032e3b"",""projectId"":""2dd913a0-fd4c-43f1-b4f3-f0d48537bce8""}","https://test12345.live/?part=2&participantId=7CF9BDBEF5A8487E9059DF7AEDC12B6A&assignmentId=e02b9a02-7d1f-447e-a75c-a5c543032e3b&projectId=2dd913a0-fd4c-43f1-b4f3-f0d48537bce8","7CF9BDBEF5A8487E9059DF7AEDC12B6A-2025-05-15-21-00-55","","1544","","","","",""
"","","","","","initialize-microphone","4","24488","0.0-4.0-0.0","7CF9BDBEF5A8487E9059DF7AEDC12B6A","7CF9BDBEF5A8487E9059DF7AEDC12B6A","e02b9a02-7d1f-447e-a75c-a5c543032e3b","2dd913a0-fd4c-43f1-b4f3-f0d48537bce8","{""part"":""2"",""participantId"":""7CF9BDBEF5A8487E9059DF7AEDC12B6A"",""assignmentId"":""e02b9a02-7d1f-447e-a75c-a5c543032e3b"",""projectId"":""2dd913a0-fd4c-43f1-b4f3-f0d48537bce8""}","https://test12345.live/?part=2&participantId=7CF9BDBEF5A8487E9059DF7AEDC12B6A&assignmentId=e02b9a02-7d1f-447e-a75c-a5c543032e3b&projectId=2dd913a0-fd4c-43f1-b4f3-f0d48537bce8","7CF9BDBEF5A8487E9059DF7AEDC12B6A-2025-05-15-21-00-55","","","a65d698b76d24fe99b4114dcac6a959a3e90696b1f1b726dc21b07c996132df5","","","",""
"","","","","","html-audio-response","5","30901","0.0-4.0-1.0","7CF9BDBEF5A8487E9059DF7AEDC12B6A","7CF9BDBEF5A8487E9059DF7AEDC12B6A","e02b9a02-7d1f-447e-a75c-a5c543032e3b","2dd913a0-fd4c-43f1-b4f3-f0d48537bce8","{""part"":""2"",""participantId"":""7CF9BDBEF5A8487E9059DF7AEDC12B6A"",""assignmentId"":""e02b9a02-7d1f-447e-a75c-a5c543032e3b"",""projectId"":""2dd913a0-fd4c-43f1-b4f3-f0d48537bce8""}","https://test12345.live/?part=2&participantId=7CF9BDBEF5A8487E9059DF7AEDC12B6A&assignmentId=e02b9a02-7d1f-447e-a75c-a5c543032e3b&projectId=2dd913a0-fd4c-43f1-b4f3-f0d48537bce8","7CF9BDBEF5A8487E9059DF7AEDC12B6A-2025-05-15-21-00-55","","2550","","<span style=""color: red; font-size: 24px""> NOW RECORDING</span>
        <p>Please test Microphone</p>","","3",""
"","","","","","html-button-response","6","31862","0.0-4.0-2.0","7CF9BDBEF5A8487E9059DF7AEDC12B6A","7CF9BDBEF5A8487E9059DF7AEDC12B6A","e02b9a02-7d1f-447e-a75c-a5c543032e3b","2dd913a0-fd4c-43f1-b4f3-f0d48537bce8","{""part"":""2"",""participantId"":""7CF9BDBEF5A8487E9059DF7AEDC12B6A"",""assignmentId"":""e02b9a02-7d1f-447e-a75c-a5c543032e3b"",""projectId"":""2dd913a0-fd4c-43f1-b4f3-f0d48537bce8""}","https://test12345.live/?part=2&participantId=7CF9BDBEF5A8487E9059DF7AEDC12B6A&assignmentId=e02b9a02-7d1f-447e-a75c-a5c543032e3b&projectId=2dd913a0-fd4c-43f1-b4f3-f0d48537bce8","7CF9BDBEF5A8487E9059DF7AEDC12B6A-2025-05-15-21-00-55","","960","","<p style=""font-size:48px; color:red;"">Is Microphone OK?</p>","1","",""
"","","","","","instructions","7","45682","0.0-5.0","7CF9BDBEF5A8487E9059DF7AEDC12B6A","7CF9BDBEF5A8487E9059DF7AEDC12B6A","e02b9a02-7d1f-447e-a75c-a5c543032e3b","2dd913a0-fd4c-43f1-b4f3-f0d48537bce8","{""part"":""2"",""participantId"":""7CF9BDBEF5A8487E9059DF7AEDC12B6A"",""assignmentId"":""e02b9a02-7d1f-447e-a75c-a5c543032e3b"",""projectId"":""2dd913a0-fd4c-43f1-b4f3-f0d48537bce8""}","https://test12345.live/?part=2&participantId=7CF9BDBEF5A8487E9059DF7AEDC12B6A&assignmentId=e02b9a02-7d1f-447e-a75c-a5c543032e3b&projectId=2dd913a0-fd4c-43f1-b4f3-f0d48537bce8","7CF9BDBEF5A8487E9059DF7AEDC12B6A-2025-05-15-21-00-55","[{""page_index"":0,""viewing_time"":1445},{""page_index"":1,""viewing_time"":4497},{""page_index"":2,""viewing_time"":7877}]","13819","","","","",""
"","","","","","image-button-response","8","51692","0.0-6.0-0.0","7CF9BDBEF5A8487E9059DF7AEDC12B6A","7CF9BDBEF5A8487E9059DF7AEDC12B6A","e02b9a02-7d1f-447e-a75c-a5c543032e3b","2dd913a0-fd4c-43f1-b4f3-f0d48537bce8","{""part"":""2"",""participantId"":""7CF9BDBEF5A8487E9059DF7AEDC12B6A"",""assignmentId"":""e02b9a02-7d1f-447e-a75c-a5c543032e3b"",""projectId"":""2dd913a0-fd4c-43f1-b4f3-f0d48537bce8""}","https://test12345.live/?part=2&participantId=7CF9BDBEF5A8487E9059DF7AEDC12B6A&assignmentId=e02b9a02-7d1f-447e-a75c-a5c543032e3b&projectId=2dd913a0-fd4c-43f1-b4f3-f0d48537bce8","7CF9BDBEF5A8487E9059DF7AEDC12B6A-2025-05-15-21-00-55","","null","","images/instructions/movie_0.png","null","",""
"","","","","","html-audio-response","9","63305","0.0-7.0","7CF9BDBEF5A8487E9059DF7AEDC12B6A","7CF9BDBEF5A8487E9059DF7AEDC12B6A","e02b9a02-7d1f-447e-a75c-a5c543032e3b","2dd913a0-fd4c-43f1-b4f3-f0d48537bce8","{""part"":""2"",""participantId"":""7CF9BDBEF5A8487E9059DF7AEDC12B6A"",""assignmentId"":""e02b9a02-7d1f-447e-a75c-a5c543032e3b"",""projectId"":""2dd913a0-fd4c-43f1-b4f3-f0d48537bce8""}","https://test12345.live/?part=2&participantId=7CF9BDBEF5A8487E9059DF7AEDC12B6A&assignmentId=e02b9a02-7d1f-447e-a75c-a5c543032e3b&projectId=2dd913a0-fd4c-43f1-b4f3-f0d48537bce8","7CF9BDBEF5A8487E9059DF7AEDC12B6A-2025-05-15-21-00-55","","10580","","[""<span style=\""color: red; font-size: 24px\""> NOW RECORDING</span><p>Please say out loud all the images you saw in part 1 of the experiment, as many as you can remember. The images can be said in any order.</p>""]","","1",""
"","","","","","instructions","10","65825","0.0-8.0","7CF9BDBEF5A8487E9059DF7AEDC12B6A","7CF9BDBEF5A8487E9059DF7AEDC12B6A","e02b9a02-7d1f-447e-a75c-a5c543032e3b","2dd913a0-fd4c-43f1-b4f3-f0d48537bce8","{""part"":""2"",""participantId"":""7CF9BDBEF5A8487E9059DF7AEDC12B6A"",""assignmentId"":""e02b9a02-7d1f-447e-a75c-a5c543032e3b"",""projectId"":""2dd913a0-fd4c-43f1-b4f3-f0d48537bce8""}","https://test12345.live/?part=2&participantId=7CF9BDBEF5A8487E9059DF7AEDC12B6A&assignmentId=e02b9a02-7d1f-447e-a75c-a5c543032e3b&projectId=2dd913a0-fd4c-43f1-b4f3-f0d48537bce8","7CF9BDBEF5A8487E9059DF7AEDC12B6A-2025-05-15-21-00-55","[{""page_index"":0,""viewing_time"":2518}]","2518","","","","",""
"","","","","","image-button-response","11","71831","0.0-9.0-0.0","7CF9BDBEF5A8487E9059DF7AEDC12B6A","7CF9BDBEF5A8487E9059DF7AEDC12B6A","e02b9a02-7d1f-447e-a75c-a5c543032e3b","2dd913a0-fd4c-43f1-b4f3-f0d48537bce8","{""part"":""2"",""participantId"":""7CF9BDBEF5A8487E9059DF7AEDC12B6A"",""assignmentId"":""e02b9a02-7d1f-447e-a75c-a5c543032e3b"",""projectId"":""2dd913a0-fd4c-43f1-b4f3-f0d48537bce8""}","https://test12345.live/?part=2&participantId=7CF9BDBEF5A8487E9059DF7AEDC12B6A&assignmentId=e02b9a02-7d1f-447e-a75c-a5c543032e3b&projectId=2dd913a0-fd4c-43f1-b4f3-f0d48537bce8","7CF9BDBEF5A8487E9059DF7AEDC12B6A-2025-05-15-21-00-55","","null","","images/schematic_sequence/interview_scheme/interview_scheme_0.png","null","",""
"","","","","","html-audio-response","12","86773","0.0-10.0","7CF9BDBEF5A8487E9059DF7AEDC12B6A","7CF9BDBEF5A8487E9059DF7AEDC12B6A","e02b9a02-7d1f-447e-a75c-a5c543032e3b","2dd913a0-fd4c-43f1-b4f3-f0d48537bce8","{""part"":""2"",""participantId"":""7CF9BDBEF5A8487E9059DF7AEDC12B6A"",""assignmentId"":""e02b9a02-7d1f-447e-a75c-a5c543032e3b"",""projectId"":""2dd913a0-fd4c-43f1-b4f3-f0d48537bce8""}","https://test12345.live/?part=2&participantId=7CF9BDBEF5A8487E9059DF7AEDC12B6A&assignmentId=e02b9a02-7d1f-447e-a75c-a5c543032e3b&projectId=2dd913a0-fd4c-43f1-b4f3-f0d48537bce8","7CF9BDBEF5A8487E9059DF7AEDC12B6A-2025-05-15-21-00-55","","13926","","[""<span style=\""color: red; font-size: 24px\""> NOW RECORDING</span><p>Please say out loud all the images you saw in part 1 of the experiment, as many as you can remember. The images can be said in any order.</p>""]","","1","interview_scheme"
"","","","","","image-button-response","13","92784","0.0-11.0-0.0","7CF9BDBEF5A8487E9059DF7AEDC12B6A","7CF9BDBEF5A8487E9059DF7AEDC12B6A","e02b9a02-7d1f-447e-a75c-a5c543032e3b","2dd913a0-fd4c-43f1-b4f3-f0d48537bce8","{""part"":""2"",""participantId"":""7CF9BDBEF5A8487E9059DF7AEDC12B6A"",""assignmentId"":""e02b9a02-7d1f-447e-a75c-a5c543032e3b"",""projectId"":""2dd913a0-fd4c-43f1-b4f3-f0d48537bce8""}","https://test12345.live/?part=2&participantId=7CF9BDBEF5A8487E9059DF7AEDC12B6A&assignmentId=e02b9a02-7d1f-447e-a75c-a5c543032e3b&projectId=2dd913a0-fd4c-43f1-b4f3-f0d48537bce8","7CF9BDBEF5A8487E9059DF7AEDC12B6A-2025-05-15-21-00-55","","null","","images/causal_sequence/the_performance_causal/the_performance_causal_0.png","null","",""
"","","","","","html-audio-response","14","123588","0.0-12.0","7CF9BDBEF5A8487E9059DF7AEDC12B6A","7CF9BDBEF5A8487E9059DF7AEDC12B6A","e02b9a02-7d1f-447e-a75c-a5c543032e3b","2dd913a0-fd4c-43f1-b4f3-f0d48537bce8","{""part"":""2"",""participantId"":""7CF9BDBEF5A8487E9059DF7AEDC12B6A"",""assignmentId"":""e02b9a02-7d1f-447e-a75c-a5c543032e3b"",""projectId"":""2dd913a0-fd4c-43f1-b4f3-f0d48537bce8""}","https://test12345.live/?part=2&participantId=7CF9BDBEF5A8487E9059DF7AEDC12B6A&assignmentId=e02b9a02-7d1f-447e-a75c-a5c543032e3b&projectId=2dd913a0-fd4c-43f1-b4f3-f0d48537bce8","7CF9BDBEF5A8487E9059DF7AEDC12B6A-2025-05-15-21-00-55","","29822","","[""<span style=\""color: red; font-size: 24px\""> NOW RECORDING</span><p>Please say out loud all the images you saw in part 1 of the experiment, as many as you can remember. The images can be said in any order.</p>""]","","1","the_performance_causal"
"","","","","","image-button-response","15","129598","0.0-13.0-0.0","7CF9BDBEF5A8487E9059DF7AEDC12B6A","7CF9BDBEF5A8487E9059DF7AEDC12B6A","e02b9a02-7d1f-447e-a75c-a5c543032e3b","2dd913a0-fd4c-43f1-b4f3-f0d48537bce8","{""part"":""2"",""participantId"":""7CF9BDBEF5A8487E9059DF7AEDC12B6A"",""assignmentId"":""e02b9a02-7d1f-447e-a75c-a5c543032e3b"",""projectId"":""2dd913a0-fd4c-43f1-b4f3-f0d48537bce8""}","https://test12345.live/?part=2&participantId=7CF9BDBEF5A8487E9059DF7AEDC12B6A&assignmentId=e02b9a02-7d1f-447e-a75c-a5c543032e3b&projectId=2dd913a0-fd4c-43f1-b4f3-f0d48537bce8","7CF9BDBEF5A8487E9059DF7AEDC12B6A-2025-05-15-21-00-55","","null","","images/semantic_sequence/visiting_cities_semantic/visiting_cities_semantic_0.png","null","",""
"","","","","","html-audio-response","16","145202","0.0-14.0","7CF9BDBEF5A8487E9059DF7AEDC12B6A","7CF9BDBEF5A8487E9059DF7AEDC12B6A","e02b9a02-7d1f-447e-a75c-a5c543032e3b","2dd913a0-fd4c-43f1-b4f3-f0d48537bce8","{""part"":""2"",""participantId"":""7CF9BDBEF5A8487E9059DF7AEDC12B6A"",""assignmentId"":""e02b9a02-7d1f-447e-a75c-a5c543032e3b"",""projectId"":""2dd913a0-fd4c-43f1-b4f3-f0d48537bce8""}","https://test12345.live/?part=2&participantId=7CF9BDBEF5A8487E9059DF7AEDC12B6A&assignmentId=e02b9a02-7d1f-447e-a75c-a5c543032e3b&projectId=2dd913a0-fd4c-43f1-b4f3-f0d48537bce8","7CF9BDBEF5A8487E9059DF7AEDC12B6A-2025-05-15-21-00-55","","14940","","[""<span style=\""color: red; font-size: 24px\""> NOW RECORDING</span><p>Please say out loud all the images you saw in part 1 of the experiment, as many as you can remember. The images can be said in any order.</p>""]","","2","visiting_cities_semantic"
"","","","","","image-button-response","17","151207","0.0-15.0-0.0","7CF9BDBEF5A8487E9059DF7AEDC12B6A","7CF9BDBEF5A8487E9059DF7AEDC12B6A","e02b9a02-7d1f-447e-a75c-a5c543032e3b","2dd913a0-fd4c-43f1-b4f3-f0d48537bce8","{""part"":""2"",""participantId"":""7CF9BDBEF5A8487E9059DF7AEDC12B6A"",""assignmentId"":""e02b9a02-7d1f-447e-a75c-a5c543032e3b"",""projectId"":""2dd913a0-fd4c-43f1-b4f3-f0d48537bce8""}","https://test12345.live/?part=2&participantId=7CF9BDBEF5A8487E9059DF7AEDC12B6A&assignmentId=e02b9a02-7d1f-447e-a75c-a5c543032e3b&projectId=2dd913a0-fd4c-43f1-b4f3-f0d48537bce8","7CF9BDBEF5A8487E9059DF7AEDC12B6A-2025-05-15-21-00-55","","null","","images/schematic_sequence/supermarket_scheme/supermarket_scheme_0.png","null","",""
"","","","","","html-audio-response","18","175537","0.0-16.0","7CF9BDBEF5A8487E9059DF7AEDC12B6A","7CF9BDBEF5A8487E9059DF7AEDC12B6A","e02b9a02-7d1f-447e-a75c-a5c543032e3b","2dd913a0-fd4c-43f1-b4f3-f0d48537bce8","{""part"":""2"",""participantId"":""7CF9BDBEF5A8487E9059DF7AEDC12B6A"",""assignmentId"":""e02b9a02-7d1f-447e-a75c-a5c543032e3b"",""projectId"":""2dd913a0-fd4c-43f1-b4f3-f0d48537bce8""}","https://test12345.live/?part=2&participantId=7CF9BDBEF5A8487E9059DF7AEDC12B6A&assignmentId=e02b9a02-7d1f-447e-a75c-a5c543032e3b&projectId=2dd913a0-fd4c-43f1-b4f3-f0d48537bce8","7CF9BDBEF5A8487E9059DF7AEDC12B6A-2025-05-15-21-00-55","","23343","","[""<span style=\""color: red; font-size: 24px\""> NOW RECORDING</span><p>Please say out loud all the images you saw in part 1 of the experiment, as many as you can remember. The images can be said in any order.</p>""]","","1","supermarket_scheme"
"","","","","","image-button-response","19","181553","0.0-17.0-0.0","7CF9BDBEF5A8487E9059DF7AEDC12B6A","7CF9BDBEF5A8487E9059DF7AEDC12B6A","e02b9a02-7d1f-447e-a75c-a5c543032e3b","2dd913a0-fd4c-43f1-b4f3-f0d48537bce8","{""part"":""2"",""participantId"":""7CF9BDBEF5A8487E9059DF7AEDC12B6A"",""assignmentId"":""e02b9a02-7d1f-447e-a75c-a5c543032e3b"",""projectId"":""2dd913a0-fd4c-43f1-b4f3-f0d48537bce8""}","https://test12345.live/?part=2&participantId=7CF9BDBEF5A8487E9059DF7AEDC12B6A&assignmentId=e02b9a02-7d1f-447e-a75c-a5c543032e3b&projectId=2dd913a0-fd4c-43f1-b4f3-f0d48537bce8","7CF9BDBEF5A8487E9059DF7AEDC12B6A-2025-05-15-21-00-55","","null","","images/causal_sequence/package_causal/package_causal_0.png","null","",""
"","","","","","html-audio-response","20","204610","0.0-18.0","7CF9BDBEF5A8487E9059DF7AEDC12B6A","7CF9BDBEF5A8487E9059DF7AEDC12B6A","e02b9a02-7d1f-447e-a75c-a5c543032e3b","2dd913a0-fd4c-43f1-b4f3-f0d48537bce8","{""part"":""2"",""participantId"":""7CF9BDBEF5A8487E9059DF7AEDC12B6A"",""assignmentId"":""e02b9a02-7d1f-447e-a75c-a5c543032e3b"",""projectId"":""2dd913a0-fd4c-43f1-b4f3-f0d48537bce8""}","https://test12345.live/?part=2&participantId=7CF9BDBEF5A8487E9059DF7AEDC12B6A&assignmentId=e02b9a02-7d1f-447e-a75c-a5c543032e3b&projectId=2dd913a0-fd4c-43f1-b4f3-f0d48537bce8","7CF9BDBEF5A8487E9059DF7AEDC12B6A-2025-05-15-21-00-55","","22254","","[""<span style=\""color: red; font-size: 24px\""> NOW RECORDING</span><p>Please say out loud all the images you saw in part 1 of the experiment, as many as you can remember. The images can be said in any order.</p>""]","","1","package_causal"
"","","","","","image-button-response","21","210629","0.0-19.0-0.0","7CF9BDBEF5A8487E9059DF7AEDC12B6A","7CF9BDBEF5A8487E9059DF7AEDC12B6A","e02b9a02-7d1f-447e-a75c-a5c543032e3b","2dd913a0-fd4c-43f1-b4f3-f0d48537bce8","{""part"":""2"",""participantId"":""7CF9BDBEF5A8487E9059DF7AEDC12B6A"",""assignmentId"":""e02b9a02-7d1f-447e-a75c-a5c543032e3b"",""projectId"":""2dd913a0-fd4c-43f1-b4f3-f0d48537bce8""}","https://test12345.live/?part=2&participantId=7CF9BDBEF5A8487E9059DF7AEDC12B6A&assignmentId=e02b9a02-7d1f-447e-a75c-a5c543032e3b&projectId=2dd913a0-fd4c-43f1-b4f3-f0d48537bce8","7CF9BDBEF5A8487E9059DF7AEDC12B6A-2025-05-15-21-00-55","","null","","images/semantic_sequence/market_semantic/market_semantic_0.png","null","",""
"","","","","","html-audio-response","22","222121","0.0-20.0","7CF9BDBEF5A8487E9059DF7AEDC12B6A","7CF9BDBEF5A8487E9059DF7AEDC12B6A","e02b9a02-7d1f-447e-a75c-a5c543032e3b","2dd913a0-fd4c-43f1-b4f3-f0d48537bce8","{""part"":""2"",""participantId"":""7CF9BDBEF5A8487E9059DF7AEDC12B6A"",""assignmentId"":""e02b9a02-7d1f-447e-a75c-a5c543032e3b"",""projectId"":""2dd913a0-fd4c-43f1-b4f3-f0d48537bce8""}","https://test12345.live/?part=2&participantId=7CF9BDBEF5A8487E9059DF7AEDC12B6A&assignmentId=e02b9a02-7d1f-447e-a75c-a5c543032e3b&projectId=2dd913a0-fd4c-43f1-b4f3-f0d48537bce8","7CF9BDBEF5A8487E9059DF7AEDC12B6A-2025-05-15-21-00-55","","10723","","[""<span style=\""color: red; font-size: 24px\""> NOW RECORDING</span><p>Please say out loud all the images you saw in part 1 of the experiment, as many as you can remember. The images can be said in any order.</p>""]","","1","market_semantic"
"","","","","","image-button-response","23","228132","0.0-21.0-0.0","7CF9BDBEF5A8487E9059DF7AEDC12B6A","7CF9BDBEF5A8487E9059DF7AEDC12B6A","e02b9a02-7d1f-447e-a75c-a5c543032e3b","2dd913a0-fd4c-43f1-b4f3-f0d48537bce8","{""part"":""2"",""participantId"":""7CF9BDBEF5A8487E9059DF7AEDC12B6A"",""assignmentId"":""e02b9a02-7d1f-447e-a75c-a5c543032e3b"",""projectId"":""2dd913a0-fd4c-43f1-b4f3-f0d48537bce8""}","https://test12345.live/?part=2&participantId=7CF9BDBEF5A8487E9059DF7AEDC12B6A&assignmentId=e02b9a02-7d1f-447e-a75c-a5c543032e3b&projectId=2dd913a0-fd4c-43f1-b4f3-f0d48537bce8","7CF9BDBEF5A8487E9059DF7AEDC12B6A-2025-05-15-21-00-55","","null","","images/schematic_sequence/dinner_party_scheme/dinner_party_scheme_0.png","null","",""
"","","","","","html-audio-response","24","247641","0.0-22.0","7CF9BDBEF5A8487E9059DF7AEDC12B6A","7CF9BDBEF5A8487E9059DF7AEDC12B6A","e02b9a02-7d1f-447e-a75c-a5c543032e3b","2dd913a0-fd4c-43f1-b4f3-f0d48537bce8","{""part"":""2"",""participantId"":""7CF9BDBEF5A8487E9059DF7AEDC12B6A"",""assignmentId"":""e02b9a02-7d1f-447e-a75c-a5c543032e3b"",""projectId"":""2dd913a0-fd4c-43f1-b4f3-f0d48537bce8""}","https://test12345.live/?part=2&participantId=7CF9BDBEF5A8487E9059DF7AEDC12B6A&assignmentId=e02b9a02-7d1f-447e-a75c-a5c543032e3b&projectId=2dd913a0-fd4c-43f1-b4f3-f0d48537bce8","7CF9BDBEF5A8487E9059DF7AEDC12B6A-2025-05-15-21-00-55","","18612","","[""<span style=\""color: red; font-size: 24px\""> NOW RECORDING</span><p>Please say out loud all the images you saw in part 1 of the experiment, as many as you can remember. The images can be said in any order.</p>""]","","1","dinner_party_scheme"
"","","","","","image-button-response","25","253645","0.0-23.0-0.0","7CF9BDBEF5A8487E9059DF7AEDC12B6A","7CF9BDBEF5A8487E9059DF7AEDC12B6A","e02b9a02-7d1f-447e-a75c-a5c543032e3b","2dd913a0-fd4c-43f1-b4f3-f0d48537bce8","{""part"":""2"",""participantId"":""7CF9BDBEF5A8487E9059DF7AEDC12B6A"",""assignmentId"":""e02b9a02-7d1f-447e-a75c-a5c543032e3b"",""projectId"":""2dd913a0-fd4c-43f1-b4f3-f0d48537bce8""}","https://test12345.live/?part=2&participantId=7CF9BDBEF5A8487E9059DF7AEDC12B6A&assignmentId=e02b9a02-7d1f-447e-a75c-a5c543032e3b&projectId=2dd913a0-fd4c-43f1-b4f3-f0d48537bce8","7CF9BDBEF5A8487E9059DF7AEDC12B6A-2025-05-15-21-00-55","","null","","images/causal_sequence/dog_causal/dog_causal_0.png","null","",""
"","","","","","html-audio-response","26","283256","0.0-24.0","7CF9BDBEF5A8487E9059DF7AEDC12B6A","7CF9BDBEF5A8487E9059DF7AEDC12B6A","e02b9a02-7d1f-447e-a75c-a5c543032e3b","2dd913a0-fd4c-43f1-b4f3-f0d48537bce8","{""part"":""2"",""participantId"":""7CF9BDBEF5A8487E9059DF7AEDC12B6A"",""assignmentId"":""e02b9a02-7d1f-447e-a75c-a5c543032e3b"",""projectId"":""2dd913a0-fd4c-43f1-b4f3-f0d48537bce8""}","https://test12345.live/?part=2&participantId=7CF9BDBEF5A8487E9059DF7AEDC12B6A&assignmentId=e02b9a02-7d1f-447e-a75c-a5c543032e3b&projectId=2dd913a0-fd4c-43f1-b4f3-f0d48537bce8","7CF9BDBEF5A8487E9059DF7AEDC12B6A-2025-05-15-21-00-55","","28778","","[""<span style=\""color: red; font-size: 24px\""> NOW RECORDING</span><p>Please say out loud all the images you saw in part 1 of the experiment, as many as you can remember. The images can be said in any order.</p>""]","","2","dog_causal"
"","","","","","image-button-response","27","289271","0.0-25.0-0.0","7CF9BDBEF5A8487E9059DF7AEDC12B6A","7CF9BDBEF5A8487E9059DF7AEDC12B6A","e02b9a02-7d1f-447e-a75c-a5c543032e3b","2dd913a0-fd4c-43f1-b4f3-f0d48537bce8","{""part"":""2"",""participantId"":""7CF9BDBEF5A8487E9059DF7AEDC12B6A"",""assignmentId"":""e02b9a02-7d1f-447e-a75c-a5c543032e3b"",""projectId"":""2dd913a0-fd4c-43f1-b4f3-f0d48537bce8""}","https://test12345.live/?part=2&participantId=7CF9BDBEF5A8487E9059DF7AEDC12B6A&assignmentId=e02b9a02-7d1f-447e-a75c-a5c543032e3b&projectId=2dd913a0-fd4c-43f1-b4f3-f0d48537bce8","7CF9BDBEF5A8487E9059DF7AEDC12B6A-2025-05-15-21-00-55","","null","","images/semantic_sequence/maintaining_a_car_semantic/maintaining_a_car_semantic_0.png","null","",""
"","","","","","html-audio-response","28","306636","0.0-26.0","7CF9BDBEF5A8487E9059DF7AEDC12B6A","7CF9BDBEF5A8487E9059DF7AEDC12B6A","e02b9a02-7d1f-447e-a75c-a5c543032e3b","2dd913a0-fd4c-43f1-b4f3-f0d48537bce8","{""part"":""2"",""participantId"":""7CF9BDBEF5A8487E9059DF7AEDC12B6A"",""assignmentId"":""e02b9a02-7d1f-447e-a75c-a5c543032e3b"",""projectId"":""2dd913a0-fd4c-43f1-b4f3-f0d48537bce8""}","https://test12345.live/?part=2&participantId=7CF9BDBEF5A8487E9059DF7AEDC12B6A&assignmentId=e02b9a02-7d1f-447e-a75c-a5c543032e3b&projectId=2dd913a0-fd4c-43f1-b4f3-f0d48537bce8","7CF9BDBEF5A8487E9059DF7AEDC12B6A-2025-05-15-21-00-55","","16559","","[""<span style=\""color: red; font-size: 24px\""> NOW RECORDING</span><p>Please say out loud all the images you saw in part 1 of the experiment, as many as you can remember. The images can be said in any order.</p>""]","","1","maintaining_a_car_semantic"
"","","","","","image-button-response","29","312645","0.0-27.0-0.0","7CF9BDBEF5A8487E9059DF7AEDC12B6A","7CF9BDBEF5A8487E9059DF7AEDC12B6A","e02b9a02-7d1f-447e-a75c-a5c543032e3b","2dd913a0-fd4c-43f1-b4f3-f0d48537bce8","{""part"":""2"",""participantId"":""7CF9BDBEF5A8487E9059DF7AEDC12B6A"",""assignmentId"":""e02b9a02-7d1f-447e-a75c-a5c543032e3b"",""projectId"":""2dd913a0-fd4c-43f1-b4f3-f0d48537bce8""}","https://test12345.live/?part=2&participantId=7CF9BDBEF5A8487E9059DF7AEDC12B6A&assignmentId=e02b9a02-7d1f-447e-a75c-a5c543032e3b&projectId=2dd913a0-fd4c-43f1-b4f3-f0d48537bce8","7CF9BDBEF5A8487E9059DF7AEDC12B6A-2025-05-15-21-00-55","","null","","images/semantic_sequence/cat_care_semantic/cat_care_semantic_0.png","null","",""
"","","","","","html-audio-response","30","331173","0.0-28.0","7CF9BDBEF5A8487E9059DF7AEDC12B6A","7CF9BDBEF5A8487E9059DF7AEDC12B6A","e02b9a02-7d1f-447e-a75c-a5c543032e3b","2dd913a0-fd4c-43f1-b4f3-f0d48537bce8","{""part"":""2"",""participantId"":""7CF9BDBEF5A8487E9059DF7AEDC12B6A"",""assignmentId"":""e02b9a02-7d1f-447e-a75c-a5c543032e3b"",""projectId"":""2dd913a0-fd4c-43f1-b4f3-f0d48537bce8""}","https://test12345.live/?part=2&participantId=7CF9BDBEF5A8487E9059DF7AEDC12B6A&assignmentId=e02b9a02-7d1f-447e-a75c-a5c543032e3b&projectId=2dd913a0-fd4c-43f1-b4f3-f0d48537bce8","7CF9BDBEF5A8487E9059DF7AEDC12B6A-2025-05-15-21-00-55","","17767","","[""<span style=\""color: red; font-size: 24px\""> NOW RECORDING</span><p>Please say out loud all the images you saw in part 1 of the experiment, as many as you can remember. The images can be said in any order.</p>""]","","2","cat_care_semantic"
"","","","","","image-button-response","31","337179","0.0-29.0-0.0","7CF9BDBEF5A8487E9059DF7AEDC12B6A","7CF9BDBEF5A8487E9059DF7AEDC12B6A","e02b9a02-7d1f-447e-a75c-a5c543032e3b","2dd913a0-fd4c-43f1-b4f3-f0d48537bce8","{""part"":""2"",""participantId"":""7CF9BDBEF5A8487E9059DF7AEDC12B6A"",""assignmentId"":""e02b9a02-7d1f-447e-a75c-a5c543032e3b"",""projectId"":""2dd913a0-fd4c-43f1-b4f3-f0d48537bce8""}","https://test12345.live/?part=2&participantId=7CF9BDBEF5A8487E9059DF7AEDC12B6A&assignmentId=e02b9a02-7d1f-447e-a75c-a5c543032e3b&projectId=2dd913a0-fd4c-43f1-b4f3-f0d48537bce8","7CF9BDBEF5A8487E9059DF7AEDC12B6A-2025-05-15-21-00-55","","null","","images/schematic_sequence/flight_scheme/flight_scheme_0.png","null","",""
"","","","","","html-audio-response","32","357189","0.0-30.0","7CF9BDBEF5A8487E9059DF7AEDC12B6A","7CF9BDBEF5A8487E9059DF7AEDC12B6A","e02b9a02-7d1f-447e-a75c-a5c543032e3b","2dd913a0-fd4c-43f1-b4f3-f0d48537bce8","{""part"":""2"",""participantId"":""7CF9BDBEF5A8487E9059DF7AEDC12B6A"",""assignmentId"":""e02b9a02-7d1f-447e-a75c-a5c543032e3b"",""projectId"":""2dd913a0-fd4c-43f1-b4f3-f0d48537bce8""}","https://test12345.live/?part=2&participantId=7CF9BDBEF5A8487E9059DF7AEDC12B6A&assignmentId=e02b9a02-7d1f-447e-a75c-a5c543032e3b&projectId=2dd913a0-fd4c-43f1-b4f3-f0d48537bce8","7CF9BDBEF5A8487E9059DF7AEDC12B6A-2025-05-15-21-00-55","","19321","","[""<span style=\""color: red; font-size: 24px\""> NOW RECORDING</span><p>Please say out loud all the images you saw in part 1 of the experiment, as many as you can remember. The images can be said in any order.</p>""]","","1","flight_scheme"
"","","","","","image-button-response","33","363207","0.0-31.0-0.0","7CF9BDBEF5A8487E9059DF7AEDC12B6A","7CF9BDBEF5A8487E9059DF7AEDC12B6A","e02b9a02-7d1f-447e-a75c-a5c543032e3b","2dd913a0-fd4c-43f1-b4f3-f0d48537bce8","{""part"":""2"",""participantId"":""7CF9BDBEF5A8487E9059DF7AEDC12B6A"",""assignmentId"":""e02b9a02-7d1f-447e-a75c-a5c543032e3b"",""projectId"":""2dd913a0-fd4c-43f1-b4f3-f0d48537bce8""}","https://test12345.live/?part=2&participantId=7CF9BDBEF5A8487E9059DF7AEDC12B6A&assignmentId=e02b9a02-7d1f-447e-a75c-a5c543032e3b&projectId=2dd913a0-fd4c-43f1-b4f3-f0d48537bce8","7CF9BDBEF5A8487E9059DF7AEDC12B6A-2025-05-15-21-00-55","","null","","images/semantic_sequence/exploring_nature_semantic/exploring_nature_semantic_0.png","null","",""
"","","","","","html-audio-response","34","379831","0.0-32.0","7CF9BDBEF5A8487E9059DF7AEDC12B6A","7CF9BDBEF5A8487E9059DF7AEDC12B6A","e02b9a02-7d1f-447e-a75c-a5c543032e3b","2dd913a0-fd4c-43f1-b4f3-f0d48537bce8","{""part"":""2"",""participantId"":""7CF9BDBEF5A8487E9059DF7AEDC12B6A"",""assignmentId"":""e02b9a02-7d1f-447e-a75c-a5c543032e3b"",""projectId"":""2dd913a0-fd4c-43f1-b4f3-f0d48537bce8""}","https://test12345.live/?part=2&participantId=7CF9BDBEF5A8487E9059DF7AEDC12B6A&assignmentId=e02b9a02-7d1f-447e-a75c-a5c543032e3b&projectId=2dd913a0-fd4c-43f1-b4f3-f0d48537bce8","7CF9BDBEF5A8487E9059DF7AEDC12B6A-2025-05-15-21-00-55","","15925","","[""<span style=\""color: red; font-size: 24px\""> NOW RECORDING</span><p>Please say out loud all the images you saw in part 1 of the experiment, as many as you can remember. The images can be said in any order.</p>""]","","1","exploring_nature_semantic"
"","","","","","image-button-response","35","385848","0.0-33.0-0.0","7CF9BDBEF5A8487E9059DF7AEDC12B6A","7CF9BDBEF5A8487E9059DF7AEDC12B6A","e02b9a02-7d1f-447e-a75c-a5c543032e3b","2dd913a0-fd4c-43f1-b4f3-f0d48537bce8","{""part"":""2"",""participantId"":""7CF9BDBEF5A8487E9059DF7AEDC12B6A"",""assignmentId"":""e02b9a02-7d1f-447e-a75c-a5c543032e3b"",""projectId"":""2dd913a0-fd4c-43f1-b4f3-f0d48537bce8""}","https://test12345.live/?part=2&participantId=7CF9BDBEF5A8487E9059DF7AEDC12B6A&assignmentId=e02b9a02-7d1f-447e-a75c-a5c543032e3b&projectId=2dd913a0-fd4c-43f1-b4f3-f0d48537bce8","7CF9BDBEF5A8487E9059DF7AEDC12B6A-2025-05-15-21-00-55","","null","","images/semantic_sequence/using_technology_semantic/using_technology_semantic_0.png","null","",""
"","","","","","html-audio-response","36","402723","0.0-34.0","7CF9BDBEF5A8487E9059DF7AEDC12B6A","7CF9BDBEF5A8487E9059DF7AEDC12B6A","e02b9a02-7d1f-447e-a75c-a5c543032e3b","2dd913a0-fd4c-43f1-b4f3-f0d48537bce8","{""part"":""2"",""participantId"":""7CF9BDBEF5A8487E9059DF7AEDC12B6A"",""assignmentId"":""e02b9a02-7d1f-447e-a75c-a5c543032e3b"",""projectId"":""2dd913a0-fd4c-43f1-b4f3-f0d48537bce8""}","https://test12345.live/?part=2&participantId=7CF9BDBEF5A8487E9059DF7AEDC12B6A&assignmentId=e02b9a02-7d1f-447e-a75c-a5c543032e3b&projectId=2dd913a0-fd4c-43f1-b4f3-f0d48537bce8","7CF9BDBEF5A8487E9059DF7AEDC12B6A-2025-05-15-21-00-55","","16234","","[""<span style=\""color: red; font-size: 24px\""> NOW RECORDING</span><p>Please say out loud all the images you saw in part 1 of the experiment, as many as you can remember. The images can be said in any order.</p>""]","","1","using_technology_semantic"
"","","","","","image-button-response","37","408739","0.0-35.0-0.0","7CF9BDBEF5A8487E9059DF7AEDC12B6A","7CF9BDBEF5A8487E9059DF7AEDC12B6A","e02b9a02-7d1f-447e-a75c-a5c543032e3b","2dd913a0-fd4c-43f1-b4f3-f0d48537bce8","{""part"":""2"",""participantId"":""7CF9BDBEF5A8487E9059DF7AEDC12B6A"",""assignmentId"":""e02b9a02-7d1f-447e-a75c-a5c543032e3b"",""projectId"":""2dd913a0-fd4c-43f1-b4f3-f0d48537bce8""}","https://test12345.live/?part=2&participantId=7CF9BDBEF5A8487E9059DF7AEDC12B6A&assignmentId=e02b9a02-7d1f-447e-a75c-a5c543032e3b&projectId=2dd913a0-fd4c-43f1-b4f3-f0d48537bce8","7CF9BDBEF5A8487E9059DF7AEDC12B6A-2025-05-15-21-00-55","","null","","images/causal_sequence/coin_causal/coin_causal_0.png","null","",""
"","","","","","html-audio-response","38","429994","0.0-36.0","7CF9BDBEF5A8487E9059DF7AEDC12B6A","7CF9BDBEF5A8487E9059DF7AEDC12B6A","e02b9a02-7d1f-447e-a75c-a5c543032e3b","2dd913a0-fd4c-43f1-b4f3-f0d48537bce8","{""part"":""2"",""participantId"":""7CF9BDBEF5A8487E9059DF7AEDC12B6A"",""assignmentId"":""e02b9a02-7d1f-447e-a75c-a5c543032e3b"",""projectId"":""2dd913a0-fd4c-43f1-b4f3-f0d48537bce8""}","https://test12345.live/?part=2&participantId=7CF9BDBEF5A8487E9059DF7AEDC12B6A&assignmentId=e02b9a02-7d1f-447e-a75c-a5c543032e3b&projectId=2dd913a0-fd4c-43f1-b4f3-f0d48537bce8","7CF9BDBEF5A8487E9059DF7AEDC12B6A-2025-05-15-21-00-55","","20570","","[""<span style=\""color: red; font-size: 24px\""> NOW RECORDING</span><p>Please say out loud all the images you saw in part 1 of the experiment, as many as you can remember. The images can be said in any order.</p>""]","","1","coin_causal"
"","","","","","image-button-response","39","436003","0.0-37.0-0.0","7CF9BDBEF5A8487E9059DF7AEDC12B6A","7CF9BDBEF5A8487E9059DF7AEDC12B6A","e02b9a02-7d1f-447e-a75c-a5c543032e3b","2dd913a0-fd4c-43f1-b4f3-f0d48537bce8","{""part"":""2"",""participantId"":""7CF9BDBEF5A8487E9059DF7AEDC12B6A"",""assignmentId"":""e02b9a02-7d1f-447e-a75c-a5c543032e3b"",""projectId"":""2dd913a0-fd4c-43f1-b4f3-f0d48537bce8""}","https://test12345.live/?part=2&participantId=7CF9BDBEF5A8487E9059DF7AEDC12B6A&assignmentId=e02b9a02-7d1f-447e-a75c-a5c543032e3b&projectId=2dd913a0-fd4c-43f1-b4f3-f0d48537bce8","7CF9BDBEF5A8487E9059DF7AEDC12B6A-2025-05-15-21-00-55","","null","","images/semantic_sequence/creative_activities_semantic/creative_activities_semantic_0.png","null","",""
"","","","","","html-audio-response","40","452529","0.0-38.0","7CF9BDBEF5A8487E9059DF7AEDC12B6A","7CF9BDBEF5A8487E9059DF7AEDC12B6A","e02b9a02-7d1f-447e-a75c-a5c543032e3b","2dd913a0-fd4c-43f1-b4f3-f0d48537bce8","{""part"":""2"",""participantId"":""7CF9BDBEF5A8487E9059DF7AEDC12B6A"",""assignmentId"":""e02b9a02-7d1f-447e-a75c-a5c543032e3b"",""projectId"":""2dd913a0-fd4c-43f1-b4f3-f0d48537bce8""}","https://test12345.live/?part=2&participantId=7CF9BDBEF5A8487E9059DF7AEDC12B6A&assignmentId=e02b9a02-7d1f-447e-a75c-a5c543032e3b&projectId=2dd913a0-fd4c-43f1-b4f3-f0d48537bce8","7CF9BDBEF5A8487E9059DF7AEDC12B6A-2025-05-15-21-00-55","","15781","","[""<span style=\""color: red; font-size: 24px\""> NOW RECORDING</span><p>Please say out loud all the images you saw in part 1 of the experiment, as many as you can remember. The images can be said in any order.</p>""]","","1","creative_activities_semantic"
"","","","","","image-button-response","41","458540","0.0-39.0-0.0","7CF9BDBEF5A8487E9059DF7AEDC12B6A","7CF9BDBEF5A8487E9059DF7AEDC12B6A","e02b9a02-7d1f-447e-a75c-a5c543032e3b","2dd913a0-fd4c-43f1-b4f3-f0d48537bce8","{""part"":""2"",""participantId"":""7CF9BDBEF5A8487E9059DF7AEDC12B6A"",""assignmentId"":""e02b9a02-7d1f-447e-a75c-a5c543032e3b"",""projectId"":""2dd913a0-fd4c-43f1-b4f3-f0d48537bce8""}","https://test12345.live/?part=2&participantId=7CF9BDBEF5A8487E9059DF7AEDC12B6A&assignmentId=e02b9a02-7d1f-447e-a75c-a5c543032e3b&projectId=2dd913a0-fd4c-43f1-b4f3-f0d48537bce8","7CF9BDBEF5A8487E9059DF7AEDC12B6A-2025-05-15-21-00-55","","null","","images/semantic_sequence/redecorating_semantic/redecorating_semantic_0.png","null","",""
"","","","","","html-audio-response","42","473919","0.0-40.0","7CF9BDBEF5A8487E9059DF7AEDC12B6A","7CF9BDBEF5A8487E9059DF7AEDC12B6A","e02b9a02-7d1f-447e-a75c-a5c543032e3b","2dd913a0-fd4c-43f1-b4f3-f0d48537bce8","{""part"":""2"",""participantId"":""7CF9BDBEF5A8487E9059DF7AEDC12B6A"",""assignmentId"":""e02b9a02-7d1f-447e-a75c-a5c543032e3b"",""projectId"":""2dd913a0-fd4c-43f1-b4f3-f0d48537bce8""}","https://test12345.live/?part=2&participantId=7CF9BDBEF5A8487E9059DF7AEDC12B6A&assignmentId=e02b9a02-7d1f-447e-a75c-a5c543032e3b&projectId=2dd913a0-fd4c-43f1-b4f3-f0d48537bce8","7CF9BDBEF5A8487E9059DF7AEDC12B6A-2025-05-15-21-00-55","","14696","","[""<span style=\""color: red; font-size: 24px\""> NOW RECORDING</span><p>Please say out loud all the images you saw in part 1 of the experiment, as many as you can remember. The images can be said in any order.</p>""]","","2","redecorating_semantic"
"","","","","","image-button-response","43","479927","0.0-41.0-0.0","7CF9BDBEF5A8487E9059DF7AEDC12B6A","7CF9BDBEF5A8487E9059DF7AEDC12B6A","e02b9a02-7d1f-447e-a75c-a5c543032e3b","2dd913a0-fd4c-43f1-b4f3-f0d48537bce8","{""part"":""2"",""participantId"":""7CF9BDBEF5A8487E9059DF7AEDC12B6A"",""assignmentId"":""e02b9a02-7d1f-447e-a75c-a5c543032e3b"",""projectId"":""2dd913a0-fd4c-43f1-b4f3-f0d48537bce8""}","https://test12345.live/?part=2&participantId=7CF9BDBEF5A8487E9059DF7AEDC12B6A&assignmentId=e02b9a02-7d1f-447e-a75c-a5c543032e3b&projectId=2dd913a0-fd4c-43f1-b4f3-f0d48537bce8","7CF9BDBEF5A8487E9059DF7AEDC12B6A-2025-05-15-21-00-55","","null","","images/causal_sequence/saving_a_cat_causal/saving_a_cat_causal_0.png","null","",""
"","","","","","html-audio-response","44","501429","0.0-42.0","7CF9BDBEF5A8487E9059DF7AEDC12B6A","7CF9BDBEF5A8487E9059DF7AEDC12B6A","e02b9a02-7d1f-447e-a75c-a5c543032e3b","2dd913a0-fd4c-43f1-b4f3-f0d48537bce8","{""part"":""2"",""participantId"":""7CF9BDBEF5A8487E9059DF7AEDC12B6A"",""assignmentId"":""e02b9a02-7d1f-447e-a75c-a5c543032e3b"",""projectId"":""2dd913a0-fd4c-43f1-b4f3-f0d48537bce8""}","https://test12345.live/?part=2&participantId=7CF9BDBEF5A8487E9059DF7AEDC12B6A&assignmentId=e02b9a02-7d1f-447e-a75c-a5c543032e3b&projectId=2dd913a0-fd4c-43f1-b4f3-f0d48537bce8","7CF9BDBEF5A8487E9059DF7AEDC12B6A-2025-05-15-21-00-55","","20713","","[""<span style=\""color: red; font-size: 24px\""> NOW RECORDING</span><p>Please say out loud all the images you saw in part 1 of the experiment, as many as you can remember. The images can be said in any order.</p>""]","","3","saving_a_cat_causal"
"","","","","","image-button-response","45","507441","0.0-43.0-0.0","7CF9BDBEF5A8487E9059DF7AEDC12B6A","7CF9BDBEF5A8487E9059DF7AEDC12B6A","e02b9a02-7d1f-447e-a75c-a5c543032e3b","2dd913a0-fd4c-43f1-b4f3-f0d48537bce8","{""part"":""2"",""participantId"":""7CF9BDBEF5A8487E9059DF7AEDC12B6A"",""assignmentId"":""e02b9a02-7d1f-447e-a75c-a5c543032e3b"",""projectId"":""2dd913a0-fd4c-43f1-b4f3-f0d48537bce8""}","https://test12345.live/?part=2&participantId=7CF9BDBEF5A8487E9059DF7AEDC12B6A&assignmentId=e02b9a02-7d1f-447e-a75c-a5c543032e3b&projectId=2dd913a0-fd4c-43f1-b4f3-f0d48537bce8","7CF9BDBEF5A8487E9059DF7AEDC12B6A-2025-05-15-21-00-55","","null","","images/schematic_sequence/hotel_scheme/hotel_scheme_0.png","null","",""
"","","","","","html-audio-response","46","532611","0.0-44.0","7CF9BDBEF5A8487E9059DF7AEDC12B6A","7CF9BDBEF5A8487E9059DF7AEDC12B6A","e02b9a02-7d1f-447e-a75c-a5c543032e3b","2dd913a0-fd4c-43f1-b4f3-f0d48537bce8","{""part"":""2"",""participantId"":""7CF9BDBEF5A8487E9059DF7AEDC12B6A"",""assignmentId"":""e02b9a02-7d1f-447e-a75c-a5c543032e3b"",""projectId"":""2dd913a0-fd4c-43f1-b4f3-f0d48537bce8""}","https://test12345.live/?part=2&participantId=7CF9BDBEF5A8487E9059DF7AEDC12B6A&assignmentId=e02b9a02-7d1f-447e-a75c-a5c543032e3b&projectId=2dd913a0-fd4c-43f1-b4f3-f0d48537bce8","7CF9BDBEF5A8487E9059DF7AEDC12B6A-2025-05-15-21-00-55","","24397","","[""<span style=\""color: red; font-size: 24px\""> NOW RECORDING</span><p>Please say out loud all the images you saw in part 1 of the experiment, as many as you can remember. The images can be said in any order.</p>""]","","1","hotel_scheme"
"","","","","","image-button-response","47","538615","0.0-45.0-0.0","7CF9BDBEF5A8487E9059DF7AEDC12B6A","7CF9BDBEF5A8487E9059DF7AEDC12B6A","e02b9a02-7d1f-447e-a75c-a5c543032e3b","2dd913a0-fd4c-43f1-b4f3-f0d48537bce8","{""part"":""2"",""participantId"":""7CF9BDBEF5A8487E9059DF7AEDC12B6A"",""assignmentId"":""e02b9a02-7d1f-447e-a75c-a5c543032e3b"",""projectId"":""2dd913a0-fd4c-43f1-b4f3-f0d48537bce8""}","https://test12345.live/?part=2&participantId=7CF9BDBEF5A8487E9059DF7AEDC12B6A&assignmentId=e02b9a02-7d1f-447e-a75c-a5c543032e3b&projectId=2dd913a0-fd4c-43f1-b4f3-f0d48537bce8","7CF9BDBEF5A8487E9059DF7AEDC12B6A-2025-05-15-21-00-55","","null","","images/semantic_sequence/kitchen_operations_semantic/kitchen_operations_semantic_0.png","null","",""
"","","","","","html-audio-response","48","546292","0.0-46.0","7CF9BDBEF5A8487E9059DF7AEDC12B6A","7CF9BDBEF5A8487E9059DF7AEDC12B6A","e02b9a02-7d1f-447e-a75c-a5c543032e3b","2dd913a0-fd4c-43f1-b4f3-f0d48537bce8","{""part"":""2"",""participantId"":""7CF9BDBEF5A8487E9059DF7AEDC12B6A"",""assignmentId"":""e02b9a02-7d1f-447e-a75c-a5c543032e3b"",""projectId"":""2dd913a0-fd4c-43f1-b4f3-f0d48537bce8""}","https://test12345.live/?part=2&participantId=7CF9BDBEF5A8487E9059DF7AEDC12B6A&assignmentId=e02b9a02-7d1f-447e-a75c-a5c543032e3b&projectId=2dd913a0-fd4c-43f1-b4f3-f0d48537bce8","7CF9BDBEF5A8487E9059DF7AEDC12B6A-2025-05-15-21-00-55","","6979","","[""<span style=\""color: red; font-size: 24px\""> NOW RECORDING</span><p>Please say out loud all the images you saw in part 1 of the experiment, as many as you can remember. The images can be said in any order.</p>""]","","3","kitchen_operations_semantic"
"","","","","","image-button-response","49","552305","0.0-47.0-0.0","7CF9BDBEF5A8487E9059DF7AEDC12B6A","7CF9BDBEF5A8487E9059DF7AEDC12B6A","e02b9a02-7d1f-447e-a75c-a5c543032e3b","2dd913a0-fd4c-43f1-b4f3-f0d48537bce8","{""part"":""2"",""participantId"":""7CF9BDBEF5A8487E9059DF7AEDC12B6A"",""assignmentId"":""e02b9a02-7d1f-447e-a75c-a5c543032e3b"",""projectId"":""2dd913a0-fd4c-43f1-b4f3-f0d48537bce8""}","https://test12345.live/?part=2&participantId=7CF9BDBEF5A8487E9059DF7AEDC12B6A&assignmentId=e02b9a02-7d1f-447e-a75c-a5c543032e3b&projectId=2dd913a0-fd4c-43f1-b4f3-f0d48537bce8","7CF9BDBEF5A8487E9059DF7AEDC12B6A-2025-05-15-21-00-55","","null","","images/semantic_sequence/self_care_activities_semantic/self_care_activities_semantic_0.png","null","",""
"","","","","","html-audio-response","50","564008","0.0-48.0","7CF9BDBEF5A8487E9059DF7AEDC12B6A","7CF9BDBEF5A8487E9059DF7AEDC12B6A","e02b9a02-7d1f-447e-a75c-a5c543032e3b","2dd913a0-fd4c-43f1-b4f3-f0d48537bce8","{""part"":""2"",""participantId"":""7CF9BDBEF5A8487E9059DF7AEDC12B6A"",""assignmentId"":""e02b9a02-7d1f-447e-a75c-a5c543032e3b"",""projectId"":""2dd913a0-fd4c-43f1-b4f3-f0d48537bce8""}","https://test12345.live/?part=2&participantId=7CF9BDBEF5A8487E9059DF7AEDC12B6A&assignmentId=e02b9a02-7d1f-447e-a75c-a5c543032e3b&projectId=2dd913a0-fd4c-43f1-b4f3-f0d48537bce8","7CF9BDBEF5A8487E9059DF7AEDC12B6A-2025-05-15-21-00-55","","10846","","[""<span style=\""color: red; font-size: 24px\""> NOW RECORDING</span><p>Please say out loud all the images you saw in part 1 of the experiment, as many as you can remember. The images can be said in any order.</p>""]","","1","self_care_activities_semantic"
"","","","","","image-button-response","51","570020","0.0-49.0-0.0","7CF9BDBEF5A8487E9059DF7AEDC12B6A","7CF9BDBEF5A8487E9059DF7AEDC12B6A","e02b9a02-7d1f-447e-a75c-a5c543032e3b","2dd913a0-fd4c-43f1-b4f3-f0d48537bce8","{""part"":""2"",""participantId"":""7CF9BDBEF5A8487E9059DF7AEDC12B6A"",""assignmentId"":""e02b9a02-7d1f-447e-a75c-a5c543032e3b"",""projectId"":""2dd913a0-fd4c-43f1-b4f3-f0d48537bce8""}","https://test12345.live/?part=2&participantId=7CF9BDBEF5A8487E9059DF7AEDC12B6A&assignmentId=e02b9a02-7d1f-447e-a75c-a5c543032e3b&projectId=2dd913a0-fd4c-43f1-b4f3-f0d48537bce8","7CF9BDBEF5A8487E9059DF7AEDC12B6A-2025-05-15-21-00-55","","null","","images/schematic_sequence/restaurant_scheme/restaurant_scheme_0.png","null","",""
"","","","","","html-audio-response","52","591835","0.0-50.0","7CF9BDBEF5A8487E9059DF7AEDC12B6A","7CF9BDBEF5A8487E9059DF7AEDC12B6A","e02b9a02-7d1f-447e-a75c-a5c543032e3b","2dd913a0-fd4c-43f1-b4f3-f0d48537bce8","{""part"":""2"",""participantId"":""7CF9BDBEF5A8487E9059DF7AEDC12B6A"",""assignmentId"":""e02b9a02-7d1f-447e-a75c-a5c543032e3b"",""projectId"":""2dd913a0-fd4c-43f1-b4f3-f0d48537bce8""}","https://test12345.live/?part=2&participantId=7CF9BDBEF5A8487E9059DF7AEDC12B6A&assignmentId=e02b9a02-7d1f-447e-a75c-a5c543032e3b&projectId=2dd913a0-fd4c-43f1-b4f3-f0d48537bce8","7CF9BDBEF5A8487E9059DF7AEDC12B6A-2025-05-15-21-00-55","","21151","","[""<span style=\""color: red; font-size: 24px\""> NOW RECORDING</span><p>Please say out loud all the images you saw in part 1 of the experiment, as many as you can remember. The images can be said in any order.</p>""]","","1","restaurant_scheme"
"","","","","","image-button-response","53","597850","0.0-51.0-0.0","7CF9BDBEF5A8487E9059DF7AEDC12B6A","7CF9BDBEF5A8487E9059DF7AEDC12B6A","e02b9a02-7d1f-447e-a75c-a5c543032e3b","2dd913a0-fd4c-43f1-b4f3-f0d48537bce8","{""part"":""2"",""participantId"":""7CF9BDBEF5A8487E9059DF7AEDC12B6A"",""assignmentId"":""e02b9a02-7d1f-447e-a75c-a5c543032e3b"",""projectId"":""2dd913a0-fd4c-43f1-b4f3-f0d48537bce8""}","https://test12345.live/?part=2&participantId=7CF9BDBEF5A8487E9059DF7AEDC12B6A&assignmentId=e02b9a02-7d1f-447e-a75c-a5c543032e3b&projectId=2dd913a0-fd4c-43f1-b4f3-f0d48537bce8","7CF9BDBEF5A8487E9059DF7AEDC12B6A-2025-05-15-21-00-55","","null","","images/causal_sequence/museum_causal/museum_causal_0.png","null","",""
"","","","","","html-audio-response","54","619402","0.0-52.0","7CF9BDBEF5A8487E9059DF7AEDC12B6A","7CF9BDBEF5A8487E9059DF7AEDC12B6A","e02b9a02-7d1f-447e-a75c-a5c543032e3b","2dd913a0-fd4c-43f1-b4f3-f0d48537bce8","{""part"":""2"",""participantId"":""7CF9BDBEF5A8487E9059DF7AEDC12B6A"",""assignmentId"":""e02b9a02-7d1f-447e-a75c-a5c543032e3b"",""projectId"":""2dd913a0-fd4c-43f1-b4f3-f0d48537bce8""}","https://test12345.live/?part=2&participantId=7CF9BDBEF5A8487E9059DF7AEDC12B6A&assignmentId=e02b9a02-7d1f-447e-a75c-a5c543032e3b&projectId=2dd913a0-fd4c-43f1-b4f3-f0d48537bce8","7CF9BDBEF5A8487E9059DF7AEDC12B6A-2025-05-15-21-00-55","","20827","","[""<span style=\""color: red; font-size: 24px\""> NOW RECORDING</span><p>Please say out loud all the images you saw in part 1 of the experiment, as many as you can remember. The images can be said in any order.</p>""]","","1","museum_causal"
"","","","","","image-button-response","55","625416","0.0-53.0-0.0","7CF9BDBEF5A8487E9059DF7AEDC12B6A","7CF9BDBEF5A8487E9059DF7AEDC12B6A","e02b9a02-7d1f-447e-a75c-a5c543032e3b","2dd913a0-fd4c-43f1-b4f3-f0d48537bce8","{""part"":""2"",""participantId"":""7CF9BDBEF5A8487E9059DF7AEDC12B6A"",""assignmentId"":""e02b9a02-7d1f-447e-a75c-a5c543032e3b"",""projectId"":""2dd913a0-fd4c-43f1-b4f3-f0d48537bce8""}","https://test12345.live/?part=2&participantId=7CF9BDBEF5A8487E9059DF7AEDC12B6A&assignmentId=e02b9a02-7d1f-447e-a75c-a5c543032e3b&projectId=2dd913a0-fd4c-43f1-b4f3-f0d48537bce8","7CF9BDBEF5A8487E9059DF7AEDC12B6A-2025-05-15-21-00-55","","null","","images/semantic_sequence/housework_semantic/housework_semantic_0.png","null","",""
"","","","","","html-audio-response","56","637665","0.0-54.0","7CF9BDBEF5A8487E9059DF7AEDC12B6A","7CF9BDBEF5A8487E9059DF7AEDC12B6A","e02b9a02-7d1f-447e-a75c-a5c543032e3b","2dd913a0-fd4c-43f1-b4f3-f0d48537bce8","{""part"":""2"",""participantId"":""7CF9BDBEF5A8487E9059DF7AEDC12B6A"",""assignmentId"":""e02b9a02-7d1f-447e-a75c-a5c543032e3b"",""projectId"":""2dd913a0-fd4c-43f1-b4f3-f0d48537bce8""}","https://test12345.live/?part=2&participantId=7CF9BDBEF5A8487E9059DF7AEDC12B6A&assignmentId=e02b9a02-7d1f-447e-a75c-a5c543032e3b&projectId=2dd913a0-fd4c-43f1-b4f3-f0d48537bce8","7CF9BDBEF5A8487E9059DF7AEDC12B6A-2025-05-15-21-00-55","","11482","","[""<span style=\""color: red; font-size: 24px\""> NOW RECORDING</span><p>Please say out loud all the images you saw in part 1 of the experiment, as many as you can remember. The images can be said in any order.</p>""]","","1","housework_semantic"
"","","","","","image-button-response","57","643676","0.0-55.0-0.0","7CF9BDBEF5A8487E9059DF7AEDC12B6A","7CF9BDBEF5A8487E9059DF7AEDC12B6A","e02b9a02-7d1f-447e-a75c-a5c543032e3b","2dd913a0-fd4c-43f1-b4f3-f0d48537bce8","{""part"":""2"",""participantId"":""7CF9BDBEF5A8487E9059DF7AEDC12B6A"",""assignmentId"":""e02b9a02-7d1f-447e-a75c-a5c543032e3b"",""projectId"":""2dd913a0-fd4c-43f1-b4f3-f0d48537bce8""}","https://test12345.live/?part=2&participantId=7CF9BDBEF5A8487E9059DF7AEDC12B6A&assignmentId=e02b9a02-7d1f-447e-a75c-a5c543032e3b&projectId=2dd913a0-fd4c-43f1-b4f3-f0d48537bce8","7CF9BDBEF5A8487E9059DF7AEDC12B6A-2025-05-15-21-00-55","","null","","images/semantic_sequence/physical_activity_semantic/physical_activity_semantic_0.png","null","",""
"","","","","","html-audio-response","58","654860","0.0-56.0","7CF9BDBEF5A8487E9059DF7AEDC12B6A","7CF9BDBEF5A8487E9059DF7AEDC12B6A","e02b9a02-7d1f-447e-a75c-a5c543032e3b","2dd913a0-fd4c-43f1-b4f3-f0d48537bce8","{""part"":""2"",""participantId"":""7CF9BDBEF5A8487E9059DF7AEDC12B6A"",""assignmentId"":""e02b9a02-7d1f-447e-a75c-a5c543032e3b"",""projectId"":""2dd913a0-fd4c-43f1-b4f3-f0d48537bce8""}","https://test12345.live/?part=2&participantId=7CF9BDBEF5A8487E9059DF7AEDC12B6A&assignmentId=e02b9a02-7d1f-447e-a75c-a5c543032e3b&projectId=2dd913a0-fd4c-43f1-b4f3-f0d48537bce8","7CF9BDBEF5A8487E9059DF7AEDC12B6A-2025-05-15-21-00-55","","10504","","[""<span style=\""color: red; font-size: 24px\""> NOW RECORDING</span><p>Please say out loud all the images you saw in part 1 of the experiment, as many as you can remember. The images can be said in any order.</p>""]","","1","physical_activity_semantic"
"","","","","","survey-text","59","661305","0.0-57.0","7CF9BDBEF5A8487E9059DF7AEDC12B6A","7CF9BDBEF5A8487E9059DF7AEDC12B6A","e02b9a02-7d1f-447e-a75c-a5c543032e3b","2dd913a0-fd4c-43f1-b4f3-f0d48537bce8","{""part"":""2"",""participantId"":""7CF9BDBEF5A8487E9059DF7AEDC12B6A"",""assignmentId"":""e02b9a02-7d1f-447e-a75c-a5c543032e3b"",""projectId"":""2dd913a0-fd4c-43f1-b4f3-f0d48537bce8""}","https://test12345.live/?part=2&participantId=7CF9BDBEF5A8487E9059DF7AEDC12B6A&assignmentId=e02b9a02-7d1f-447e-a75c-a5c543032e3b&projectId=2dd913a0-fd4c-43f1-b4f3-f0d48537bce8","7CF9BDBEF5A8487E9059DF7AEDC12B6A-2025-05-15-21-00-55","","6440","","","{""Q0"":""MALE"",""Q1"":""33""}","",""
"","","","","","instructions","60","666877","0.0-58.0","7CF9BDBEF5A8487E9059DF7AEDC12B6A","7CF9BDBEF5A8487E9059DF7AEDC12B6A","e02b9a02-7d1f-447e-a75c-a5c543032e3b","2dd913a0-fd4c-43f1-b4f3-f0d48537bce8","{""part"":""2"",""participantId"":""7CF9BDBEF5A8487E9059DF7AEDC12B6A"",""assignmentId"":""e02b9a02-7d1f-447e-a75c-a5c543032e3b"",""projectId"":""2dd913a0-fd4c-43f1-b4f3-f0d48537bce8""}","https://test12345.live/?part=2&participantId=7CF9BDBEF5A8487E9059DF7AEDC12B6A&assignmentId=e02b9a02-7d1f-447e-a75c-a5c543032e3b&projectId=2dd913a0-fd4c-43f1-b4f3-f0d48537bce8","7CF9BDBEF5A8487E9059DF7AEDC12B6A-2025-05-15-21-00-55","[{""page_index"":0,""viewing_time"":5571}]","5571","","","","",""
"","","","","","survey-text","61","669061","0.0-59.0","7CF9BDBEF5A8487E9059DF7AEDC12B6A","7CF9BDBEF5A8487E9059DF7AEDC12B6A","e02b9a02-7d1f-447e-a75c-a5c543032e3b","2dd913a0-fd4c-43f1-b4f3-f0d48537bce8","{""part"":""2"",""participantId"":""7CF9BDBEF5A8487E9059DF7AEDC12B6A"",""assignmentId"":""e02b9a02-7d1f-447e-a75c-a5c543032e3b"",""projectId"":""2dd913a0-fd4c-43f1-b4f3-f0d48537bce8""}","https://test12345.live/?part=2&participantId=7CF9BDBEF5A8487E9059DF7AEDC12B6A&assignmentId=e02b9a02-7d1f-447e-a75c-a5c543032e3b&projectId=2dd913a0-fd4c-43f1-b4f3-f0d48537bce8","7CF9BDBEF5A8487E9059DF7AEDC12B6A-2025-05-15-21-00-55","","2183","","","{""Q0"":""AJFHBG896""}","",""
