"success","timeout","failed_images","failed_audio","failed_video","trial_type","trial_index","time_elapsed","internal_node_id","subject","subject_id","study_id","session_id","urlvar","current_url","audio_id","view_history","rt","device_id","stimulus","response","estimated_stimulus_onset","seq_name"
"true","false","[]","[]","[]","preload","0","664","0.0-0.0","7D0CC43EFF454085A097E314118598BA","7D0CC43EFF454085A097E314118598BA","a0f34ff2-8051-42d3-b453-1f4f061c8644","e9cc2542-c7dc-4d8f-b94f-d088ad8989d1","{""part"":""2"",""participantId"":""7D0CC43EFF454085A097E314118598BA"",""assignmentId"":""a0f34ff2-8051-42d3-b453-1f4f061c8644"",""projectId"":""e9cc2542-c7dc-4d8f-b94f-d088ad8989d1""}","https://test12345.live/?part=2&participantId=7D0CC43EFF454085A097E314118598BA&assignmentId=a0f34ff2-8051-42d3-b453-1f4f061c8644&projectId=e9cc2542-c7dc-4d8f-b94f-d088ad8989d1","7D0CC43EFF454085A097E314118598BA-2025-05-16-19-18-27","","","","","","",""
"","","","","","instructions","1","18542","0.0-1.0","7D0CC43EFF454085A097E314118598BA","7D0CC43EFF454085A097E314118598BA","a0f34ff2-8051-42d3-b453-1f4f061c8644","e9cc2542-c7dc-4d8f-b94f-d088ad8989d1","{""part"":""2"",""participantId"":""7D0CC43EFF454085A097E314118598BA"",""assignmentId"":""a0f34ff2-8051-42d3-b453-1f4f061c8644"",""projectId"":""e9cc2542-c7dc-4d8f-b94f-d088ad8989d1""}","https://test12345.live/?part=2&participantId=7D0CC43EFF454085A097E314118598BA&assignmentId=a0f34ff2-8051-42d3-b453-1f4f061c8644&projectId=e9cc2542-c7dc-4d8f-b94f-d088ad8989d1","7D0CC43EFF454085A097E314118598BA-2025-05-16-19-18-27","[{""page_index"":0,""viewing_time"":17877}]","17877","","","","",""
"","","","","","instructions","2","21131","0.0-2.0","7D0CC43EFF454085A097E314118598BA","7D0CC43EFF454085A097E314118598BA","a0f34ff2-8051-42d3-b453-1f4f061c8644","e9cc2542-c7dc-4d8f-b94f-d088ad8989d1","{""part"":""2"",""participantId"":""7D0CC43EFF454085A097E314118598BA"",""assignmentId"":""a0f34ff2-8051-42d3-b453-1f4f061c8644"",""projectId"":""e9cc2542-c7dc-4d8f-b94f-d088ad8989d1""}","https://test12345.live/?part=2&participantId=7D0CC43EFF454085A097E314118598BA&assignmentId=a0f34ff2-8051-42d3-b453-1f4f061c8644&projectId=e9cc2542-c7dc-4d8f-b94f-d088ad8989d1","7D0CC43EFF454085A097E314118598BA-2025-05-16-19-18-27","[{""page_index"":0,""viewing_time"":2589}]","2589","","","","",""
"true","","","","","fullscreen","3","23595","0.0-3.0","7D0CC43EFF454085A097E314118598BA","7D0CC43EFF454085A097E314118598BA","a0f34ff2-8051-42d3-b453-1f4f061c8644","e9cc2542-c7dc-4d8f-b94f-d088ad8989d1","{""part"":""2"",""participantId"":""7D0CC43EFF454085A097E314118598BA"",""assignmentId"":""a0f34ff2-8051-42d3-b453-1f4f061c8644"",""projectId"":""e9cc2542-c7dc-4d8f-b94f-d088ad8989d1""}","https://test12345.live/?part=2&participantId=7D0CC43EFF454085A097E314118598BA&assignmentId=a0f34ff2-8051-42d3-b453-1f4f061c8644&projectId=e9cc2542-c7dc-4d8f-b94f-d088ad8989d1","7D0CC43EFF454085A097E314118598BA-2025-05-16-19-18-27","","1449","","","","",""
"","","","","","initialize-microphone","4","26691","0.0-4.0-0.0","7D0CC43EFF454085A097E314118598BA","7D0CC43EFF454085A097E314118598BA","a0f34ff2-8051-42d3-b453-1f4f061c8644","e9cc2542-c7dc-4d8f-b94f-d088ad8989d1","{""part"":""2"",""participantId"":""7D0CC43EFF454085A097E314118598BA"",""assignmentId"":""a0f34ff2-8051-42d3-b453-1f4f061c8644"",""projectId"":""e9cc2542-c7dc-4d8f-b94f-d088ad8989d1""}","https://test12345.live/?part=2&participantId=7D0CC43EFF454085A097E314118598BA&assignmentId=a0f34ff2-8051-42d3-b453-1f4f061c8644&projectId=e9cc2542-c7dc-4d8f-b94f-d088ad8989d1","7D0CC43EFF454085A097E314118598BA-2025-05-16-19-18-27","","","259ef4f3ce5d43df16ca1724c6ea4fcbcd3cf19bc2d1470fff70f0a47be9eace","","","",""
"","","","","","html-audio-response","5","36979","0.0-4.0-1.0","7D0CC43EFF454085A097E314118598BA","7D0CC43EFF454085A097E314118598BA","a0f34ff2-8051-42d3-b453-1f4f061c8644","e9cc2542-c7dc-4d8f-b94f-d088ad8989d1","{""part"":""2"",""participantId"":""7D0CC43EFF454085A097E314118598BA"",""assignmentId"":""a0f34ff2-8051-42d3-b453-1f4f061c8644"",""projectId"":""e9cc2542-c7dc-4d8f-b94f-d088ad8989d1""}","https://test12345.live/?part=2&participantId=7D0CC43EFF454085A097E314118598BA&assignmentId=a0f34ff2-8051-42d3-b453-1f4f061c8644&projectId=e9cc2542-c7dc-4d8f-b94f-d088ad8989d1","7D0CC43EFF454085A097E314118598BA-2025-05-16-19-18-27","","4263","","<span style=""color: red; font-size: 24px""> NOW RECORDING</span>
        <p>Please test Microphone</p>","","2",""
"","","","","","html-button-response","6","38162","0.0-4.0-2.0","7D0CC43EFF454085A097E314118598BA","7D0CC43EFF454085A097E314118598BA","a0f34ff2-8051-42d3-b453-1f4f061c8644","e9cc2542-c7dc-4d8f-b94f-d088ad8989d1","{""part"":""2"",""participantId"":""7D0CC43EFF454085A097E314118598BA"",""assignmentId"":""a0f34ff2-8051-42d3-b453-1f4f061c8644"",""projectId"":""e9cc2542-c7dc-4d8f-b94f-d088ad8989d1""}","https://test12345.live/?part=2&participantId=7D0CC43EFF454085A097E314118598BA&assignmentId=a0f34ff2-8051-42d3-b453-1f4f061c8644&projectId=e9cc2542-c7dc-4d8f-b94f-d088ad8989d1","7D0CC43EFF454085A097E314118598BA-2025-05-16-19-18-27","","1183","","<p style=""font-size:48px; color:red;"">Is Microphone OK?</p>","1","",""
"","","","","","instructions","7","87574","0.0-5.0","7D0CC43EFF454085A097E314118598BA","7D0CC43EFF454085A097E314118598BA","a0f34ff2-8051-42d3-b453-1f4f061c8644","e9cc2542-c7dc-4d8f-b94f-d088ad8989d1","{""part"":""2"",""participantId"":""7D0CC43EFF454085A097E314118598BA"",""assignmentId"":""a0f34ff2-8051-42d3-b453-1f4f061c8644"",""projectId"":""e9cc2542-c7dc-4d8f-b94f-d088ad8989d1""}","https://test12345.live/?part=2&participantId=7D0CC43EFF454085A097E314118598BA&assignmentId=a0f34ff2-8051-42d3-b453-1f4f061c8644&projectId=e9cc2542-c7dc-4d8f-b94f-d088ad8989d1","7D0CC43EFF454085A097E314118598BA-2025-05-16-19-18-27","[{""page_index"":0,""viewing_time"":913},{""page_index"":1,""viewing_time"":11548},{""page_index"":2,""viewing_time"":36947}]","49408","","","","",""
"","","","","","image-button-response","8","93582","0.0-6.0-0.0","7D0CC43EFF454085A097E314118598BA","7D0CC43EFF454085A097E314118598BA","a0f34ff2-8051-42d3-b453-1f4f061c8644","e9cc2542-c7dc-4d8f-b94f-d088ad8989d1","{""part"":""2"",""participantId"":""7D0CC43EFF454085A097E314118598BA"",""assignmentId"":""a0f34ff2-8051-42d3-b453-1f4f061c8644"",""projectId"":""e9cc2542-c7dc-4d8f-b94f-d088ad8989d1""}","https://test12345.live/?part=2&participantId=7D0CC43EFF454085A097E314118598BA&assignmentId=a0f34ff2-8051-42d3-b453-1f4f061c8644&projectId=e9cc2542-c7dc-4d8f-b94f-d088ad8989d1","7D0CC43EFF454085A097E314118598BA-2025-05-16-19-18-27","","null","","images/instructions/movie_0.png","null","",""
"","","","","","html-audio-response","9","145491","0.0-7.0","7D0CC43EFF454085A097E314118598BA","7D0CC43EFF454085A097E314118598BA","a0f34ff2-8051-42d3-b453-1f4f061c8644","e9cc2542-c7dc-4d8f-b94f-d088ad8989d1","{""part"":""2"",""participantId"":""7D0CC43EFF454085A097E314118598BA"",""assignmentId"":""a0f34ff2-8051-42d3-b453-1f4f061c8644"",""projectId"":""e9cc2542-c7dc-4d8f-b94f-d088ad8989d1""}","https://test12345.live/?part=2&participantId=7D0CC43EFF454085A097E314118598BA&assignmentId=a0f34ff2-8051-42d3-b453-1f4f061c8644&projectId=e9cc2542-c7dc-4d8f-b94f-d088ad8989d1","7D0CC43EFF454085A097E314118598BA-2025-05-16-19-18-27","","24975","","[""<span style=\""color: red; font-size: 24px\""> NOW RECORDING</span><p>Please say out loud all the images you saw in part 1 of the experiment, as many as you can remember. The images can be said in any order.</p>""]","","2",""
"","","","","","instructions","10","146934","0.0-8.0","7D0CC43EFF454085A097E314118598BA","7D0CC43EFF454085A097E314118598BA","a0f34ff2-8051-42d3-b453-1f4f061c8644","e9cc2542-c7dc-4d8f-b94f-d088ad8989d1","{""part"":""2"",""participantId"":""7D0CC43EFF454085A097E314118598BA"",""assignmentId"":""a0f34ff2-8051-42d3-b453-1f4f061c8644"",""projectId"":""e9cc2542-c7dc-4d8f-b94f-d088ad8989d1""}","https://test12345.live/?part=2&participantId=7D0CC43EFF454085A097E314118598BA&assignmentId=a0f34ff2-8051-42d3-b453-1f4f061c8644&projectId=e9cc2542-c7dc-4d8f-b94f-d088ad8989d1","7D0CC43EFF454085A097E314118598BA-2025-05-16-19-18-27","[{""page_index"":0,""viewing_time"":1440}]","1440","","","","",""
"","","","","","image-button-response","11","152937","0.0-9.0-0.0","7D0CC43EFF454085A097E314118598BA","7D0CC43EFF454085A097E314118598BA","a0f34ff2-8051-42d3-b453-1f4f061c8644","e9cc2542-c7dc-4d8f-b94f-d088ad8989d1","{""part"":""2"",""participantId"":""7D0CC43EFF454085A097E314118598BA"",""assignmentId"":""a0f34ff2-8051-42d3-b453-1f4f061c8644"",""projectId"":""e9cc2542-c7dc-4d8f-b94f-d088ad8989d1""}","https://test12345.live/?part=2&participantId=7D0CC43EFF454085A097E314118598BA&assignmentId=a0f34ff2-8051-42d3-b453-1f4f061c8644&projectId=e9cc2542-c7dc-4d8f-b94f-d088ad8989d1","7D0CC43EFF454085A097E314118598BA-2025-05-16-19-18-27","","null","","images/semantic_sequence/creative_activities_semantic/creative_activities_semantic_0.png","null","",""
"","","","","","html-audio-response","12","259409","0.0-10.0","7D0CC43EFF454085A097E314118598BA","7D0CC43EFF454085A097E314118598BA","a0f34ff2-8051-42d3-b453-1f4f061c8644","e9cc2542-c7dc-4d8f-b94f-d088ad8989d1","{""part"":""2"",""participantId"":""7D0CC43EFF454085A097E314118598BA"",""assignmentId"":""a0f34ff2-8051-42d3-b453-1f4f061c8644"",""projectId"":""e9cc2542-c7dc-4d8f-b94f-d088ad8989d1""}","https://test12345.live/?part=2&participantId=7D0CC43EFF454085A097E314118598BA&assignmentId=a0f34ff2-8051-42d3-b453-1f4f061c8644&projectId=e9cc2542-c7dc-4d8f-b94f-d088ad8989d1","7D0CC43EFF454085A097E314118598BA-2025-05-16-19-18-27","","24637","","[""<span style=\""color: red; font-size: 24px\""> NOW RECORDING</span><p>Please say out loud all the images you saw in part 1 of the experiment, as many as you can remember. The images can be said in any order.</p>""]","","5","creative_activities_semantic"
"","","","","","image-button-response","13","265416","0.0-11.0-0.0","7D0CC43EFF454085A097E314118598BA","7D0CC43EFF454085A097E314118598BA","a0f34ff2-8051-42d3-b453-1f4f061c8644","e9cc2542-c7dc-4d8f-b94f-d088ad8989d1","{""part"":""2"",""participantId"":""7D0CC43EFF454085A097E314118598BA"",""assignmentId"":""a0f34ff2-8051-42d3-b453-1f4f061c8644"",""projectId"":""e9cc2542-c7dc-4d8f-b94f-d088ad8989d1""}","https://test12345.live/?part=2&participantId=7D0CC43EFF454085A097E314118598BA&assignmentId=a0f34ff2-8051-42d3-b453-1f4f061c8644&projectId=e9cc2542-c7dc-4d8f-b94f-d088ad8989d1","7D0CC43EFF454085A097E314118598BA-2025-05-16-19-18-27","","null","","images/semantic_sequence/exploring_nature_semantic/exploring_nature_semantic_0.png","null","",""
"","","","","","html-audio-response","14","314171","0.0-12.0","7D0CC43EFF454085A097E314118598BA","7D0CC43EFF454085A097E314118598BA","a0f34ff2-8051-42d3-b453-1f4f061c8644","e9cc2542-c7dc-4d8f-b94f-d088ad8989d1","{""part"":""2"",""participantId"":""7D0CC43EFF454085A097E314118598BA"",""assignmentId"":""a0f34ff2-8051-42d3-b453-1f4f061c8644"",""projectId"":""e9cc2542-c7dc-4d8f-b94f-d088ad8989d1""}","https://test12345.live/?part=2&participantId=7D0CC43EFF454085A097E314118598BA&assignmentId=a0f34ff2-8051-42d3-b453-1f4f061c8644&projectId=e9cc2542-c7dc-4d8f-b94f-d088ad8989d1","7D0CC43EFF454085A097E314118598BA-2025-05-16-19-18-27","","21428","","[""<span style=\""color: red; font-size: 24px\""> NOW RECORDING</span><p>Please say out loud all the images you saw in part 1 of the experiment, as many as you can remember. The images can be said in any order.</p>""]","","1","exploring_nature_semantic"
"","","","","","image-button-response","15","320180","0.0-13.0-0.0","7D0CC43EFF454085A097E314118598BA","7D0CC43EFF454085A097E314118598BA","a0f34ff2-8051-42d3-b453-1f4f061c8644","e9cc2542-c7dc-4d8f-b94f-d088ad8989d1","{""part"":""2"",""participantId"":""7D0CC43EFF454085A097E314118598BA"",""assignmentId"":""a0f34ff2-8051-42d3-b453-1f4f061c8644"",""projectId"":""e9cc2542-c7dc-4d8f-b94f-d088ad8989d1""}","https://test12345.live/?part=2&participantId=7D0CC43EFF454085A097E314118598BA&assignmentId=a0f34ff2-8051-42d3-b453-1f4f061c8644&projectId=e9cc2542-c7dc-4d8f-b94f-d088ad8989d1","7D0CC43EFF454085A097E314118598BA-2025-05-16-19-18-27","","null","","images/semantic_sequence/using_technology_semantic/using_technology_semantic_0.png","null","",""
"","","","","","html-audio-response","16","392869","0.0-14.0","7D0CC43EFF454085A097E314118598BA","7D0CC43EFF454085A097E314118598BA","a0f34ff2-8051-42d3-b453-1f4f061c8644","e9cc2542-c7dc-4d8f-b94f-d088ad8989d1","{""part"":""2"",""participantId"":""7D0CC43EFF454085A097E314118598BA"",""assignmentId"":""a0f34ff2-8051-42d3-b453-1f4f061c8644"",""projectId"":""e9cc2542-c7dc-4d8f-b94f-d088ad8989d1""}","https://test12345.live/?part=2&participantId=7D0CC43EFF454085A097E314118598BA&assignmentId=a0f34ff2-8051-42d3-b453-1f4f061c8644&projectId=e9cc2542-c7dc-4d8f-b94f-d088ad8989d1","7D0CC43EFF454085A097E314118598BA-2025-05-16-19-18-27","","35785","","[""<span style=\""color: red; font-size: 24px\""> NOW RECORDING</span><p>Please say out loud all the images you saw in part 1 of the experiment, as many as you can remember. The images can be said in any order.</p>""]","","1","using_technology_semantic"
"","","","","","image-button-response","17","398884","0.0-15.0-0.0","7D0CC43EFF454085A097E314118598BA","7D0CC43EFF454085A097E314118598BA","a0f34ff2-8051-42d3-b453-1f4f061c8644","e9cc2542-c7dc-4d8f-b94f-d088ad8989d1","{""part"":""2"",""participantId"":""7D0CC43EFF454085A097E314118598BA"",""assignmentId"":""a0f34ff2-8051-42d3-b453-1f4f061c8644"",""projectId"":""e9cc2542-c7dc-4d8f-b94f-d088ad8989d1""}","https://test12345.live/?part=2&participantId=7D0CC43EFF454085A097E314118598BA&assignmentId=a0f34ff2-8051-42d3-b453-1f4f061c8644&projectId=e9cc2542-c7dc-4d8f-b94f-d088ad8989d1","7D0CC43EFF454085A097E314118598BA-2025-05-16-19-18-27","","null","","images/schematic_sequence/hotel_scheme/hotel_scheme_0.png","null","",""
"","","","","","html-audio-response","18","470413","0.0-16.0","7D0CC43EFF454085A097E314118598BA","7D0CC43EFF454085A097E314118598BA","a0f34ff2-8051-42d3-b453-1f4f061c8644","e9cc2542-c7dc-4d8f-b94f-d088ad8989d1","{""part"":""2"",""participantId"":""7D0CC43EFF454085A097E314118598BA"",""assignmentId"":""a0f34ff2-8051-42d3-b453-1f4f061c8644"",""projectId"":""e9cc2542-c7dc-4d8f-b94f-d088ad8989d1""}","https://test12345.live/?part=2&participantId=7D0CC43EFF454085A097E314118598BA&assignmentId=a0f34ff2-8051-42d3-b453-1f4f061c8644&projectId=e9cc2542-c7dc-4d8f-b94f-d088ad8989d1","7D0CC43EFF454085A097E314118598BA-2025-05-16-19-18-27","","35003","","[""<span style=\""color: red; font-size: 24px\""> NOW RECORDING</span><p>Please say out loud all the images you saw in part 1 of the experiment, as many as you can remember. The images can be said in any order.</p>""]","","1","hotel_scheme"
"","","","","","image-button-response","19","476433","0.0-17.0-0.0","7D0CC43EFF454085A097E314118598BA","7D0CC43EFF454085A097E314118598BA","a0f34ff2-8051-42d3-b453-1f4f061c8644","e9cc2542-c7dc-4d8f-b94f-d088ad8989d1","{""part"":""2"",""participantId"":""7D0CC43EFF454085A097E314118598BA"",""assignmentId"":""a0f34ff2-8051-42d3-b453-1f4f061c8644"",""projectId"":""e9cc2542-c7dc-4d8f-b94f-d088ad8989d1""}","https://test12345.live/?part=2&participantId=7D0CC43EFF454085A097E314118598BA&assignmentId=a0f34ff2-8051-42d3-b453-1f4f061c8644&projectId=e9cc2542-c7dc-4d8f-b94f-d088ad8989d1","7D0CC43EFF454085A097E314118598BA-2025-05-16-19-18-27","","null","","images/causal_sequence/package_causal/package_causal_0.png","null","",""
"","","","","","html-audio-response","20","562359","0.0-18.0","7D0CC43EFF454085A097E314118598BA","7D0CC43EFF454085A097E314118598BA","a0f34ff2-8051-42d3-b453-1f4f061c8644","e9cc2542-c7dc-4d8f-b94f-d088ad8989d1","{""part"":""2"",""participantId"":""7D0CC43EFF454085A097E314118598BA"",""assignmentId"":""a0f34ff2-8051-42d3-b453-1f4f061c8644"",""projectId"":""e9cc2542-c7dc-4d8f-b94f-d088ad8989d1""}","https://test12345.live/?part=2&participantId=7D0CC43EFF454085A097E314118598BA&assignmentId=a0f34ff2-8051-42d3-b453-1f4f061c8644&projectId=e9cc2542-c7dc-4d8f-b94f-d088ad8989d1","7D0CC43EFF454085A097E314118598BA-2025-05-16-19-18-27","","41880","","[""<span style=\""color: red; font-size: 24px\""> NOW RECORDING</span><p>Please say out loud all the images you saw in part 1 of the experiment, as many as you can remember. The images can be said in any order.</p>""]","","1","package_causal"
"","","","","","image-button-response","21","568380","0.0-19.0-0.0","7D0CC43EFF454085A097E314118598BA","7D0CC43EFF454085A097E314118598BA","a0f34ff2-8051-42d3-b453-1f4f061c8644","e9cc2542-c7dc-4d8f-b94f-d088ad8989d1","{""part"":""2"",""participantId"":""7D0CC43EFF454085A097E314118598BA"",""assignmentId"":""a0f34ff2-8051-42d3-b453-1f4f061c8644"",""projectId"":""e9cc2542-c7dc-4d8f-b94f-d088ad8989d1""}","https://test12345.live/?part=2&participantId=7D0CC43EFF454085A097E314118598BA&assignmentId=a0f34ff2-8051-42d3-b453-1f4f061c8644&projectId=e9cc2542-c7dc-4d8f-b94f-d088ad8989d1","7D0CC43EFF454085A097E314118598BA-2025-05-16-19-18-27","","null","","images/semantic_sequence/housework_semantic/housework_semantic_0.png","null","",""
"","","","","","html-audio-response","22","623942","0.0-20.0","7D0CC43EFF454085A097E314118598BA","7D0CC43EFF454085A097E314118598BA","a0f34ff2-8051-42d3-b453-1f4f061c8644","e9cc2542-c7dc-4d8f-b94f-d088ad8989d1","{""part"":""2"",""participantId"":""7D0CC43EFF454085A097E314118598BA"",""assignmentId"":""a0f34ff2-8051-42d3-b453-1f4f061c8644"",""projectId"":""e9cc2542-c7dc-4d8f-b94f-d088ad8989d1""}","https://test12345.live/?part=2&participantId=7D0CC43EFF454085A097E314118598BA&assignmentId=a0f34ff2-8051-42d3-b453-1f4f061c8644&projectId=e9cc2542-c7dc-4d8f-b94f-d088ad8989d1","7D0CC43EFF454085A097E314118598BA-2025-05-16-19-18-27","","27101","","[""<span style=\""color: red; font-size: 24px\""> NOW RECORDING</span><p>Please say out loud all the images you saw in part 1 of the experiment, as many as you can remember. The images can be said in any order.</p>""]","","1","housework_semantic"
"","","","","","image-button-response","23","629958","0.0-21.0-0.0","7D0CC43EFF454085A097E314118598BA","7D0CC43EFF454085A097E314118598BA","a0f34ff2-8051-42d3-b453-1f4f061c8644","e9cc2542-c7dc-4d8f-b94f-d088ad8989d1","{""part"":""2"",""participantId"":""7D0CC43EFF454085A097E314118598BA"",""assignmentId"":""a0f34ff2-8051-42d3-b453-1f4f061c8644"",""projectId"":""e9cc2542-c7dc-4d8f-b94f-d088ad8989d1""}","https://test12345.live/?part=2&participantId=7D0CC43EFF454085A097E314118598BA&assignmentId=a0f34ff2-8051-42d3-b453-1f4f061c8644&projectId=e9cc2542-c7dc-4d8f-b94f-d088ad8989d1","7D0CC43EFF454085A097E314118598BA-2025-05-16-19-18-27","","null","","images/causal_sequence/saving_a_cat_causal/saving_a_cat_causal_0.png","null","",""
"","","","","","html-audio-response","24","693883","0.0-22.0","7D0CC43EFF454085A097E314118598BA","7D0CC43EFF454085A097E314118598BA","a0f34ff2-8051-42d3-b453-1f4f061c8644","e9cc2542-c7dc-4d8f-b94f-d088ad8989d1","{""part"":""2"",""participantId"":""7D0CC43EFF454085A097E314118598BA"",""assignmentId"":""a0f34ff2-8051-42d3-b453-1f4f061c8644"",""projectId"":""e9cc2542-c7dc-4d8f-b94f-d088ad8989d1""}","https://test12345.live/?part=2&participantId=7D0CC43EFF454085A097E314118598BA&assignmentId=a0f34ff2-8051-42d3-b453-1f4f061c8644&projectId=e9cc2542-c7dc-4d8f-b94f-d088ad8989d1","7D0CC43EFF454085A097E314118598BA-2025-05-16-19-18-27","","31181","","[""<span style=\""color: red; font-size: 24px\""> NOW RECORDING</span><p>Please say out loud all the images you saw in part 1 of the experiment, as many as you can remember. The images can be said in any order.</p>""]","","2","saving_a_cat_causal"
"","","","","","image-button-response","25","699890","0.0-23.0-0.0","7D0CC43EFF454085A097E314118598BA","7D0CC43EFF454085A097E314118598BA","a0f34ff2-8051-42d3-b453-1f4f061c8644","e9cc2542-c7dc-4d8f-b94f-d088ad8989d1","{""part"":""2"",""participantId"":""7D0CC43EFF454085A097E314118598BA"",""assignmentId"":""a0f34ff2-8051-42d3-b453-1f4f061c8644"",""projectId"":""e9cc2542-c7dc-4d8f-b94f-d088ad8989d1""}","https://test12345.live/?part=2&participantId=7D0CC43EFF454085A097E314118598BA&assignmentId=a0f34ff2-8051-42d3-b453-1f4f061c8644&projectId=e9cc2542-c7dc-4d8f-b94f-d088ad8989d1","7D0CC43EFF454085A097E314118598BA-2025-05-16-19-18-27","","null","","images/causal_sequence/museum_causal/museum_causal_0.png","null","",""
"","","","","","html-audio-response","26","763776","0.0-24.0","7D0CC43EFF454085A097E314118598BA","7D0CC43EFF454085A097E314118598BA","a0f34ff2-8051-42d3-b453-1f4f061c8644","e9cc2542-c7dc-4d8f-b94f-d088ad8989d1","{""part"":""2"",""participantId"":""7D0CC43EFF454085A097E314118598BA"",""assignmentId"":""a0f34ff2-8051-42d3-b453-1f4f061c8644"",""projectId"":""e9cc2542-c7dc-4d8f-b94f-d088ad8989d1""}","https://test12345.live/?part=2&participantId=7D0CC43EFF454085A097E314118598BA&assignmentId=a0f34ff2-8051-42d3-b453-1f4f061c8644&projectId=e9cc2542-c7dc-4d8f-b94f-d088ad8989d1","7D0CC43EFF454085A097E314118598BA-2025-05-16-19-18-27","","31307","","[""<span style=\""color: red; font-size: 24px\""> NOW RECORDING</span><p>Please say out loud all the images you saw in part 1 of the experiment, as many as you can remember. The images can be said in any order.</p>""]","","1","museum_causal"
"","","","","","image-button-response","27","769781","0.0-25.0-0.0","7D0CC43EFF454085A097E314118598BA","7D0CC43EFF454085A097E314118598BA","a0f34ff2-8051-42d3-b453-1f4f061c8644","e9cc2542-c7dc-4d8f-b94f-d088ad8989d1","{""part"":""2"",""participantId"":""7D0CC43EFF454085A097E314118598BA"",""assignmentId"":""a0f34ff2-8051-42d3-b453-1f4f061c8644"",""projectId"":""e9cc2542-c7dc-4d8f-b94f-d088ad8989d1""}","https://test12345.live/?part=2&participantId=7D0CC43EFF454085A097E314118598BA&assignmentId=a0f34ff2-8051-42d3-b453-1f4f061c8644&projectId=e9cc2542-c7dc-4d8f-b94f-d088ad8989d1","7D0CC43EFF454085A097E314118598BA-2025-05-16-19-18-27","","null","","images/schematic_sequence/restaurant_scheme/restaurant_scheme_0.png","null","",""
"","","","","","html-audio-response","28","839760","0.0-26.0","7D0CC43EFF454085A097E314118598BA","7D0CC43EFF454085A097E314118598BA","a0f34ff2-8051-42d3-b453-1f4f061c8644","e9cc2542-c7dc-4d8f-b94f-d088ad8989d1","{""part"":""2"",""participantId"":""7D0CC43EFF454085A097E314118598BA"",""assignmentId"":""a0f34ff2-8051-42d3-b453-1f4f061c8644"",""projectId"":""e9cc2542-c7dc-4d8f-b94f-d088ad8989d1""}","https://test12345.live/?part=2&participantId=7D0CC43EFF454085A097E314118598BA&assignmentId=a0f34ff2-8051-42d3-b453-1f4f061c8644&projectId=e9cc2542-c7dc-4d8f-b94f-d088ad8989d1","7D0CC43EFF454085A097E314118598BA-2025-05-16-19-18-27","","34347","","[""<span style=\""color: red; font-size: 24px\""> NOW RECORDING</span><p>Please say out loud all the images you saw in part 1 of the experiment, as many as you can remember. The images can be said in any order.</p>""]","","1","restaurant_scheme"
"","","","","","image-button-response","29","845778","0.0-27.0-0.0","7D0CC43EFF454085A097E314118598BA","7D0CC43EFF454085A097E314118598BA","a0f34ff2-8051-42d3-b453-1f4f061c8644","e9cc2542-c7dc-4d8f-b94f-d088ad8989d1","{""part"":""2"",""participantId"":""7D0CC43EFF454085A097E314118598BA"",""assignmentId"":""a0f34ff2-8051-42d3-b453-1f4f061c8644"",""projectId"":""e9cc2542-c7dc-4d8f-b94f-d088ad8989d1""}","https://test12345.live/?part=2&participantId=7D0CC43EFF454085A097E314118598BA&assignmentId=a0f34ff2-8051-42d3-b453-1f4f061c8644&projectId=e9cc2542-c7dc-4d8f-b94f-d088ad8989d1","7D0CC43EFF454085A097E314118598BA-2025-05-16-19-18-27","","null","","images/semantic_sequence/self_care_activities_semantic/self_care_activities_semantic_0.png","null","",""
"","","","","","html-audio-response","30","903426","0.0-28.0","7D0CC43EFF454085A097E314118598BA","7D0CC43EFF454085A097E314118598BA","a0f34ff2-8051-42d3-b453-1f4f061c8644","e9cc2542-c7dc-4d8f-b94f-d088ad8989d1","{""part"":""2"",""participantId"":""7D0CC43EFF454085A097E314118598BA"",""assignmentId"":""a0f34ff2-8051-42d3-b453-1f4f061c8644"",""projectId"":""e9cc2542-c7dc-4d8f-b94f-d088ad8989d1""}","https://test12345.live/?part=2&participantId=7D0CC43EFF454085A097E314118598BA&assignmentId=a0f34ff2-8051-42d3-b453-1f4f061c8644&projectId=e9cc2542-c7dc-4d8f-b94f-d088ad8989d1","7D0CC43EFF454085A097E314118598BA-2025-05-16-19-18-27","","28246","","[""<span style=\""color: red; font-size: 24px\""> NOW RECORDING</span><p>Please say out loud all the images you saw in part 1 of the experiment, as many as you can remember. The images can be said in any order.</p>""]","","1","self_care_activities_semantic"
"","","","","","image-button-response","31","909436","0.0-29.0-0.0","7D0CC43EFF454085A097E314118598BA","7D0CC43EFF454085A097E314118598BA","a0f34ff2-8051-42d3-b453-1f4f061c8644","e9cc2542-c7dc-4d8f-b94f-d088ad8989d1","{""part"":""2"",""participantId"":""7D0CC43EFF454085A097E314118598BA"",""assignmentId"":""a0f34ff2-8051-42d3-b453-1f4f061c8644"",""projectId"":""e9cc2542-c7dc-4d8f-b94f-d088ad8989d1""}","https://test12345.live/?part=2&participantId=7D0CC43EFF454085A097E314118598BA&assignmentId=a0f34ff2-8051-42d3-b453-1f4f061c8644&projectId=e9cc2542-c7dc-4d8f-b94f-d088ad8989d1","7D0CC43EFF454085A097E314118598BA-2025-05-16-19-18-27","","null","","images/schematic_sequence/flight_scheme/flight_scheme_0.png","null","",""
"","","","","","html-audio-response","32","986591","0.0-30.0","7D0CC43EFF454085A097E314118598BA","7D0CC43EFF454085A097E314118598BA","a0f34ff2-8051-42d3-b453-1f4f061c8644","e9cc2542-c7dc-4d8f-b94f-d088ad8989d1","{""part"":""2"",""participantId"":""7D0CC43EFF454085A097E314118598BA"",""assignmentId"":""a0f34ff2-8051-42d3-b453-1f4f061c8644"",""projectId"":""e9cc2542-c7dc-4d8f-b94f-d088ad8989d1""}","https://test12345.live/?part=2&participantId=7D0CC43EFF454085A097E314118598BA&assignmentId=a0f34ff2-8051-42d3-b453-1f4f061c8644&projectId=e9cc2542-c7dc-4d8f-b94f-d088ad8989d1","7D0CC43EFF454085A097E314118598BA-2025-05-16-19-18-27","","37810","","[""<span style=\""color: red; font-size: 24px\""> NOW RECORDING</span><p>Please say out loud all the images you saw in part 1 of the experiment, as many as you can remember. The images can be said in any order.</p>""]","","2","flight_scheme"
"","","","","","image-button-response","33","992602","0.0-31.0-0.0","7D0CC43EFF454085A097E314118598BA","7D0CC43EFF454085A097E314118598BA","a0f34ff2-8051-42d3-b453-1f4f061c8644","e9cc2542-c7dc-4d8f-b94f-d088ad8989d1","{""part"":""2"",""participantId"":""7D0CC43EFF454085A097E314118598BA"",""assignmentId"":""a0f34ff2-8051-42d3-b453-1f4f061c8644"",""projectId"":""e9cc2542-c7dc-4d8f-b94f-d088ad8989d1""}","https://test12345.live/?part=2&participantId=7D0CC43EFF454085A097E314118598BA&assignmentId=a0f34ff2-8051-42d3-b453-1f4f061c8644&projectId=e9cc2542-c7dc-4d8f-b94f-d088ad8989d1","7D0CC43EFF454085A097E314118598BA-2025-05-16-19-18-27","","null","","images/semantic_sequence/cat_care_semantic/cat_care_semantic_0.png","null","",""
"","","","","","html-audio-response","34","1046593","0.0-32.0","7D0CC43EFF454085A097E314118598BA","7D0CC43EFF454085A097E314118598BA","a0f34ff2-8051-42d3-b453-1f4f061c8644","e9cc2542-c7dc-4d8f-b94f-d088ad8989d1","{""part"":""2"",""participantId"":""7D0CC43EFF454085A097E314118598BA"",""assignmentId"":""a0f34ff2-8051-42d3-b453-1f4f061c8644"",""projectId"":""e9cc2542-c7dc-4d8f-b94f-d088ad8989d1""}","https://test12345.live/?part=2&participantId=7D0CC43EFF454085A097E314118598BA&assignmentId=a0f34ff2-8051-42d3-b453-1f4f061c8644&projectId=e9cc2542-c7dc-4d8f-b94f-d088ad8989d1","7D0CC43EFF454085A097E314118598BA-2025-05-16-19-18-27","","24329","","[""<span style=\""color: red; font-size: 24px\""> NOW RECORDING</span><p>Please say out loud all the images you saw in part 1 of the experiment, as many as you can remember. The images can be said in any order.</p>""]","","1","cat_care_semantic"
"","","","","","image-button-response","35","1052608","0.0-33.0-0.0","7D0CC43EFF454085A097E314118598BA","7D0CC43EFF454085A097E314118598BA","a0f34ff2-8051-42d3-b453-1f4f061c8644","e9cc2542-c7dc-4d8f-b94f-d088ad8989d1","{""part"":""2"",""participantId"":""7D0CC43EFF454085A097E314118598BA"",""assignmentId"":""a0f34ff2-8051-42d3-b453-1f4f061c8644"",""projectId"":""e9cc2542-c7dc-4d8f-b94f-d088ad8989d1""}","https://test12345.live/?part=2&participantId=7D0CC43EFF454085A097E314118598BA&assignmentId=a0f34ff2-8051-42d3-b453-1f4f061c8644&projectId=e9cc2542-c7dc-4d8f-b94f-d088ad8989d1","7D0CC43EFF454085A097E314118598BA-2025-05-16-19-18-27","","null","","images/semantic_sequence/physical_activity_semantic/physical_activity_semantic_0.png","null","",""
"","","","","","html-audio-response","36","1112175","0.0-34.0","7D0CC43EFF454085A097E314118598BA","7D0CC43EFF454085A097E314118598BA","a0f34ff2-8051-42d3-b453-1f4f061c8644","e9cc2542-c7dc-4d8f-b94f-d088ad8989d1","{""part"":""2"",""participantId"":""7D0CC43EFF454085A097E314118598BA"",""assignmentId"":""a0f34ff2-8051-42d3-b453-1f4f061c8644"",""projectId"":""e9cc2542-c7dc-4d8f-b94f-d088ad8989d1""}","https://test12345.live/?part=2&participantId=7D0CC43EFF454085A097E314118598BA&assignmentId=a0f34ff2-8051-42d3-b453-1f4f061c8644&projectId=e9cc2542-c7dc-4d8f-b94f-d088ad8989d1","7D0CC43EFF454085A097E314118598BA-2025-05-16-19-18-27","","28929","","[""<span style=\""color: red; font-size: 24px\""> NOW RECORDING</span><p>Please say out loud all the images you saw in part 1 of the experiment, as many as you can remember. The images can be said in any order.</p>""]","","1","physical_activity_semantic"
"","","","","","image-button-response","37","1118194","0.0-35.0-0.0","7D0CC43EFF454085A097E314118598BA","7D0CC43EFF454085A097E314118598BA","a0f34ff2-8051-42d3-b453-1f4f061c8644","e9cc2542-c7dc-4d8f-b94f-d088ad8989d1","{""part"":""2"",""participantId"":""7D0CC43EFF454085A097E314118598BA"",""assignmentId"":""a0f34ff2-8051-42d3-b453-1f4f061c8644"",""projectId"":""e9cc2542-c7dc-4d8f-b94f-d088ad8989d1""}","https://test12345.live/?part=2&participantId=7D0CC43EFF454085A097E314118598BA&assignmentId=a0f34ff2-8051-42d3-b453-1f4f061c8644&projectId=e9cc2542-c7dc-4d8f-b94f-d088ad8989d1","7D0CC43EFF454085A097E314118598BA-2025-05-16-19-18-27","","null","","images/semantic_sequence/maintaining_a_car_semantic/maintaining_a_car_semantic_0.png","null","",""
"","","","","","html-audio-response","38","1173838","0.0-36.0","7D0CC43EFF454085A097E314118598BA","7D0CC43EFF454085A097E314118598BA","a0f34ff2-8051-42d3-b453-1f4f061c8644","e9cc2542-c7dc-4d8f-b94f-d088ad8989d1","{""part"":""2"",""participantId"":""7D0CC43EFF454085A097E314118598BA"",""assignmentId"":""a0f34ff2-8051-42d3-b453-1f4f061c8644"",""projectId"":""e9cc2542-c7dc-4d8f-b94f-d088ad8989d1""}","https://test12345.live/?part=2&participantId=7D0CC43EFF454085A097E314118598BA&assignmentId=a0f34ff2-8051-42d3-b453-1f4f061c8644&projectId=e9cc2542-c7dc-4d8f-b94f-d088ad8989d1","7D0CC43EFF454085A097E314118598BA-2025-05-16-19-18-27","","27232","","[""<span style=\""color: red; font-size: 24px\""> NOW RECORDING</span><p>Please say out loud all the images you saw in part 1 of the experiment, as many as you can remember. The images can be said in any order.</p>""]","","1","maintaining_a_car_semantic"
"","","","","","image-button-response","39","1179844","0.0-37.0-0.0","7D0CC43EFF454085A097E314118598BA","7D0CC43EFF454085A097E314118598BA","a0f34ff2-8051-42d3-b453-1f4f061c8644","e9cc2542-c7dc-4d8f-b94f-d088ad8989d1","{""part"":""2"",""participantId"":""7D0CC43EFF454085A097E314118598BA"",""assignmentId"":""a0f34ff2-8051-42d3-b453-1f4f061c8644"",""projectId"":""e9cc2542-c7dc-4d8f-b94f-d088ad8989d1""}","https://test12345.live/?part=2&participantId=7D0CC43EFF454085A097E314118598BA&assignmentId=a0f34ff2-8051-42d3-b453-1f4f061c8644&projectId=e9cc2542-c7dc-4d8f-b94f-d088ad8989d1","7D0CC43EFF454085A097E314118598BA-2025-05-16-19-18-27","","null","","images/schematic_sequence/supermarket_scheme/supermarket_scheme_0.png","null","",""
"","","","","","html-audio-response","40","1235920","0.0-38.0","7D0CC43EFF454085A097E314118598BA","7D0CC43EFF454085A097E314118598BA","a0f34ff2-8051-42d3-b453-1f4f061c8644","e9cc2542-c7dc-4d8f-b94f-d088ad8989d1","{""part"":""2"",""participantId"":""7D0CC43EFF454085A097E314118598BA"",""assignmentId"":""a0f34ff2-8051-42d3-b453-1f4f061c8644"",""projectId"":""e9cc2542-c7dc-4d8f-b94f-d088ad8989d1""}","https://test12345.live/?part=2&participantId=7D0CC43EFF454085A097E314118598BA&assignmentId=a0f34ff2-8051-42d3-b453-1f4f061c8644&projectId=e9cc2542-c7dc-4d8f-b94f-d088ad8989d1","7D0CC43EFF454085A097E314118598BA-2025-05-16-19-18-27","","27237","","[""<span style=\""color: red; font-size: 24px\""> NOW RECORDING</span><p>Please say out loud all the images you saw in part 1 of the experiment, as many as you can remember. The images can be said in any order.</p>""]","","2","supermarket_scheme"
"","","","","","image-button-response","41","1241927","0.0-39.0-0.0","7D0CC43EFF454085A097E314118598BA","7D0CC43EFF454085A097E314118598BA","a0f34ff2-8051-42d3-b453-1f4f061c8644","e9cc2542-c7dc-4d8f-b94f-d088ad8989d1","{""part"":""2"",""participantId"":""7D0CC43EFF454085A097E314118598BA"",""assignmentId"":""a0f34ff2-8051-42d3-b453-1f4f061c8644"",""projectId"":""e9cc2542-c7dc-4d8f-b94f-d088ad8989d1""}","https://test12345.live/?part=2&participantId=7D0CC43EFF454085A097E314118598BA&assignmentId=a0f34ff2-8051-42d3-b453-1f4f061c8644&projectId=e9cc2542-c7dc-4d8f-b94f-d088ad8989d1","7D0CC43EFF454085A097E314118598BA-2025-05-16-19-18-27","","null","","images/semantic_sequence/kitchen_operations_semantic/kitchen_operations_semantic_0.png","null","",""
"","","","","","html-audio-response","42","1296491","0.0-40.0","7D0CC43EFF454085A097E314118598BA","7D0CC43EFF454085A097E314118598BA","a0f34ff2-8051-42d3-b453-1f4f061c8644","e9cc2542-c7dc-4d8f-b94f-d088ad8989d1","{""part"":""2"",""participantId"":""7D0CC43EFF454085A097E314118598BA"",""assignmentId"":""a0f34ff2-8051-42d3-b453-1f4f061c8644"",""projectId"":""e9cc2542-c7dc-4d8f-b94f-d088ad8989d1""}","https://test12345.live/?part=2&participantId=7D0CC43EFF454085A097E314118598BA&assignmentId=a0f34ff2-8051-42d3-b453-1f4f061c8644&projectId=e9cc2542-c7dc-4d8f-b94f-d088ad8989d1","7D0CC43EFF454085A097E314118598BA-2025-05-16-19-18-27","","26639","","[""<span style=\""color: red; font-size: 24px\""> NOW RECORDING</span><p>Please say out loud all the images you saw in part 1 of the experiment, as many as you can remember. The images can be said in any order.</p>""]","","1","kitchen_operations_semantic"
"","","","","","image-button-response","43","1302499","0.0-41.0-0.0","7D0CC43EFF454085A097E314118598BA","7D0CC43EFF454085A097E314118598BA","a0f34ff2-8051-42d3-b453-1f4f061c8644","e9cc2542-c7dc-4d8f-b94f-d088ad8989d1","{""part"":""2"",""participantId"":""7D0CC43EFF454085A097E314118598BA"",""assignmentId"":""a0f34ff2-8051-42d3-b453-1f4f061c8644"",""projectId"":""e9cc2542-c7dc-4d8f-b94f-d088ad8989d1""}","https://test12345.live/?part=2&participantId=7D0CC43EFF454085A097E314118598BA&assignmentId=a0f34ff2-8051-42d3-b453-1f4f061c8644&projectId=e9cc2542-c7dc-4d8f-b94f-d088ad8989d1","7D0CC43EFF454085A097E314118598BA-2025-05-16-19-18-27","","null","","images/semantic_sequence/visiting_cities_semantic/visiting_cities_semantic_0.png","null","",""
"","","","","","html-audio-response","44","1359232","0.0-42.0","7D0CC43EFF454085A097E314118598BA","7D0CC43EFF454085A097E314118598BA","a0f34ff2-8051-42d3-b453-1f4f061c8644","e9cc2542-c7dc-4d8f-b94f-d088ad8989d1","{""part"":""2"",""participantId"":""7D0CC43EFF454085A097E314118598BA"",""assignmentId"":""a0f34ff2-8051-42d3-b453-1f4f061c8644"",""projectId"":""e9cc2542-c7dc-4d8f-b94f-d088ad8989d1""}","https://test12345.live/?part=2&participantId=7D0CC43EFF454085A097E314118598BA&assignmentId=a0f34ff2-8051-42d3-b453-1f4f061c8644&projectId=e9cc2542-c7dc-4d8f-b94f-d088ad8989d1","7D0CC43EFF454085A097E314118598BA-2025-05-16-19-18-27","","27678","","[""<span style=\""color: red; font-size: 24px\""> NOW RECORDING</span><p>Please say out loud all the images you saw in part 1 of the experiment, as many as you can remember. The images can be said in any order.</p>""]","","2","visiting_cities_semantic"
"","","","","","image-button-response","45","1365246","0.0-43.0-0.0","7D0CC43EFF454085A097E314118598BA","7D0CC43EFF454085A097E314118598BA","a0f34ff2-8051-42d3-b453-1f4f061c8644","e9cc2542-c7dc-4d8f-b94f-d088ad8989d1","{""part"":""2"",""participantId"":""7D0CC43EFF454085A097E314118598BA"",""assignmentId"":""a0f34ff2-8051-42d3-b453-1f4f061c8644"",""projectId"":""e9cc2542-c7dc-4d8f-b94f-d088ad8989d1""}","https://test12345.live/?part=2&participantId=7D0CC43EFF454085A097E314118598BA&assignmentId=a0f34ff2-8051-42d3-b453-1f4f061c8644&projectId=e9cc2542-c7dc-4d8f-b94f-d088ad8989d1","7D0CC43EFF454085A097E314118598BA-2025-05-16-19-18-27","","null","","images/causal_sequence/coin_causal/coin_causal_0.png","null","",""
"","","","","","html-audio-response","46","1433373","0.0-44.0","7D0CC43EFF454085A097E314118598BA","7D0CC43EFF454085A097E314118598BA","a0f34ff2-8051-42d3-b453-1f4f061c8644","e9cc2542-c7dc-4d8f-b94f-d088ad8989d1","{""part"":""2"",""participantId"":""7D0CC43EFF454085A097E314118598BA"",""assignmentId"":""a0f34ff2-8051-42d3-b453-1f4f061c8644"",""projectId"":""e9cc2542-c7dc-4d8f-b94f-d088ad8989d1""}","https://test12345.live/?part=2&participantId=7D0CC43EFF454085A097E314118598BA&assignmentId=a0f34ff2-8051-42d3-b453-1f4f061c8644&projectId=e9cc2542-c7dc-4d8f-b94f-d088ad8989d1","7D0CC43EFF454085A097E314118598BA-2025-05-16-19-18-27","","33123","","[""<span style=\""color: red; font-size: 24px\""> NOW RECORDING</span><p>Please say out loud all the images you saw in part 1 of the experiment, as many as you can remember. The images can be said in any order.</p>""]","","1","coin_causal"
"","","","","","image-button-response","47","1439380","0.0-45.0-0.0","7D0CC43EFF454085A097E314118598BA","7D0CC43EFF454085A097E314118598BA","a0f34ff2-8051-42d3-b453-1f4f061c8644","e9cc2542-c7dc-4d8f-b94f-d088ad8989d1","{""part"":""2"",""participantId"":""7D0CC43EFF454085A097E314118598BA"",""assignmentId"":""a0f34ff2-8051-42d3-b453-1f4f061c8644"",""projectId"":""e9cc2542-c7dc-4d8f-b94f-d088ad8989d1""}","https://test12345.live/?part=2&participantId=7D0CC43EFF454085A097E314118598BA&assignmentId=a0f34ff2-8051-42d3-b453-1f4f061c8644&projectId=e9cc2542-c7dc-4d8f-b94f-d088ad8989d1","7D0CC43EFF454085A097E314118598BA-2025-05-16-19-18-27","","null","","images/semantic_sequence/market_semantic/market_semantic_0.png","null","",""
"","","","","","html-audio-response","48","1516078","0.0-46.0","7D0CC43EFF454085A097E314118598BA","7D0CC43EFF454085A097E314118598BA","a0f34ff2-8051-42d3-b453-1f4f061c8644","e9cc2542-c7dc-4d8f-b94f-d088ad8989d1","{""part"":""2"",""participantId"":""7D0CC43EFF454085A097E314118598BA"",""assignmentId"":""a0f34ff2-8051-42d3-b453-1f4f061c8644"",""projectId"":""e9cc2542-c7dc-4d8f-b94f-d088ad8989d1""}","https://test12345.live/?part=2&participantId=7D0CC43EFF454085A097E314118598BA&assignmentId=a0f34ff2-8051-42d3-b453-1f4f061c8644&projectId=e9cc2542-c7dc-4d8f-b94f-d088ad8989d1","7D0CC43EFF454085A097E314118598BA-2025-05-16-19-18-27","","37717","","[""<span style=\""color: red; font-size: 24px\""> NOW RECORDING</span><p>Please say out loud all the images you saw in part 1 of the experiment, as many as you can remember. The images can be said in any order.</p>""]","","2","market_semantic"
"","","","","","image-button-response","49","1522088","0.0-47.0-0.0","7D0CC43EFF454085A097E314118598BA","7D0CC43EFF454085A097E314118598BA","a0f34ff2-8051-42d3-b453-1f4f061c8644","e9cc2542-c7dc-4d8f-b94f-d088ad8989d1","{""part"":""2"",""participantId"":""7D0CC43EFF454085A097E314118598BA"",""assignmentId"":""a0f34ff2-8051-42d3-b453-1f4f061c8644"",""projectId"":""e9cc2542-c7dc-4d8f-b94f-d088ad8989d1""}","https://test12345.live/?part=2&participantId=7D0CC43EFF454085A097E314118598BA&assignmentId=a0f34ff2-8051-42d3-b453-1f4f061c8644&projectId=e9cc2542-c7dc-4d8f-b94f-d088ad8989d1","7D0CC43EFF454085A097E314118598BA-2025-05-16-19-18-27","","null","","images/causal_sequence/the_performance_causal/the_performance_causal_0.png","null","",""
"","","","","","html-audio-response","50","1601029","0.0-48.0","7D0CC43EFF454085A097E314118598BA","7D0CC43EFF454085A097E314118598BA","a0f34ff2-8051-42d3-b453-1f4f061c8644","e9cc2542-c7dc-4d8f-b94f-d088ad8989d1","{""part"":""2"",""participantId"":""7D0CC43EFF454085A097E314118598BA"",""assignmentId"":""a0f34ff2-8051-42d3-b453-1f4f061c8644"",""projectId"":""e9cc2542-c7dc-4d8f-b94f-d088ad8989d1""}","https://test12345.live/?part=2&participantId=7D0CC43EFF454085A097E314118598BA&assignmentId=a0f34ff2-8051-42d3-b453-1f4f061c8644&projectId=e9cc2542-c7dc-4d8f-b94f-d088ad8989d1","7D0CC43EFF454085A097E314118598BA-2025-05-16-19-18-27","","38790","","[""<span style=\""color: red; font-size: 24px\""> NOW RECORDING</span><p>Please say out loud all the images you saw in part 1 of the experiment, as many as you can remember. The images can be said in any order.</p>""]","","2","the_performance_causal"
"","","","","","image-button-response","51","1607036","0.0-49.0-0.0","7D0CC43EFF454085A097E314118598BA","7D0CC43EFF454085A097E314118598BA","a0f34ff2-8051-42d3-b453-1f4f061c8644","e9cc2542-c7dc-4d8f-b94f-d088ad8989d1","{""part"":""2"",""participantId"":""7D0CC43EFF454085A097E314118598BA"",""assignmentId"":""a0f34ff2-8051-42d3-b453-1f4f061c8644"",""projectId"":""e9cc2542-c7dc-4d8f-b94f-d088ad8989d1""}","https://test12345.live/?part=2&participantId=7D0CC43EFF454085A097E314118598BA&assignmentId=a0f34ff2-8051-42d3-b453-1f4f061c8644&projectId=e9cc2542-c7dc-4d8f-b94f-d088ad8989d1","7D0CC43EFF454085A097E314118598BA-2025-05-16-19-18-27","","null","","images/semantic_sequence/redecorating_semantic/redecorating_semantic_0.png","null","",""
"","","","","","html-audio-response","52","1672504","0.0-50.0","7D0CC43EFF454085A097E314118598BA","7D0CC43EFF454085A097E314118598BA","a0f34ff2-8051-42d3-b453-1f4f061c8644","e9cc2542-c7dc-4d8f-b94f-d088ad8989d1","{""part"":""2"",""participantId"":""7D0CC43EFF454085A097E314118598BA"",""assignmentId"":""a0f34ff2-8051-42d3-b453-1f4f061c8644"",""projectId"":""e9cc2542-c7dc-4d8f-b94f-d088ad8989d1""}","https://test12345.live/?part=2&participantId=7D0CC43EFF454085A097E314118598BA&assignmentId=a0f34ff2-8051-42d3-b453-1f4f061c8644&projectId=e9cc2542-c7dc-4d8f-b94f-d088ad8989d1","7D0CC43EFF454085A097E314118598BA-2025-05-16-19-18-27","","31882","","[""<span style=\""color: red; font-size: 24px\""> NOW RECORDING</span><p>Please say out loud all the images you saw in part 1 of the experiment, as many as you can remember. The images can be said in any order.</p>""]","","1","redecorating_semantic"
"","","","","","image-button-response","53","1678509","0.0-51.0-0.0","7D0CC43EFF454085A097E314118598BA","7D0CC43EFF454085A097E314118598BA","a0f34ff2-8051-42d3-b453-1f4f061c8644","e9cc2542-c7dc-4d8f-b94f-d088ad8989d1","{""part"":""2"",""participantId"":""7D0CC43EFF454085A097E314118598BA"",""assignmentId"":""a0f34ff2-8051-42d3-b453-1f4f061c8644"",""projectId"":""e9cc2542-c7dc-4d8f-b94f-d088ad8989d1""}","https://test12345.live/?part=2&participantId=7D0CC43EFF454085A097E314118598BA&assignmentId=a0f34ff2-8051-42d3-b453-1f4f061c8644&projectId=e9cc2542-c7dc-4d8f-b94f-d088ad8989d1","7D0CC43EFF454085A097E314118598BA-2025-05-16-19-18-27","","null","","images/schematic_sequence/interview_scheme/interview_scheme_0.png","null","",""
"","","","","","html-audio-response","54","1756364","0.0-52.0","7D0CC43EFF454085A097E314118598BA","7D0CC43EFF454085A097E314118598BA","a0f34ff2-8051-42d3-b453-1f4f061c8644","e9cc2542-c7dc-4d8f-b94f-d088ad8989d1","{""part"":""2"",""participantId"":""7D0CC43EFF454085A097E314118598BA"",""assignmentId"":""a0f34ff2-8051-42d3-b453-1f4f061c8644"",""projectId"":""e9cc2542-c7dc-4d8f-b94f-d088ad8989d1""}","https://test12345.live/?part=2&participantId=7D0CC43EFF454085A097E314118598BA&assignmentId=a0f34ff2-8051-42d3-b453-1f4f061c8644&projectId=e9cc2542-c7dc-4d8f-b94f-d088ad8989d1","7D0CC43EFF454085A097E314118598BA-2025-05-16-19-18-27","","38423","","[""<span style=\""color: red; font-size: 24px\""> NOW RECORDING</span><p>Please say out loud all the images you saw in part 1 of the experiment, as many as you can remember. The images can be said in any order.</p>""]","","1","interview_scheme"
"","","","","","image-button-response","55","1762372","0.0-53.0-0.0","7D0CC43EFF454085A097E314118598BA","7D0CC43EFF454085A097E314118598BA","a0f34ff2-8051-42d3-b453-1f4f061c8644","e9cc2542-c7dc-4d8f-b94f-d088ad8989d1","{""part"":""2"",""participantId"":""7D0CC43EFF454085A097E314118598BA"",""assignmentId"":""a0f34ff2-8051-42d3-b453-1f4f061c8644"",""projectId"":""e9cc2542-c7dc-4d8f-b94f-d088ad8989d1""}","https://test12345.live/?part=2&participantId=7D0CC43EFF454085A097E314118598BA&assignmentId=a0f34ff2-8051-42d3-b453-1f4f061c8644&projectId=e9cc2542-c7dc-4d8f-b94f-d088ad8989d1","7D0CC43EFF454085A097E314118598BA-2025-05-16-19-18-27","","null","","images/schematic_sequence/dinner_party_scheme/dinner_party_scheme_0.png","null","",""
"","","","","","html-audio-response","56","1825112","0.0-54.0","7D0CC43EFF454085A097E314118598BA","7D0CC43EFF454085A097E314118598BA","a0f34ff2-8051-42d3-b453-1f4f061c8644","e9cc2542-c7dc-4d8f-b94f-d088ad8989d1","{""part"":""2"",""participantId"":""7D0CC43EFF454085A097E314118598BA"",""assignmentId"":""a0f34ff2-8051-42d3-b453-1f4f061c8644"",""projectId"":""e9cc2542-c7dc-4d8f-b94f-d088ad8989d1""}","https://test12345.live/?part=2&participantId=7D0CC43EFF454085A097E314118598BA&assignmentId=a0f34ff2-8051-42d3-b453-1f4f061c8644&projectId=e9cc2542-c7dc-4d8f-b94f-d088ad8989d1","7D0CC43EFF454085A097E314118598BA-2025-05-16-19-18-27","","30754","","[""<span style=\""color: red; font-size: 24px\""> NOW RECORDING</span><p>Please say out loud all the images you saw in part 1 of the experiment, as many as you can remember. The images can be said in any order.</p>""]","","2","dinner_party_scheme"
"","","","","","image-button-response","57","1831119","0.0-55.0-0.0","7D0CC43EFF454085A097E314118598BA","7D0CC43EFF454085A097E314118598BA","a0f34ff2-8051-42d3-b453-1f4f061c8644","e9cc2542-c7dc-4d8f-b94f-d088ad8989d1","{""part"":""2"",""participantId"":""7D0CC43EFF454085A097E314118598BA"",""assignmentId"":""a0f34ff2-8051-42d3-b453-1f4f061c8644"",""projectId"":""e9cc2542-c7dc-4d8f-b94f-d088ad8989d1""}","https://test12345.live/?part=2&participantId=7D0CC43EFF454085A097E314118598BA&assignmentId=a0f34ff2-8051-42d3-b453-1f4f061c8644&projectId=e9cc2542-c7dc-4d8f-b94f-d088ad8989d1","7D0CC43EFF454085A097E314118598BA-2025-05-16-19-18-27","","null","","images/causal_sequence/dog_causal/dog_causal_0.png","null","",""
"","","","","","html-audio-response","58","1915426","0.0-56.0","7D0CC43EFF454085A097E314118598BA","7D0CC43EFF454085A097E314118598BA","a0f34ff2-8051-42d3-b453-1f4f061c8644","e9cc2542-c7dc-4d8f-b94f-d088ad8989d1","{""part"":""2"",""participantId"":""7D0CC43EFF454085A097E314118598BA"",""assignmentId"":""a0f34ff2-8051-42d3-b453-1f4f061c8644"",""projectId"":""e9cc2542-c7dc-4d8f-b94f-d088ad8989d1""}","https://test12345.live/?part=2&participantId=7D0CC43EFF454085A097E314118598BA&assignmentId=a0f34ff2-8051-42d3-b453-1f4f061c8644&projectId=e9cc2542-c7dc-4d8f-b94f-d088ad8989d1","7D0CC43EFF454085A097E314118598BA-2025-05-16-19-18-27","","41114","","[""<span style=\""color: red; font-size: 24px\""> NOW RECORDING</span><p>Please say out loud all the images you saw in part 1 of the experiment, as many as you can remember. The images can be said in any order.</p>""]","","1","dog_causal"
"","","","","","survey-text","59","1920180","0.0-57.0","7D0CC43EFF454085A097E314118598BA","7D0CC43EFF454085A097E314118598BA","a0f34ff2-8051-42d3-b453-1f4f061c8644","e9cc2542-c7dc-4d8f-b94f-d088ad8989d1","{""part"":""2"",""participantId"":""7D0CC43EFF454085A097E314118598BA"",""assignmentId"":""a0f34ff2-8051-42d3-b453-1f4f061c8644"",""projectId"":""e9cc2542-c7dc-4d8f-b94f-d088ad8989d1""}","https://test12345.live/?part=2&participantId=7D0CC43EFF454085A097E314118598BA&assignmentId=a0f34ff2-8051-42d3-b453-1f4f061c8644&projectId=e9cc2542-c7dc-4d8f-b94f-d088ad8989d1","7D0CC43EFF454085A097E314118598BA-2025-05-16-19-18-27","","4748","","","{""Q0"":""MALE"",""Q1"":""34""}","",""
"","","","","","instructions","60","1940899","0.0-58.0","7D0CC43EFF454085A097E314118598BA","7D0CC43EFF454085A097E314118598BA","a0f34ff2-8051-42d3-b453-1f4f061c8644","e9cc2542-c7dc-4d8f-b94f-d088ad8989d1","{""part"":""2"",""participantId"":""7D0CC43EFF454085A097E314118598BA"",""assignmentId"":""a0f34ff2-8051-42d3-b453-1f4f061c8644"",""projectId"":""e9cc2542-c7dc-4d8f-b94f-d088ad8989d1""}","https://test12345.live/?part=2&participantId=7D0CC43EFF454085A097E314118598BA&assignmentId=a0f34ff2-8051-42d3-b453-1f4f061c8644&projectId=e9cc2542-c7dc-4d8f-b94f-d088ad8989d1","7D0CC43EFF454085A097E314118598BA-2025-05-16-19-18-27","[{""page_index"":0,""viewing_time"":20718}]","20718","","","","",""
"","","","","","survey-text","61","1942989","0.0-59.0","7D0CC43EFF454085A097E314118598BA","7D0CC43EFF454085A097E314118598BA","a0f34ff2-8051-42d3-b453-1f4f061c8644","e9cc2542-c7dc-4d8f-b94f-d088ad8989d1","{""part"":""2"",""participantId"":""7D0CC43EFF454085A097E314118598BA"",""assignmentId"":""a0f34ff2-8051-42d3-b453-1f4f061c8644"",""projectId"":""e9cc2542-c7dc-4d8f-b94f-d088ad8989d1""}","https://test12345.live/?part=2&participantId=7D0CC43EFF454085A097E314118598BA&assignmentId=a0f34ff2-8051-42d3-b453-1f4f061c8644&projectId=e9cc2542-c7dc-4d8f-b94f-d088ad8989d1","7D0CC43EFF454085A097E314118598BA-2025-05-16-19-18-27","","2089","","","{""Q0"":""AJFHBG896""}","",""
