"success","timeout","failed_images","failed_audio","failed_video","trial_type","trial_index","time_elapsed","internal_node_id","subject","subject_id","study_id","session_id","urlvar","current_url","audio_id","view_history","rt","device_id","stimulus","response","estimated_stimulus_onset","seq_name"
"true","false","[]","[]","[]","preload","0","2980","0.0-0.0","85EE103965C74C56A466C4C7FE4F1AD6","85EE103965C74C56A466C4C7FE4F1AD6","0198bf01-3e60-7c0e-a5de-ec656b0e8b68","0198beef-981a-7243-9790-051e10551090","{""num_scrambled_semantic"":""8"",""num_scrambled_causal"":""4"",""num_scrambled_schematic"":""4"",""participantId"":""85EE103965C74C56A466C4C7FE4F1AD6"",""assignmentId"":""0198bf01-3e60-7c0e-a5de-ec656b0e8b68"",""projectId"":""0198beef-981a-7243-9790-051e10551090""}","https://test12345.live/?num_scrambled_semantic=8&num_scrambled_causal=4&num_scrambled_schematic=4&participantId=85EE103965C74C56A466C4C7FE4F1AD6&assignmentId=0198bf01-3e60-7c0e-a5de-ec656b0e8b68&projectId=0198beef-981a-7243-9790-051e10551090","85EE103965C74C56A466C4C7FE4F1AD6-2025-08-18-21-17-42","","","","","","",""
"","","","","","instructions","1","8837","0.0-1.0","85EE103965C74C56A466C4C7FE4F1AD6","85EE103965C74C56A466C4C7FE4F1AD6","0198bf01-3e60-7c0e-a5de-ec656b0e8b68","0198beef-981a-7243-9790-051e10551090","{""num_scrambled_semantic"":""8"",""num_scrambled_causal"":""4"",""num_scrambled_schematic"":""4"",""participantId"":""85EE103965C74C56A466C4C7FE4F1AD6"",""assignmentId"":""0198bf01-3e60-7c0e-a5de-ec656b0e8b68"",""projectId"":""0198beef-981a-7243-9790-051e10551090""}","https://test12345.live/?num_scrambled_semantic=8&num_scrambled_causal=4&num_scrambled_schematic=4&participantId=85EE103965C74C56A466C4C7FE4F1AD6&assignmentId=0198bf01-3e60-7c0e-a5de-ec656b0e8b68&projectId=0198beef-981a-7243-9790-051e10551090","85EE103965C74C56A466C4C7FE4F1AD6-2025-08-18-21-17-42","[{""page_index"":0,""viewing_time"":5857}]","5857","","","","",""
"","","","","","instructions","2","11022","0.0-2.0","85EE103965C74C56A466C4C7FE4F1AD6","85EE103965C74C56A466C4C7FE4F1AD6","0198bf01-3e60-7c0e-a5de-ec656b0e8b68","0198beef-981a-7243-9790-051e10551090","{""num_scrambled_semantic"":""8"",""num_scrambled_causal"":""4"",""num_scrambled_schematic"":""4"",""participantId"":""85EE103965C74C56A466C4C7FE4F1AD6"",""assignmentId"":""0198bf01-3e60-7c0e-a5de-ec656b0e8b68"",""projectId"":""0198beef-981a-7243-9790-051e10551090""}","https://test12345.live/?num_scrambled_semantic=8&num_scrambled_causal=4&num_scrambled_schematic=4&participantId=85EE103965C74C56A466C4C7FE4F1AD6&assignmentId=0198bf01-3e60-7c0e-a5de-ec656b0e8b68&projectId=0198beef-981a-7243-9790-051e10551090","85EE103965C74C56A466C4C7FE4F1AD6-2025-08-18-21-17-42","[{""page_index"":0,""viewing_time"":2184}]","2185","","","","",""
"true","","","","","fullscreen","3","13275","0.0-3.0","85EE103965C74C56A466C4C7FE4F1AD6","85EE103965C74C56A466C4C7FE4F1AD6","0198bf01-3e60-7c0e-a5de-ec656b0e8b68","0198beef-981a-7243-9790-051e10551090","{""num_scrambled_semantic"":""8"",""num_scrambled_causal"":""4"",""num_scrambled_schematic"":""4"",""participantId"":""85EE103965C74C56A466C4C7FE4F1AD6"",""assignmentId"":""0198bf01-3e60-7c0e-a5de-ec656b0e8b68"",""projectId"":""0198beef-981a-7243-9790-051e10551090""}","https://test12345.live/?num_scrambled_semantic=8&num_scrambled_causal=4&num_scrambled_schematic=4&participantId=85EE103965C74C56A466C4C7FE4F1AD6&assignmentId=0198bf01-3e60-7c0e-a5de-ec656b0e8b68&projectId=0198beef-981a-7243-9790-051e10551090","85EE103965C74C56A466C4C7FE4F1AD6-2025-08-18-21-17-42","","1248","","","","",""
"","","","","","initialize-microphone","4","15501","0.0-4.0-0.0","85EE103965C74C56A466C4C7FE4F1AD6","85EE103965C74C56A466C4C7FE4F1AD6","0198bf01-3e60-7c0e-a5de-ec656b0e8b68","0198beef-981a-7243-9790-051e10551090","{""num_scrambled_semantic"":""8"",""num_scrambled_causal"":""4"",""num_scrambled_schematic"":""4"",""participantId"":""85EE103965C74C56A466C4C7FE4F1AD6"",""assignmentId"":""0198bf01-3e60-7c0e-a5de-ec656b0e8b68"",""projectId"":""0198beef-981a-7243-9790-051e10551090""}","https://test12345.live/?num_scrambled_semantic=8&num_scrambled_causal=4&num_scrambled_schematic=4&participantId=85EE103965C74C56A466C4C7FE4F1AD6&assignmentId=0198bf01-3e60-7c0e-a5de-ec656b0e8b68&projectId=0198beef-981a-7243-9790-051e10551090","85EE103965C74C56A466C4C7FE4F1AD6-2025-08-18-21-17-42","","","42b1e9c2fef4cc00070455a06a070f511d2b50464a61b9e2803134b55775930f","","","",""
"","","","","","html-audio-response","5","21808","0.0-4.0-1.0","85EE103965C74C56A466C4C7FE4F1AD6","85EE103965C74C56A466C4C7FE4F1AD6","0198bf01-3e60-7c0e-a5de-ec656b0e8b68","0198beef-981a-7243-9790-051e10551090","{""num_scrambled_semantic"":""8"",""num_scrambled_causal"":""4"",""num_scrambled_schematic"":""4"",""participantId"":""85EE103965C74C56A466C4C7FE4F1AD6"",""assignmentId"":""0198bf01-3e60-7c0e-a5de-ec656b0e8b68"",""projectId"":""0198beef-981a-7243-9790-051e10551090""}","https://test12345.live/?num_scrambled_semantic=8&num_scrambled_causal=4&num_scrambled_schematic=4&participantId=85EE103965C74C56A466C4C7FE4F1AD6&assignmentId=0198bf01-3e60-7c0e-a5de-ec656b0e8b68&projectId=0198beef-981a-7243-9790-051e10551090","85EE103965C74C56A466C4C7FE4F1AD6-2025-08-18-21-17-42","","2722","","<span style=""color: red; font-size: 24px""> NOW RECORDING</span>
        <p>Please test Microphone</p>","","1",""
"","","","","","html-button-response","6","22989","0.0-4.0-2.0","85EE103965C74C56A466C4C7FE4F1AD6","85EE103965C74C56A466C4C7FE4F1AD6","0198bf01-3e60-7c0e-a5de-ec656b0e8b68","0198beef-981a-7243-9790-051e10551090","{""num_scrambled_semantic"":""8"",""num_scrambled_causal"":""4"",""num_scrambled_schematic"":""4"",""participantId"":""85EE103965C74C56A466C4C7FE4F1AD6"",""assignmentId"":""0198bf01-3e60-7c0e-a5de-ec656b0e8b68"",""projectId"":""0198beef-981a-7243-9790-051e10551090""}","https://test12345.live/?num_scrambled_semantic=8&num_scrambled_causal=4&num_scrambled_schematic=4&participantId=85EE103965C74C56A466C4C7FE4F1AD6&assignmentId=0198bf01-3e60-7c0e-a5de-ec656b0e8b68&projectId=0198beef-981a-7243-9790-051e10551090","85EE103965C74C56A466C4C7FE4F1AD6-2025-08-18-21-17-42","","1179","","<p style=""font-size:48px; color:red;"">Is Microphone OK?</p>","1","",""
"","","","","","instructions","7","32971","0.0-5.0","85EE103965C74C56A466C4C7FE4F1AD6","85EE103965C74C56A466C4C7FE4F1AD6","0198bf01-3e60-7c0e-a5de-ec656b0e8b68","0198beef-981a-7243-9790-051e10551090","{""num_scrambled_semantic"":""8"",""num_scrambled_causal"":""4"",""num_scrambled_schematic"":""4"",""participantId"":""85EE103965C74C56A466C4C7FE4F1AD6"",""assignmentId"":""0198bf01-3e60-7c0e-a5de-ec656b0e8b68"",""projectId"":""0198beef-981a-7243-9790-051e10551090""}","https://test12345.live/?num_scrambled_semantic=8&num_scrambled_causal=4&num_scrambled_schematic=4&participantId=85EE103965C74C56A466C4C7FE4F1AD6&assignmentId=0198bf01-3e60-7c0e-a5de-ec656b0e8b68&projectId=0198beef-981a-7243-9790-051e10551090","85EE103965C74C56A466C4C7FE4F1AD6-2025-08-18-21-17-42","[{""page_index"":0,""viewing_time"":814},{""page_index"":1,""viewing_time"":4734},{""page_index"":2,""viewing_time"":4433}]","9981","","","","",""
"","","","","","image-button-response","8","38978","0.0-6.0-0.0","85EE103965C74C56A466C4C7FE4F1AD6","85EE103965C74C56A466C4C7FE4F1AD6","0198bf01-3e60-7c0e-a5de-ec656b0e8b68","0198beef-981a-7243-9790-051e10551090","{""num_scrambled_semantic"":""8"",""num_scrambled_causal"":""4"",""num_scrambled_schematic"":""4"",""participantId"":""85EE103965C74C56A466C4C7FE4F1AD6"",""assignmentId"":""0198bf01-3e60-7c0e-a5de-ec656b0e8b68"",""projectId"":""0198beef-981a-7243-9790-051e10551090""}","https://test12345.live/?num_scrambled_semantic=8&num_scrambled_causal=4&num_scrambled_schematic=4&participantId=85EE103965C74C56A466C4C7FE4F1AD6&assignmentId=0198bf01-3e60-7c0e-a5de-ec656b0e8b68&projectId=0198beef-981a-7243-9790-051e10551090","85EE103965C74C56A466C4C7FE4F1AD6-2025-08-18-21-17-42","","null","","images/instructions/movie_0.png","null","",""
"","","","","","html-audio-response","9","57223","0.0-7.0","85EE103965C74C56A466C4C7FE4F1AD6","85EE103965C74C56A466C4C7FE4F1AD6","0198bf01-3e60-7c0e-a5de-ec656b0e8b68","0198beef-981a-7243-9790-051e10551090","{""num_scrambled_semantic"":""8"",""num_scrambled_causal"":""4"",""num_scrambled_schematic"":""4"",""participantId"":""85EE103965C74C56A466C4C7FE4F1AD6"",""assignmentId"":""0198bf01-3e60-7c0e-a5de-ec656b0e8b68"",""projectId"":""0198beef-981a-7243-9790-051e10551090""}","https://test12345.live/?num_scrambled_semantic=8&num_scrambled_causal=4&num_scrambled_schematic=4&participantId=85EE103965C74C56A466C4C7FE4F1AD6&assignmentId=0198bf01-3e60-7c0e-a5de-ec656b0e8b68&projectId=0198beef-981a-7243-9790-051e10551090","85EE103965C74C56A466C4C7FE4F1AD6-2025-08-18-21-17-42","","16439","","[""<span style=\""color: red; font-size: 24px\""> NOW RECORDING</span><p>Please say out loud all the images you saw in part 1 of the experiment, as many as you can remember. The images can be said in any order.</p>""]","","2",""
"","","","","","instructions","10","58355","0.0-8.0","85EE103965C74C56A466C4C7FE4F1AD6","85EE103965C74C56A466C4C7FE4F1AD6","0198bf01-3e60-7c0e-a5de-ec656b0e8b68","0198beef-981a-7243-9790-051e10551090","{""num_scrambled_semantic"":""8"",""num_scrambled_causal"":""4"",""num_scrambled_schematic"":""4"",""participantId"":""85EE103965C74C56A466C4C7FE4F1AD6"",""assignmentId"":""0198bf01-3e60-7c0e-a5de-ec656b0e8b68"",""projectId"":""0198beef-981a-7243-9790-051e10551090""}","https://test12345.live/?num_scrambled_semantic=8&num_scrambled_causal=4&num_scrambled_schematic=4&participantId=85EE103965C74C56A466C4C7FE4F1AD6&assignmentId=0198bf01-3e60-7c0e-a5de-ec656b0e8b68&projectId=0198beef-981a-7243-9790-051e10551090","85EE103965C74C56A466C4C7FE4F1AD6-2025-08-18-21-17-42","[{""page_index"":0,""viewing_time"":1128}]","1128","","","","",""
"","","","","","image-button-response","11","64362","0.0-9.0-0.0","85EE103965C74C56A466C4C7FE4F1AD6","85EE103965C74C56A466C4C7FE4F1AD6","0198bf01-3e60-7c0e-a5de-ec656b0e8b68","0198beef-981a-7243-9790-051e10551090","{""num_scrambled_semantic"":""8"",""num_scrambled_causal"":""4"",""num_scrambled_schematic"":""4"",""participantId"":""85EE103965C74C56A466C4C7FE4F1AD6"",""assignmentId"":""0198bf01-3e60-7c0e-a5de-ec656b0e8b68"",""projectId"":""0198beef-981a-7243-9790-051e10551090""}","https://test12345.live/?num_scrambled_semantic=8&num_scrambled_causal=4&num_scrambled_schematic=4&participantId=85EE103965C74C56A466C4C7FE4F1AD6&assignmentId=0198bf01-3e60-7c0e-a5de-ec656b0e8b68&projectId=0198beef-981a-7243-9790-051e10551090","85EE103965C74C56A466C4C7FE4F1AD6-2025-08-18-21-17-42","","null","","images/semantic_sequence/redecorating_semantic/redecorating_semantic_0.png","null","",""
"","","","","","html-audio-response","12","97306","0.0-10.0","85EE103965C74C56A466C4C7FE4F1AD6","85EE103965C74C56A466C4C7FE4F1AD6","0198bf01-3e60-7c0e-a5de-ec656b0e8b68","0198beef-981a-7243-9790-051e10551090","{""num_scrambled_semantic"":""8"",""num_scrambled_causal"":""4"",""num_scrambled_schematic"":""4"",""participantId"":""85EE103965C74C56A466C4C7FE4F1AD6"",""assignmentId"":""0198bf01-3e60-7c0e-a5de-ec656b0e8b68"",""projectId"":""0198beef-981a-7243-9790-051e10551090""}","https://test12345.live/?num_scrambled_semantic=8&num_scrambled_causal=4&num_scrambled_schematic=4&participantId=85EE103965C74C56A466C4C7FE4F1AD6&assignmentId=0198bf01-3e60-7c0e-a5de-ec656b0e8b68&projectId=0198beef-981a-7243-9790-051e10551090","85EE103965C74C56A466C4C7FE4F1AD6-2025-08-18-21-17-42","","30897","","[""<span style=\""color: red; font-size: 24px\""> NOW RECORDING</span><p>Please say out loud all the images you saw in part 1 of the experiment, as many as you can remember. The images can be said in any order.</p>""]","","2","redecorating_semantic"
"","","","","","image-button-response","13","103317","0.0-11.0-0.0","85EE103965C74C56A466C4C7FE4F1AD6","85EE103965C74C56A466C4C7FE4F1AD6","0198bf01-3e60-7c0e-a5de-ec656b0e8b68","0198beef-981a-7243-9790-051e10551090","{""num_scrambled_semantic"":""8"",""num_scrambled_causal"":""4"",""num_scrambled_schematic"":""4"",""participantId"":""85EE103965C74C56A466C4C7FE4F1AD6"",""assignmentId"":""0198bf01-3e60-7c0e-a5de-ec656b0e8b68"",""projectId"":""0198beef-981a-7243-9790-051e10551090""}","https://test12345.live/?num_scrambled_semantic=8&num_scrambled_causal=4&num_scrambled_schematic=4&participantId=85EE103965C74C56A466C4C7FE4F1AD6&assignmentId=0198bf01-3e60-7c0e-a5de-ec656b0e8b68&projectId=0198beef-981a-7243-9790-051e10551090","85EE103965C74C56A466C4C7FE4F1AD6-2025-08-18-21-17-42","","null","","images/causal_sequence/saving_a_cat_causal/saving_a_cat_causal_0.png","null","",""
"","","","","","html-audio-response","14","140689","0.0-12.0","85EE103965C74C56A466C4C7FE4F1AD6","85EE103965C74C56A466C4C7FE4F1AD6","0198bf01-3e60-7c0e-a5de-ec656b0e8b68","0198beef-981a-7243-9790-051e10551090","{""num_scrambled_semantic"":""8"",""num_scrambled_causal"":""4"",""num_scrambled_schematic"":""4"",""participantId"":""85EE103965C74C56A466C4C7FE4F1AD6"",""assignmentId"":""0198bf01-3e60-7c0e-a5de-ec656b0e8b68"",""projectId"":""0198beef-981a-7243-9790-051e10551090""}","https://test12345.live/?num_scrambled_semantic=8&num_scrambled_causal=4&num_scrambled_schematic=4&participantId=85EE103965C74C56A466C4C7FE4F1AD6&assignmentId=0198bf01-3e60-7c0e-a5de-ec656b0e8b68&projectId=0198beef-981a-7243-9790-051e10551090","85EE103965C74C56A466C4C7FE4F1AD6-2025-08-18-21-17-42","","35363","","[""<span style=\""color: red; font-size: 24px\""> NOW RECORDING</span><p>Please say out loud all the images you saw in part 1 of the experiment, as many as you can remember. The images can be said in any order.</p>""]","","4","saving_a_cat_causal"
"","","","","","image-button-response","15","146698","0.0-13.0-0.0","85EE103965C74C56A466C4C7FE4F1AD6","85EE103965C74C56A466C4C7FE4F1AD6","0198bf01-3e60-7c0e-a5de-ec656b0e8b68","0198beef-981a-7243-9790-051e10551090","{""num_scrambled_semantic"":""8"",""num_scrambled_causal"":""4"",""num_scrambled_schematic"":""4"",""participantId"":""85EE103965C74C56A466C4C7FE4F1AD6"",""assignmentId"":""0198bf01-3e60-7c0e-a5de-ec656b0e8b68"",""projectId"":""0198beef-981a-7243-9790-051e10551090""}","https://test12345.live/?num_scrambled_semantic=8&num_scrambled_causal=4&num_scrambled_schematic=4&participantId=85EE103965C74C56A466C4C7FE4F1AD6&assignmentId=0198bf01-3e60-7c0e-a5de-ec656b0e8b68&projectId=0198beef-981a-7243-9790-051e10551090","85EE103965C74C56A466C4C7FE4F1AD6-2025-08-18-21-17-42","","null","","images/causal_sequence/coin_causal/coin_causal_0.png","null","",""
"","","","","","html-audio-response","16","191038","0.0-14.0","85EE103965C74C56A466C4C7FE4F1AD6","85EE103965C74C56A466C4C7FE4F1AD6","0198bf01-3e60-7c0e-a5de-ec656b0e8b68","0198beef-981a-7243-9790-051e10551090","{""num_scrambled_semantic"":""8"",""num_scrambled_causal"":""4"",""num_scrambled_schematic"":""4"",""participantId"":""85EE103965C74C56A466C4C7FE4F1AD6"",""assignmentId"":""0198bf01-3e60-7c0e-a5de-ec656b0e8b68"",""projectId"":""0198beef-981a-7243-9790-051e10551090""}","https://test12345.live/?num_scrambled_semantic=8&num_scrambled_causal=4&num_scrambled_schematic=4&participantId=85EE103965C74C56A466C4C7FE4F1AD6&assignmentId=0198bf01-3e60-7c0e-a5de-ec656b0e8b68&projectId=0198beef-981a-7243-9790-051e10551090","85EE103965C74C56A466C4C7FE4F1AD6-2025-08-18-21-17-42","","42830","","[""<span style=\""color: red; font-size: 24px\""> NOW RECORDING</span><p>Please say out loud all the images you saw in part 1 of the experiment, as many as you can remember. The images can be said in any order.</p>""]","","6","coin_causal"
"","","","","","image-button-response","17","197051","0.0-15.0-0.0","85EE103965C74C56A466C4C7FE4F1AD6","85EE103965C74C56A466C4C7FE4F1AD6","0198bf01-3e60-7c0e-a5de-ec656b0e8b68","0198beef-981a-7243-9790-051e10551090","{""num_scrambled_semantic"":""8"",""num_scrambled_causal"":""4"",""num_scrambled_schematic"":""4"",""participantId"":""85EE103965C74C56A466C4C7FE4F1AD6"",""assignmentId"":""0198bf01-3e60-7c0e-a5de-ec656b0e8b68"",""projectId"":""0198beef-981a-7243-9790-051e10551090""}","https://test12345.live/?num_scrambled_semantic=8&num_scrambled_causal=4&num_scrambled_schematic=4&participantId=85EE103965C74C56A466C4C7FE4F1AD6&assignmentId=0198bf01-3e60-7c0e-a5de-ec656b0e8b68&projectId=0198beef-981a-7243-9790-051e10551090","85EE103965C74C56A466C4C7FE4F1AD6-2025-08-18-21-17-42","","null","","images/semantic_sequence/maintaining_a_car_semantic/maintaining_a_car_semantic_0.png","null","",""
"","","","","","html-audio-response","18","231087","0.0-16.0","85EE103965C74C56A466C4C7FE4F1AD6","85EE103965C74C56A466C4C7FE4F1AD6","0198bf01-3e60-7c0e-a5de-ec656b0e8b68","0198beef-981a-7243-9790-051e10551090","{""num_scrambled_semantic"":""8"",""num_scrambled_causal"":""4"",""num_scrambled_schematic"":""4"",""participantId"":""85EE103965C74C56A466C4C7FE4F1AD6"",""assignmentId"":""0198bf01-3e60-7c0e-a5de-ec656b0e8b68"",""projectId"":""0198beef-981a-7243-9790-051e10551090""}","https://test12345.live/?num_scrambled_semantic=8&num_scrambled_causal=4&num_scrambled_schematic=4&participantId=85EE103965C74C56A466C4C7FE4F1AD6&assignmentId=0198bf01-3e60-7c0e-a5de-ec656b0e8b68&projectId=0198beef-981a-7243-9790-051e10551090","85EE103965C74C56A466C4C7FE4F1AD6-2025-08-18-21-17-42","","32125","","[""<span style=\""color: red; font-size: 24px\""> NOW RECORDING</span><p>Please say out loud all the images you saw in part 1 of the experiment, as many as you can remember. The images can be said in any order.</p>""]","","2","maintaining_a_car_semantic"
"","","","","","image-button-response","19","237098","0.0-17.0-0.0","85EE103965C74C56A466C4C7FE4F1AD6","85EE103965C74C56A466C4C7FE4F1AD6","0198bf01-3e60-7c0e-a5de-ec656b0e8b68","0198beef-981a-7243-9790-051e10551090","{""num_scrambled_semantic"":""8"",""num_scrambled_causal"":""4"",""num_scrambled_schematic"":""4"",""participantId"":""85EE103965C74C56A466C4C7FE4F1AD6"",""assignmentId"":""0198bf01-3e60-7c0e-a5de-ec656b0e8b68"",""projectId"":""0198beef-981a-7243-9790-051e10551090""}","https://test12345.live/?num_scrambled_semantic=8&num_scrambled_causal=4&num_scrambled_schematic=4&participantId=85EE103965C74C56A466C4C7FE4F1AD6&assignmentId=0198bf01-3e60-7c0e-a5de-ec656b0e8b68&projectId=0198beef-981a-7243-9790-051e10551090","85EE103965C74C56A466C4C7FE4F1AD6-2025-08-18-21-17-42","","null","","images/semantic_sequence/physical_activity_semantic/physical_activity_semantic_0.png","null","",""
"","","","","","html-audio-response","20","258155","0.0-18.0","85EE103965C74C56A466C4C7FE4F1AD6","85EE103965C74C56A466C4C7FE4F1AD6","0198bf01-3e60-7c0e-a5de-ec656b0e8b68","0198beef-981a-7243-9790-051e10551090","{""num_scrambled_semantic"":""8"",""num_scrambled_causal"":""4"",""num_scrambled_schematic"":""4"",""participantId"":""85EE103965C74C56A466C4C7FE4F1AD6"",""assignmentId"":""0198bf01-3e60-7c0e-a5de-ec656b0e8b68"",""projectId"":""0198beef-981a-7243-9790-051e10551090""}","https://test12345.live/?num_scrambled_semantic=8&num_scrambled_causal=4&num_scrambled_schematic=4&participantId=85EE103965C74C56A466C4C7FE4F1AD6&assignmentId=0198bf01-3e60-7c0e-a5de-ec656b0e8b68&projectId=0198beef-981a-7243-9790-051e10551090","85EE103965C74C56A466C4C7FE4F1AD6-2025-08-18-21-17-42","","19347","","[""<span style=\""color: red; font-size: 24px\""> NOW RECORDING</span><p>Please say out loud all the images you saw in part 1 of the experiment, as many as you can remember. The images can be said in any order.</p>""]","","7","physical_activity_semantic"
"","","","","","image-button-response","21","264166","0.0-19.0-0.0","85EE103965C74C56A466C4C7FE4F1AD6","85EE103965C74C56A466C4C7FE4F1AD6","0198bf01-3e60-7c0e-a5de-ec656b0e8b68","0198beef-981a-7243-9790-051e10551090","{""num_scrambled_semantic"":""8"",""num_scrambled_causal"":""4"",""num_scrambled_schematic"":""4"",""participantId"":""85EE103965C74C56A466C4C7FE4F1AD6"",""assignmentId"":""0198bf01-3e60-7c0e-a5de-ec656b0e8b68"",""projectId"":""0198beef-981a-7243-9790-051e10551090""}","https://test12345.live/?num_scrambled_semantic=8&num_scrambled_causal=4&num_scrambled_schematic=4&participantId=85EE103965C74C56A466C4C7FE4F1AD6&assignmentId=0198bf01-3e60-7c0e-a5de-ec656b0e8b68&projectId=0198beef-981a-7243-9790-051e10551090","85EE103965C74C56A466C4C7FE4F1AD6-2025-08-18-21-17-42","","null","","images/causal_sequence/the_performance_causal/the_performance_causal_0.png","null","",""
"","","","","","html-audio-response","22","331471","0.0-20.0","85EE103965C74C56A466C4C7FE4F1AD6","85EE103965C74C56A466C4C7FE4F1AD6","0198bf01-3e60-7c0e-a5de-ec656b0e8b68","0198beef-981a-7243-9790-051e10551090","{""num_scrambled_semantic"":""8"",""num_scrambled_causal"":""4"",""num_scrambled_schematic"":""4"",""participantId"":""85EE103965C74C56A466C4C7FE4F1AD6"",""assignmentId"":""0198bf01-3e60-7c0e-a5de-ec656b0e8b68"",""projectId"":""0198beef-981a-7243-9790-051e10551090""}","https://test12345.live/?num_scrambled_semantic=8&num_scrambled_causal=4&num_scrambled_schematic=4&participantId=85EE103965C74C56A466C4C7FE4F1AD6&assignmentId=0198bf01-3e60-7c0e-a5de-ec656b0e8b68&projectId=0198beef-981a-7243-9790-051e10551090","85EE103965C74C56A466C4C7FE4F1AD6-2025-08-18-21-17-42","","43096","","[""<span style=\""color: red; font-size: 24px\""> NOW RECORDING</span><p>Please say out loud all the images you saw in part 1 of the experiment, as many as you can remember. The images can be said in any order.</p>""]","","4","the_performance_causal"
"","","","","","image-button-response","23","337480","0.0-21.0-0.0","85EE103965C74C56A466C4C7FE4F1AD6","85EE103965C74C56A466C4C7FE4F1AD6","0198bf01-3e60-7c0e-a5de-ec656b0e8b68","0198beef-981a-7243-9790-051e10551090","{""num_scrambled_semantic"":""8"",""num_scrambled_causal"":""4"",""num_scrambled_schematic"":""4"",""participantId"":""85EE103965C74C56A466C4C7FE4F1AD6"",""assignmentId"":""0198bf01-3e60-7c0e-a5de-ec656b0e8b68"",""projectId"":""0198beef-981a-7243-9790-051e10551090""}","https://test12345.live/?num_scrambled_semantic=8&num_scrambled_causal=4&num_scrambled_schematic=4&participantId=85EE103965C74C56A466C4C7FE4F1AD6&assignmentId=0198bf01-3e60-7c0e-a5de-ec656b0e8b68&projectId=0198beef-981a-7243-9790-051e10551090","85EE103965C74C56A466C4C7FE4F1AD6-2025-08-18-21-17-42","","null","","images/semantic_sequence/housework_semantic/housework_semantic_0.png","null","",""
"","","","","","html-audio-response","24","365803","0.0-22.0","85EE103965C74C56A466C4C7FE4F1AD6","85EE103965C74C56A466C4C7FE4F1AD6","0198bf01-3e60-7c0e-a5de-ec656b0e8b68","0198beef-981a-7243-9790-051e10551090","{""num_scrambled_semantic"":""8"",""num_scrambled_causal"":""4"",""num_scrambled_schematic"":""4"",""participantId"":""85EE103965C74C56A466C4C7FE4F1AD6"",""assignmentId"":""0198bf01-3e60-7c0e-a5de-ec656b0e8b68"",""projectId"":""0198beef-981a-7243-9790-051e10551090""}","https://test12345.live/?num_scrambled_semantic=8&num_scrambled_causal=4&num_scrambled_schematic=4&participantId=85EE103965C74C56A466C4C7FE4F1AD6&assignmentId=0198bf01-3e60-7c0e-a5de-ec656b0e8b68&projectId=0198beef-981a-7243-9790-051e10551090","85EE103965C74C56A466C4C7FE4F1AD6-2025-08-18-21-17-42","","27094","","[""<span style=\""color: red; font-size: 24px\""> NOW RECORDING</span><p>Please say out loud all the images you saw in part 1 of the experiment, as many as you can remember. The images can be said in any order.</p>""]","","2","housework_semantic"
"","","","","","image-button-response","25","371815","0.0-23.0-0.0","85EE103965C74C56A466C4C7FE4F1AD6","85EE103965C74C56A466C4C7FE4F1AD6","0198bf01-3e60-7c0e-a5de-ec656b0e8b68","0198beef-981a-7243-9790-051e10551090","{""num_scrambled_semantic"":""8"",""num_scrambled_causal"":""4"",""num_scrambled_schematic"":""4"",""participantId"":""85EE103965C74C56A466C4C7FE4F1AD6"",""assignmentId"":""0198bf01-3e60-7c0e-a5de-ec656b0e8b68"",""projectId"":""0198beef-981a-7243-9790-051e10551090""}","https://test12345.live/?num_scrambled_semantic=8&num_scrambled_causal=4&num_scrambled_schematic=4&participantId=85EE103965C74C56A466C4C7FE4F1AD6&assignmentId=0198bf01-3e60-7c0e-a5de-ec656b0e8b68&projectId=0198beef-981a-7243-9790-051e10551090","85EE103965C74C56A466C4C7FE4F1AD6-2025-08-18-21-17-42","","null","","images/semantic_sequence/cat_care_semantic/cat_care_semantic_0.png","null","",""
"","","","","","html-audio-response","26","393504","0.0-24.0","85EE103965C74C56A466C4C7FE4F1AD6","85EE103965C74C56A466C4C7FE4F1AD6","0198bf01-3e60-7c0e-a5de-ec656b0e8b68","0198beef-981a-7243-9790-051e10551090","{""num_scrambled_semantic"":""8"",""num_scrambled_causal"":""4"",""num_scrambled_schematic"":""4"",""participantId"":""85EE103965C74C56A466C4C7FE4F1AD6"",""assignmentId"":""0198bf01-3e60-7c0e-a5de-ec656b0e8b68"",""projectId"":""0198beef-981a-7243-9790-051e10551090""}","https://test12345.live/?num_scrambled_semantic=8&num_scrambled_causal=4&num_scrambled_schematic=4&participantId=85EE103965C74C56A466C4C7FE4F1AD6&assignmentId=0198bf01-3e60-7c0e-a5de-ec656b0e8b68&projectId=0198beef-981a-7243-9790-051e10551090","85EE103965C74C56A466C4C7FE4F1AD6-2025-08-18-21-17-42","","20529","","[""<span style=\""color: red; font-size: 24px\""> NOW RECORDING</span><p>Please say out loud all the images you saw in part 1 of the experiment, as many as you can remember. The images can be said in any order.</p>""]","","4","cat_care_semantic"
"","","","","","image-button-response","27","399514","0.0-25.0-0.0","85EE103965C74C56A466C4C7FE4F1AD6","85EE103965C74C56A466C4C7FE4F1AD6","0198bf01-3e60-7c0e-a5de-ec656b0e8b68","0198beef-981a-7243-9790-051e10551090","{""num_scrambled_semantic"":""8"",""num_scrambled_causal"":""4"",""num_scrambled_schematic"":""4"",""participantId"":""85EE103965C74C56A466C4C7FE4F1AD6"",""assignmentId"":""0198bf01-3e60-7c0e-a5de-ec656b0e8b68"",""projectId"":""0198beef-981a-7243-9790-051e10551090""}","https://test12345.live/?num_scrambled_semantic=8&num_scrambled_causal=4&num_scrambled_schematic=4&participantId=85EE103965C74C56A466C4C7FE4F1AD6&assignmentId=0198bf01-3e60-7c0e-a5de-ec656b0e8b68&projectId=0198beef-981a-7243-9790-051e10551090","85EE103965C74C56A466C4C7FE4F1AD6-2025-08-18-21-17-42","","null","","images/causal_sequence/museum_causal/museum_causal_0.png","null","",""
"","","","","","html-audio-response","28","440703","0.0-26.0","85EE103965C74C56A466C4C7FE4F1AD6","85EE103965C74C56A466C4C7FE4F1AD6","0198bf01-3e60-7c0e-a5de-ec656b0e8b68","0198beef-981a-7243-9790-051e10551090","{""num_scrambled_semantic"":""8"",""num_scrambled_causal"":""4"",""num_scrambled_schematic"":""4"",""participantId"":""85EE103965C74C56A466C4C7FE4F1AD6"",""assignmentId"":""0198bf01-3e60-7c0e-a5de-ec656b0e8b68"",""projectId"":""0198beef-981a-7243-9790-051e10551090""}","https://test12345.live/?num_scrambled_semantic=8&num_scrambled_causal=4&num_scrambled_schematic=4&participantId=85EE103965C74C56A466C4C7FE4F1AD6&assignmentId=0198bf01-3e60-7c0e-a5de-ec656b0e8b68&projectId=0198beef-981a-7243-9790-051e10551090","85EE103965C74C56A466C4C7FE4F1AD6-2025-08-18-21-17-42","","39129","","[""<span style=\""color: red; font-size: 24px\""> NOW RECORDING</span><p>Please say out loud all the images you saw in part 1 of the experiment, as many as you can remember. The images can be said in any order.</p>""]","","5","museum_causal"
"","","","","","image-button-response","29","446712","0.0-27.0-0.0","85EE103965C74C56A466C4C7FE4F1AD6","85EE103965C74C56A466C4C7FE4F1AD6","0198bf01-3e60-7c0e-a5de-ec656b0e8b68","0198beef-981a-7243-9790-051e10551090","{""num_scrambled_semantic"":""8"",""num_scrambled_causal"":""4"",""num_scrambled_schematic"":""4"",""participantId"":""85EE103965C74C56A466C4C7FE4F1AD6"",""assignmentId"":""0198bf01-3e60-7c0e-a5de-ec656b0e8b68"",""projectId"":""0198beef-981a-7243-9790-051e10551090""}","https://test12345.live/?num_scrambled_semantic=8&num_scrambled_causal=4&num_scrambled_schematic=4&participantId=85EE103965C74C56A466C4C7FE4F1AD6&assignmentId=0198bf01-3e60-7c0e-a5de-ec656b0e8b68&projectId=0198beef-981a-7243-9790-051e10551090","85EE103965C74C56A466C4C7FE4F1AD6-2025-08-18-21-17-42","","null","","images/semantic_sequence/using_technology_semantic/using_technology_semantic_0.png","null","",""
"","","","","","html-audio-response","30","480237","0.0-28.0","85EE103965C74C56A466C4C7FE4F1AD6","85EE103965C74C56A466C4C7FE4F1AD6","0198bf01-3e60-7c0e-a5de-ec656b0e8b68","0198beef-981a-7243-9790-051e10551090","{""num_scrambled_semantic"":""8"",""num_scrambled_causal"":""4"",""num_scrambled_schematic"":""4"",""participantId"":""85EE103965C74C56A466C4C7FE4F1AD6"",""assignmentId"":""0198bf01-3e60-7c0e-a5de-ec656b0e8b68"",""projectId"":""0198beef-981a-7243-9790-051e10551090""}","https://test12345.live/?num_scrambled_semantic=8&num_scrambled_causal=4&num_scrambled_schematic=4&participantId=85EE103965C74C56A466C4C7FE4F1AD6&assignmentId=0198bf01-3e60-7c0e-a5de-ec656b0e8b68&projectId=0198beef-981a-7243-9790-051e10551090","85EE103965C74C56A466C4C7FE4F1AD6-2025-08-18-21-17-42","","31300","","[""<span style=\""color: red; font-size: 24px\""> NOW RECORDING</span><p>Please say out loud all the images you saw in part 1 of the experiment, as many as you can remember. The images can be said in any order.</p>""]","","1","using_technology_semantic"
"","","","","","image-button-response","31","486247","0.0-29.0-0.0","85EE103965C74C56A466C4C7FE4F1AD6","85EE103965C74C56A466C4C7FE4F1AD6","0198bf01-3e60-7c0e-a5de-ec656b0e8b68","0198beef-981a-7243-9790-051e10551090","{""num_scrambled_semantic"":""8"",""num_scrambled_causal"":""4"",""num_scrambled_schematic"":""4"",""participantId"":""85EE103965C74C56A466C4C7FE4F1AD6"",""assignmentId"":""0198bf01-3e60-7c0e-a5de-ec656b0e8b68"",""projectId"":""0198beef-981a-7243-9790-051e10551090""}","https://test12345.live/?num_scrambled_semantic=8&num_scrambled_causal=4&num_scrambled_schematic=4&participantId=85EE103965C74C56A466C4C7FE4F1AD6&assignmentId=0198bf01-3e60-7c0e-a5de-ec656b0e8b68&projectId=0198beef-981a-7243-9790-051e10551090","85EE103965C74C56A466C4C7FE4F1AD6-2025-08-18-21-17-42","","null","","images/causal_sequence/dog_causal/dog_causal_0.png","null","",""
"","","","","","html-audio-response","32","576704","0.0-30.0","85EE103965C74C56A466C4C7FE4F1AD6","85EE103965C74C56A466C4C7FE4F1AD6","0198bf01-3e60-7c0e-a5de-ec656b0e8b68","0198beef-981a-7243-9790-051e10551090","{""num_scrambled_semantic"":""8"",""num_scrambled_causal"":""4"",""num_scrambled_schematic"":""4"",""participantId"":""85EE103965C74C56A466C4C7FE4F1AD6"",""assignmentId"":""0198bf01-3e60-7c0e-a5de-ec656b0e8b68"",""projectId"":""0198beef-981a-7243-9790-051e10551090""}","https://test12345.live/?num_scrambled_semantic=8&num_scrambled_causal=4&num_scrambled_schematic=4&participantId=85EE103965C74C56A466C4C7FE4F1AD6&assignmentId=0198bf01-3e60-7c0e-a5de-ec656b0e8b68&projectId=0198beef-981a-7243-9790-051e10551090","85EE103965C74C56A466C4C7FE4F1AD6-2025-08-18-21-17-42","","46608","","[""<span style=\""color: red; font-size: 24px\""> NOW RECORDING</span><p>Please say out loud all the images you saw in part 1 of the experiment, as many as you can remember. The images can be said in any order.</p>""]","","2","dog_causal"
"","","","","","image-button-response","33","582713","0.0-31.0-0.0","85EE103965C74C56A466C4C7FE4F1AD6","85EE103965C74C56A466C4C7FE4F1AD6","0198bf01-3e60-7c0e-a5de-ec656b0e8b68","0198beef-981a-7243-9790-051e10551090","{""num_scrambled_semantic"":""8"",""num_scrambled_causal"":""4"",""num_scrambled_schematic"":""4"",""participantId"":""85EE103965C74C56A466C4C7FE4F1AD6"",""assignmentId"":""0198bf01-3e60-7c0e-a5de-ec656b0e8b68"",""projectId"":""0198beef-981a-7243-9790-051e10551090""}","https://test12345.live/?num_scrambled_semantic=8&num_scrambled_causal=4&num_scrambled_schematic=4&participantId=85EE103965C74C56A466C4C7FE4F1AD6&assignmentId=0198bf01-3e60-7c0e-a5de-ec656b0e8b68&projectId=0198beef-981a-7243-9790-051e10551090","85EE103965C74C56A466C4C7FE4F1AD6-2025-08-18-21-17-42","","null","","images/semantic_sequence/creative_activities_semantic/creative_activities_semantic_0.png","null","",""
"","","","","","html-audio-response","34","608454","0.0-32.0","85EE103965C74C56A466C4C7FE4F1AD6","85EE103965C74C56A466C4C7FE4F1AD6","0198bf01-3e60-7c0e-a5de-ec656b0e8b68","0198beef-981a-7243-9790-051e10551090","{""num_scrambled_semantic"":""8"",""num_scrambled_causal"":""4"",""num_scrambled_schematic"":""4"",""participantId"":""85EE103965C74C56A466C4C7FE4F1AD6"",""assignmentId"":""0198bf01-3e60-7c0e-a5de-ec656b0e8b68"",""projectId"":""0198beef-981a-7243-9790-051e10551090""}","https://test12345.live/?num_scrambled_semantic=8&num_scrambled_causal=4&num_scrambled_schematic=4&participantId=85EE103965C74C56A466C4C7FE4F1AD6&assignmentId=0198bf01-3e60-7c0e-a5de-ec656b0e8b68&projectId=0198beef-981a-7243-9790-051e10551090","85EE103965C74C56A466C4C7FE4F1AD6-2025-08-18-21-17-42","","24380","","[""<span style=\""color: red; font-size: 24px\""> NOW RECORDING</span><p>Please say out loud all the images you saw in part 1 of the experiment, as many as you can remember. The images can be said in any order.</p>""]","","5","creative_activities_semantic"
"","","","","","image-button-response","35","614462","0.0-33.0-0.0","85EE103965C74C56A466C4C7FE4F1AD6","85EE103965C74C56A466C4C7FE4F1AD6","0198bf01-3e60-7c0e-a5de-ec656b0e8b68","0198beef-981a-7243-9790-051e10551090","{""num_scrambled_semantic"":""8"",""num_scrambled_causal"":""4"",""num_scrambled_schematic"":""4"",""participantId"":""85EE103965C74C56A466C4C7FE4F1AD6"",""assignmentId"":""0198bf01-3e60-7c0e-a5de-ec656b0e8b68"",""projectId"":""0198beef-981a-7243-9790-051e10551090""}","https://test12345.live/?num_scrambled_semantic=8&num_scrambled_causal=4&num_scrambled_schematic=4&participantId=85EE103965C74C56A466C4C7FE4F1AD6&assignmentId=0198bf01-3e60-7c0e-a5de-ec656b0e8b68&projectId=0198beef-981a-7243-9790-051e10551090","85EE103965C74C56A466C4C7FE4F1AD6-2025-08-18-21-17-42","","null","","images/causal_sequence/package_causal/package_causal_0.png","null","",""
"","","","","","html-audio-response","36","670103","0.0-34.0","85EE103965C74C56A466C4C7FE4F1AD6","85EE103965C74C56A466C4C7FE4F1AD6","0198bf01-3e60-7c0e-a5de-ec656b0e8b68","0198beef-981a-7243-9790-051e10551090","{""num_scrambled_semantic"":""8"",""num_scrambled_causal"":""4"",""num_scrambled_schematic"":""4"",""participantId"":""85EE103965C74C56A466C4C7FE4F1AD6"",""assignmentId"":""0198bf01-3e60-7c0e-a5de-ec656b0e8b68"",""projectId"":""0198beef-981a-7243-9790-051e10551090""}","https://test12345.live/?num_scrambled_semantic=8&num_scrambled_causal=4&num_scrambled_schematic=4&participantId=85EE103965C74C56A466C4C7FE4F1AD6&assignmentId=0198bf01-3e60-7c0e-a5de-ec656b0e8b68&projectId=0198beef-981a-7243-9790-051e10551090","85EE103965C74C56A466C4C7FE4F1AD6-2025-08-18-21-17-42","","52766","","[""<span style=\""color: red; font-size: 24px\""> NOW RECORDING</span><p>Please say out loud all the images you saw in part 1 of the experiment, as many as you can remember. The images can be said in any order.</p>""]","","2","package_causal"
"","","","","","survey-text","37","676005","0.0-35.0","85EE103965C74C56A466C4C7FE4F1AD6","85EE103965C74C56A466C4C7FE4F1AD6","0198bf01-3e60-7c0e-a5de-ec656b0e8b68","0198beef-981a-7243-9790-051e10551090","{""num_scrambled_semantic"":""8"",""num_scrambled_causal"":""4"",""num_scrambled_schematic"":""4"",""participantId"":""85EE103965C74C56A466C4C7FE4F1AD6"",""assignmentId"":""0198bf01-3e60-7c0e-a5de-ec656b0e8b68"",""projectId"":""0198beef-981a-7243-9790-051e10551090""}","https://test12345.live/?num_scrambled_semantic=8&num_scrambled_causal=4&num_scrambled_schematic=4&participantId=85EE103965C74C56A466C4C7FE4F1AD6&assignmentId=0198bf01-3e60-7c0e-a5de-ec656b0e8b68&projectId=0198beef-981a-7243-9790-051e10551090","85EE103965C74C56A466C4C7FE4F1AD6-2025-08-18-21-17-42","","5890","","","{""Q0"":""FEMALE"",""Q1"":""23""}","",""
"","","","","","instructions","38","680703","0.0-36.0","85EE103965C74C56A466C4C7FE4F1AD6","85EE103965C74C56A466C4C7FE4F1AD6","0198bf01-3e60-7c0e-a5de-ec656b0e8b68","0198beef-981a-7243-9790-051e10551090","{""num_scrambled_semantic"":""8"",""num_scrambled_causal"":""4"",""num_scrambled_schematic"":""4"",""participantId"":""85EE103965C74C56A466C4C7FE4F1AD6"",""assignmentId"":""0198bf01-3e60-7c0e-a5de-ec656b0e8b68"",""projectId"":""0198beef-981a-7243-9790-051e10551090""}","https://test12345.live/?num_scrambled_semantic=8&num_scrambled_causal=4&num_scrambled_schematic=4&participantId=85EE103965C74C56A466C4C7FE4F1AD6&assignmentId=0198bf01-3e60-7c0e-a5de-ec656b0e8b68&projectId=0198beef-981a-7243-9790-051e10551090","85EE103965C74C56A466C4C7FE4F1AD6-2025-08-18-21-17-42","[{""page_index"":0,""viewing_time"":4697}]","4697","","","","",""
"","","","","","survey-text","39","682553","0.0-37.0","85EE103965C74C56A466C4C7FE4F1AD6","85EE103965C74C56A466C4C7FE4F1AD6","0198bf01-3e60-7c0e-a5de-ec656b0e8b68","0198beef-981a-7243-9790-051e10551090","{""num_scrambled_semantic"":""8"",""num_scrambled_causal"":""4"",""num_scrambled_schematic"":""4"",""participantId"":""85EE103965C74C56A466C4C7FE4F1AD6"",""assignmentId"":""0198bf01-3e60-7c0e-a5de-ec656b0e8b68"",""projectId"":""0198beef-981a-7243-9790-051e10551090""}","https://test12345.live/?num_scrambled_semantic=8&num_scrambled_causal=4&num_scrambled_schematic=4&participantId=85EE103965C74C56A466C4C7FE4F1AD6&assignmentId=0198bf01-3e60-7c0e-a5de-ec656b0e8b68&projectId=0198beef-981a-7243-9790-051e10551090","85EE103965C74C56A466C4C7FE4F1AD6-2025-08-18-21-17-42","","1847","","","{""Q0"":""AJFHBG896""}","",""
