"success","timeout","failed_images","failed_audio","failed_video","trial_type","trial_index","time_elapsed","internal_node_id","subject","subject_id","study_id","session_id","urlvar","current_url","audio_id","view_history","rt","device_id","stimulus","response","estimated_stimulus_onset","seq_name"
"true","false","[]","[]","[]","preload","0","5594","0.0-0.0","86F14CECCA2444158F489BC11DF59E50","86F14CECCA2444158F489BC11DF59E50","0198c3e8-16b4-74a0-b4f0-73f5fe1ed2ea","0198c3e5-90db-7030-b026-3fe33584d632","{""num_scrambled_semantic"":""8"",""num_scrambled_causal"":""4"",""num_scrambled_schematic"":""4"",""participantId"":""86F14CECCA2444158F489BC11DF59E50"",""assignmentId"":""0198c3e8-16b4-74a0-b4f0-73f5fe1ed2ea"",""projectId"":""0198c3e5-90db-7030-b026-3fe33584d632""}","https://test12345.live/?num_scrambled_semantic=8&num_scrambled_causal=4&num_scrambled_schematic=4&participantId=86F14CECCA2444158F489BC11DF59E50&assignmentId=0198c3e8-16b4-74a0-b4f0-73f5fe1ed2ea&projectId=0198c3e5-90db-7030-b026-3fe33584d632","86F14CECCA2444158F489BC11DF59E50-2025-08-19-20-20-44","","","","","","",""
"","","","","","instructions","1","749965","0.0-1.0","86F14CECCA2444158F489BC11DF59E50","86F14CECCA2444158F489BC11DF59E50","0198c3e8-16b4-74a0-b4f0-73f5fe1ed2ea","0198c3e5-90db-7030-b026-3fe33584d632","{""num_scrambled_semantic"":""8"",""num_scrambled_causal"":""4"",""num_scrambled_schematic"":""4"",""participantId"":""86F14CECCA2444158F489BC11DF59E50"",""assignmentId"":""0198c3e8-16b4-74a0-b4f0-73f5fe1ed2ea"",""projectId"":""0198c3e5-90db-7030-b026-3fe33584d632""}","https://test12345.live/?num_scrambled_semantic=8&num_scrambled_causal=4&num_scrambled_schematic=4&participantId=86F14CECCA2444158F489BC11DF59E50&assignmentId=0198c3e8-16b4-74a0-b4f0-73f5fe1ed2ea&projectId=0198c3e5-90db-7030-b026-3fe33584d632","86F14CECCA2444158F489BC11DF59E50-2025-08-19-20-20-44","[{""page_index"":0,""viewing_time"":744370}]","744370","","","","",""
"","","","","","instructions","2","752269","0.0-2.0","86F14CECCA2444158F489BC11DF59E50","86F14CECCA2444158F489BC11DF59E50","0198c3e8-16b4-74a0-b4f0-73f5fe1ed2ea","0198c3e5-90db-7030-b026-3fe33584d632","{""num_scrambled_semantic"":""8"",""num_scrambled_causal"":""4"",""num_scrambled_schematic"":""4"",""participantId"":""86F14CECCA2444158F489BC11DF59E50"",""assignmentId"":""0198c3e8-16b4-74a0-b4f0-73f5fe1ed2ea"",""projectId"":""0198c3e5-90db-7030-b026-3fe33584d632""}","https://test12345.live/?num_scrambled_semantic=8&num_scrambled_causal=4&num_scrambled_schematic=4&participantId=86F14CECCA2444158F489BC11DF59E50&assignmentId=0198c3e8-16b4-74a0-b4f0-73f5fe1ed2ea&projectId=0198c3e5-90db-7030-b026-3fe33584d632","86F14CECCA2444158F489BC11DF59E50-2025-08-19-20-20-44","[{""page_index"":0,""viewing_time"":2303}]","2303","","","","",""
"true","","","","","fullscreen","3","754452","0.0-3.0","86F14CECCA2444158F489BC11DF59E50","86F14CECCA2444158F489BC11DF59E50","0198c3e8-16b4-74a0-b4f0-73f5fe1ed2ea","0198c3e5-90db-7030-b026-3fe33584d632","{""num_scrambled_semantic"":""8"",""num_scrambled_causal"":""4"",""num_scrambled_schematic"":""4"",""participantId"":""86F14CECCA2444158F489BC11DF59E50"",""assignmentId"":""0198c3e8-16b4-74a0-b4f0-73f5fe1ed2ea"",""projectId"":""0198c3e5-90db-7030-b026-3fe33584d632""}","https://test12345.live/?num_scrambled_semantic=8&num_scrambled_causal=4&num_scrambled_schematic=4&participantId=86F14CECCA2444158F489BC11DF59E50&assignmentId=0198c3e8-16b4-74a0-b4f0-73f5fe1ed2ea&projectId=0198c3e5-90db-7030-b026-3fe33584d632","86F14CECCA2444158F489BC11DF59E50-2025-08-19-20-20-44","","1169","","","","",""
"","","","","","initialize-microphone","4","758194","0.0-4.0-0.0","86F14CECCA2444158F489BC11DF59E50","86F14CECCA2444158F489BC11DF59E50","0198c3e8-16b4-74a0-b4f0-73f5fe1ed2ea","0198c3e5-90db-7030-b026-3fe33584d632","{""num_scrambled_semantic"":""8"",""num_scrambled_causal"":""4"",""num_scrambled_schematic"":""4"",""participantId"":""86F14CECCA2444158F489BC11DF59E50"",""assignmentId"":""0198c3e8-16b4-74a0-b4f0-73f5fe1ed2ea"",""projectId"":""0198c3e5-90db-7030-b026-3fe33584d632""}","https://test12345.live/?num_scrambled_semantic=8&num_scrambled_causal=4&num_scrambled_schematic=4&participantId=86F14CECCA2444158F489BC11DF59E50&assignmentId=0198c3e8-16b4-74a0-b4f0-73f5fe1ed2ea&projectId=0198c3e5-90db-7030-b026-3fe33584d632","86F14CECCA2444158F489BC11DF59E50-2025-08-19-20-20-44","","","gcMfw9Thy1I9YArT7LSlboHfkYl4dPjiWr0m9XWGBXU=","","","",""
"","","","","","html-audio-response","5","761209","0.0-4.0-1.0","86F14CECCA2444158F489BC11DF59E50","86F14CECCA2444158F489BC11DF59E50","0198c3e8-16b4-74a0-b4f0-73f5fe1ed2ea","0198c3e5-90db-7030-b026-3fe33584d632","{""num_scrambled_semantic"":""8"",""num_scrambled_causal"":""4"",""num_scrambled_schematic"":""4"",""participantId"":""86F14CECCA2444158F489BC11DF59E50"",""assignmentId"":""0198c3e8-16b4-74a0-b4f0-73f5fe1ed2ea"",""projectId"":""0198c3e5-90db-7030-b026-3fe33584d632""}","https://test12345.live/?num_scrambled_semantic=8&num_scrambled_causal=4&num_scrambled_schematic=4&participantId=86F14CECCA2444158F489BC11DF59E50&assignmentId=0198c3e8-16b4-74a0-b4f0-73f5fe1ed2ea&projectId=0198c3e5-90db-7030-b026-3fe33584d632","86F14CECCA2444158F489BC11DF59E50-2025-08-19-20-20-44","","2032","","<span style=""color: red; font-size: 24px""> NOW RECORDING</span>
        <p>Please test Microphone</p>","","1",""
"","","","","","html-button-response","6","763299","0.0-4.0-2.0","86F14CECCA2444158F489BC11DF59E50","86F14CECCA2444158F489BC11DF59E50","0198c3e8-16b4-74a0-b4f0-73f5fe1ed2ea","0198c3e5-90db-7030-b026-3fe33584d632","{""num_scrambled_semantic"":""8"",""num_scrambled_causal"":""4"",""num_scrambled_schematic"":""4"",""participantId"":""86F14CECCA2444158F489BC11DF59E50"",""assignmentId"":""0198c3e8-16b4-74a0-b4f0-73f5fe1ed2ea"",""projectId"":""0198c3e5-90db-7030-b026-3fe33584d632""}","https://test12345.live/?num_scrambled_semantic=8&num_scrambled_causal=4&num_scrambled_schematic=4&participantId=86F14CECCA2444158F489BC11DF59E50&assignmentId=0198c3e8-16b4-74a0-b4f0-73f5fe1ed2ea&projectId=0198c3e5-90db-7030-b026-3fe33584d632","86F14CECCA2444158F489BC11DF59E50-2025-08-19-20-20-44","","2089","","<p style=""font-size:48px; color:red;"">Is Microphone OK?</p>","1","",""
"","","","","","instructions","7","813163","0.0-5.0","86F14CECCA2444158F489BC11DF59E50","86F14CECCA2444158F489BC11DF59E50","0198c3e8-16b4-74a0-b4f0-73f5fe1ed2ea","0198c3e5-90db-7030-b026-3fe33584d632","{""num_scrambled_semantic"":""8"",""num_scrambled_causal"":""4"",""num_scrambled_schematic"":""4"",""participantId"":""86F14CECCA2444158F489BC11DF59E50"",""assignmentId"":""0198c3e8-16b4-74a0-b4f0-73f5fe1ed2ea"",""projectId"":""0198c3e5-90db-7030-b026-3fe33584d632""}","https://test12345.live/?num_scrambled_semantic=8&num_scrambled_causal=4&num_scrambled_schematic=4&participantId=86F14CECCA2444158F489BC11DF59E50&assignmentId=0198c3e8-16b4-74a0-b4f0-73f5fe1ed2ea&projectId=0198c3e5-90db-7030-b026-3fe33584d632","86F14CECCA2444158F489BC11DF59E50-2025-08-19-20-20-44","[{""page_index"":0,""viewing_time"":677},{""page_index"":1,""viewing_time"":46937},{""page_index"":2,""viewing_time"":2248}]","49862","","","","",""
"","","","","","image-button-response","8","819172","0.0-6.0-0.0","86F14CECCA2444158F489BC11DF59E50","86F14CECCA2444158F489BC11DF59E50","0198c3e8-16b4-74a0-b4f0-73f5fe1ed2ea","0198c3e5-90db-7030-b026-3fe33584d632","{""num_scrambled_semantic"":""8"",""num_scrambled_causal"":""4"",""num_scrambled_schematic"":""4"",""participantId"":""86F14CECCA2444158F489BC11DF59E50"",""assignmentId"":""0198c3e8-16b4-74a0-b4f0-73f5fe1ed2ea"",""projectId"":""0198c3e5-90db-7030-b026-3fe33584d632""}","https://test12345.live/?num_scrambled_semantic=8&num_scrambled_causal=4&num_scrambled_schematic=4&participantId=86F14CECCA2444158F489BC11DF59E50&assignmentId=0198c3e8-16b4-74a0-b4f0-73f5fe1ed2ea&projectId=0198c3e5-90db-7030-b026-3fe33584d632","86F14CECCA2444158F489BC11DF59E50-2025-08-19-20-20-44","","null","","images/instructions/movie_0.png","null","",""
"","","","","","html-audio-response","9","832739","0.0-7.0","86F14CECCA2444158F489BC11DF59E50","86F14CECCA2444158F489BC11DF59E50","0198c3e8-16b4-74a0-b4f0-73f5fe1ed2ea","0198c3e5-90db-7030-b026-3fe33584d632","{""num_scrambled_semantic"":""8"",""num_scrambled_causal"":""4"",""num_scrambled_schematic"":""4"",""participantId"":""86F14CECCA2444158F489BC11DF59E50"",""assignmentId"":""0198c3e8-16b4-74a0-b4f0-73f5fe1ed2ea"",""projectId"":""0198c3e5-90db-7030-b026-3fe33584d632""}","https://test12345.live/?num_scrambled_semantic=8&num_scrambled_causal=4&num_scrambled_schematic=4&participantId=86F14CECCA2444158F489BC11DF59E50&assignmentId=0198c3e8-16b4-74a0-b4f0-73f5fe1ed2ea&projectId=0198c3e5-90db-7030-b026-3fe33584d632","86F14CECCA2444158F489BC11DF59E50-2025-08-19-20-20-44","","12278","","[""<span style=\""color: red; font-size: 24px\""> NOW RECORDING</span><p>Please say out loud all the images you saw in part 1 of the experiment, as many as you can remember. The images can be said in any order.</p>""]","","5",""
"","","","","","instructions","10","833822","0.0-8.0","86F14CECCA2444158F489BC11DF59E50","86F14CECCA2444158F489BC11DF59E50","0198c3e8-16b4-74a0-b4f0-73f5fe1ed2ea","0198c3e5-90db-7030-b026-3fe33584d632","{""num_scrambled_semantic"":""8"",""num_scrambled_causal"":""4"",""num_scrambled_schematic"":""4"",""participantId"":""86F14CECCA2444158F489BC11DF59E50"",""assignmentId"":""0198c3e8-16b4-74a0-b4f0-73f5fe1ed2ea"",""projectId"":""0198c3e5-90db-7030-b026-3fe33584d632""}","https://test12345.live/?num_scrambled_semantic=8&num_scrambled_causal=4&num_scrambled_schematic=4&participantId=86F14CECCA2444158F489BC11DF59E50&assignmentId=0198c3e8-16b4-74a0-b4f0-73f5fe1ed2ea&projectId=0198c3e5-90db-7030-b026-3fe33584d632","86F14CECCA2444158F489BC11DF59E50-2025-08-19-20-20-44","[{""page_index"":0,""viewing_time"":1082}]","1082","","","","",""
"","","","","","image-button-response","11","840538","0.0-9.0-0.0","86F14CECCA2444158F489BC11DF59E50","86F14CECCA2444158F489BC11DF59E50","0198c3e8-16b4-74a0-b4f0-73f5fe1ed2ea","0198c3e5-90db-7030-b026-3fe33584d632","{""num_scrambled_semantic"":""8"",""num_scrambled_causal"":""4"",""num_scrambled_schematic"":""4"",""participantId"":""86F14CECCA2444158F489BC11DF59E50"",""assignmentId"":""0198c3e8-16b4-74a0-b4f0-73f5fe1ed2ea"",""projectId"":""0198c3e5-90db-7030-b026-3fe33584d632""}","https://test12345.live/?num_scrambled_semantic=8&num_scrambled_causal=4&num_scrambled_schematic=4&participantId=86F14CECCA2444158F489BC11DF59E50&assignmentId=0198c3e8-16b4-74a0-b4f0-73f5fe1ed2ea&projectId=0198c3e5-90db-7030-b026-3fe33584d632","86F14CECCA2444158F489BC11DF59E50-2025-08-19-20-20-44","","null","","images/causal_sequence/coin_causal/coin_causal_0.png","null","",""
"","","","","","html-audio-response","12","941829","0.0-10.0","86F14CECCA2444158F489BC11DF59E50","86F14CECCA2444158F489BC11DF59E50","0198c3e8-16b4-74a0-b4f0-73f5fe1ed2ea","0198c3e5-90db-7030-b026-3fe33584d632","{""num_scrambled_semantic"":""8"",""num_scrambled_causal"":""4"",""num_scrambled_schematic"":""4"",""participantId"":""86F14CECCA2444158F489BC11DF59E50"",""assignmentId"":""0198c3e8-16b4-74a0-b4f0-73f5fe1ed2ea"",""projectId"":""0198c3e5-90db-7030-b026-3fe33584d632""}","https://test12345.live/?num_scrambled_semantic=8&num_scrambled_causal=4&num_scrambled_schematic=4&participantId=86F14CECCA2444158F489BC11DF59E50&assignmentId=0198c3e8-16b4-74a0-b4f0-73f5fe1ed2ea&projectId=0198c3e5-90db-7030-b026-3fe33584d632","86F14CECCA2444158F489BC11DF59E50-2025-08-19-20-20-44","","16530","","[""<span style=\""color: red; font-size: 24px\""> NOW RECORDING</span><p>Please say out loud all the images you saw, following the storyline they create. Try to recall the sequence of events as they unfolded in the story, rather than the order in which they appeared on the screen.</p>""]","","1","coin_causal"
"","","","","","image-button-response","13","947853","0.0-11.0-0.0","86F14CECCA2444158F489BC11DF59E50","86F14CECCA2444158F489BC11DF59E50","0198c3e8-16b4-74a0-b4f0-73f5fe1ed2ea","0198c3e5-90db-7030-b026-3fe33584d632","{""num_scrambled_semantic"":""8"",""num_scrambled_causal"":""4"",""num_scrambled_schematic"":""4"",""participantId"":""86F14CECCA2444158F489BC11DF59E50"",""assignmentId"":""0198c3e8-16b4-74a0-b4f0-73f5fe1ed2ea"",""projectId"":""0198c3e5-90db-7030-b026-3fe33584d632""}","https://test12345.live/?num_scrambled_semantic=8&num_scrambled_causal=4&num_scrambled_schematic=4&participantId=86F14CECCA2444158F489BC11DF59E50&assignmentId=0198c3e8-16b4-74a0-b4f0-73f5fe1ed2ea&projectId=0198c3e5-90db-7030-b026-3fe33584d632","86F14CECCA2444158F489BC11DF59E50-2025-08-19-20-20-44","","null","","images/semantic_sequence/creative_activities_semantic/creative_activities_semantic_0.png","null","",""
"","","","","","html-audio-response","14","966676","0.0-12.0","86F14CECCA2444158F489BC11DF59E50","86F14CECCA2444158F489BC11DF59E50","0198c3e8-16b4-74a0-b4f0-73f5fe1ed2ea","0198c3e5-90db-7030-b026-3fe33584d632","{""num_scrambled_semantic"":""8"",""num_scrambled_causal"":""4"",""num_scrambled_schematic"":""4"",""participantId"":""86F14CECCA2444158F489BC11DF59E50"",""assignmentId"":""0198c3e8-16b4-74a0-b4f0-73f5fe1ed2ea"",""projectId"":""0198c3e5-90db-7030-b026-3fe33584d632""}","https://test12345.live/?num_scrambled_semantic=8&num_scrambled_causal=4&num_scrambled_schematic=4&participantId=86F14CECCA2444158F489BC11DF59E50&assignmentId=0198c3e8-16b4-74a0-b4f0-73f5fe1ed2ea&projectId=0198c3e5-90db-7030-b026-3fe33584d632","86F14CECCA2444158F489BC11DF59E50-2025-08-19-20-20-44","","17309","","[""<span style=\""color: red; font-size: 24px\""> NOW RECORDING</span><p>Please say out loud all the images you saw, following the storyline they create. Try to recall the sequence of events as they unfolded in the story, rather than the order in which they appeared on the screen.</p>""]","","1","creative_activities_semantic"
"","","","","","image-button-response","15","972854","0.0-13.0-0.0","86F14CECCA2444158F489BC11DF59E50","86F14CECCA2444158F489BC11DF59E50","0198c3e8-16b4-74a0-b4f0-73f5fe1ed2ea","0198c3e5-90db-7030-b026-3fe33584d632","{""num_scrambled_semantic"":""8"",""num_scrambled_causal"":""4"",""num_scrambled_schematic"":""4"",""participantId"":""86F14CECCA2444158F489BC11DF59E50"",""assignmentId"":""0198c3e8-16b4-74a0-b4f0-73f5fe1ed2ea"",""projectId"":""0198c3e5-90db-7030-b026-3fe33584d632""}","https://test12345.live/?num_scrambled_semantic=8&num_scrambled_causal=4&num_scrambled_schematic=4&participantId=86F14CECCA2444158F489BC11DF59E50&assignmentId=0198c3e8-16b4-74a0-b4f0-73f5fe1ed2ea&projectId=0198c3e5-90db-7030-b026-3fe33584d632","86F14CECCA2444158F489BC11DF59E50-2025-08-19-20-20-44","","null","","images/causal_sequence/package_causal/package_causal_0.png","null","",""
"","","","","","html-audio-response","16","994774","0.0-14.0","86F14CECCA2444158F489BC11DF59E50","86F14CECCA2444158F489BC11DF59E50","0198c3e8-16b4-74a0-b4f0-73f5fe1ed2ea","0198c3e5-90db-7030-b026-3fe33584d632","{""num_scrambled_semantic"":""8"",""num_scrambled_causal"":""4"",""num_scrambled_schematic"":""4"",""participantId"":""86F14CECCA2444158F489BC11DF59E50"",""assignmentId"":""0198c3e8-16b4-74a0-b4f0-73f5fe1ed2ea"",""projectId"":""0198c3e5-90db-7030-b026-3fe33584d632""}","https://test12345.live/?num_scrambled_semantic=8&num_scrambled_causal=4&num_scrambled_schematic=4&participantId=86F14CECCA2444158F489BC11DF59E50&assignmentId=0198c3e8-16b4-74a0-b4f0-73f5fe1ed2ea&projectId=0198c3e5-90db-7030-b026-3fe33584d632","86F14CECCA2444158F489BC11DF59E50-2025-08-19-20-20-44","","20786","","[""<span style=\""color: red; font-size: 24px\""> NOW RECORDING</span><p>Please say out loud all the images you saw, following the storyline they create. Try to recall the sequence of events as they unfolded in the story, rather than the order in which they appeared on the screen.</p>""]","","0","package_causal"
"","","","","","image-button-response","17","1000979","0.0-15.0-0.0","86F14CECCA2444158F489BC11DF59E50","86F14CECCA2444158F489BC11DF59E50","0198c3e8-16b4-74a0-b4f0-73f5fe1ed2ea","0198c3e5-90db-7030-b026-3fe33584d632","{""num_scrambled_semantic"":""8"",""num_scrambled_causal"":""4"",""num_scrambled_schematic"":""4"",""participantId"":""86F14CECCA2444158F489BC11DF59E50"",""assignmentId"":""0198c3e8-16b4-74a0-b4f0-73f5fe1ed2ea"",""projectId"":""0198c3e5-90db-7030-b026-3fe33584d632""}","https://test12345.live/?num_scrambled_semantic=8&num_scrambled_causal=4&num_scrambled_schematic=4&participantId=86F14CECCA2444158F489BC11DF59E50&assignmentId=0198c3e8-16b4-74a0-b4f0-73f5fe1ed2ea&projectId=0198c3e5-90db-7030-b026-3fe33584d632","86F14CECCA2444158F489BC11DF59E50-2025-08-19-20-20-44","","null","","images/semantic_sequence/maintaining_a_car_semantic/maintaining_a_car_semantic_0.png","null","",""
"","","","","","html-audio-response","18","1148513","0.0-16.0","86F14CECCA2444158F489BC11DF59E50","86F14CECCA2444158F489BC11DF59E50","0198c3e8-16b4-74a0-b4f0-73f5fe1ed2ea","0198c3e5-90db-7030-b026-3fe33584d632","{""num_scrambled_semantic"":""8"",""num_scrambled_causal"":""4"",""num_scrambled_schematic"":""4"",""participantId"":""86F14CECCA2444158F489BC11DF59E50"",""assignmentId"":""0198c3e8-16b4-74a0-b4f0-73f5fe1ed2ea"",""projectId"":""0198c3e5-90db-7030-b026-3fe33584d632""}","https://test12345.live/?num_scrambled_semantic=8&num_scrambled_causal=4&num_scrambled_schematic=4&participantId=86F14CECCA2444158F489BC11DF59E50&assignmentId=0198c3e8-16b4-74a0-b4f0-73f5fe1ed2ea&projectId=0198c3e5-90db-7030-b026-3fe33584d632","86F14CECCA2444158F489BC11DF59E50-2025-08-19-20-20-44","","15390","","[""<span style=\""color: red; font-size: 24px\""> NOW RECORDING</span><p>Please say out loud all the images you saw, following the storyline they create. Try to recall the sequence of events as they unfolded in the story, rather than the order in which they appeared on the screen.</p>""]","","0","maintaining_a_car_semantic"
"","","","","","image-button-response","19","1154529","0.0-17.0-0.0","86F14CECCA2444158F489BC11DF59E50","86F14CECCA2444158F489BC11DF59E50","0198c3e8-16b4-74a0-b4f0-73f5fe1ed2ea","0198c3e5-90db-7030-b026-3fe33584d632","{""num_scrambled_semantic"":""8"",""num_scrambled_causal"":""4"",""num_scrambled_schematic"":""4"",""participantId"":""86F14CECCA2444158F489BC11DF59E50"",""assignmentId"":""0198c3e8-16b4-74a0-b4f0-73f5fe1ed2ea"",""projectId"":""0198c3e5-90db-7030-b026-3fe33584d632""}","https://test12345.live/?num_scrambled_semantic=8&num_scrambled_causal=4&num_scrambled_schematic=4&participantId=86F14CECCA2444158F489BC11DF59E50&assignmentId=0198c3e8-16b4-74a0-b4f0-73f5fe1ed2ea&projectId=0198c3e5-90db-7030-b026-3fe33584d632","86F14CECCA2444158F489BC11DF59E50-2025-08-19-20-20-44","","null","","images/semantic_sequence/physical_activity_semantic/physical_activity_semantic_0.png","null","",""
"","","","","","html-audio-response","20","1217194","0.0-18.0","86F14CECCA2444158F489BC11DF59E50","86F14CECCA2444158F489BC11DF59E50","0198c3e8-16b4-74a0-b4f0-73f5fe1ed2ea","0198c3e5-90db-7030-b026-3fe33584d632","{""num_scrambled_semantic"":""8"",""num_scrambled_causal"":""4"",""num_scrambled_schematic"":""4"",""participantId"":""86F14CECCA2444158F489BC11DF59E50"",""assignmentId"":""0198c3e8-16b4-74a0-b4f0-73f5fe1ed2ea"",""projectId"":""0198c3e5-90db-7030-b026-3fe33584d632""}","https://test12345.live/?num_scrambled_semantic=8&num_scrambled_causal=4&num_scrambled_schematic=4&participantId=86F14CECCA2444158F489BC11DF59E50&assignmentId=0198c3e8-16b4-74a0-b4f0-73f5fe1ed2ea&projectId=0198c3e5-90db-7030-b026-3fe33584d632","86F14CECCA2444158F489BC11DF59E50-2025-08-19-20-20-44","","6118","","[""<span style=\""color: red; font-size: 24px\""> NOW RECORDING</span><p>Please say out loud all the images you saw, following the storyline they create. Try to recall the sequence of events as they unfolded in the story, rather than the order in which they appeared on the screen.</p>""]","","1","physical_activity_semantic"
"","","","","","image-button-response","21","1223714","0.0-19.0-0.0","86F14CECCA2444158F489BC11DF59E50","86F14CECCA2444158F489BC11DF59E50","0198c3e8-16b4-74a0-b4f0-73f5fe1ed2ea","0198c3e5-90db-7030-b026-3fe33584d632","{""num_scrambled_semantic"":""8"",""num_scrambled_causal"":""4"",""num_scrambled_schematic"":""4"",""participantId"":""86F14CECCA2444158F489BC11DF59E50"",""assignmentId"":""0198c3e8-16b4-74a0-b4f0-73f5fe1ed2ea"",""projectId"":""0198c3e5-90db-7030-b026-3fe33584d632""}","https://test12345.live/?num_scrambled_semantic=8&num_scrambled_causal=4&num_scrambled_schematic=4&participantId=86F14CECCA2444158F489BC11DF59E50&assignmentId=0198c3e8-16b4-74a0-b4f0-73f5fe1ed2ea&projectId=0198c3e5-90db-7030-b026-3fe33584d632","86F14CECCA2444158F489BC11DF59E50-2025-08-19-20-20-44","","null","","images/semantic_sequence/redecorating_semantic/redecorating_semantic_0.png","null","",""
"","","","","","html-audio-response","22","1240149","0.0-20.0","86F14CECCA2444158F489BC11DF59E50","86F14CECCA2444158F489BC11DF59E50","0198c3e8-16b4-74a0-b4f0-73f5fe1ed2ea","0198c3e5-90db-7030-b026-3fe33584d632","{""num_scrambled_semantic"":""8"",""num_scrambled_causal"":""4"",""num_scrambled_schematic"":""4"",""participantId"":""86F14CECCA2444158F489BC11DF59E50"",""assignmentId"":""0198c3e8-16b4-74a0-b4f0-73f5fe1ed2ea"",""projectId"":""0198c3e5-90db-7030-b026-3fe33584d632""}","https://test12345.live/?num_scrambled_semantic=8&num_scrambled_causal=4&num_scrambled_schematic=4&participantId=86F14CECCA2444158F489BC11DF59E50&assignmentId=0198c3e8-16b4-74a0-b4f0-73f5fe1ed2ea&projectId=0198c3e5-90db-7030-b026-3fe33584d632","86F14CECCA2444158F489BC11DF59E50-2025-08-19-20-20-44","","15299","","[""<span style=\""color: red; font-size: 24px\""> NOW RECORDING</span><p>Please say out loud all the images you saw, following the storyline they create. Try to recall the sequence of events as they unfolded in the story, rather than the order in which they appeared on the screen.</p>""]","","4","redecorating_semantic"
"","","","","","image-button-response","23","1246281","0.0-21.0-0.0","86F14CECCA2444158F489BC11DF59E50","86F14CECCA2444158F489BC11DF59E50","0198c3e8-16b4-74a0-b4f0-73f5fe1ed2ea","0198c3e5-90db-7030-b026-3fe33584d632","{""num_scrambled_semantic"":""8"",""num_scrambled_causal"":""4"",""num_scrambled_schematic"":""4"",""participantId"":""86F14CECCA2444158F489BC11DF59E50"",""assignmentId"":""0198c3e8-16b4-74a0-b4f0-73f5fe1ed2ea"",""projectId"":""0198c3e5-90db-7030-b026-3fe33584d632""}","https://test12345.live/?num_scrambled_semantic=8&num_scrambled_causal=4&num_scrambled_schematic=4&participantId=86F14CECCA2444158F489BC11DF59E50&assignmentId=0198c3e8-16b4-74a0-b4f0-73f5fe1ed2ea&projectId=0198c3e5-90db-7030-b026-3fe33584d632","86F14CECCA2444158F489BC11DF59E50-2025-08-19-20-20-44","","null","","images/causal_sequence/saving_a_cat_causal/saving_a_cat_causal_0.png","null","",""
"","","","","","html-audio-response","24","1262823","0.0-22.0","86F14CECCA2444158F489BC11DF59E50","86F14CECCA2444158F489BC11DF59E50","0198c3e8-16b4-74a0-b4f0-73f5fe1ed2ea","0198c3e5-90db-7030-b026-3fe33584d632","{""num_scrambled_semantic"":""8"",""num_scrambled_causal"":""4"",""num_scrambled_schematic"":""4"",""participantId"":""86F14CECCA2444158F489BC11DF59E50"",""assignmentId"":""0198c3e8-16b4-74a0-b4f0-73f5fe1ed2ea"",""projectId"":""0198c3e5-90db-7030-b026-3fe33584d632""}","https://test12345.live/?num_scrambled_semantic=8&num_scrambled_causal=4&num_scrambled_schematic=4&participantId=86F14CECCA2444158F489BC11DF59E50&assignmentId=0198c3e8-16b4-74a0-b4f0-73f5fe1ed2ea&projectId=0198c3e5-90db-7030-b026-3fe33584d632","86F14CECCA2444158F489BC11DF59E50-2025-08-19-20-20-44","","15828","","[""<span style=\""color: red; font-size: 24px\""> NOW RECORDING</span><p>Please say out loud all the images you saw, following the storyline they create. Try to recall the sequence of events as they unfolded in the story, rather than the order in which they appeared on the screen.</p>""]","","2","saving_a_cat_causal"
"","","","","","image-button-response","25","1269064","0.0-23.0-0.0","86F14CECCA2444158F489BC11DF59E50","86F14CECCA2444158F489BC11DF59E50","0198c3e8-16b4-74a0-b4f0-73f5fe1ed2ea","0198c3e5-90db-7030-b026-3fe33584d632","{""num_scrambled_semantic"":""8"",""num_scrambled_causal"":""4"",""num_scrambled_schematic"":""4"",""participantId"":""86F14CECCA2444158F489BC11DF59E50"",""assignmentId"":""0198c3e8-16b4-74a0-b4f0-73f5fe1ed2ea"",""projectId"":""0198c3e5-90db-7030-b026-3fe33584d632""}","https://test12345.live/?num_scrambled_semantic=8&num_scrambled_causal=4&num_scrambled_schematic=4&participantId=86F14CECCA2444158F489BC11DF59E50&assignmentId=0198c3e8-16b4-74a0-b4f0-73f5fe1ed2ea&projectId=0198c3e5-90db-7030-b026-3fe33584d632","86F14CECCA2444158F489BC11DF59E50-2025-08-19-20-20-44","","null","","images/semantic_sequence/using_technology_semantic/using_technology_semantic_0.png","null","",""
"","","","","","html-audio-response","26","1290220","0.0-24.0","86F14CECCA2444158F489BC11DF59E50","86F14CECCA2444158F489BC11DF59E50","0198c3e8-16b4-74a0-b4f0-73f5fe1ed2ea","0198c3e5-90db-7030-b026-3fe33584d632","{""num_scrambled_semantic"":""8"",""num_scrambled_causal"":""4"",""num_scrambled_schematic"":""4"",""participantId"":""86F14CECCA2444158F489BC11DF59E50"",""assignmentId"":""0198c3e8-16b4-74a0-b4f0-73f5fe1ed2ea"",""projectId"":""0198c3e5-90db-7030-b026-3fe33584d632""}","https://test12345.live/?num_scrambled_semantic=8&num_scrambled_causal=4&num_scrambled_schematic=4&participantId=86F14CECCA2444158F489BC11DF59E50&assignmentId=0198c3e8-16b4-74a0-b4f0-73f5fe1ed2ea&projectId=0198c3e5-90db-7030-b026-3fe33584d632","86F14CECCA2444158F489BC11DF59E50-2025-08-19-20-20-44","","20171","","[""<span style=\""color: red; font-size: 24px\""> NOW RECORDING</span><p>Please say out loud all the images you saw, following the storyline they create. Try to recall the sequence of events as they unfolded in the story, rather than the order in which they appeared on the screen.</p>""]","","6","using_technology_semantic"
"","","","","","image-button-response","27","1296240","0.0-25.0-0.0","86F14CECCA2444158F489BC11DF59E50","86F14CECCA2444158F489BC11DF59E50","0198c3e8-16b4-74a0-b4f0-73f5fe1ed2ea","0198c3e5-90db-7030-b026-3fe33584d632","{""num_scrambled_semantic"":""8"",""num_scrambled_causal"":""4"",""num_scrambled_schematic"":""4"",""participantId"":""86F14CECCA2444158F489BC11DF59E50"",""assignmentId"":""0198c3e8-16b4-74a0-b4f0-73f5fe1ed2ea"",""projectId"":""0198c3e5-90db-7030-b026-3fe33584d632""}","https://test12345.live/?num_scrambled_semantic=8&num_scrambled_causal=4&num_scrambled_schematic=4&participantId=86F14CECCA2444158F489BC11DF59E50&assignmentId=0198c3e8-16b4-74a0-b4f0-73f5fe1ed2ea&projectId=0198c3e5-90db-7030-b026-3fe33584d632","86F14CECCA2444158F489BC11DF59E50-2025-08-19-20-20-44","","null","","images/causal_sequence/museum_causal/museum_causal_0.png","null","",""
"","","","","","html-audio-response","28","1317608","0.0-26.0","86F14CECCA2444158F489BC11DF59E50","86F14CECCA2444158F489BC11DF59E50","0198c3e8-16b4-74a0-b4f0-73f5fe1ed2ea","0198c3e5-90db-7030-b026-3fe33584d632","{""num_scrambled_semantic"":""8"",""num_scrambled_causal"":""4"",""num_scrambled_schematic"":""4"",""participantId"":""86F14CECCA2444158F489BC11DF59E50"",""assignmentId"":""0198c3e8-16b4-74a0-b4f0-73f5fe1ed2ea"",""projectId"":""0198c3e5-90db-7030-b026-3fe33584d632""}","https://test12345.live/?num_scrambled_semantic=8&num_scrambled_causal=4&num_scrambled_schematic=4&participantId=86F14CECCA2444158F489BC11DF59E50&assignmentId=0198c3e8-16b4-74a0-b4f0-73f5fe1ed2ea&projectId=0198c3e5-90db-7030-b026-3fe33584d632","86F14CECCA2444158F489BC11DF59E50-2025-08-19-20-20-44","","20535","","[""<span style=\""color: red; font-size: 24px\""> NOW RECORDING</span><p>Please say out loud all the images you saw, following the storyline they create. Try to recall the sequence of events as they unfolded in the story, rather than the order in which they appeared on the screen.</p>""]","","0","museum_causal"
"","","","","","image-button-response","29","1323789","0.0-27.0-0.0","86F14CECCA2444158F489BC11DF59E50","86F14CECCA2444158F489BC11DF59E50","0198c3e8-16b4-74a0-b4f0-73f5fe1ed2ea","0198c3e5-90db-7030-b026-3fe33584d632","{""num_scrambled_semantic"":""8"",""num_scrambled_causal"":""4"",""num_scrambled_schematic"":""4"",""participantId"":""86F14CECCA2444158F489BC11DF59E50"",""assignmentId"":""0198c3e8-16b4-74a0-b4f0-73f5fe1ed2ea"",""projectId"":""0198c3e5-90db-7030-b026-3fe33584d632""}","https://test12345.live/?num_scrambled_semantic=8&num_scrambled_causal=4&num_scrambled_schematic=4&participantId=86F14CECCA2444158F489BC11DF59E50&assignmentId=0198c3e8-16b4-74a0-b4f0-73f5fe1ed2ea&projectId=0198c3e5-90db-7030-b026-3fe33584d632","86F14CECCA2444158F489BC11DF59E50-2025-08-19-20-20-44","","null","","images/semantic_sequence/housework_semantic/housework_semantic_0.png","null","",""
"","","","","","html-audio-response","30","1337353","0.0-28.0","86F14CECCA2444158F489BC11DF59E50","86F14CECCA2444158F489BC11DF59E50","0198c3e8-16b4-74a0-b4f0-73f5fe1ed2ea","0198c3e5-90db-7030-b026-3fe33584d632","{""num_scrambled_semantic"":""8"",""num_scrambled_causal"":""4"",""num_scrambled_schematic"":""4"",""participantId"":""86F14CECCA2444158F489BC11DF59E50"",""assignmentId"":""0198c3e8-16b4-74a0-b4f0-73f5fe1ed2ea"",""projectId"":""0198c3e5-90db-7030-b026-3fe33584d632""}","https://test12345.live/?num_scrambled_semantic=8&num_scrambled_causal=4&num_scrambled_schematic=4&participantId=86F14CECCA2444158F489BC11DF59E50&assignmentId=0198c3e8-16b4-74a0-b4f0-73f5fe1ed2ea&projectId=0198c3e5-90db-7030-b026-3fe33584d632","86F14CECCA2444158F489BC11DF59E50-2025-08-19-20-20-44","","11111","","[""<span style=\""color: red; font-size: 24px\""> NOW RECORDING</span><p>Please say out loud all the images you saw, following the storyline they create. Try to recall the sequence of events as they unfolded in the story, rather than the order in which they appeared on the screen.</p>""]","","0","housework_semantic"
"","","","","","image-button-response","31","1343720","0.0-29.0-0.0","86F14CECCA2444158F489BC11DF59E50","86F14CECCA2444158F489BC11DF59E50","0198c3e8-16b4-74a0-b4f0-73f5fe1ed2ea","0198c3e5-90db-7030-b026-3fe33584d632","{""num_scrambled_semantic"":""8"",""num_scrambled_causal"":""4"",""num_scrambled_schematic"":""4"",""participantId"":""86F14CECCA2444158F489BC11DF59E50"",""assignmentId"":""0198c3e8-16b4-74a0-b4f0-73f5fe1ed2ea"",""projectId"":""0198c3e5-90db-7030-b026-3fe33584d632""}","https://test12345.live/?num_scrambled_semantic=8&num_scrambled_causal=4&num_scrambled_schematic=4&participantId=86F14CECCA2444158F489BC11DF59E50&assignmentId=0198c3e8-16b4-74a0-b4f0-73f5fe1ed2ea&projectId=0198c3e5-90db-7030-b026-3fe33584d632","86F14CECCA2444158F489BC11DF59E50-2025-08-19-20-20-44","","null","","images/causal_sequence/dog_causal/dog_causal_0.png","null","",""
"","","","","","html-audio-response","32","1362914","0.0-30.0","86F14CECCA2444158F489BC11DF59E50","86F14CECCA2444158F489BC11DF59E50","0198c3e8-16b4-74a0-b4f0-73f5fe1ed2ea","0198c3e5-90db-7030-b026-3fe33584d632","{""num_scrambled_semantic"":""8"",""num_scrambled_causal"":""4"",""num_scrambled_schematic"":""4"",""participantId"":""86F14CECCA2444158F489BC11DF59E50"",""assignmentId"":""0198c3e8-16b4-74a0-b4f0-73f5fe1ed2ea"",""projectId"":""0198c3e5-90db-7030-b026-3fe33584d632""}","https://test12345.live/?num_scrambled_semantic=8&num_scrambled_causal=4&num_scrambled_schematic=4&participantId=86F14CECCA2444158F489BC11DF59E50&assignmentId=0198c3e8-16b4-74a0-b4f0-73f5fe1ed2ea&projectId=0198c3e5-90db-7030-b026-3fe33584d632","86F14CECCA2444158F489BC11DF59E50-2025-08-19-20-20-44","","18285","","[""<span style=\""color: red; font-size: 24px\""> NOW RECORDING</span><p>Please say out loud all the images you saw, following the storyline they create. Try to recall the sequence of events as they unfolded in the story, rather than the order in which they appeared on the screen.</p>""]","","0","dog_causal"
"","","","","","image-button-response","33","1368948","0.0-31.0-0.0","86F14CECCA2444158F489BC11DF59E50","86F14CECCA2444158F489BC11DF59E50","0198c3e8-16b4-74a0-b4f0-73f5fe1ed2ea","0198c3e5-90db-7030-b026-3fe33584d632","{""num_scrambled_semantic"":""8"",""num_scrambled_causal"":""4"",""num_scrambled_schematic"":""4"",""participantId"":""86F14CECCA2444158F489BC11DF59E50"",""assignmentId"":""0198c3e8-16b4-74a0-b4f0-73f5fe1ed2ea"",""projectId"":""0198c3e5-90db-7030-b026-3fe33584d632""}","https://test12345.live/?num_scrambled_semantic=8&num_scrambled_causal=4&num_scrambled_schematic=4&participantId=86F14CECCA2444158F489BC11DF59E50&assignmentId=0198c3e8-16b4-74a0-b4f0-73f5fe1ed2ea&projectId=0198c3e5-90db-7030-b026-3fe33584d632","86F14CECCA2444158F489BC11DF59E50-2025-08-19-20-20-44","","null","","images/semantic_sequence/cat_care_semantic/cat_care_semantic_0.png","null","",""
"","","","","","html-audio-response","34","1386899","0.0-32.0","86F14CECCA2444158F489BC11DF59E50","86F14CECCA2444158F489BC11DF59E50","0198c3e8-16b4-74a0-b4f0-73f5fe1ed2ea","0198c3e5-90db-7030-b026-3fe33584d632","{""num_scrambled_semantic"":""8"",""num_scrambled_causal"":""4"",""num_scrambled_schematic"":""4"",""participantId"":""86F14CECCA2444158F489BC11DF59E50"",""assignmentId"":""0198c3e8-16b4-74a0-b4f0-73f5fe1ed2ea"",""projectId"":""0198c3e5-90db-7030-b026-3fe33584d632""}","https://test12345.live/?num_scrambled_semantic=8&num_scrambled_causal=4&num_scrambled_schematic=4&participantId=86F14CECCA2444158F489BC11DF59E50&assignmentId=0198c3e8-16b4-74a0-b4f0-73f5fe1ed2ea&projectId=0198c3e5-90db-7030-b026-3fe33584d632","86F14CECCA2444158F489BC11DF59E50-2025-08-19-20-20-44","","16451","","[""<span style=\""color: red; font-size: 24px\""> NOW RECORDING</span><p>Please say out loud all the images you saw, following the storyline they create. Try to recall the sequence of events as they unfolded in the story, rather than the order in which they appeared on the screen.</p>""]","","0","cat_care_semantic"
"","","","","","image-button-response","35","1392912","0.0-33.0-0.0","86F14CECCA2444158F489BC11DF59E50","86F14CECCA2444158F489BC11DF59E50","0198c3e8-16b4-74a0-b4f0-73f5fe1ed2ea","0198c3e5-90db-7030-b026-3fe33584d632","{""num_scrambled_semantic"":""8"",""num_scrambled_causal"":""4"",""num_scrambled_schematic"":""4"",""participantId"":""86F14CECCA2444158F489BC11DF59E50"",""assignmentId"":""0198c3e8-16b4-74a0-b4f0-73f5fe1ed2ea"",""projectId"":""0198c3e5-90db-7030-b026-3fe33584d632""}","https://test12345.live/?num_scrambled_semantic=8&num_scrambled_causal=4&num_scrambled_schematic=4&participantId=86F14CECCA2444158F489BC11DF59E50&assignmentId=0198c3e8-16b4-74a0-b4f0-73f5fe1ed2ea&projectId=0198c3e5-90db-7030-b026-3fe33584d632","86F14CECCA2444158F489BC11DF59E50-2025-08-19-20-20-44","","null","","images/causal_sequence/the_performance_causal/the_performance_causal_0.png","null","",""
"","","","","","html-audio-response","36","1416763","0.0-34.0","86F14CECCA2444158F489BC11DF59E50","86F14CECCA2444158F489BC11DF59E50","0198c3e8-16b4-74a0-b4f0-73f5fe1ed2ea","0198c3e5-90db-7030-b026-3fe33584d632","{""num_scrambled_semantic"":""8"",""num_scrambled_causal"":""4"",""num_scrambled_schematic"":""4"",""participantId"":""86F14CECCA2444158F489BC11DF59E50"",""assignmentId"":""0198c3e8-16b4-74a0-b4f0-73f5fe1ed2ea"",""projectId"":""0198c3e5-90db-7030-b026-3fe33584d632""}","https://test12345.live/?num_scrambled_semantic=8&num_scrambled_causal=4&num_scrambled_schematic=4&participantId=86F14CECCA2444158F489BC11DF59E50&assignmentId=0198c3e8-16b4-74a0-b4f0-73f5fe1ed2ea&projectId=0198c3e5-90db-7030-b026-3fe33584d632","86F14CECCA2444158F489BC11DF59E50-2025-08-19-20-20-44","","19406","","[""<span style=\""color: red; font-size: 24px\""> NOW RECORDING</span><p>Please say out loud all the images you saw, following the storyline they create. Try to recall the sequence of events as they unfolded in the story, rather than the order in which they appeared on the screen.</p>""]","","5","the_performance_causal"
"","","","","","survey-text","37","1420507","0.0-35.0","86F14CECCA2444158F489BC11DF59E50","86F14CECCA2444158F489BC11DF59E50","0198c3e8-16b4-74a0-b4f0-73f5fe1ed2ea","0198c3e5-90db-7030-b026-3fe33584d632","{""num_scrambled_semantic"":""8"",""num_scrambled_causal"":""4"",""num_scrambled_schematic"":""4"",""participantId"":""86F14CECCA2444158F489BC11DF59E50"",""assignmentId"":""0198c3e8-16b4-74a0-b4f0-73f5fe1ed2ea"",""projectId"":""0198c3e5-90db-7030-b026-3fe33584d632""}","https://test12345.live/?num_scrambled_semantic=8&num_scrambled_causal=4&num_scrambled_schematic=4&participantId=86F14CECCA2444158F489BC11DF59E50&assignmentId=0198c3e8-16b4-74a0-b4f0-73f5fe1ed2ea&projectId=0198c3e5-90db-7030-b026-3fe33584d632","86F14CECCA2444158F489BC11DF59E50-2025-08-19-20-20-44","","3715","","","{""Q0"":""Female"",""Q1"":""25""}","",""
"","","","","","instructions","38","1422254","0.0-36.0","86F14CECCA2444158F489BC11DF59E50","86F14CECCA2444158F489BC11DF59E50","0198c3e8-16b4-74a0-b4f0-73f5fe1ed2ea","0198c3e5-90db-7030-b026-3fe33584d632","{""num_scrambled_semantic"":""8"",""num_scrambled_causal"":""4"",""num_scrambled_schematic"":""4"",""participantId"":""86F14CECCA2444158F489BC11DF59E50"",""assignmentId"":""0198c3e8-16b4-74a0-b4f0-73f5fe1ed2ea"",""projectId"":""0198c3e5-90db-7030-b026-3fe33584d632""}","https://test12345.live/?num_scrambled_semantic=8&num_scrambled_causal=4&num_scrambled_schematic=4&participantId=86F14CECCA2444158F489BC11DF59E50&assignmentId=0198c3e8-16b4-74a0-b4f0-73f5fe1ed2ea&projectId=0198c3e5-90db-7030-b026-3fe33584d632","86F14CECCA2444158F489BC11DF59E50-2025-08-19-20-20-44","[{""page_index"":0,""viewing_time"":1747}]","1748","","","","",""
"","","","","","survey-text","39","1423602","0.0-37.0","86F14CECCA2444158F489BC11DF59E50","86F14CECCA2444158F489BC11DF59E50","0198c3e8-16b4-74a0-b4f0-73f5fe1ed2ea","0198c3e5-90db-7030-b026-3fe33584d632","{""num_scrambled_semantic"":""8"",""num_scrambled_causal"":""4"",""num_scrambled_schematic"":""4"",""participantId"":""86F14CECCA2444158F489BC11DF59E50"",""assignmentId"":""0198c3e8-16b4-74a0-b4f0-73f5fe1ed2ea"",""projectId"":""0198c3e5-90db-7030-b026-3fe33584d632""}","https://test12345.live/?num_scrambled_semantic=8&num_scrambled_causal=4&num_scrambled_schematic=4&participantId=86F14CECCA2444158F489BC11DF59E50&assignmentId=0198c3e8-16b4-74a0-b4f0-73f5fe1ed2ea&projectId=0198c3e5-90db-7030-b026-3fe33584d632","86F14CECCA2444158F489BC11DF59E50-2025-08-19-20-20-44","","1346","","","{""Q0"":""AJFHBG896""}","",""
