"success","timeout","failed_images","failed_audio","failed_video","trial_type","trial_index","time_elapsed","internal_node_id","subject","subject_id","study_id","session_id","urlvar","current_url","audio_id","view_history","rt","device_id","stimulus","response","estimated_stimulus_onset","seq_name"
"true","false","[]","[]","[]","preload","0","884","0.0-0.0","879E34425DB343C1990ACDF765F0D7F3","879E34425DB343C1990ACDF765F0D7F3","0198c338-0eee-78f3-ac60-4dee5f8b3f9e","0198c320-653a-770c-93e4-41e10e7faa5f","{""num_scrambled_semantic"":""8"",""num_scrambled_causal"":""4"",""num_scrambled_schematic"":""4"",""participantId"":""879E34425DB343C1990ACDF765F0D7F3"",""assignmentId"":""0198c338-0eee-78f3-ac60-4dee5f8b3f9e"",""projectId"":""0198c320-653a-770c-93e4-41e10e7faa5f""}","https://test12345.live/?num_scrambled_semantic=8&num_scrambled_causal=4&num_scrambled_schematic=4&participantId=879E34425DB343C1990ACDF765F0D7F3&assignmentId=0198c338-0eee-78f3-ac60-4dee5f8b3f9e&projectId=0198c320-653a-770c-93e4-41e10e7faa5f","879E34425DB343C1990ACDF765F0D7F3-2025-08-19-17-01-47","","","","","","",""
"","","","","","instructions","1","53905","0.0-1.0","879E34425DB343C1990ACDF765F0D7F3","879E34425DB343C1990ACDF765F0D7F3","0198c338-0eee-78f3-ac60-4dee5f8b3f9e","0198c320-653a-770c-93e4-41e10e7faa5f","{""num_scrambled_semantic"":""8"",""num_scrambled_causal"":""4"",""num_scrambled_schematic"":""4"",""participantId"":""879E34425DB343C1990ACDF765F0D7F3"",""assignmentId"":""0198c338-0eee-78f3-ac60-4dee5f8b3f9e"",""projectId"":""0198c320-653a-770c-93e4-41e10e7faa5f""}","https://test12345.live/?num_scrambled_semantic=8&num_scrambled_causal=4&num_scrambled_schematic=4&participantId=879E34425DB343C1990ACDF765F0D7F3&assignmentId=0198c338-0eee-78f3-ac60-4dee5f8b3f9e&projectId=0198c320-653a-770c-93e4-41e10e7faa5f","879E34425DB343C1990ACDF765F0D7F3-2025-08-19-17-01-47","[{""page_index"":0,""viewing_time"":53019}]","53020","","","","",""
"","","","","","instructions","2","101869","0.0-2.0","879E34425DB343C1990ACDF765F0D7F3","879E34425DB343C1990ACDF765F0D7F3","0198c338-0eee-78f3-ac60-4dee5f8b3f9e","0198c320-653a-770c-93e4-41e10e7faa5f","{""num_scrambled_semantic"":""8"",""num_scrambled_causal"":""4"",""num_scrambled_schematic"":""4"",""participantId"":""879E34425DB343C1990ACDF765F0D7F3"",""assignmentId"":""0198c338-0eee-78f3-ac60-4dee5f8b3f9e"",""projectId"":""0198c320-653a-770c-93e4-41e10e7faa5f""}","https://test12345.live/?num_scrambled_semantic=8&num_scrambled_causal=4&num_scrambled_schematic=4&participantId=879E34425DB343C1990ACDF765F0D7F3&assignmentId=0198c338-0eee-78f3-ac60-4dee5f8b3f9e&projectId=0198c320-653a-770c-93e4-41e10e7faa5f","879E34425DB343C1990ACDF765F0D7F3-2025-08-19-17-01-47","[{""page_index"":0,""viewing_time"":47963}]","47963","","","","",""
"true","","","","","fullscreen","3","115661","0.0-3.0","879E34425DB343C1990ACDF765F0D7F3","879E34425DB343C1990ACDF765F0D7F3","0198c338-0eee-78f3-ac60-4dee5f8b3f9e","0198c320-653a-770c-93e4-41e10e7faa5f","{""num_scrambled_semantic"":""8"",""num_scrambled_causal"":""4"",""num_scrambled_schematic"":""4"",""participantId"":""879E34425DB343C1990ACDF765F0D7F3"",""assignmentId"":""0198c338-0eee-78f3-ac60-4dee5f8b3f9e"",""projectId"":""0198c320-653a-770c-93e4-41e10e7faa5f""}","https://test12345.live/?num_scrambled_semantic=8&num_scrambled_causal=4&num_scrambled_schematic=4&participantId=879E34425DB343C1990ACDF765F0D7F3&assignmentId=0198c338-0eee-78f3-ac60-4dee5f8b3f9e&projectId=0198c320-653a-770c-93e4-41e10e7faa5f","879E34425DB343C1990ACDF765F0D7F3-2025-08-19-17-01-47","","12778","","","","",""
"","","","","","initialize-microphone","4","123016","0.0-4.0-0.0","879E34425DB343C1990ACDF765F0D7F3","879E34425DB343C1990ACDF765F0D7F3","0198c338-0eee-78f3-ac60-4dee5f8b3f9e","0198c320-653a-770c-93e4-41e10e7faa5f","{""num_scrambled_semantic"":""8"",""num_scrambled_causal"":""4"",""num_scrambled_schematic"":""4"",""participantId"":""879E34425DB343C1990ACDF765F0D7F3"",""assignmentId"":""0198c338-0eee-78f3-ac60-4dee5f8b3f9e"",""projectId"":""0198c320-653a-770c-93e4-41e10e7faa5f""}","https://test12345.live/?num_scrambled_semantic=8&num_scrambled_causal=4&num_scrambled_schematic=4&participantId=879E34425DB343C1990ACDF765F0D7F3&assignmentId=0198c338-0eee-78f3-ac60-4dee5f8b3f9e&projectId=0198c320-653a-770c-93e4-41e10e7faa5f","879E34425DB343C1990ACDF765F0D7F3-2025-08-19-17-01-47","","","5404eb78759e6a29e34f64582edfde75d2659156bcda1220cd4240ec46a9dd39","","","",""
"","","","","","html-audio-response","5","134646","0.0-4.0-1.0","879E34425DB343C1990ACDF765F0D7F3","879E34425DB343C1990ACDF765F0D7F3","0198c338-0eee-78f3-ac60-4dee5f8b3f9e","0198c320-653a-770c-93e4-41e10e7faa5f","{""num_scrambled_semantic"":""8"",""num_scrambled_causal"":""4"",""num_scrambled_schematic"":""4"",""participantId"":""879E34425DB343C1990ACDF765F0D7F3"",""assignmentId"":""0198c338-0eee-78f3-ac60-4dee5f8b3f9e"",""projectId"":""0198c320-653a-770c-93e4-41e10e7faa5f""}","https://test12345.live/?num_scrambled_semantic=8&num_scrambled_causal=4&num_scrambled_schematic=4&participantId=879E34425DB343C1990ACDF765F0D7F3&assignmentId=0198c338-0eee-78f3-ac60-4dee5f8b3f9e&projectId=0198c320-653a-770c-93e4-41e10e7faa5f","879E34425DB343C1990ACDF765F0D7F3-2025-08-19-17-01-47","","3989","","<span style=""color: red; font-size: 24px""> NOW RECORDING</span>
        <p>Please test Microphone</p>","","8",""
"","","","","","html-button-response","6","136619","0.0-4.0-2.0","879E34425DB343C1990ACDF765F0D7F3","879E34425DB343C1990ACDF765F0D7F3","0198c338-0eee-78f3-ac60-4dee5f8b3f9e","0198c320-653a-770c-93e4-41e10e7faa5f","{""num_scrambled_semantic"":""8"",""num_scrambled_causal"":""4"",""num_scrambled_schematic"":""4"",""participantId"":""879E34425DB343C1990ACDF765F0D7F3"",""assignmentId"":""0198c338-0eee-78f3-ac60-4dee5f8b3f9e"",""projectId"":""0198c320-653a-770c-93e4-41e10e7faa5f""}","https://test12345.live/?num_scrambled_semantic=8&num_scrambled_causal=4&num_scrambled_schematic=4&participantId=879E34425DB343C1990ACDF765F0D7F3&assignmentId=0198c338-0eee-78f3-ac60-4dee5f8b3f9e&projectId=0198c320-653a-770c-93e4-41e10e7faa5f","879E34425DB343C1990ACDF765F0D7F3-2025-08-19-17-01-47","","1970","","<p style=""font-size:48px; color:red;"">Is Microphone OK?</p>","1","",""
"","","","","","instructions","7","153178","0.0-5.0","879E34425DB343C1990ACDF765F0D7F3","879E34425DB343C1990ACDF765F0D7F3","0198c338-0eee-78f3-ac60-4dee5f8b3f9e","0198c320-653a-770c-93e4-41e10e7faa5f","{""num_scrambled_semantic"":""8"",""num_scrambled_causal"":""4"",""num_scrambled_schematic"":""4"",""participantId"":""879E34425DB343C1990ACDF765F0D7F3"",""assignmentId"":""0198c338-0eee-78f3-ac60-4dee5f8b3f9e"",""projectId"":""0198c320-653a-770c-93e4-41e10e7faa5f""}","https://test12345.live/?num_scrambled_semantic=8&num_scrambled_causal=4&num_scrambled_schematic=4&participantId=879E34425DB343C1990ACDF765F0D7F3&assignmentId=0198c338-0eee-78f3-ac60-4dee5f8b3f9e&projectId=0198c320-653a-770c-93e4-41e10e7faa5f","879E34425DB343C1990ACDF765F0D7F3-2025-08-19-17-01-47","[{""page_index"":0,""viewing_time"":2040},{""page_index"":1,""viewing_time"":8431},{""page_index"":2,""viewing_time"":6085}]","16556","","","","",""
"","","","","","image-button-response","8","159199","0.0-6.0-0.0","879E34425DB343C1990ACDF765F0D7F3","879E34425DB343C1990ACDF765F0D7F3","0198c338-0eee-78f3-ac60-4dee5f8b3f9e","0198c320-653a-770c-93e4-41e10e7faa5f","{""num_scrambled_semantic"":""8"",""num_scrambled_causal"":""4"",""num_scrambled_schematic"":""4"",""participantId"":""879E34425DB343C1990ACDF765F0D7F3"",""assignmentId"":""0198c338-0eee-78f3-ac60-4dee5f8b3f9e"",""projectId"":""0198c320-653a-770c-93e4-41e10e7faa5f""}","https://test12345.live/?num_scrambled_semantic=8&num_scrambled_causal=4&num_scrambled_schematic=4&participantId=879E34425DB343C1990ACDF765F0D7F3&assignmentId=0198c338-0eee-78f3-ac60-4dee5f8b3f9e&projectId=0198c320-653a-770c-93e4-41e10e7faa5f","879E34425DB343C1990ACDF765F0D7F3-2025-08-19-17-01-47","","null","","images/instructions/movie_0.png","null","",""
"","","","","","html-audio-response","9","195085","0.0-7.0","879E34425DB343C1990ACDF765F0D7F3","879E34425DB343C1990ACDF765F0D7F3","0198c338-0eee-78f3-ac60-4dee5f8b3f9e","0198c320-653a-770c-93e4-41e10e7faa5f","{""num_scrambled_semantic"":""8"",""num_scrambled_causal"":""4"",""num_scrambled_schematic"":""4"",""participantId"":""879E34425DB343C1990ACDF765F0D7F3"",""assignmentId"":""0198c338-0eee-78f3-ac60-4dee5f8b3f9e"",""projectId"":""0198c320-653a-770c-93e4-41e10e7faa5f""}","https://test12345.live/?num_scrambled_semantic=8&num_scrambled_causal=4&num_scrambled_schematic=4&participantId=879E34425DB343C1990ACDF765F0D7F3&assignmentId=0198c338-0eee-78f3-ac60-4dee5f8b3f9e&projectId=0198c320-653a-770c-93e4-41e10e7faa5f","879E34425DB343C1990ACDF765F0D7F3-2025-08-19-17-01-47","","17122","","[""<span style=\""color: red; font-size: 24px\""> NOW RECORDING</span><p>Please say out loud all the images you saw in part 1 of the experiment, as many as you can remember. The images can be said in any order.</p>""]","","2",""
"","","","","","instructions","10","197132","0.0-8.0","879E34425DB343C1990ACDF765F0D7F3","879E34425DB343C1990ACDF765F0D7F3","0198c338-0eee-78f3-ac60-4dee5f8b3f9e","0198c320-653a-770c-93e4-41e10e7faa5f","{""num_scrambled_semantic"":""8"",""num_scrambled_causal"":""4"",""num_scrambled_schematic"":""4"",""participantId"":""879E34425DB343C1990ACDF765F0D7F3"",""assignmentId"":""0198c338-0eee-78f3-ac60-4dee5f8b3f9e"",""projectId"":""0198c320-653a-770c-93e4-41e10e7faa5f""}","https://test12345.live/?num_scrambled_semantic=8&num_scrambled_causal=4&num_scrambled_schematic=4&participantId=879E34425DB343C1990ACDF765F0D7F3&assignmentId=0198c338-0eee-78f3-ac60-4dee5f8b3f9e&projectId=0198c320-653a-770c-93e4-41e10e7faa5f","879E34425DB343C1990ACDF765F0D7F3-2025-08-19-17-01-47","[{""page_index"":0,""viewing_time"":2040}]","2040","","","","",""
"","","","","","image-button-response","11","203139","0.0-9.0-0.0","879E34425DB343C1990ACDF765F0D7F3","879E34425DB343C1990ACDF765F0D7F3","0198c338-0eee-78f3-ac60-4dee5f8b3f9e","0198c320-653a-770c-93e4-41e10e7faa5f","{""num_scrambled_semantic"":""8"",""num_scrambled_causal"":""4"",""num_scrambled_schematic"":""4"",""participantId"":""879E34425DB343C1990ACDF765F0D7F3"",""assignmentId"":""0198c338-0eee-78f3-ac60-4dee5f8b3f9e"",""projectId"":""0198c320-653a-770c-93e4-41e10e7faa5f""}","https://test12345.live/?num_scrambled_semantic=8&num_scrambled_causal=4&num_scrambled_schematic=4&participantId=879E34425DB343C1990ACDF765F0D7F3&assignmentId=0198c338-0eee-78f3-ac60-4dee5f8b3f9e&projectId=0198c320-653a-770c-93e4-41e10e7faa5f","879E34425DB343C1990ACDF765F0D7F3-2025-08-19-17-01-47","","null","","images/semantic_sequence/redecorating_semantic/redecorating_semantic_0.png","null","",""
"","","","","","html-audio-response","12","265216","0.0-10.0","879E34425DB343C1990ACDF765F0D7F3","879E34425DB343C1990ACDF765F0D7F3","0198c338-0eee-78f3-ac60-4dee5f8b3f9e","0198c320-653a-770c-93e4-41e10e7faa5f","{""num_scrambled_semantic"":""8"",""num_scrambled_causal"":""4"",""num_scrambled_schematic"":""4"",""participantId"":""879E34425DB343C1990ACDF765F0D7F3"",""assignmentId"":""0198c338-0eee-78f3-ac60-4dee5f8b3f9e"",""projectId"":""0198c320-653a-770c-93e4-41e10e7faa5f""}","https://test12345.live/?num_scrambled_semantic=8&num_scrambled_causal=4&num_scrambled_schematic=4&participantId=879E34425DB343C1990ACDF765F0D7F3&assignmentId=0198c338-0eee-78f3-ac60-4dee5f8b3f9e&projectId=0198c320-653a-770c-93e4-41e10e7faa5f","879E34425DB343C1990ACDF765F0D7F3-2025-08-19-17-01-47","","31541","","[""<span style=\""color: red; font-size: 24px\""> NOW RECORDING</span><p>Please say out loud all the images you saw in part 1 of the experiment, as many as you can remember. The images can be said in any order.</p>""]","","2","redecorating_semantic"
"","","","","","image-button-response","13","271228","0.0-11.0-0.0","879E34425DB343C1990ACDF765F0D7F3","879E34425DB343C1990ACDF765F0D7F3","0198c338-0eee-78f3-ac60-4dee5f8b3f9e","0198c320-653a-770c-93e4-41e10e7faa5f","{""num_scrambled_semantic"":""8"",""num_scrambled_causal"":""4"",""num_scrambled_schematic"":""4"",""participantId"":""879E34425DB343C1990ACDF765F0D7F3"",""assignmentId"":""0198c338-0eee-78f3-ac60-4dee5f8b3f9e"",""projectId"":""0198c320-653a-770c-93e4-41e10e7faa5f""}","https://test12345.live/?num_scrambled_semantic=8&num_scrambled_causal=4&num_scrambled_schematic=4&participantId=879E34425DB343C1990ACDF765F0D7F3&assignmentId=0198c338-0eee-78f3-ac60-4dee5f8b3f9e&projectId=0198c320-653a-770c-93e4-41e10e7faa5f","879E34425DB343C1990ACDF765F0D7F3-2025-08-19-17-01-47","","null","","images/semantic_sequence/using_technology_semantic/using_technology_semantic_0.png","null","",""
"","","","","","html-audio-response","14","301883","0.0-12.0","879E34425DB343C1990ACDF765F0D7F3","879E34425DB343C1990ACDF765F0D7F3","0198c338-0eee-78f3-ac60-4dee5f8b3f9e","0198c320-653a-770c-93e4-41e10e7faa5f","{""num_scrambled_semantic"":""8"",""num_scrambled_causal"":""4"",""num_scrambled_schematic"":""4"",""participantId"":""879E34425DB343C1990ACDF765F0D7F3"",""assignmentId"":""0198c338-0eee-78f3-ac60-4dee5f8b3f9e"",""projectId"":""0198c320-653a-770c-93e4-41e10e7faa5f""}","https://test12345.live/?num_scrambled_semantic=8&num_scrambled_causal=4&num_scrambled_schematic=4&participantId=879E34425DB343C1990ACDF765F0D7F3&assignmentId=0198c338-0eee-78f3-ac60-4dee5f8b3f9e&projectId=0198c320-653a-770c-93e4-41e10e7faa5f","879E34425DB343C1990ACDF765F0D7F3-2025-08-19-17-01-47","","12248","","[""<span style=\""color: red; font-size: 24px\""> NOW RECORDING</span><p>Please say out loud all the images you saw in part 1 of the experiment, as many as you can remember. The images can be said in any order.</p>""]","","1","using_technology_semantic"
"","","","","","image-button-response","15","307888","0.0-13.0-0.0","879E34425DB343C1990ACDF765F0D7F3","879E34425DB343C1990ACDF765F0D7F3","0198c338-0eee-78f3-ac60-4dee5f8b3f9e","0198c320-653a-770c-93e4-41e10e7faa5f","{""num_scrambled_semantic"":""8"",""num_scrambled_causal"":""4"",""num_scrambled_schematic"":""4"",""participantId"":""879E34425DB343C1990ACDF765F0D7F3"",""assignmentId"":""0198c338-0eee-78f3-ac60-4dee5f8b3f9e"",""projectId"":""0198c320-653a-770c-93e4-41e10e7faa5f""}","https://test12345.live/?num_scrambled_semantic=8&num_scrambled_causal=4&num_scrambled_schematic=4&participantId=879E34425DB343C1990ACDF765F0D7F3&assignmentId=0198c338-0eee-78f3-ac60-4dee5f8b3f9e&projectId=0198c320-653a-770c-93e4-41e10e7faa5f","879E34425DB343C1990ACDF765F0D7F3-2025-08-19-17-01-47","","null","","images/semantic_sequence/physical_activity_semantic/physical_activity_semantic_0.png","null","",""
"","","","","","html-audio-response","16","333531","0.0-14.0","879E34425DB343C1990ACDF765F0D7F3","879E34425DB343C1990ACDF765F0D7F3","0198c338-0eee-78f3-ac60-4dee5f8b3f9e","0198c320-653a-770c-93e4-41e10e7faa5f","{""num_scrambled_semantic"":""8"",""num_scrambled_causal"":""4"",""num_scrambled_schematic"":""4"",""participantId"":""879E34425DB343C1990ACDF765F0D7F3"",""assignmentId"":""0198c338-0eee-78f3-ac60-4dee5f8b3f9e"",""projectId"":""0198c320-653a-770c-93e4-41e10e7faa5f""}","https://test12345.live/?num_scrambled_semantic=8&num_scrambled_causal=4&num_scrambled_schematic=4&participantId=879E34425DB343C1990ACDF765F0D7F3&assignmentId=0198c338-0eee-78f3-ac60-4dee5f8b3f9e&projectId=0198c320-653a-770c-93e4-41e10e7faa5f","879E34425DB343C1990ACDF765F0D7F3-2025-08-19-17-01-47","","12666","","[""<span style=\""color: red; font-size: 24px\""> NOW RECORDING</span><p>Please say out loud all the images you saw in part 1 of the experiment, as many as you can remember. The images can be said in any order.</p>""]","","1","physical_activity_semantic"
"","","","","","image-button-response","17","339538","0.0-15.0-0.0","879E34425DB343C1990ACDF765F0D7F3","879E34425DB343C1990ACDF765F0D7F3","0198c338-0eee-78f3-ac60-4dee5f8b3f9e","0198c320-653a-770c-93e4-41e10e7faa5f","{""num_scrambled_semantic"":""8"",""num_scrambled_causal"":""4"",""num_scrambled_schematic"":""4"",""participantId"":""879E34425DB343C1990ACDF765F0D7F3"",""assignmentId"":""0198c338-0eee-78f3-ac60-4dee5f8b3f9e"",""projectId"":""0198c320-653a-770c-93e4-41e10e7faa5f""}","https://test12345.live/?num_scrambled_semantic=8&num_scrambled_causal=4&num_scrambled_schematic=4&participantId=879E34425DB343C1990ACDF765F0D7F3&assignmentId=0198c338-0eee-78f3-ac60-4dee5f8b3f9e&projectId=0198c320-653a-770c-93e4-41e10e7faa5f","879E34425DB343C1990ACDF765F0D7F3-2025-08-19-17-01-47","","null","","images/causal_sequence/coin_causal/coin_causal_0.png","null","",""
"","","","","","html-audio-response","18","426371","0.0-16.0","879E34425DB343C1990ACDF765F0D7F3","879E34425DB343C1990ACDF765F0D7F3","0198c338-0eee-78f3-ac60-4dee5f8b3f9e","0198c320-653a-770c-93e4-41e10e7faa5f","{""num_scrambled_semantic"":""8"",""num_scrambled_causal"":""4"",""num_scrambled_schematic"":""4"",""participantId"":""879E34425DB343C1990ACDF765F0D7F3"",""assignmentId"":""0198c338-0eee-78f3-ac60-4dee5f8b3f9e"",""projectId"":""0198c320-653a-770c-93e4-41e10e7faa5f""}","https://test12345.live/?num_scrambled_semantic=8&num_scrambled_causal=4&num_scrambled_schematic=4&participantId=879E34425DB343C1990ACDF765F0D7F3&assignmentId=0198c338-0eee-78f3-ac60-4dee5f8b3f9e&projectId=0198c320-653a-770c-93e4-41e10e7faa5f","879E34425DB343C1990ACDF765F0D7F3-2025-08-19-17-01-47","","36720","","[""<span style=\""color: red; font-size: 24px\""> NOW RECORDING</span><p>Please say out loud all the images you saw in part 1 of the experiment, as many as you can remember. The images can be said in any order.</p>""]","","7","coin_causal"
"","","","","","image-button-response","19","432387","0.0-17.0-0.0","879E34425DB343C1990ACDF765F0D7F3","879E34425DB343C1990ACDF765F0D7F3","0198c338-0eee-78f3-ac60-4dee5f8b3f9e","0198c320-653a-770c-93e4-41e10e7faa5f","{""num_scrambled_semantic"":""8"",""num_scrambled_causal"":""4"",""num_scrambled_schematic"":""4"",""participantId"":""879E34425DB343C1990ACDF765F0D7F3"",""assignmentId"":""0198c338-0eee-78f3-ac60-4dee5f8b3f9e"",""projectId"":""0198c320-653a-770c-93e4-41e10e7faa5f""}","https://test12345.live/?num_scrambled_semantic=8&num_scrambled_causal=4&num_scrambled_schematic=4&participantId=879E34425DB343C1990ACDF765F0D7F3&assignmentId=0198c338-0eee-78f3-ac60-4dee5f8b3f9e&projectId=0198c320-653a-770c-93e4-41e10e7faa5f","879E34425DB343C1990ACDF765F0D7F3-2025-08-19-17-01-47","","null","","images/semantic_sequence/housework_semantic/housework_semantic_0.png","null","",""
"","","","","","html-audio-response","20","451228","0.0-18.0","879E34425DB343C1990ACDF765F0D7F3","879E34425DB343C1990ACDF765F0D7F3","0198c338-0eee-78f3-ac60-4dee5f8b3f9e","0198c320-653a-770c-93e4-41e10e7faa5f","{""num_scrambled_semantic"":""8"",""num_scrambled_causal"":""4"",""num_scrambled_schematic"":""4"",""participantId"":""879E34425DB343C1990ACDF765F0D7F3"",""assignmentId"":""0198c338-0eee-78f3-ac60-4dee5f8b3f9e"",""projectId"":""0198c320-653a-770c-93e4-41e10e7faa5f""}","https://test12345.live/?num_scrambled_semantic=8&num_scrambled_causal=4&num_scrambled_schematic=4&participantId=879E34425DB343C1990ACDF765F0D7F3&assignmentId=0198c338-0eee-78f3-ac60-4dee5f8b3f9e&projectId=0198c320-653a-770c-93e4-41e10e7faa5f","879E34425DB343C1990ACDF765F0D7F3-2025-08-19-17-01-47","","8266","","[""<span style=\""color: red; font-size: 24px\""> NOW RECORDING</span><p>Please say out loud all the images you saw in part 1 of the experiment, as many as you can remember. The images can be said in any order.</p>""]","","1","housework_semantic"
"","","","","","image-button-response","21","457237","0.0-19.0-0.0","879E34425DB343C1990ACDF765F0D7F3","879E34425DB343C1990ACDF765F0D7F3","0198c338-0eee-78f3-ac60-4dee5f8b3f9e","0198c320-653a-770c-93e4-41e10e7faa5f","{""num_scrambled_semantic"":""8"",""num_scrambled_causal"":""4"",""num_scrambled_schematic"":""4"",""participantId"":""879E34425DB343C1990ACDF765F0D7F3"",""assignmentId"":""0198c338-0eee-78f3-ac60-4dee5f8b3f9e"",""projectId"":""0198c320-653a-770c-93e4-41e10e7faa5f""}","https://test12345.live/?num_scrambled_semantic=8&num_scrambled_causal=4&num_scrambled_schematic=4&participantId=879E34425DB343C1990ACDF765F0D7F3&assignmentId=0198c338-0eee-78f3-ac60-4dee5f8b3f9e&projectId=0198c320-653a-770c-93e4-41e10e7faa5f","879E34425DB343C1990ACDF765F0D7F3-2025-08-19-17-01-47","","null","","images/semantic_sequence/cat_care_semantic/cat_care_semantic_0.png","null","",""
"","","","","","html-audio-response","22","511627","0.0-20.0","879E34425DB343C1990ACDF765F0D7F3","879E34425DB343C1990ACDF765F0D7F3","0198c338-0eee-78f3-ac60-4dee5f8b3f9e","0198c320-653a-770c-93e4-41e10e7faa5f","{""num_scrambled_semantic"":""8"",""num_scrambled_causal"":""4"",""num_scrambled_schematic"":""4"",""participantId"":""879E34425DB343C1990ACDF765F0D7F3"",""assignmentId"":""0198c338-0eee-78f3-ac60-4dee5f8b3f9e"",""projectId"":""0198c320-653a-770c-93e4-41e10e7faa5f""}","https://test12345.live/?num_scrambled_semantic=8&num_scrambled_causal=4&num_scrambled_schematic=4&participantId=879E34425DB343C1990ACDF765F0D7F3&assignmentId=0198c338-0eee-78f3-ac60-4dee5f8b3f9e&projectId=0198c320-653a-770c-93e4-41e10e7faa5f","879E34425DB343C1990ACDF765F0D7F3-2025-08-19-17-01-47","","33521","","[""<span style=\""color: red; font-size: 24px\""> NOW RECORDING</span><p>Please say out loud all the images you saw in part 1 of the experiment, as many as you can remember. The images can be said in any order.</p>""]","","1","cat_care_semantic"
"","","","","","image-button-response","23","517646","0.0-21.0-0.0","879E34425DB343C1990ACDF765F0D7F3","879E34425DB343C1990ACDF765F0D7F3","0198c338-0eee-78f3-ac60-4dee5f8b3f9e","0198c320-653a-770c-93e4-41e10e7faa5f","{""num_scrambled_semantic"":""8"",""num_scrambled_causal"":""4"",""num_scrambled_schematic"":""4"",""participantId"":""879E34425DB343C1990ACDF765F0D7F3"",""assignmentId"":""0198c338-0eee-78f3-ac60-4dee5f8b3f9e"",""projectId"":""0198c320-653a-770c-93e4-41e10e7faa5f""}","https://test12345.live/?num_scrambled_semantic=8&num_scrambled_causal=4&num_scrambled_schematic=4&participantId=879E34425DB343C1990ACDF765F0D7F3&assignmentId=0198c338-0eee-78f3-ac60-4dee5f8b3f9e&projectId=0198c320-653a-770c-93e4-41e10e7faa5f","879E34425DB343C1990ACDF765F0D7F3-2025-08-19-17-01-47","","null","","images/causal_sequence/the_performance_causal/the_performance_causal_0.png","null","",""
"","","","","","html-audio-response","24","596958","0.0-22.0","879E34425DB343C1990ACDF765F0D7F3","879E34425DB343C1990ACDF765F0D7F3","0198c338-0eee-78f3-ac60-4dee5f8b3f9e","0198c320-653a-770c-93e4-41e10e7faa5f","{""num_scrambled_semantic"":""8"",""num_scrambled_causal"":""4"",""num_scrambled_schematic"":""4"",""participantId"":""879E34425DB343C1990ACDF765F0D7F3"",""assignmentId"":""0198c338-0eee-78f3-ac60-4dee5f8b3f9e"",""projectId"":""0198c320-653a-770c-93e4-41e10e7faa5f""}","https://test12345.live/?num_scrambled_semantic=8&num_scrambled_causal=4&num_scrambled_schematic=4&participantId=879E34425DB343C1990ACDF765F0D7F3&assignmentId=0198c338-0eee-78f3-ac60-4dee5f8b3f9e&projectId=0198c320-653a-770c-93e4-41e10e7faa5f","879E34425DB343C1990ACDF765F0D7F3-2025-08-19-17-01-47","","48402","","[""<span style=\""color: red; font-size: 24px\""> NOW RECORDING</span><p>Please say out loud all the images you saw in part 1 of the experiment, as many as you can remember. The images can be said in any order.</p>""]","","2","the_performance_causal"
"","","","","","image-button-response","25","602986","0.0-23.0-0.0","879E34425DB343C1990ACDF765F0D7F3","879E34425DB343C1990ACDF765F0D7F3","0198c338-0eee-78f3-ac60-4dee5f8b3f9e","0198c320-653a-770c-93e4-41e10e7faa5f","{""num_scrambled_semantic"":""8"",""num_scrambled_causal"":""4"",""num_scrambled_schematic"":""4"",""participantId"":""879E34425DB343C1990ACDF765F0D7F3"",""assignmentId"":""0198c338-0eee-78f3-ac60-4dee5f8b3f9e"",""projectId"":""0198c320-653a-770c-93e4-41e10e7faa5f""}","https://test12345.live/?num_scrambled_semantic=8&num_scrambled_causal=4&num_scrambled_schematic=4&participantId=879E34425DB343C1990ACDF765F0D7F3&assignmentId=0198c338-0eee-78f3-ac60-4dee5f8b3f9e&projectId=0198c320-653a-770c-93e4-41e10e7faa5f","879E34425DB343C1990ACDF765F0D7F3-2025-08-19-17-01-47","","null","","images/causal_sequence/museum_causal/museum_causal_0.png","null","",""
"","","","","","html-audio-response","26","637923","0.0-24.0","879E34425DB343C1990ACDF765F0D7F3","879E34425DB343C1990ACDF765F0D7F3","0198c338-0eee-78f3-ac60-4dee5f8b3f9e","0198c320-653a-770c-93e4-41e10e7faa5f","{""num_scrambled_semantic"":""8"",""num_scrambled_causal"":""4"",""num_scrambled_schematic"":""4"",""participantId"":""879E34425DB343C1990ACDF765F0D7F3"",""assignmentId"":""0198c338-0eee-78f3-ac60-4dee5f8b3f9e"",""projectId"":""0198c320-653a-770c-93e4-41e10e7faa5f""}","https://test12345.live/?num_scrambled_semantic=8&num_scrambled_causal=4&num_scrambled_schematic=4&participantId=879E34425DB343C1990ACDF765F0D7F3&assignmentId=0198c338-0eee-78f3-ac60-4dee5f8b3f9e&projectId=0198c320-653a-770c-93e4-41e10e7faa5f","879E34425DB343C1990ACDF765F0D7F3-2025-08-19-17-01-47","","7724","","[""<span style=\""color: red; font-size: 24px\""> NOW RECORDING</span><p>Please say out loud all the images you saw in part 1 of the experiment, as many as you can remember. The images can be said in any order.</p>""]","","1","museum_causal"
"","","","","","image-button-response","27","643936","0.0-25.0-0.0","879E34425DB343C1990ACDF765F0D7F3","879E34425DB343C1990ACDF765F0D7F3","0198c338-0eee-78f3-ac60-4dee5f8b3f9e","0198c320-653a-770c-93e4-41e10e7faa5f","{""num_scrambled_semantic"":""8"",""num_scrambled_causal"":""4"",""num_scrambled_schematic"":""4"",""participantId"":""879E34425DB343C1990ACDF765F0D7F3"",""assignmentId"":""0198c338-0eee-78f3-ac60-4dee5f8b3f9e"",""projectId"":""0198c320-653a-770c-93e4-41e10e7faa5f""}","https://test12345.live/?num_scrambled_semantic=8&num_scrambled_causal=4&num_scrambled_schematic=4&participantId=879E34425DB343C1990ACDF765F0D7F3&assignmentId=0198c338-0eee-78f3-ac60-4dee5f8b3f9e&projectId=0198c320-653a-770c-93e4-41e10e7faa5f","879E34425DB343C1990ACDF765F0D7F3-2025-08-19-17-01-47","","null","","images/causal_sequence/saving_a_cat_causal/saving_a_cat_causal_0.png","null","",""
"","","","","","html-audio-response","28","663206","0.0-26.0","879E34425DB343C1990ACDF765F0D7F3","879E34425DB343C1990ACDF765F0D7F3","0198c338-0eee-78f3-ac60-4dee5f8b3f9e","0198c320-653a-770c-93e4-41e10e7faa5f","{""num_scrambled_semantic"":""8"",""num_scrambled_causal"":""4"",""num_scrambled_schematic"":""4"",""participantId"":""879E34425DB343C1990ACDF765F0D7F3"",""assignmentId"":""0198c338-0eee-78f3-ac60-4dee5f8b3f9e"",""projectId"":""0198c320-653a-770c-93e4-41e10e7faa5f""}","https://test12345.live/?num_scrambled_semantic=8&num_scrambled_causal=4&num_scrambled_schematic=4&participantId=879E34425DB343C1990ACDF765F0D7F3&assignmentId=0198c338-0eee-78f3-ac60-4dee5f8b3f9e&projectId=0198c320-653a-770c-93e4-41e10e7faa5f","879E34425DB343C1990ACDF765F0D7F3-2025-08-19-17-01-47","","9275","","[""<span style=\""color: red; font-size: 24px\""> NOW RECORDING</span><p>Please say out loud all the images you saw in part 1 of the experiment, as many as you can remember. The images can be said in any order.</p>""]","","1","saving_a_cat_causal"
"","","","","","image-button-response","29","669215","0.0-27.0-0.0","879E34425DB343C1990ACDF765F0D7F3","879E34425DB343C1990ACDF765F0D7F3","0198c338-0eee-78f3-ac60-4dee5f8b3f9e","0198c320-653a-770c-93e4-41e10e7faa5f","{""num_scrambled_semantic"":""8"",""num_scrambled_causal"":""4"",""num_scrambled_schematic"":""4"",""participantId"":""879E34425DB343C1990ACDF765F0D7F3"",""assignmentId"":""0198c338-0eee-78f3-ac60-4dee5f8b3f9e"",""projectId"":""0198c320-653a-770c-93e4-41e10e7faa5f""}","https://test12345.live/?num_scrambled_semantic=8&num_scrambled_causal=4&num_scrambled_schematic=4&participantId=879E34425DB343C1990ACDF765F0D7F3&assignmentId=0198c338-0eee-78f3-ac60-4dee5f8b3f9e&projectId=0198c320-653a-770c-93e4-41e10e7faa5f","879E34425DB343C1990ACDF765F0D7F3-2025-08-19-17-01-47","","null","","images/causal_sequence/package_causal/package_causal_0.png","null","",""
"","","","","","html-audio-response","30","686672","0.0-28.0","879E34425DB343C1990ACDF765F0D7F3","879E34425DB343C1990ACDF765F0D7F3","0198c338-0eee-78f3-ac60-4dee5f8b3f9e","0198c320-653a-770c-93e4-41e10e7faa5f","{""num_scrambled_semantic"":""8"",""num_scrambled_causal"":""4"",""num_scrambled_schematic"":""4"",""participantId"":""879E34425DB343C1990ACDF765F0D7F3"",""assignmentId"":""0198c338-0eee-78f3-ac60-4dee5f8b3f9e"",""projectId"":""0198c320-653a-770c-93e4-41e10e7faa5f""}","https://test12345.live/?num_scrambled_semantic=8&num_scrambled_causal=4&num_scrambled_schematic=4&participantId=879E34425DB343C1990ACDF765F0D7F3&assignmentId=0198c338-0eee-78f3-ac60-4dee5f8b3f9e&projectId=0198c320-653a-770c-93e4-41e10e7faa5f","879E34425DB343C1990ACDF765F0D7F3-2025-08-19-17-01-47","","7890","","[""<span style=\""color: red; font-size: 24px\""> NOW RECORDING</span><p>Please say out loud all the images you saw in part 1 of the experiment, as many as you can remember. The images can be said in any order.</p>""]","","1","package_causal"
"","","","","","image-button-response","31","692675","0.0-29.0-0.0","879E34425DB343C1990ACDF765F0D7F3","879E34425DB343C1990ACDF765F0D7F3","0198c338-0eee-78f3-ac60-4dee5f8b3f9e","0198c320-653a-770c-93e4-41e10e7faa5f","{""num_scrambled_semantic"":""8"",""num_scrambled_causal"":""4"",""num_scrambled_schematic"":""4"",""participantId"":""879E34425DB343C1990ACDF765F0D7F3"",""assignmentId"":""0198c338-0eee-78f3-ac60-4dee5f8b3f9e"",""projectId"":""0198c320-653a-770c-93e4-41e10e7faa5f""}","https://test12345.live/?num_scrambled_semantic=8&num_scrambled_causal=4&num_scrambled_schematic=4&participantId=879E34425DB343C1990ACDF765F0D7F3&assignmentId=0198c338-0eee-78f3-ac60-4dee5f8b3f9e&projectId=0198c320-653a-770c-93e4-41e10e7faa5f","879E34425DB343C1990ACDF765F0D7F3-2025-08-19-17-01-47","","null","","images/causal_sequence/dog_causal/dog_causal_0.png","null","",""
"","","","","","html-audio-response","32","861148","0.0-30.0","879E34425DB343C1990ACDF765F0D7F3","879E34425DB343C1990ACDF765F0D7F3","0198c338-0eee-78f3-ac60-4dee5f8b3f9e","0198c320-653a-770c-93e4-41e10e7faa5f","{""num_scrambled_semantic"":""8"",""num_scrambled_causal"":""4"",""num_scrambled_schematic"":""4"",""participantId"":""879E34425DB343C1990ACDF765F0D7F3"",""assignmentId"":""0198c338-0eee-78f3-ac60-4dee5f8b3f9e"",""projectId"":""0198c320-653a-770c-93e4-41e10e7faa5f""}","https://test12345.live/?num_scrambled_semantic=8&num_scrambled_causal=4&num_scrambled_schematic=4&participantId=879E34425DB343C1990ACDF765F0D7F3&assignmentId=0198c338-0eee-78f3-ac60-4dee5f8b3f9e&projectId=0198c320-653a-770c-93e4-41e10e7faa5f","879E34425DB343C1990ACDF765F0D7F3-2025-08-19-17-01-47","","42045","","[""<span style=\""color: red; font-size: 24px\""> NOW RECORDING</span><p>Please say out loud all the images you saw in part 1 of the experiment, as many as you can remember. The images can be said in any order.</p>""]","","6","dog_causal"
"","","","","","image-button-response","33","867174","0.0-31.0-0.0","879E34425DB343C1990ACDF765F0D7F3","879E34425DB343C1990ACDF765F0D7F3","0198c338-0eee-78f3-ac60-4dee5f8b3f9e","0198c320-653a-770c-93e4-41e10e7faa5f","{""num_scrambled_semantic"":""8"",""num_scrambled_causal"":""4"",""num_scrambled_schematic"":""4"",""participantId"":""879E34425DB343C1990ACDF765F0D7F3"",""assignmentId"":""0198c338-0eee-78f3-ac60-4dee5f8b3f9e"",""projectId"":""0198c320-653a-770c-93e4-41e10e7faa5f""}","https://test12345.live/?num_scrambled_semantic=8&num_scrambled_causal=4&num_scrambled_schematic=4&participantId=879E34425DB343C1990ACDF765F0D7F3&assignmentId=0198c338-0eee-78f3-ac60-4dee5f8b3f9e&projectId=0198c320-653a-770c-93e4-41e10e7faa5f","879E34425DB343C1990ACDF765F0D7F3-2025-08-19-17-01-47","","null","","images/semantic_sequence/creative_activities_semantic/creative_activities_semantic_0.png","null","",""
"","","","","","html-audio-response","34","959498","0.0-32.0","879E34425DB343C1990ACDF765F0D7F3","879E34425DB343C1990ACDF765F0D7F3","0198c338-0eee-78f3-ac60-4dee5f8b3f9e","0198c320-653a-770c-93e4-41e10e7faa5f","{""num_scrambled_semantic"":""8"",""num_scrambled_causal"":""4"",""num_scrambled_schematic"":""4"",""participantId"":""879E34425DB343C1990ACDF765F0D7F3"",""assignmentId"":""0198c338-0eee-78f3-ac60-4dee5f8b3f9e"",""projectId"":""0198c320-653a-770c-93e4-41e10e7faa5f""}","https://test12345.live/?num_scrambled_semantic=8&num_scrambled_causal=4&num_scrambled_schematic=4&participantId=879E34425DB343C1990ACDF765F0D7F3&assignmentId=0198c338-0eee-78f3-ac60-4dee5f8b3f9e&projectId=0198c320-653a-770c-93e4-41e10e7faa5f","879E34425DB343C1990ACDF765F0D7F3-2025-08-19-17-01-47","","10889","","[""<span style=\""color: red; font-size: 24px\""> NOW RECORDING</span><p>Please say out loud all the images you saw in part 1 of the experiment, as many as you can remember. The images can be said in any order.</p>""]","","2","creative_activities_semantic"
"","","","","","image-button-response","35","965513","0.0-33.0-0.0","879E34425DB343C1990ACDF765F0D7F3","879E34425DB343C1990ACDF765F0D7F3","0198c338-0eee-78f3-ac60-4dee5f8b3f9e","0198c320-653a-770c-93e4-41e10e7faa5f","{""num_scrambled_semantic"":""8"",""num_scrambled_causal"":""4"",""num_scrambled_schematic"":""4"",""participantId"":""879E34425DB343C1990ACDF765F0D7F3"",""assignmentId"":""0198c338-0eee-78f3-ac60-4dee5f8b3f9e"",""projectId"":""0198c320-653a-770c-93e4-41e10e7faa5f""}","https://test12345.live/?num_scrambled_semantic=8&num_scrambled_causal=4&num_scrambled_schematic=4&participantId=879E34425DB343C1990ACDF765F0D7F3&assignmentId=0198c338-0eee-78f3-ac60-4dee5f8b3f9e&projectId=0198c320-653a-770c-93e4-41e10e7faa5f","879E34425DB343C1990ACDF765F0D7F3-2025-08-19-17-01-47","","null","","images/semantic_sequence/maintaining_a_car_semantic/maintaining_a_car_semantic_0.png","null","",""
"","","","","","html-audio-response","36","985198","0.0-34.0","879E34425DB343C1990ACDF765F0D7F3","879E34425DB343C1990ACDF765F0D7F3","0198c338-0eee-78f3-ac60-4dee5f8b3f9e","0198c320-653a-770c-93e4-41e10e7faa5f","{""num_scrambled_semantic"":""8"",""num_scrambled_causal"":""4"",""num_scrambled_schematic"":""4"",""participantId"":""879E34425DB343C1990ACDF765F0D7F3"",""assignmentId"":""0198c338-0eee-78f3-ac60-4dee5f8b3f9e"",""projectId"":""0198c320-653a-770c-93e4-41e10e7faa5f""}","https://test12345.live/?num_scrambled_semantic=8&num_scrambled_causal=4&num_scrambled_schematic=4&participantId=879E34425DB343C1990ACDF765F0D7F3&assignmentId=0198c338-0eee-78f3-ac60-4dee5f8b3f9e&projectId=0198c320-653a-770c-93e4-41e10e7faa5f","879E34425DB343C1990ACDF765F0D7F3-2025-08-19-17-01-47","","7749","","[""<span style=\""color: red; font-size: 24px\""> NOW RECORDING</span><p>Please say out loud all the images you saw in part 1 of the experiment, as many as you can remember. The images can be said in any order.</p>""]","","2","maintaining_a_car_semantic"
"","","","","","survey-text","37","996326","0.0-35.0","879E34425DB343C1990ACDF765F0D7F3","879E34425DB343C1990ACDF765F0D7F3","0198c338-0eee-78f3-ac60-4dee5f8b3f9e","0198c320-653a-770c-93e4-41e10e7faa5f","{""num_scrambled_semantic"":""8"",""num_scrambled_causal"":""4"",""num_scrambled_schematic"":""4"",""participantId"":""879E34425DB343C1990ACDF765F0D7F3"",""assignmentId"":""0198c338-0eee-78f3-ac60-4dee5f8b3f9e"",""projectId"":""0198c320-653a-770c-93e4-41e10e7faa5f""}","https://test12345.live/?num_scrambled_semantic=8&num_scrambled_causal=4&num_scrambled_schematic=4&participantId=879E34425DB343C1990ACDF765F0D7F3&assignmentId=0198c338-0eee-78f3-ac60-4dee5f8b3f9e&projectId=0198c320-653a-770c-93e4-41e10e7faa5f","879E34425DB343C1990ACDF765F0D7F3-2025-08-19-17-01-47","","11112","","","{""Q0"":""Female"",""Q1"":""33""}","",""
"","","","","","instructions","38","1001523","0.0-36.0","879E34425DB343C1990ACDF765F0D7F3","879E34425DB343C1990ACDF765F0D7F3","0198c338-0eee-78f3-ac60-4dee5f8b3f9e","0198c320-653a-770c-93e4-41e10e7faa5f","{""num_scrambled_semantic"":""8"",""num_scrambled_causal"":""4"",""num_scrambled_schematic"":""4"",""participantId"":""879E34425DB343C1990ACDF765F0D7F3"",""assignmentId"":""0198c338-0eee-78f3-ac60-4dee5f8b3f9e"",""projectId"":""0198c320-653a-770c-93e4-41e10e7faa5f""}","https://test12345.live/?num_scrambled_semantic=8&num_scrambled_causal=4&num_scrambled_schematic=4&participantId=879E34425DB343C1990ACDF765F0D7F3&assignmentId=0198c338-0eee-78f3-ac60-4dee5f8b3f9e&projectId=0198c320-653a-770c-93e4-41e10e7faa5f","879E34425DB343C1990ACDF765F0D7F3-2025-08-19-17-01-47","[{""page_index"":0,""viewing_time"":5196}]","5196","","","","",""
"","","","","","survey-text","39","1006287","0.0-37.0","879E34425DB343C1990ACDF765F0D7F3","879E34425DB343C1990ACDF765F0D7F3","0198c338-0eee-78f3-ac60-4dee5f8b3f9e","0198c320-653a-770c-93e4-41e10e7faa5f","{""num_scrambled_semantic"":""8"",""num_scrambled_causal"":""4"",""num_scrambled_schematic"":""4"",""participantId"":""879E34425DB343C1990ACDF765F0D7F3"",""assignmentId"":""0198c338-0eee-78f3-ac60-4dee5f8b3f9e"",""projectId"":""0198c320-653a-770c-93e4-41e10e7faa5f""}","https://test12345.live/?num_scrambled_semantic=8&num_scrambled_causal=4&num_scrambled_schematic=4&participantId=879E34425DB343C1990ACDF765F0D7F3&assignmentId=0198c338-0eee-78f3-ac60-4dee5f8b3f9e&projectId=0198c320-653a-770c-93e4-41e10e7faa5f","879E34425DB343C1990ACDF765F0D7F3-2025-08-19-17-01-47","","4761","","","{""Q0"":""AJFHBG896""}","",""
