"success","timeout","failed_images","failed_audio","failed_video","trial_type","trial_index","time_elapsed","internal_node_id","subject","subject_id","study_id","session_id","urlvar","current_url","audio_id","view_history","rt","device_id","stimulus","response","estimated_stimulus_onset","seq_name"
"true","false","[]","[]","[]","preload","0","6581","0.0-0.0","8A960000D237444C802DF6C7B76419CB","8A960000D237444C802DF6C7B76419CB","1774764c-abc6-4388-84c8-b9d1d7acd0de","e9cc2542-c7dc-4d8f-b94f-d088ad8989d1","{""part"":""2"",""participantId"":""8A960000D237444C802DF6C7B76419CB"",""assignmentId"":""1774764c-abc6-4388-84c8-b9d1d7acd0de"",""projectId"":""e9cc2542-c7dc-4d8f-b94f-d088ad8989d1""}","https://test12345.live/?part=2&participantId=8A960000D237444C802DF6C7B76419CB&assignmentId=1774764c-abc6-4388-84c8-b9d1d7acd0de&projectId=e9cc2542-c7dc-4d8f-b94f-d088ad8989d1","8A960000D237444C802DF6C7B76419CB-2025-05-16-18-29-53","","","","","","",""
"","","","","","instructions","1","45209","0.0-1.0","8A960000D237444C802DF6C7B76419CB","8A960000D237444C802DF6C7B76419CB","1774764c-abc6-4388-84c8-b9d1d7acd0de","e9cc2542-c7dc-4d8f-b94f-d088ad8989d1","{""part"":""2"",""participantId"":""8A960000D237444C802DF6C7B76419CB"",""assignmentId"":""1774764c-abc6-4388-84c8-b9d1d7acd0de"",""projectId"":""e9cc2542-c7dc-4d8f-b94f-d088ad8989d1""}","https://test12345.live/?part=2&participantId=8A960000D237444C802DF6C7B76419CB&assignmentId=1774764c-abc6-4388-84c8-b9d1d7acd0de&projectId=e9cc2542-c7dc-4d8f-b94f-d088ad8989d1","8A960000D237444C802DF6C7B76419CB-2025-05-16-18-29-53","[{""page_index"":0,""viewing_time"":38626}]","38626","","","","",""
"","","","","","instructions","2","59517","0.0-2.0","8A960000D237444C802DF6C7B76419CB","8A960000D237444C802DF6C7B76419CB","1774764c-abc6-4388-84c8-b9d1d7acd0de","e9cc2542-c7dc-4d8f-b94f-d088ad8989d1","{""part"":""2"",""participantId"":""8A960000D237444C802DF6C7B76419CB"",""assignmentId"":""1774764c-abc6-4388-84c8-b9d1d7acd0de"",""projectId"":""e9cc2542-c7dc-4d8f-b94f-d088ad8989d1""}","https://test12345.live/?part=2&participantId=8A960000D237444C802DF6C7B76419CB&assignmentId=1774764c-abc6-4388-84c8-b9d1d7acd0de&projectId=e9cc2542-c7dc-4d8f-b94f-d088ad8989d1","8A960000D237444C802DF6C7B76419CB-2025-05-16-18-29-53","[{""page_index"":0,""viewing_time"":14308}]","14308","","","","",""
"true","","","","","fullscreen","3","64120","0.0-3.0","8A960000D237444C802DF6C7B76419CB","8A960000D237444C802DF6C7B76419CB","1774764c-abc6-4388-84c8-b9d1d7acd0de","e9cc2542-c7dc-4d8f-b94f-d088ad8989d1","{""part"":""2"",""participantId"":""8A960000D237444C802DF6C7B76419CB"",""assignmentId"":""1774764c-abc6-4388-84c8-b9d1d7acd0de"",""projectId"":""e9cc2542-c7dc-4d8f-b94f-d088ad8989d1""}","https://test12345.live/?part=2&participantId=8A960000D237444C802DF6C7B76419CB&assignmentId=1774764c-abc6-4388-84c8-b9d1d7acd0de&projectId=e9cc2542-c7dc-4d8f-b94f-d088ad8989d1","8A960000D237444C802DF6C7B76419CB-2025-05-16-18-29-53","","3588","","","","",""
"","","","","","initialize-microphone","4","67358","0.0-4.0-0.0","8A960000D237444C802DF6C7B76419CB","8A960000D237444C802DF6C7B76419CB","1774764c-abc6-4388-84c8-b9d1d7acd0de","e9cc2542-c7dc-4d8f-b94f-d088ad8989d1","{""part"":""2"",""participantId"":""8A960000D237444C802DF6C7B76419CB"",""assignmentId"":""1774764c-abc6-4388-84c8-b9d1d7acd0de"",""projectId"":""e9cc2542-c7dc-4d8f-b94f-d088ad8989d1""}","https://test12345.live/?part=2&participantId=8A960000D237444C802DF6C7B76419CB&assignmentId=1774764c-abc6-4388-84c8-b9d1d7acd0de&projectId=e9cc2542-c7dc-4d8f-b94f-d088ad8989d1","8A960000D237444C802DF6C7B76419CB-2025-05-16-18-29-53","","","9c140fd3a3cf84a2cf2882c0969a4c205a1fbca52eca6d8901a2fe52cf1cd185","","","",""
"","","","","","html-audio-response","5","81301","0.0-4.0-1.0","8A960000D237444C802DF6C7B76419CB","8A960000D237444C802DF6C7B76419CB","1774764c-abc6-4388-84c8-b9d1d7acd0de","e9cc2542-c7dc-4d8f-b94f-d088ad8989d1","{""part"":""2"",""participantId"":""8A960000D237444C802DF6C7B76419CB"",""assignmentId"":""1774764c-abc6-4388-84c8-b9d1d7acd0de"",""projectId"":""e9cc2542-c7dc-4d8f-b94f-d088ad8989d1""}","https://test12345.live/?part=2&participantId=8A960000D237444C802DF6C7B76419CB&assignmentId=1774764c-abc6-4388-84c8-b9d1d7acd0de&projectId=e9cc2542-c7dc-4d8f-b94f-d088ad8989d1","8A960000D237444C802DF6C7B76419CB-2025-05-16-18-29-53","","738","","<span style=""color: red; font-size: 24px""> NOW RECORDING</span>
        <p>Please test Microphone</p>","","2",""
"","","","","","html-button-response","6","83110","0.0-4.0-2.0","8A960000D237444C802DF6C7B76419CB","8A960000D237444C802DF6C7B76419CB","1774764c-abc6-4388-84c8-b9d1d7acd0de","e9cc2542-c7dc-4d8f-b94f-d088ad8989d1","{""part"":""2"",""participantId"":""8A960000D237444C802DF6C7B76419CB"",""assignmentId"":""1774764c-abc6-4388-84c8-b9d1d7acd0de"",""projectId"":""e9cc2542-c7dc-4d8f-b94f-d088ad8989d1""}","https://test12345.live/?part=2&participantId=8A960000D237444C802DF6C7B76419CB&assignmentId=1774764c-abc6-4388-84c8-b9d1d7acd0de&projectId=e9cc2542-c7dc-4d8f-b94f-d088ad8989d1","8A960000D237444C802DF6C7B76419CB-2025-05-16-18-29-53","","1808","","<p style=""font-size:48px; color:red;"">Is Microphone OK?</p>","0","",""
"","","","","","initialize-microphone","7","85978","0.0-4.1-0.1","8A960000D237444C802DF6C7B76419CB","8A960000D237444C802DF6C7B76419CB","1774764c-abc6-4388-84c8-b9d1d7acd0de","e9cc2542-c7dc-4d8f-b94f-d088ad8989d1","{""part"":""2"",""participantId"":""8A960000D237444C802DF6C7B76419CB"",""assignmentId"":""1774764c-abc6-4388-84c8-b9d1d7acd0de"",""projectId"":""e9cc2542-c7dc-4d8f-b94f-d088ad8989d1""}","https://test12345.live/?part=2&participantId=8A960000D237444C802DF6C7B76419CB&assignmentId=1774764c-abc6-4388-84c8-b9d1d7acd0de&projectId=e9cc2542-c7dc-4d8f-b94f-d088ad8989d1","8A960000D237444C802DF6C7B76419CB-2025-05-16-18-29-53","","","9c140fd3a3cf84a2cf2882c0969a4c205a1fbca52eca6d8901a2fe52cf1cd185","","","",""
"","","","","","html-audio-response","8","88576","0.0-4.1-1.1","8A960000D237444C802DF6C7B76419CB","8A960000D237444C802DF6C7B76419CB","1774764c-abc6-4388-84c8-b9d1d7acd0de","e9cc2542-c7dc-4d8f-b94f-d088ad8989d1","{""part"":""2"",""participantId"":""8A960000D237444C802DF6C7B76419CB"",""assignmentId"":""1774764c-abc6-4388-84c8-b9d1d7acd0de"",""projectId"":""e9cc2542-c7dc-4d8f-b94f-d088ad8989d1""}","https://test12345.live/?part=2&participantId=8A960000D237444C802DF6C7B76419CB&assignmentId=1774764c-abc6-4388-84c8-b9d1d7acd0de&projectId=e9cc2542-c7dc-4d8f-b94f-d088ad8989d1","8A960000D237444C802DF6C7B76419CB-2025-05-16-18-29-53","","1249","","<span style=""color: red; font-size: 24px""> NOW RECORDING</span>
        <p>Please test Microphone</p>","","1",""
"","","","","","html-button-response","9","89946","0.0-4.1-2.1","8A960000D237444C802DF6C7B76419CB","8A960000D237444C802DF6C7B76419CB","1774764c-abc6-4388-84c8-b9d1d7acd0de","e9cc2542-c7dc-4d8f-b94f-d088ad8989d1","{""part"":""2"",""participantId"":""8A960000D237444C802DF6C7B76419CB"",""assignmentId"":""1774764c-abc6-4388-84c8-b9d1d7acd0de"",""projectId"":""e9cc2542-c7dc-4d8f-b94f-d088ad8989d1""}","https://test12345.live/?part=2&participantId=8A960000D237444C802DF6C7B76419CB&assignmentId=1774764c-abc6-4388-84c8-b9d1d7acd0de&projectId=e9cc2542-c7dc-4d8f-b94f-d088ad8989d1","8A960000D237444C802DF6C7B76419CB-2025-05-16-18-29-53","","1367","","<p style=""font-size:48px; color:red;"">Is Microphone OK?</p>","1","",""
"","","","","","instructions","10","103453","0.0-5.0","8A960000D237444C802DF6C7B76419CB","8A960000D237444C802DF6C7B76419CB","1774764c-abc6-4388-84c8-b9d1d7acd0de","e9cc2542-c7dc-4d8f-b94f-d088ad8989d1","{""part"":""2"",""participantId"":""8A960000D237444C802DF6C7B76419CB"",""assignmentId"":""1774764c-abc6-4388-84c8-b9d1d7acd0de"",""projectId"":""e9cc2542-c7dc-4d8f-b94f-d088ad8989d1""}","https://test12345.live/?part=2&participantId=8A960000D237444C802DF6C7B76419CB&assignmentId=1774764c-abc6-4388-84c8-b9d1d7acd0de&projectId=e9cc2542-c7dc-4d8f-b94f-d088ad8989d1","8A960000D237444C802DF6C7B76419CB-2025-05-16-18-29-53","[{""page_index"":0,""viewing_time"":1372},{""page_index"":1,""viewing_time"":5216},{""page_index"":2,""viewing_time"":6919}]","13507","","","","",""
"","","","","","image-button-response","11","109458","0.0-6.0-0.0","8A960000D237444C802DF6C7B76419CB","8A960000D237444C802DF6C7B76419CB","1774764c-abc6-4388-84c8-b9d1d7acd0de","e9cc2542-c7dc-4d8f-b94f-d088ad8989d1","{""part"":""2"",""participantId"":""8A960000D237444C802DF6C7B76419CB"",""assignmentId"":""1774764c-abc6-4388-84c8-b9d1d7acd0de"",""projectId"":""e9cc2542-c7dc-4d8f-b94f-d088ad8989d1""}","https://test12345.live/?part=2&participantId=8A960000D237444C802DF6C7B76419CB&assignmentId=1774764c-abc6-4388-84c8-b9d1d7acd0de&projectId=e9cc2542-c7dc-4d8f-b94f-d088ad8989d1","8A960000D237444C802DF6C7B76419CB-2025-05-16-18-29-53","","null","","images/instructions/movie_0.png","null","",""
"","","","","","html-audio-response","12","256624","0.0-7.0","8A960000D237444C802DF6C7B76419CB","8A960000D237444C802DF6C7B76419CB","1774764c-abc6-4388-84c8-b9d1d7acd0de","e9cc2542-c7dc-4d8f-b94f-d088ad8989d1","{""part"":""2"",""participantId"":""8A960000D237444C802DF6C7B76419CB"",""assignmentId"":""1774764c-abc6-4388-84c8-b9d1d7acd0de"",""projectId"":""e9cc2542-c7dc-4d8f-b94f-d088ad8989d1""}","https://test12345.live/?part=2&participantId=8A960000D237444C802DF6C7B76419CB&assignmentId=1774764c-abc6-4388-84c8-b9d1d7acd0de&projectId=e9cc2542-c7dc-4d8f-b94f-d088ad8989d1","8A960000D237444C802DF6C7B76419CB-2025-05-16-18-29-53","","24292","","[""<span style=\""color: red; font-size: 24px\""> NOW RECORDING</span><p>Please say out loud all the images you saw in part 1 of the experiment, as many as you can remember. The images can be said in any order.</p>""]","","6",""
"","","","","","instructions","13","258100","0.0-8.0","8A960000D237444C802DF6C7B76419CB","8A960000D237444C802DF6C7B76419CB","1774764c-abc6-4388-84c8-b9d1d7acd0de","e9cc2542-c7dc-4d8f-b94f-d088ad8989d1","{""part"":""2"",""participantId"":""8A960000D237444C802DF6C7B76419CB"",""assignmentId"":""1774764c-abc6-4388-84c8-b9d1d7acd0de"",""projectId"":""e9cc2542-c7dc-4d8f-b94f-d088ad8989d1""}","https://test12345.live/?part=2&participantId=8A960000D237444C802DF6C7B76419CB&assignmentId=1774764c-abc6-4388-84c8-b9d1d7acd0de&projectId=e9cc2542-c7dc-4d8f-b94f-d088ad8989d1","8A960000D237444C802DF6C7B76419CB-2025-05-16-18-29-53","[{""page_index"":0,""viewing_time"":1467}]","1468","","","","",""
"","","","","","image-button-response","14","264102","0.0-9.0-0.0","8A960000D237444C802DF6C7B76419CB","8A960000D237444C802DF6C7B76419CB","1774764c-abc6-4388-84c8-b9d1d7acd0de","e9cc2542-c7dc-4d8f-b94f-d088ad8989d1","{""part"":""2"",""participantId"":""8A960000D237444C802DF6C7B76419CB"",""assignmentId"":""1774764c-abc6-4388-84c8-b9d1d7acd0de"",""projectId"":""e9cc2542-c7dc-4d8f-b94f-d088ad8989d1""}","https://test12345.live/?part=2&participantId=8A960000D237444C802DF6C7B76419CB&assignmentId=1774764c-abc6-4388-84c8-b9d1d7acd0de&projectId=e9cc2542-c7dc-4d8f-b94f-d088ad8989d1","8A960000D237444C802DF6C7B76419CB-2025-05-16-18-29-53","","null","","images/semantic_sequence/using_technology_semantic/using_technology_semantic_0.png","null","",""
"","","","","","html-audio-response","15","387238","0.0-10.0","8A960000D237444C802DF6C7B76419CB","8A960000D237444C802DF6C7B76419CB","1774764c-abc6-4388-84c8-b9d1d7acd0de","e9cc2542-c7dc-4d8f-b94f-d088ad8989d1","{""part"":""2"",""participantId"":""8A960000D237444C802DF6C7B76419CB"",""assignmentId"":""1774764c-abc6-4388-84c8-b9d1d7acd0de"",""projectId"":""e9cc2542-c7dc-4d8f-b94f-d088ad8989d1""}","https://test12345.live/?part=2&participantId=8A960000D237444C802DF6C7B76419CB&assignmentId=1774764c-abc6-4388-84c8-b9d1d7acd0de&projectId=e9cc2542-c7dc-4d8f-b94f-d088ad8989d1","8A960000D237444C802DF6C7B76419CB-2025-05-16-18-29-53","","21814","","[""<span style=\""color: red; font-size: 24px\""> NOW RECORDING</span><p>Please say out loud all the images you saw in part 1 of the experiment, as many as you can remember. The images can be said in any order.</p>""]","","2","using_technology_semantic"
"","","","","","image-button-response","16","393253","0.0-11.0-0.0","8A960000D237444C802DF6C7B76419CB","8A960000D237444C802DF6C7B76419CB","1774764c-abc6-4388-84c8-b9d1d7acd0de","e9cc2542-c7dc-4d8f-b94f-d088ad8989d1","{""part"":""2"",""participantId"":""8A960000D237444C802DF6C7B76419CB"",""assignmentId"":""1774764c-abc6-4388-84c8-b9d1d7acd0de"",""projectId"":""e9cc2542-c7dc-4d8f-b94f-d088ad8989d1""}","https://test12345.live/?part=2&participantId=8A960000D237444C802DF6C7B76419CB&assignmentId=1774764c-abc6-4388-84c8-b9d1d7acd0de&projectId=e9cc2542-c7dc-4d8f-b94f-d088ad8989d1","8A960000D237444C802DF6C7B76419CB-2025-05-16-18-29-53","","null","","images/semantic_sequence/exploring_nature_semantic/exploring_nature_semantic_0.png","null","",""
"","","","","","html-audio-response","17","427037","0.0-12.0","8A960000D237444C802DF6C7B76419CB","8A960000D237444C802DF6C7B76419CB","1774764c-abc6-4388-84c8-b9d1d7acd0de","e9cc2542-c7dc-4d8f-b94f-d088ad8989d1","{""part"":""2"",""participantId"":""8A960000D237444C802DF6C7B76419CB"",""assignmentId"":""1774764c-abc6-4388-84c8-b9d1d7acd0de"",""projectId"":""e9cc2542-c7dc-4d8f-b94f-d088ad8989d1""}","https://test12345.live/?part=2&participantId=8A960000D237444C802DF6C7B76419CB&assignmentId=1774764c-abc6-4388-84c8-b9d1d7acd0de&projectId=e9cc2542-c7dc-4d8f-b94f-d088ad8989d1","8A960000D237444C802DF6C7B76419CB-2025-05-16-18-29-53","","32351","","[""<span style=\""color: red; font-size: 24px\""> NOW RECORDING</span><p>Please say out loud all the images you saw in part 1 of the experiment, as many as you can remember. The images can be said in any order.</p>""]","","1","exploring_nature_semantic"
"","","","","","image-button-response","18","433060","0.0-13.0-0.0","8A960000D237444C802DF6C7B76419CB","8A960000D237444C802DF6C7B76419CB","1774764c-abc6-4388-84c8-b9d1d7acd0de","e9cc2542-c7dc-4d8f-b94f-d088ad8989d1","{""part"":""2"",""participantId"":""8A960000D237444C802DF6C7B76419CB"",""assignmentId"":""1774764c-abc6-4388-84c8-b9d1d7acd0de"",""projectId"":""e9cc2542-c7dc-4d8f-b94f-d088ad8989d1""}","https://test12345.live/?part=2&participantId=8A960000D237444C802DF6C7B76419CB&assignmentId=1774764c-abc6-4388-84c8-b9d1d7acd0de&projectId=e9cc2542-c7dc-4d8f-b94f-d088ad8989d1","8A960000D237444C802DF6C7B76419CB-2025-05-16-18-29-53","","null","","images/schematic_sequence/dinner_party_scheme/dinner_party_scheme_0.png","null","",""
"","","","","","html-audio-response","19","489884","0.0-14.0","8A960000D237444C802DF6C7B76419CB","8A960000D237444C802DF6C7B76419CB","1774764c-abc6-4388-84c8-b9d1d7acd0de","e9cc2542-c7dc-4d8f-b94f-d088ad8989d1","{""part"":""2"",""participantId"":""8A960000D237444C802DF6C7B76419CB"",""assignmentId"":""1774764c-abc6-4388-84c8-b9d1d7acd0de"",""projectId"":""e9cc2542-c7dc-4d8f-b94f-d088ad8989d1""}","https://test12345.live/?part=2&participantId=8A960000D237444C802DF6C7B76419CB&assignmentId=1774764c-abc6-4388-84c8-b9d1d7acd0de&projectId=e9cc2542-c7dc-4d8f-b94f-d088ad8989d1","8A960000D237444C802DF6C7B76419CB-2025-05-16-18-29-53","","null","","[""<span style=\""color: red; font-size: 24px\""> NOW RECORDING</span><p>Please say out loud all the images you saw in part 1 of the experiment, as many as you can remember. The images can be said in any order.</p>""]","","1","dinner_party_scheme"
"","","","","","image-button-response","20","495903","0.0-15.0-0.0","8A960000D237444C802DF6C7B76419CB","8A960000D237444C802DF6C7B76419CB","1774764c-abc6-4388-84c8-b9d1d7acd0de","e9cc2542-c7dc-4d8f-b94f-d088ad8989d1","{""part"":""2"",""participantId"":""8A960000D237444C802DF6C7B76419CB"",""assignmentId"":""1774764c-abc6-4388-84c8-b9d1d7acd0de"",""projectId"":""e9cc2542-c7dc-4d8f-b94f-d088ad8989d1""}","https://test12345.live/?part=2&participantId=8A960000D237444C802DF6C7B76419CB&assignmentId=1774764c-abc6-4388-84c8-b9d1d7acd0de&projectId=e9cc2542-c7dc-4d8f-b94f-d088ad8989d1","8A960000D237444C802DF6C7B76419CB-2025-05-16-18-29-53","","null","","images/semantic_sequence/kitchen_operations_semantic/kitchen_operations_semantic_0.png","null","",""
"","","","","","html-audio-response","21","518984","0.0-16.0","8A960000D237444C802DF6C7B76419CB","8A960000D237444C802DF6C7B76419CB","1774764c-abc6-4388-84c8-b9d1d7acd0de","e9cc2542-c7dc-4d8f-b94f-d088ad8989d1","{""part"":""2"",""participantId"":""8A960000D237444C802DF6C7B76419CB"",""assignmentId"":""1774764c-abc6-4388-84c8-b9d1d7acd0de"",""projectId"":""e9cc2542-c7dc-4d8f-b94f-d088ad8989d1""}","https://test12345.live/?part=2&participantId=8A960000D237444C802DF6C7B76419CB&assignmentId=1774764c-abc6-4388-84c8-b9d1d7acd0de&projectId=e9cc2542-c7dc-4d8f-b94f-d088ad8989d1","8A960000D237444C802DF6C7B76419CB-2025-05-16-18-29-53","","21763","","[""<span style=\""color: red; font-size: 24px\""> NOW RECORDING</span><p>Please say out loud all the images you saw in part 1 of the experiment, as many as you can remember. The images can be said in any order.</p>""]","","1","kitchen_operations_semantic"
"","","","","","image-button-response","22","525008","0.0-17.0-0.0","8A960000D237444C802DF6C7B76419CB","8A960000D237444C802DF6C7B76419CB","1774764c-abc6-4388-84c8-b9d1d7acd0de","e9cc2542-c7dc-4d8f-b94f-d088ad8989d1","{""part"":""2"",""participantId"":""8A960000D237444C802DF6C7B76419CB"",""assignmentId"":""1774764c-abc6-4388-84c8-b9d1d7acd0de"",""projectId"":""e9cc2542-c7dc-4d8f-b94f-d088ad8989d1""}","https://test12345.live/?part=2&participantId=8A960000D237444C802DF6C7B76419CB&assignmentId=1774764c-abc6-4388-84c8-b9d1d7acd0de&projectId=e9cc2542-c7dc-4d8f-b94f-d088ad8989d1","8A960000D237444C802DF6C7B76419CB-2025-05-16-18-29-53","","null","","images/schematic_sequence/interview_scheme/interview_scheme_0.png","null","",""
"","","","","","html-audio-response","23","564804","0.0-18.0","8A960000D237444C802DF6C7B76419CB","8A960000D237444C802DF6C7B76419CB","1774764c-abc6-4388-84c8-b9d1d7acd0de","e9cc2542-c7dc-4d8f-b94f-d088ad8989d1","{""part"":""2"",""participantId"":""8A960000D237444C802DF6C7B76419CB"",""assignmentId"":""1774764c-abc6-4388-84c8-b9d1d7acd0de"",""projectId"":""e9cc2542-c7dc-4d8f-b94f-d088ad8989d1""}","https://test12345.live/?part=2&participantId=8A960000D237444C802DF6C7B76419CB&assignmentId=1774764c-abc6-4388-84c8-b9d1d7acd0de&projectId=e9cc2542-c7dc-4d8f-b94f-d088ad8989d1","8A960000D237444C802DF6C7B76419CB-2025-05-16-18-29-53","","38438","","[""<span style=\""color: red; font-size: 24px\""> NOW RECORDING</span><p>Please say out loud all the images you saw in part 1 of the experiment, as many as you can remember. The images can be said in any order.</p>""]","","6","interview_scheme"
"","","","","","image-button-response","24","570827","0.0-19.0-0.0","8A960000D237444C802DF6C7B76419CB","8A960000D237444C802DF6C7B76419CB","1774764c-abc6-4388-84c8-b9d1d7acd0de","e9cc2542-c7dc-4d8f-b94f-d088ad8989d1","{""part"":""2"",""participantId"":""8A960000D237444C802DF6C7B76419CB"",""assignmentId"":""1774764c-abc6-4388-84c8-b9d1d7acd0de"",""projectId"":""e9cc2542-c7dc-4d8f-b94f-d088ad8989d1""}","https://test12345.live/?part=2&participantId=8A960000D237444C802DF6C7B76419CB&assignmentId=1774764c-abc6-4388-84c8-b9d1d7acd0de&projectId=e9cc2542-c7dc-4d8f-b94f-d088ad8989d1","8A960000D237444C802DF6C7B76419CB-2025-05-16-18-29-53","","null","","images/semantic_sequence/creative_activities_semantic/creative_activities_semantic_0.png","null","",""
"","","","","","html-audio-response","25","596702","0.0-20.0","8A960000D237444C802DF6C7B76419CB","8A960000D237444C802DF6C7B76419CB","1774764c-abc6-4388-84c8-b9d1d7acd0de","e9cc2542-c7dc-4d8f-b94f-d088ad8989d1","{""part"":""2"",""participantId"":""8A960000D237444C802DF6C7B76419CB"",""assignmentId"":""1774764c-abc6-4388-84c8-b9d1d7acd0de"",""projectId"":""e9cc2542-c7dc-4d8f-b94f-d088ad8989d1""}","https://test12345.live/?part=2&participantId=8A960000D237444C802DF6C7B76419CB&assignmentId=1774764c-abc6-4388-84c8-b9d1d7acd0de&projectId=e9cc2542-c7dc-4d8f-b94f-d088ad8989d1","8A960000D237444C802DF6C7B76419CB-2025-05-16-18-29-53","","24576","","[""<span style=\""color: red; font-size: 24px\""> NOW RECORDING</span><p>Please say out loud all the images you saw in part 1 of the experiment, as many as you can remember. The images can be said in any order.</p>""]","","1","creative_activities_semantic"
"","","","","","image-button-response","26","602717","0.0-21.0-0.0","8A960000D237444C802DF6C7B76419CB","8A960000D237444C802DF6C7B76419CB","1774764c-abc6-4388-84c8-b9d1d7acd0de","e9cc2542-c7dc-4d8f-b94f-d088ad8989d1","{""part"":""2"",""participantId"":""8A960000D237444C802DF6C7B76419CB"",""assignmentId"":""1774764c-abc6-4388-84c8-b9d1d7acd0de"",""projectId"":""e9cc2542-c7dc-4d8f-b94f-d088ad8989d1""}","https://test12345.live/?part=2&participantId=8A960000D237444C802DF6C7B76419CB&assignmentId=1774764c-abc6-4388-84c8-b9d1d7acd0de&projectId=e9cc2542-c7dc-4d8f-b94f-d088ad8989d1","8A960000D237444C802DF6C7B76419CB-2025-05-16-18-29-53","","null","","images/causal_sequence/saving_a_cat_causal/saving_a_cat_causal_0.png","null","",""
"","","","","","html-audio-response","27","659201","0.0-22.0","8A960000D237444C802DF6C7B76419CB","8A960000D237444C802DF6C7B76419CB","1774764c-abc6-4388-84c8-b9d1d7acd0de","e9cc2542-c7dc-4d8f-b94f-d088ad8989d1","{""part"":""2"",""participantId"":""8A960000D237444C802DF6C7B76419CB"",""assignmentId"":""1774764c-abc6-4388-84c8-b9d1d7acd0de"",""projectId"":""e9cc2542-c7dc-4d8f-b94f-d088ad8989d1""}","https://test12345.live/?part=2&participantId=8A960000D237444C802DF6C7B76419CB&assignmentId=1774764c-abc6-4388-84c8-b9d1d7acd0de&projectId=e9cc2542-c7dc-4d8f-b94f-d088ad8989d1","8A960000D237444C802DF6C7B76419CB-2025-05-16-18-29-53","","null","","[""<span style=\""color: red; font-size: 24px\""> NOW RECORDING</span><p>Please say out loud all the images you saw in part 1 of the experiment, as many as you can remember. The images can be said in any order.</p>""]","","2","saving_a_cat_causal"
"","","","","","image-button-response","28","665229","0.0-23.0-0.0","8A960000D237444C802DF6C7B76419CB","8A960000D237444C802DF6C7B76419CB","1774764c-abc6-4388-84c8-b9d1d7acd0de","e9cc2542-c7dc-4d8f-b94f-d088ad8989d1","{""part"":""2"",""participantId"":""8A960000D237444C802DF6C7B76419CB"",""assignmentId"":""1774764c-abc6-4388-84c8-b9d1d7acd0de"",""projectId"":""e9cc2542-c7dc-4d8f-b94f-d088ad8989d1""}","https://test12345.live/?part=2&participantId=8A960000D237444C802DF6C7B76419CB&assignmentId=1774764c-abc6-4388-84c8-b9d1d7acd0de&projectId=e9cc2542-c7dc-4d8f-b94f-d088ad8989d1","8A960000D237444C802DF6C7B76419CB-2025-05-16-18-29-53","","null","","images/semantic_sequence/cat_care_semantic/cat_care_semantic_0.png","null","",""
"","","","","","html-audio-response","29","699923","0.0-24.0","8A960000D237444C802DF6C7B76419CB","8A960000D237444C802DF6C7B76419CB","1774764c-abc6-4388-84c8-b9d1d7acd0de","e9cc2542-c7dc-4d8f-b94f-d088ad8989d1","{""part"":""2"",""participantId"":""8A960000D237444C802DF6C7B76419CB"",""assignmentId"":""1774764c-abc6-4388-84c8-b9d1d7acd0de"",""projectId"":""e9cc2542-c7dc-4d8f-b94f-d088ad8989d1""}","https://test12345.live/?part=2&participantId=8A960000D237444C802DF6C7B76419CB&assignmentId=1774764c-abc6-4388-84c8-b9d1d7acd0de&projectId=e9cc2542-c7dc-4d8f-b94f-d088ad8989d1","8A960000D237444C802DF6C7B76419CB-2025-05-16-18-29-53","","33534","","[""<span style=\""color: red; font-size: 24px\""> NOW RECORDING</span><p>Please say out loud all the images you saw in part 1 of the experiment, as many as you can remember. The images can be said in any order.</p>""]","","2","cat_care_semantic"
"","","","","","image-button-response","30","705942","0.0-25.0-0.0","8A960000D237444C802DF6C7B76419CB","8A960000D237444C802DF6C7B76419CB","1774764c-abc6-4388-84c8-b9d1d7acd0de","e9cc2542-c7dc-4d8f-b94f-d088ad8989d1","{""part"":""2"",""participantId"":""8A960000D237444C802DF6C7B76419CB"",""assignmentId"":""1774764c-abc6-4388-84c8-b9d1d7acd0de"",""projectId"":""e9cc2542-c7dc-4d8f-b94f-d088ad8989d1""}","https://test12345.live/?part=2&participantId=8A960000D237444C802DF6C7B76419CB&assignmentId=1774764c-abc6-4388-84c8-b9d1d7acd0de&projectId=e9cc2542-c7dc-4d8f-b94f-d088ad8989d1","8A960000D237444C802DF6C7B76419CB-2025-05-16-18-29-53","","null","","images/semantic_sequence/market_semantic/market_semantic_0.png","null","",""
"","","","","","html-audio-response","31","810539","0.0-26.0","8A960000D237444C802DF6C7B76419CB","8A960000D237444C802DF6C7B76419CB","1774764c-abc6-4388-84c8-b9d1d7acd0de","e9cc2542-c7dc-4d8f-b94f-d088ad8989d1","{""part"":""2"",""participantId"":""8A960000D237444C802DF6C7B76419CB"",""assignmentId"":""1774764c-abc6-4388-84c8-b9d1d7acd0de"",""projectId"":""e9cc2542-c7dc-4d8f-b94f-d088ad8989d1""}","https://test12345.live/?part=2&participantId=8A960000D237444C802DF6C7B76419CB&assignmentId=1774764c-abc6-4388-84c8-b9d1d7acd0de&projectId=e9cc2542-c7dc-4d8f-b94f-d088ad8989d1","8A960000D237444C802DF6C7B76419CB-2025-05-16-18-29-53","","51455","","[""<span style=\""color: red; font-size: 24px\""> NOW RECORDING</span><p>Please say out loud all the images you saw in part 1 of the experiment, as many as you can remember. The images can be said in any order.</p>""]","","2","market_semantic"
"","","","","","image-button-response","32","816567","0.0-27.0-0.0","8A960000D237444C802DF6C7B76419CB","8A960000D237444C802DF6C7B76419CB","1774764c-abc6-4388-84c8-b9d1d7acd0de","e9cc2542-c7dc-4d8f-b94f-d088ad8989d1","{""part"":""2"",""participantId"":""8A960000D237444C802DF6C7B76419CB"",""assignmentId"":""1774764c-abc6-4388-84c8-b9d1d7acd0de"",""projectId"":""e9cc2542-c7dc-4d8f-b94f-d088ad8989d1""}","https://test12345.live/?part=2&participantId=8A960000D237444C802DF6C7B76419CB&assignmentId=1774764c-abc6-4388-84c8-b9d1d7acd0de&projectId=e9cc2542-c7dc-4d8f-b94f-d088ad8989d1","8A960000D237444C802DF6C7B76419CB-2025-05-16-18-29-53","","null","","images/schematic_sequence/supermarket_scheme/supermarket_scheme_0.png","null","",""
"","","","","","html-audio-response","33","850095","0.0-28.0","8A960000D237444C802DF6C7B76419CB","8A960000D237444C802DF6C7B76419CB","1774764c-abc6-4388-84c8-b9d1d7acd0de","e9cc2542-c7dc-4d8f-b94f-d088ad8989d1","{""part"":""2"",""participantId"":""8A960000D237444C802DF6C7B76419CB"",""assignmentId"":""1774764c-abc6-4388-84c8-b9d1d7acd0de"",""projectId"":""e9cc2542-c7dc-4d8f-b94f-d088ad8989d1""}","https://test12345.live/?part=2&participantId=8A960000D237444C802DF6C7B76419CB&assignmentId=1774764c-abc6-4388-84c8-b9d1d7acd0de&projectId=e9cc2542-c7dc-4d8f-b94f-d088ad8989d1","8A960000D237444C802DF6C7B76419CB-2025-05-16-18-29-53","","31904","","[""<span style=\""color: red; font-size: 24px\""> NOW RECORDING</span><p>Please say out loud all the images you saw in part 1 of the experiment, as many as you can remember. The images can be said in any order.</p>""]","","2","supermarket_scheme"
"","","","","","image-button-response","34","856109","0.0-29.0-0.0","8A960000D237444C802DF6C7B76419CB","8A960000D237444C802DF6C7B76419CB","1774764c-abc6-4388-84c8-b9d1d7acd0de","e9cc2542-c7dc-4d8f-b94f-d088ad8989d1","{""part"":""2"",""participantId"":""8A960000D237444C802DF6C7B76419CB"",""assignmentId"":""1774764c-abc6-4388-84c8-b9d1d7acd0de"",""projectId"":""e9cc2542-c7dc-4d8f-b94f-d088ad8989d1""}","https://test12345.live/?part=2&participantId=8A960000D237444C802DF6C7B76419CB&assignmentId=1774764c-abc6-4388-84c8-b9d1d7acd0de&projectId=e9cc2542-c7dc-4d8f-b94f-d088ad8989d1","8A960000D237444C802DF6C7B76419CB-2025-05-16-18-29-53","","null","","images/semantic_sequence/physical_activity_semantic/physical_activity_semantic_0.png","null","",""
"","","","","","html-audio-response","35","885184","0.0-30.0","8A960000D237444C802DF6C7B76419CB","8A960000D237444C802DF6C7B76419CB","1774764c-abc6-4388-84c8-b9d1d7acd0de","e9cc2542-c7dc-4d8f-b94f-d088ad8989d1","{""part"":""2"",""participantId"":""8A960000D237444C802DF6C7B76419CB"",""assignmentId"":""1774764c-abc6-4388-84c8-b9d1d7acd0de"",""projectId"":""e9cc2542-c7dc-4d8f-b94f-d088ad8989d1""}","https://test12345.live/?part=2&participantId=8A960000D237444C802DF6C7B76419CB&assignmentId=1774764c-abc6-4388-84c8-b9d1d7acd0de&projectId=e9cc2542-c7dc-4d8f-b94f-d088ad8989d1","8A960000D237444C802DF6C7B76419CB-2025-05-16-18-29-53","","28005","","[""<span style=\""color: red; font-size: 24px\""> NOW RECORDING</span><p>Please say out loud all the images you saw in part 1 of the experiment, as many as you can remember. The images can be said in any order.</p>""]","","2","physical_activity_semantic"
"","","","","","image-button-response","36","891196","0.0-31.0-0.0","8A960000D237444C802DF6C7B76419CB","8A960000D237444C802DF6C7B76419CB","1774764c-abc6-4388-84c8-b9d1d7acd0de","e9cc2542-c7dc-4d8f-b94f-d088ad8989d1","{""part"":""2"",""participantId"":""8A960000D237444C802DF6C7B76419CB"",""assignmentId"":""1774764c-abc6-4388-84c8-b9d1d7acd0de"",""projectId"":""e9cc2542-c7dc-4d8f-b94f-d088ad8989d1""}","https://test12345.live/?part=2&participantId=8A960000D237444C802DF6C7B76419CB&assignmentId=1774764c-abc6-4388-84c8-b9d1d7acd0de&projectId=e9cc2542-c7dc-4d8f-b94f-d088ad8989d1","8A960000D237444C802DF6C7B76419CB-2025-05-16-18-29-53","","null","","images/causal_sequence/the_performance_causal/the_performance_causal_0.png","null","",""
"","","","","","html-audio-response","37","921567","0.0-32.0","8A960000D237444C802DF6C7B76419CB","8A960000D237444C802DF6C7B76419CB","1774764c-abc6-4388-84c8-b9d1d7acd0de","e9cc2542-c7dc-4d8f-b94f-d088ad8989d1","{""part"":""2"",""participantId"":""8A960000D237444C802DF6C7B76419CB"",""assignmentId"":""1774764c-abc6-4388-84c8-b9d1d7acd0de"",""projectId"":""e9cc2542-c7dc-4d8f-b94f-d088ad8989d1""}","https://test12345.live/?part=2&participantId=8A960000D237444C802DF6C7B76419CB&assignmentId=1774764c-abc6-4388-84c8-b9d1d7acd0de&projectId=e9cc2542-c7dc-4d8f-b94f-d088ad8989d1","8A960000D237444C802DF6C7B76419CB-2025-05-16-18-29-53","","22126","","[""<span style=\""color: red; font-size: 24px\""> NOW RECORDING</span><p>Please say out loud all the images you saw in part 1 of the experiment, as many as you can remember. The images can be said in any order.</p>""]","","2","the_performance_causal"
"","","","","","image-button-response","38","927578","0.0-33.0-0.0","8A960000D237444C802DF6C7B76419CB","8A960000D237444C802DF6C7B76419CB","1774764c-abc6-4388-84c8-b9d1d7acd0de","e9cc2542-c7dc-4d8f-b94f-d088ad8989d1","{""part"":""2"",""participantId"":""8A960000D237444C802DF6C7B76419CB"",""assignmentId"":""1774764c-abc6-4388-84c8-b9d1d7acd0de"",""projectId"":""e9cc2542-c7dc-4d8f-b94f-d088ad8989d1""}","https://test12345.live/?part=2&participantId=8A960000D237444C802DF6C7B76419CB&assignmentId=1774764c-abc6-4388-84c8-b9d1d7acd0de&projectId=e9cc2542-c7dc-4d8f-b94f-d088ad8989d1","8A960000D237444C802DF6C7B76419CB-2025-05-16-18-29-53","","null","","images/causal_sequence/package_causal/package_causal_0.png","null","",""
"","","","","","html-audio-response","39","942959","0.0-34.0","8A960000D237444C802DF6C7B76419CB","8A960000D237444C802DF6C7B76419CB","1774764c-abc6-4388-84c8-b9d1d7acd0de","e9cc2542-c7dc-4d8f-b94f-d088ad8989d1","{""part"":""2"",""participantId"":""8A960000D237444C802DF6C7B76419CB"",""assignmentId"":""1774764c-abc6-4388-84c8-b9d1d7acd0de"",""projectId"":""e9cc2542-c7dc-4d8f-b94f-d088ad8989d1""}","https://test12345.live/?part=2&participantId=8A960000D237444C802DF6C7B76419CB&assignmentId=1774764c-abc6-4388-84c8-b9d1d7acd0de&projectId=e9cc2542-c7dc-4d8f-b94f-d088ad8989d1","8A960000D237444C802DF6C7B76419CB-2025-05-16-18-29-53","","14005","","[""<span style=\""color: red; font-size: 24px\""> NOW RECORDING</span><p>Please say out loud all the images you saw in part 1 of the experiment, as many as you can remember. The images can be said in any order.</p>""]","","2","package_causal"
"","","","","","image-button-response","40","948969","0.0-35.0-0.0","8A960000D237444C802DF6C7B76419CB","8A960000D237444C802DF6C7B76419CB","1774764c-abc6-4388-84c8-b9d1d7acd0de","e9cc2542-c7dc-4d8f-b94f-d088ad8989d1","{""part"":""2"",""participantId"":""8A960000D237444C802DF6C7B76419CB"",""assignmentId"":""1774764c-abc6-4388-84c8-b9d1d7acd0de"",""projectId"":""e9cc2542-c7dc-4d8f-b94f-d088ad8989d1""}","https://test12345.live/?part=2&participantId=8A960000D237444C802DF6C7B76419CB&assignmentId=1774764c-abc6-4388-84c8-b9d1d7acd0de&projectId=e9cc2542-c7dc-4d8f-b94f-d088ad8989d1","8A960000D237444C802DF6C7B76419CB-2025-05-16-18-29-53","","null","","images/causal_sequence/museum_causal/museum_causal_0.png","null","",""
"","","","","","html-audio-response","41","1018204","0.0-36.0","8A960000D237444C802DF6C7B76419CB","8A960000D237444C802DF6C7B76419CB","1774764c-abc6-4388-84c8-b9d1d7acd0de","e9cc2542-c7dc-4d8f-b94f-d088ad8989d1","{""part"":""2"",""participantId"":""8A960000D237444C802DF6C7B76419CB"",""assignmentId"":""1774764c-abc6-4388-84c8-b9d1d7acd0de"",""projectId"":""e9cc2542-c7dc-4d8f-b94f-d088ad8989d1""}","https://test12345.live/?part=2&participantId=8A960000D237444C802DF6C7B76419CB&assignmentId=1774764c-abc6-4388-84c8-b9d1d7acd0de&projectId=e9cc2542-c7dc-4d8f-b94f-d088ad8989d1","8A960000D237444C802DF6C7B76419CB-2025-05-16-18-29-53","","null","","[""<span style=\""color: red; font-size: 24px\""> NOW RECORDING</span><p>Please say out loud all the images you saw in part 1 of the experiment, as many as you can remember. The images can be said in any order.</p>""]","","1","museum_causal"
"","","","","","image-button-response","42","1024235","0.0-37.0-0.0","8A960000D237444C802DF6C7B76419CB","8A960000D237444C802DF6C7B76419CB","1774764c-abc6-4388-84c8-b9d1d7acd0de","e9cc2542-c7dc-4d8f-b94f-d088ad8989d1","{""part"":""2"",""participantId"":""8A960000D237444C802DF6C7B76419CB"",""assignmentId"":""1774764c-abc6-4388-84c8-b9d1d7acd0de"",""projectId"":""e9cc2542-c7dc-4d8f-b94f-d088ad8989d1""}","https://test12345.live/?part=2&participantId=8A960000D237444C802DF6C7B76419CB&assignmentId=1774764c-abc6-4388-84c8-b9d1d7acd0de&projectId=e9cc2542-c7dc-4d8f-b94f-d088ad8989d1","8A960000D237444C802DF6C7B76419CB-2025-05-16-18-29-53","","null","","images/causal_sequence/coin_causal/coin_causal_0.png","null","",""
"","","","","","html-audio-response","43","1073150","0.0-38.0","8A960000D237444C802DF6C7B76419CB","8A960000D237444C802DF6C7B76419CB","1774764c-abc6-4388-84c8-b9d1d7acd0de","e9cc2542-c7dc-4d8f-b94f-d088ad8989d1","{""part"":""2"",""participantId"":""8A960000D237444C802DF6C7B76419CB"",""assignmentId"":""1774764c-abc6-4388-84c8-b9d1d7acd0de"",""projectId"":""e9cc2542-c7dc-4d8f-b94f-d088ad8989d1""}","https://test12345.live/?part=2&participantId=8A960000D237444C802DF6C7B76419CB&assignmentId=1774764c-abc6-4388-84c8-b9d1d7acd0de&projectId=e9cc2542-c7dc-4d8f-b94f-d088ad8989d1","8A960000D237444C802DF6C7B76419CB-2025-05-16-18-29-53","","47911","","[""<span style=\""color: red; font-size: 24px\""> NOW RECORDING</span><p>Please say out loud all the images you saw in part 1 of the experiment, as many as you can remember. The images can be said in any order.</p>""]","","1","coin_causal"
"","","","","","image-button-response","44","1079166","0.0-39.0-0.0","8A960000D237444C802DF6C7B76419CB","8A960000D237444C802DF6C7B76419CB","1774764c-abc6-4388-84c8-b9d1d7acd0de","e9cc2542-c7dc-4d8f-b94f-d088ad8989d1","{""part"":""2"",""participantId"":""8A960000D237444C802DF6C7B76419CB"",""assignmentId"":""1774764c-abc6-4388-84c8-b9d1d7acd0de"",""projectId"":""e9cc2542-c7dc-4d8f-b94f-d088ad8989d1""}","https://test12345.live/?part=2&participantId=8A960000D237444C802DF6C7B76419CB&assignmentId=1774764c-abc6-4388-84c8-b9d1d7acd0de&projectId=e9cc2542-c7dc-4d8f-b94f-d088ad8989d1","8A960000D237444C802DF6C7B76419CB-2025-05-16-18-29-53","","null","","images/causal_sequence/dog_causal/dog_causal_0.png","null","",""
"","","","","","html-audio-response","45","1134453","0.0-40.0","8A960000D237444C802DF6C7B76419CB","8A960000D237444C802DF6C7B76419CB","1774764c-abc6-4388-84c8-b9d1d7acd0de","e9cc2542-c7dc-4d8f-b94f-d088ad8989d1","{""part"":""2"",""participantId"":""8A960000D237444C802DF6C7B76419CB"",""assignmentId"":""1774764c-abc6-4388-84c8-b9d1d7acd0de"",""projectId"":""e9cc2542-c7dc-4d8f-b94f-d088ad8989d1""}","https://test12345.live/?part=2&participantId=8A960000D237444C802DF6C7B76419CB&assignmentId=1774764c-abc6-4388-84c8-b9d1d7acd0de&projectId=e9cc2542-c7dc-4d8f-b94f-d088ad8989d1","8A960000D237444C802DF6C7B76419CB-2025-05-16-18-29-53","","54155","","[""<span style=\""color: red; font-size: 24px\""> NOW RECORDING</span><p>Please say out loud all the images you saw in part 1 of the experiment, as many as you can remember. The images can be said in any order.</p>""]","","7","dog_causal"
"","","","","","image-button-response","46","1140472","0.0-41.0-0.0","8A960000D237444C802DF6C7B76419CB","8A960000D237444C802DF6C7B76419CB","1774764c-abc6-4388-84c8-b9d1d7acd0de","e9cc2542-c7dc-4d8f-b94f-d088ad8989d1","{""part"":""2"",""participantId"":""8A960000D237444C802DF6C7B76419CB"",""assignmentId"":""1774764c-abc6-4388-84c8-b9d1d7acd0de"",""projectId"":""e9cc2542-c7dc-4d8f-b94f-d088ad8989d1""}","https://test12345.live/?part=2&participantId=8A960000D237444C802DF6C7B76419CB&assignmentId=1774764c-abc6-4388-84c8-b9d1d7acd0de&projectId=e9cc2542-c7dc-4d8f-b94f-d088ad8989d1","8A960000D237444C802DF6C7B76419CB-2025-05-16-18-29-53","","null","","images/schematic_sequence/restaurant_scheme/restaurant_scheme_0.png","null","",""
"","","","","","html-audio-response","47","1152080","0.0-42.0","8A960000D237444C802DF6C7B76419CB","8A960000D237444C802DF6C7B76419CB","1774764c-abc6-4388-84c8-b9d1d7acd0de","e9cc2542-c7dc-4d8f-b94f-d088ad8989d1","{""part"":""2"",""participantId"":""8A960000D237444C802DF6C7B76419CB"",""assignmentId"":""1774764c-abc6-4388-84c8-b9d1d7acd0de"",""projectId"":""e9cc2542-c7dc-4d8f-b94f-d088ad8989d1""}","https://test12345.live/?part=2&participantId=8A960000D237444C802DF6C7B76419CB&assignmentId=1774764c-abc6-4388-84c8-b9d1d7acd0de&projectId=e9cc2542-c7dc-4d8f-b94f-d088ad8989d1","8A960000D237444C802DF6C7B76419CB-2025-05-16-18-29-53","","10169","","[""<span style=\""color: red; font-size: 24px\""> NOW RECORDING</span><p>Please say out loud all the images you saw in part 1 of the experiment, as many as you can remember. The images can be said in any order.</p>""]","","1","restaurant_scheme"
"","","","","","image-button-response","48","1158096","0.0-43.0-0.0","8A960000D237444C802DF6C7B76419CB","8A960000D237444C802DF6C7B76419CB","1774764c-abc6-4388-84c8-b9d1d7acd0de","e9cc2542-c7dc-4d8f-b94f-d088ad8989d1","{""part"":""2"",""participantId"":""8A960000D237444C802DF6C7B76419CB"",""assignmentId"":""1774764c-abc6-4388-84c8-b9d1d7acd0de"",""projectId"":""e9cc2542-c7dc-4d8f-b94f-d088ad8989d1""}","https://test12345.live/?part=2&participantId=8A960000D237444C802DF6C7B76419CB&assignmentId=1774764c-abc6-4388-84c8-b9d1d7acd0de&projectId=e9cc2542-c7dc-4d8f-b94f-d088ad8989d1","8A960000D237444C802DF6C7B76419CB-2025-05-16-18-29-53","","null","","images/semantic_sequence/redecorating_semantic/redecorating_semantic_0.png","null","",""
"","","","","","html-audio-response","49","1201495","0.0-44.0","8A960000D237444C802DF6C7B76419CB","8A960000D237444C802DF6C7B76419CB","1774764c-abc6-4388-84c8-b9d1d7acd0de","e9cc2542-c7dc-4d8f-b94f-d088ad8989d1","{""part"":""2"",""participantId"":""8A960000D237444C802DF6C7B76419CB"",""assignmentId"":""1774764c-abc6-4388-84c8-b9d1d7acd0de"",""projectId"":""e9cc2542-c7dc-4d8f-b94f-d088ad8989d1""}","https://test12345.live/?part=2&participantId=8A960000D237444C802DF6C7B76419CB&assignmentId=1774764c-abc6-4388-84c8-b9d1d7acd0de&projectId=e9cc2542-c7dc-4d8f-b94f-d088ad8989d1","8A960000D237444C802DF6C7B76419CB-2025-05-16-18-29-53","","42276","","[""<span style=\""color: red; font-size: 24px\""> NOW RECORDING</span><p>Please say out loud all the images you saw in part 1 of the experiment, as many as you can remember. The images can be said in any order.</p>""]","","1","redecorating_semantic"
"","","","","","image-button-response","50","1207509","0.0-45.0-0.0","8A960000D237444C802DF6C7B76419CB","8A960000D237444C802DF6C7B76419CB","1774764c-abc6-4388-84c8-b9d1d7acd0de","e9cc2542-c7dc-4d8f-b94f-d088ad8989d1","{""part"":""2"",""participantId"":""8A960000D237444C802DF6C7B76419CB"",""assignmentId"":""1774764c-abc6-4388-84c8-b9d1d7acd0de"",""projectId"":""e9cc2542-c7dc-4d8f-b94f-d088ad8989d1""}","https://test12345.live/?part=2&participantId=8A960000D237444C802DF6C7B76419CB&assignmentId=1774764c-abc6-4388-84c8-b9d1d7acd0de&projectId=e9cc2542-c7dc-4d8f-b94f-d088ad8989d1","8A960000D237444C802DF6C7B76419CB-2025-05-16-18-29-53","","null","","images/schematic_sequence/flight_scheme/flight_scheme_0.png","null","",""
"","","","","","html-audio-response","51","1234348","0.0-46.0","8A960000D237444C802DF6C7B76419CB","8A960000D237444C802DF6C7B76419CB","1774764c-abc6-4388-84c8-b9d1d7acd0de","e9cc2542-c7dc-4d8f-b94f-d088ad8989d1","{""part"":""2"",""participantId"":""8A960000D237444C802DF6C7B76419CB"",""assignmentId"":""1774764c-abc6-4388-84c8-b9d1d7acd0de"",""projectId"":""e9cc2542-c7dc-4d8f-b94f-d088ad8989d1""}","https://test12345.live/?part=2&participantId=8A960000D237444C802DF6C7B76419CB&assignmentId=1774764c-abc6-4388-84c8-b9d1d7acd0de&projectId=e9cc2542-c7dc-4d8f-b94f-d088ad8989d1","8A960000D237444C802DF6C7B76419CB-2025-05-16-18-29-53","","25663","","[""<span style=\""color: red; font-size: 24px\""> NOW RECORDING</span><p>Please say out loud all the images you saw in part 1 of the experiment, as many as you can remember. The images can be said in any order.</p>""]","","1","flight_scheme"
"","","","","","image-button-response","52","1240374","0.0-47.0-0.0","8A960000D237444C802DF6C7B76419CB","8A960000D237444C802DF6C7B76419CB","1774764c-abc6-4388-84c8-b9d1d7acd0de","e9cc2542-c7dc-4d8f-b94f-d088ad8989d1","{""part"":""2"",""participantId"":""8A960000D237444C802DF6C7B76419CB"",""assignmentId"":""1774764c-abc6-4388-84c8-b9d1d7acd0de"",""projectId"":""e9cc2542-c7dc-4d8f-b94f-d088ad8989d1""}","https://test12345.live/?part=2&participantId=8A960000D237444C802DF6C7B76419CB&assignmentId=1774764c-abc6-4388-84c8-b9d1d7acd0de&projectId=e9cc2542-c7dc-4d8f-b94f-d088ad8989d1","8A960000D237444C802DF6C7B76419CB-2025-05-16-18-29-53","","null","","images/semantic_sequence/housework_semantic/housework_semantic_0.png","null","",""
"","","","","","html-audio-response","53","1259327","0.0-48.0","8A960000D237444C802DF6C7B76419CB","8A960000D237444C802DF6C7B76419CB","1774764c-abc6-4388-84c8-b9d1d7acd0de","e9cc2542-c7dc-4d8f-b94f-d088ad8989d1","{""part"":""2"",""participantId"":""8A960000D237444C802DF6C7B76419CB"",""assignmentId"":""1774764c-abc6-4388-84c8-b9d1d7acd0de"",""projectId"":""e9cc2542-c7dc-4d8f-b94f-d088ad8989d1""}","https://test12345.live/?part=2&participantId=8A960000D237444C802DF6C7B76419CB&assignmentId=1774764c-abc6-4388-84c8-b9d1d7acd0de&projectId=e9cc2542-c7dc-4d8f-b94f-d088ad8989d1","8A960000D237444C802DF6C7B76419CB-2025-05-16-18-29-53","","17812","","[""<span style=\""color: red; font-size: 24px\""> NOW RECORDING</span><p>Please say out loud all the images you saw in part 1 of the experiment, as many as you can remember. The images can be said in any order.</p>""]","","1","housework_semantic"
"","","","","","image-button-response","54","1265332","0.0-49.0-0.0","8A960000D237444C802DF6C7B76419CB","8A960000D237444C802DF6C7B76419CB","1774764c-abc6-4388-84c8-b9d1d7acd0de","e9cc2542-c7dc-4d8f-b94f-d088ad8989d1","{""part"":""2"",""participantId"":""8A960000D237444C802DF6C7B76419CB"",""assignmentId"":""1774764c-abc6-4388-84c8-b9d1d7acd0de"",""projectId"":""e9cc2542-c7dc-4d8f-b94f-d088ad8989d1""}","https://test12345.live/?part=2&participantId=8A960000D237444C802DF6C7B76419CB&assignmentId=1774764c-abc6-4388-84c8-b9d1d7acd0de&projectId=e9cc2542-c7dc-4d8f-b94f-d088ad8989d1","8A960000D237444C802DF6C7B76419CB-2025-05-16-18-29-53","","null","","images/semantic_sequence/visiting_cities_semantic/visiting_cities_semantic_0.png","null","",""
"","","","","","html-audio-response","55","1300218","0.0-50.0","8A960000D237444C802DF6C7B76419CB","8A960000D237444C802DF6C7B76419CB","1774764c-abc6-4388-84c8-b9d1d7acd0de","e9cc2542-c7dc-4d8f-b94f-d088ad8989d1","{""part"":""2"",""participantId"":""8A960000D237444C802DF6C7B76419CB"",""assignmentId"":""1774764c-abc6-4388-84c8-b9d1d7acd0de"",""projectId"":""e9cc2542-c7dc-4d8f-b94f-d088ad8989d1""}","https://test12345.live/?part=2&participantId=8A960000D237444C802DF6C7B76419CB&assignmentId=1774764c-abc6-4388-84c8-b9d1d7acd0de&projectId=e9cc2542-c7dc-4d8f-b94f-d088ad8989d1","8A960000D237444C802DF6C7B76419CB-2025-05-16-18-29-53","","29828","","[""<span style=\""color: red; font-size: 24px\""> NOW RECORDING</span><p>Please say out loud all the images you saw in part 1 of the experiment, as many as you can remember. The images can be said in any order.</p>""]","","1","visiting_cities_semantic"
"","","","","","image-button-response","56","1306239","0.0-51.0-0.0","8A960000D237444C802DF6C7B76419CB","8A960000D237444C802DF6C7B76419CB","1774764c-abc6-4388-84c8-b9d1d7acd0de","e9cc2542-c7dc-4d8f-b94f-d088ad8989d1","{""part"":""2"",""participantId"":""8A960000D237444C802DF6C7B76419CB"",""assignmentId"":""1774764c-abc6-4388-84c8-b9d1d7acd0de"",""projectId"":""e9cc2542-c7dc-4d8f-b94f-d088ad8989d1""}","https://test12345.live/?part=2&participantId=8A960000D237444C802DF6C7B76419CB&assignmentId=1774764c-abc6-4388-84c8-b9d1d7acd0de&projectId=e9cc2542-c7dc-4d8f-b94f-d088ad8989d1","8A960000D237444C802DF6C7B76419CB-2025-05-16-18-29-53","","null","","images/schematic_sequence/hotel_scheme/hotel_scheme_0.png","null","",""
"","","","","","html-audio-response","57","1344639","0.0-52.0","8A960000D237444C802DF6C7B76419CB","8A960000D237444C802DF6C7B76419CB","1774764c-abc6-4388-84c8-b9d1d7acd0de","e9cc2542-c7dc-4d8f-b94f-d088ad8989d1","{""part"":""2"",""participantId"":""8A960000D237444C802DF6C7B76419CB"",""assignmentId"":""1774764c-abc6-4388-84c8-b9d1d7acd0de"",""projectId"":""e9cc2542-c7dc-4d8f-b94f-d088ad8989d1""}","https://test12345.live/?part=2&participantId=8A960000D237444C802DF6C7B76419CB&assignmentId=1774764c-abc6-4388-84c8-b9d1d7acd0de&projectId=e9cc2542-c7dc-4d8f-b94f-d088ad8989d1","8A960000D237444C802DF6C7B76419CB-2025-05-16-18-29-53","","37062","","[""<span style=\""color: red; font-size: 24px\""> NOW RECORDING</span><p>Please say out loud all the images you saw in part 1 of the experiment, as many as you can remember. The images can be said in any order.</p>""]","","10","hotel_scheme"
"","","","","","image-button-response","58","1350661","0.0-53.0-0.0","8A960000D237444C802DF6C7B76419CB","8A960000D237444C802DF6C7B76419CB","1774764c-abc6-4388-84c8-b9d1d7acd0de","e9cc2542-c7dc-4d8f-b94f-d088ad8989d1","{""part"":""2"",""participantId"":""8A960000D237444C802DF6C7B76419CB"",""assignmentId"":""1774764c-abc6-4388-84c8-b9d1d7acd0de"",""projectId"":""e9cc2542-c7dc-4d8f-b94f-d088ad8989d1""}","https://test12345.live/?part=2&participantId=8A960000D237444C802DF6C7B76419CB&assignmentId=1774764c-abc6-4388-84c8-b9d1d7acd0de&projectId=e9cc2542-c7dc-4d8f-b94f-d088ad8989d1","8A960000D237444C802DF6C7B76419CB-2025-05-16-18-29-53","","null","","images/semantic_sequence/self_care_activities_semantic/self_care_activities_semantic_0.png","null","",""
"","","","","","html-audio-response","59","1373113","0.0-54.0","8A960000D237444C802DF6C7B76419CB","8A960000D237444C802DF6C7B76419CB","1774764c-abc6-4388-84c8-b9d1d7acd0de","e9cc2542-c7dc-4d8f-b94f-d088ad8989d1","{""part"":""2"",""participantId"":""8A960000D237444C802DF6C7B76419CB"",""assignmentId"":""1774764c-abc6-4388-84c8-b9d1d7acd0de"",""projectId"":""e9cc2542-c7dc-4d8f-b94f-d088ad8989d1""}","https://test12345.live/?part=2&participantId=8A960000D237444C802DF6C7B76419CB&assignmentId=1774764c-abc6-4388-84c8-b9d1d7acd0de&projectId=e9cc2542-c7dc-4d8f-b94f-d088ad8989d1","8A960000D237444C802DF6C7B76419CB-2025-05-16-18-29-53","","21090","","[""<span style=\""color: red; font-size: 24px\""> NOW RECORDING</span><p>Please say out loud all the images you saw in part 1 of the experiment, as many as you can remember. The images can be said in any order.</p>""]","","2","self_care_activities_semantic"
"","","","","","image-button-response","60","1379128","0.0-55.0-0.0","8A960000D237444C802DF6C7B76419CB","8A960000D237444C802DF6C7B76419CB","1774764c-abc6-4388-84c8-b9d1d7acd0de","e9cc2542-c7dc-4d8f-b94f-d088ad8989d1","{""part"":""2"",""participantId"":""8A960000D237444C802DF6C7B76419CB"",""assignmentId"":""1774764c-abc6-4388-84c8-b9d1d7acd0de"",""projectId"":""e9cc2542-c7dc-4d8f-b94f-d088ad8989d1""}","https://test12345.live/?part=2&participantId=8A960000D237444C802DF6C7B76419CB&assignmentId=1774764c-abc6-4388-84c8-b9d1d7acd0de&projectId=e9cc2542-c7dc-4d8f-b94f-d088ad8989d1","8A960000D237444C802DF6C7B76419CB-2025-05-16-18-29-53","","null","","images/semantic_sequence/maintaining_a_car_semantic/maintaining_a_car_semantic_0.png","null","",""
"","","","","","html-audio-response","61","1400653","0.0-56.0","8A960000D237444C802DF6C7B76419CB","8A960000D237444C802DF6C7B76419CB","1774764c-abc6-4388-84c8-b9d1d7acd0de","e9cc2542-c7dc-4d8f-b94f-d088ad8989d1","{""part"":""2"",""participantId"":""8A960000D237444C802DF6C7B76419CB"",""assignmentId"":""1774764c-abc6-4388-84c8-b9d1d7acd0de"",""projectId"":""e9cc2542-c7dc-4d8f-b94f-d088ad8989d1""}","https://test12345.live/?part=2&participantId=8A960000D237444C802DF6C7B76419CB&assignmentId=1774764c-abc6-4388-84c8-b9d1d7acd0de&projectId=e9cc2542-c7dc-4d8f-b94f-d088ad8989d1","8A960000D237444C802DF6C7B76419CB-2025-05-16-18-29-53","","19813","","[""<span style=\""color: red; font-size: 24px\""> NOW RECORDING</span><p>Please say out loud all the images you saw in part 1 of the experiment, as many as you can remember. The images can be said in any order.</p>""]","","4","maintaining_a_car_semantic"
"","","","","","survey-text","62","1410007","0.0-57.0","8A960000D237444C802DF6C7B76419CB","8A960000D237444C802DF6C7B76419CB","1774764c-abc6-4388-84c8-b9d1d7acd0de","e9cc2542-c7dc-4d8f-b94f-d088ad8989d1","{""part"":""2"",""participantId"":""8A960000D237444C802DF6C7B76419CB"",""assignmentId"":""1774764c-abc6-4388-84c8-b9d1d7acd0de"",""projectId"":""e9cc2542-c7dc-4d8f-b94f-d088ad8989d1""}","https://test12345.live/?part=2&participantId=8A960000D237444C802DF6C7B76419CB&assignmentId=1774764c-abc6-4388-84c8-b9d1d7acd0de&projectId=e9cc2542-c7dc-4d8f-b94f-d088ad8989d1","8A960000D237444C802DF6C7B76419CB-2025-05-16-18-29-53","","9339","","","{""Q0"":""female"",""Q1"":""31""}","",""
"","","","","","instructions","63","1416727","0.0-58.0","8A960000D237444C802DF6C7B76419CB","8A960000D237444C802DF6C7B76419CB","1774764c-abc6-4388-84c8-b9d1d7acd0de","e9cc2542-c7dc-4d8f-b94f-d088ad8989d1","{""part"":""2"",""participantId"":""8A960000D237444C802DF6C7B76419CB"",""assignmentId"":""1774764c-abc6-4388-84c8-b9d1d7acd0de"",""projectId"":""e9cc2542-c7dc-4d8f-b94f-d088ad8989d1""}","https://test12345.live/?part=2&participantId=8A960000D237444C802DF6C7B76419CB&assignmentId=1774764c-abc6-4388-84c8-b9d1d7acd0de&projectId=e9cc2542-c7dc-4d8f-b94f-d088ad8989d1","8A960000D237444C802DF6C7B76419CB-2025-05-16-18-29-53","[{""page_index"":0,""viewing_time"":6718}]","6718","","","","",""
"","","","","","survey-text","64","1420683","0.0-59.0","8A960000D237444C802DF6C7B76419CB","8A960000D237444C802DF6C7B76419CB","1774764c-abc6-4388-84c8-b9d1d7acd0de","e9cc2542-c7dc-4d8f-b94f-d088ad8989d1","{""part"":""2"",""participantId"":""8A960000D237444C802DF6C7B76419CB"",""assignmentId"":""1774764c-abc6-4388-84c8-b9d1d7acd0de"",""projectId"":""e9cc2542-c7dc-4d8f-b94f-d088ad8989d1""}","https://test12345.live/?part=2&participantId=8A960000D237444C802DF6C7B76419CB&assignmentId=1774764c-abc6-4388-84c8-b9d1d7acd0de&projectId=e9cc2542-c7dc-4d8f-b94f-d088ad8989d1","8A960000D237444C802DF6C7B76419CB-2025-05-16-18-29-53","","3955","","","{""Q0"":""AJFHBG896""}","",""
