"success","timeout","failed_images","failed_audio","failed_video","trial_type","trial_index","time_elapsed","internal_node_id","subject","subject_id","study_id","session_id","urlvar","current_url","audio_id","view_history","rt","device_id","stimulus","response","estimated_stimulus_onset","seq_name"
"true","false","[]","[]","[]","preload","0","1518","0.0-0.0","8DB8AAE0ADE141ACAA8C487CC311A959","8DB8AAE0ADE141ACAA8C487CC311A959","0198c422-0de5-7b7f-acc5-14c5955cfc34","0198c3e5-90db-7030-b026-3fe33584d632","{""num_scrambled_semantic"":""8"",""num_scrambled_causal"":""4"",""num_scrambled_schematic"":""4"",""participantId"":""8DB8AAE0ADE141ACAA8C487CC311A959"",""assignmentId"":""0198c422-0de5-7b7f-acc5-14c5955cfc34"",""projectId"":""0198c3e5-90db-7030-b026-3fe33584d632""}","https://test12345.live/?num_scrambled_semantic=8&num_scrambled_causal=4&num_scrambled_schematic=4&participantId=8DB8AAE0ADE141ACAA8C487CC311A959&assignmentId=0198c422-0de5-7b7f-acc5-14c5955cfc34&projectId=0198c3e5-90db-7030-b026-3fe33584d632","8DB8AAE0ADE141ACAA8C487CC311A959-2025-08-19-21-09-39","","","","","","",""
"","","","","","instructions","1","116709","0.0-1.0","8DB8AAE0ADE141ACAA8C487CC311A959","8DB8AAE0ADE141ACAA8C487CC311A959","0198c422-0de5-7b7f-acc5-14c5955cfc34","0198c3e5-90db-7030-b026-3fe33584d632","{""num_scrambled_semantic"":""8"",""num_scrambled_causal"":""4"",""num_scrambled_schematic"":""4"",""participantId"":""8DB8AAE0ADE141ACAA8C487CC311A959"",""assignmentId"":""0198c422-0de5-7b7f-acc5-14c5955cfc34"",""projectId"":""0198c3e5-90db-7030-b026-3fe33584d632""}","https://test12345.live/?num_scrambled_semantic=8&num_scrambled_causal=4&num_scrambled_schematic=4&participantId=8DB8AAE0ADE141ACAA8C487CC311A959&assignmentId=0198c422-0de5-7b7f-acc5-14c5955cfc34&projectId=0198c3e5-90db-7030-b026-3fe33584d632","8DB8AAE0ADE141ACAA8C487CC311A959-2025-08-19-21-09-39","[{""page_index"":0,""viewing_time"":113753}]","113754","","","","",""
"","","","","","instructions","2","123048","0.0-2.0","8DB8AAE0ADE141ACAA8C487CC311A959","8DB8AAE0ADE141ACAA8C487CC311A959","0198c422-0de5-7b7f-acc5-14c5955cfc34","0198c3e5-90db-7030-b026-3fe33584d632","{""num_scrambled_semantic"":""8"",""num_scrambled_causal"":""4"",""num_scrambled_schematic"":""4"",""participantId"":""8DB8AAE0ADE141ACAA8C487CC311A959"",""assignmentId"":""0198c422-0de5-7b7f-acc5-14c5955cfc34"",""projectId"":""0198c3e5-90db-7030-b026-3fe33584d632""}","https://test12345.live/?num_scrambled_semantic=8&num_scrambled_causal=4&num_scrambled_schematic=4&participantId=8DB8AAE0ADE141ACAA8C487CC311A959&assignmentId=0198c422-0de5-7b7f-acc5-14c5955cfc34&projectId=0198c3e5-90db-7030-b026-3fe33584d632","8DB8AAE0ADE141ACAA8C487CC311A959-2025-08-19-21-09-39","[{""page_index"":0,""viewing_time"":6257}]","6258","","","","",""
"true","","","","","fullscreen","3","125511","0.0-3.0","8DB8AAE0ADE141ACAA8C487CC311A959","8DB8AAE0ADE141ACAA8C487CC311A959","0198c422-0de5-7b7f-acc5-14c5955cfc34","0198c3e5-90db-7030-b026-3fe33584d632","{""num_scrambled_semantic"":""8"",""num_scrambled_causal"":""4"",""num_scrambled_schematic"":""4"",""participantId"":""8DB8AAE0ADE141ACAA8C487CC311A959"",""assignmentId"":""0198c422-0de5-7b7f-acc5-14c5955cfc34"",""projectId"":""0198c3e5-90db-7030-b026-3fe33584d632""}","https://test12345.live/?num_scrambled_semantic=8&num_scrambled_causal=4&num_scrambled_schematic=4&participantId=8DB8AAE0ADE141ACAA8C487CC311A959&assignmentId=0198c422-0de5-7b7f-acc5-14c5955cfc34&projectId=0198c3e5-90db-7030-b026-3fe33584d632","8DB8AAE0ADE141ACAA8C487CC311A959-2025-08-19-21-09-39","","1447","","","","",""
"","","","","","initialize-microphone","4","132429","0.0-4.0-0.0","8DB8AAE0ADE141ACAA8C487CC311A959","8DB8AAE0ADE141ACAA8C487CC311A959","0198c422-0de5-7b7f-acc5-14c5955cfc34","0198c3e5-90db-7030-b026-3fe33584d632","{""num_scrambled_semantic"":""8"",""num_scrambled_causal"":""4"",""num_scrambled_schematic"":""4"",""participantId"":""8DB8AAE0ADE141ACAA8C487CC311A959"",""assignmentId"":""0198c422-0de5-7b7f-acc5-14c5955cfc34"",""projectId"":""0198c3e5-90db-7030-b026-3fe33584d632""}","https://test12345.live/?num_scrambled_semantic=8&num_scrambled_causal=4&num_scrambled_schematic=4&participantId=8DB8AAE0ADE141ACAA8C487CC311A959&assignmentId=0198c422-0de5-7b7f-acc5-14c5955cfc34&projectId=0198c3e5-90db-7030-b026-3fe33584d632","8DB8AAE0ADE141ACAA8C487CC311A959-2025-08-19-21-09-39","","","163051a137756bbda7c04b77bf2b070911132d54993ad20c6d7cf12edfa77920","","","",""
"","","","","","html-audio-response","5","140758","0.0-4.0-1.0","8DB8AAE0ADE141ACAA8C487CC311A959","8DB8AAE0ADE141ACAA8C487CC311A959","0198c422-0de5-7b7f-acc5-14c5955cfc34","0198c3e5-90db-7030-b026-3fe33584d632","{""num_scrambled_semantic"":""8"",""num_scrambled_causal"":""4"",""num_scrambled_schematic"":""4"",""participantId"":""8DB8AAE0ADE141ACAA8C487CC311A959"",""assignmentId"":""0198c422-0de5-7b7f-acc5-14c5955cfc34"",""projectId"":""0198c3e5-90db-7030-b026-3fe33584d632""}","https://test12345.live/?num_scrambled_semantic=8&num_scrambled_causal=4&num_scrambled_schematic=4&participantId=8DB8AAE0ADE141ACAA8C487CC311A959&assignmentId=0198c422-0de5-7b7f-acc5-14c5955cfc34&projectId=0198c3e5-90db-7030-b026-3fe33584d632","8DB8AAE0ADE141ACAA8C487CC311A959-2025-08-19-21-09-39","","2931","","<span style=""color: red; font-size: 24px""> NOW RECORDING</span>
        <p>Please test Microphone</p>","","7",""
"","","","","","html-button-response","6","142701","0.0-4.0-2.0","8DB8AAE0ADE141ACAA8C487CC311A959","8DB8AAE0ADE141ACAA8C487CC311A959","0198c422-0de5-7b7f-acc5-14c5955cfc34","0198c3e5-90db-7030-b026-3fe33584d632","{""num_scrambled_semantic"":""8"",""num_scrambled_causal"":""4"",""num_scrambled_schematic"":""4"",""participantId"":""8DB8AAE0ADE141ACAA8C487CC311A959"",""assignmentId"":""0198c422-0de5-7b7f-acc5-14c5955cfc34"",""projectId"":""0198c3e5-90db-7030-b026-3fe33584d632""}","https://test12345.live/?num_scrambled_semantic=8&num_scrambled_causal=4&num_scrambled_schematic=4&participantId=8DB8AAE0ADE141ACAA8C487CC311A959&assignmentId=0198c422-0de5-7b7f-acc5-14c5955cfc34&projectId=0198c3e5-90db-7030-b026-3fe33584d632","8DB8AAE0ADE141ACAA8C487CC311A959-2025-08-19-21-09-39","","1935","","<p style=""font-size:48px; color:red;"">Is Microphone OK?</p>","1","",""
"","","","","","instructions","7","162453","0.0-5.0","8DB8AAE0ADE141ACAA8C487CC311A959","8DB8AAE0ADE141ACAA8C487CC311A959","0198c422-0de5-7b7f-acc5-14c5955cfc34","0198c3e5-90db-7030-b026-3fe33584d632","{""num_scrambled_semantic"":""8"",""num_scrambled_causal"":""4"",""num_scrambled_schematic"":""4"",""participantId"":""8DB8AAE0ADE141ACAA8C487CC311A959"",""assignmentId"":""0198c422-0de5-7b7f-acc5-14c5955cfc34"",""projectId"":""0198c3e5-90db-7030-b026-3fe33584d632""}","https://test12345.live/?num_scrambled_semantic=8&num_scrambled_causal=4&num_scrambled_schematic=4&participantId=8DB8AAE0ADE141ACAA8C487CC311A959&assignmentId=0198c422-0de5-7b7f-acc5-14c5955cfc34&projectId=0198c3e5-90db-7030-b026-3fe33584d632","8DB8AAE0ADE141ACAA8C487CC311A959-2025-08-19-21-09-39","[{""page_index"":0,""viewing_time"":1262},{""page_index"":1,""viewing_time"":1170},{""page_index"":2,""viewing_time"":17318}]","19750","","","","",""
"","","","","","image-button-response","8","168475","0.0-6.0-0.0","8DB8AAE0ADE141ACAA8C487CC311A959","8DB8AAE0ADE141ACAA8C487CC311A959","0198c422-0de5-7b7f-acc5-14c5955cfc34","0198c3e5-90db-7030-b026-3fe33584d632","{""num_scrambled_semantic"":""8"",""num_scrambled_causal"":""4"",""num_scrambled_schematic"":""4"",""participantId"":""8DB8AAE0ADE141ACAA8C487CC311A959"",""assignmentId"":""0198c422-0de5-7b7f-acc5-14c5955cfc34"",""projectId"":""0198c3e5-90db-7030-b026-3fe33584d632""}","https://test12345.live/?num_scrambled_semantic=8&num_scrambled_causal=4&num_scrambled_schematic=4&participantId=8DB8AAE0ADE141ACAA8C487CC311A959&assignmentId=0198c422-0de5-7b7f-acc5-14c5955cfc34&projectId=0198c3e5-90db-7030-b026-3fe33584d632","8DB8AAE0ADE141ACAA8C487CC311A959-2025-08-19-21-09-39","","null","","images/instructions/movie_0.png","null","",""
"","","","","","html-audio-response","9","215246","0.0-7.0","8DB8AAE0ADE141ACAA8C487CC311A959","8DB8AAE0ADE141ACAA8C487CC311A959","0198c422-0de5-7b7f-acc5-14c5955cfc34","0198c3e5-90db-7030-b026-3fe33584d632","{""num_scrambled_semantic"":""8"",""num_scrambled_causal"":""4"",""num_scrambled_schematic"":""4"",""participantId"":""8DB8AAE0ADE141ACAA8C487CC311A959"",""assignmentId"":""0198c422-0de5-7b7f-acc5-14c5955cfc34"",""projectId"":""0198c3e5-90db-7030-b026-3fe33584d632""}","https://test12345.live/?num_scrambled_semantic=8&num_scrambled_causal=4&num_scrambled_schematic=4&participantId=8DB8AAE0ADE141ACAA8C487CC311A959&assignmentId=0198c422-0de5-7b7f-acc5-14c5955cfc34&projectId=0198c3e5-90db-7030-b026-3fe33584d632","8DB8AAE0ADE141ACAA8C487CC311A959-2025-08-19-21-09-39","","11586","","[""<span style=\""color: red; font-size: 24px\""> NOW RECORDING</span><p>Please say out loud all the images you saw in part 1 of the experiment, as many as you can remember. The images can be said in any order.</p>""]","","2",""
"","","","","","instructions","10","217113","0.0-8.0","8DB8AAE0ADE141ACAA8C487CC311A959","8DB8AAE0ADE141ACAA8C487CC311A959","0198c422-0de5-7b7f-acc5-14c5955cfc34","0198c3e5-90db-7030-b026-3fe33584d632","{""num_scrambled_semantic"":""8"",""num_scrambled_causal"":""4"",""num_scrambled_schematic"":""4"",""participantId"":""8DB8AAE0ADE141ACAA8C487CC311A959"",""assignmentId"":""0198c422-0de5-7b7f-acc5-14c5955cfc34"",""projectId"":""0198c3e5-90db-7030-b026-3fe33584d632""}","https://test12345.live/?num_scrambled_semantic=8&num_scrambled_causal=4&num_scrambled_schematic=4&participantId=8DB8AAE0ADE141ACAA8C487CC311A959&assignmentId=0198c422-0de5-7b7f-acc5-14c5955cfc34&projectId=0198c3e5-90db-7030-b026-3fe33584d632","8DB8AAE0ADE141ACAA8C487CC311A959-2025-08-19-21-09-39","[{""page_index"":0,""viewing_time"":1860}]","1860","","","","",""
"","","","","","image-button-response","11","223119","0.0-9.0-0.0","8DB8AAE0ADE141ACAA8C487CC311A959","8DB8AAE0ADE141ACAA8C487CC311A959","0198c422-0de5-7b7f-acc5-14c5955cfc34","0198c3e5-90db-7030-b026-3fe33584d632","{""num_scrambled_semantic"":""8"",""num_scrambled_causal"":""4"",""num_scrambled_schematic"":""4"",""participantId"":""8DB8AAE0ADE141ACAA8C487CC311A959"",""assignmentId"":""0198c422-0de5-7b7f-acc5-14c5955cfc34"",""projectId"":""0198c3e5-90db-7030-b026-3fe33584d632""}","https://test12345.live/?num_scrambled_semantic=8&num_scrambled_causal=4&num_scrambled_schematic=4&participantId=8DB8AAE0ADE141ACAA8C487CC311A959&assignmentId=0198c422-0de5-7b7f-acc5-14c5955cfc34&projectId=0198c3e5-90db-7030-b026-3fe33584d632","8DB8AAE0ADE141ACAA8C487CC311A959-2025-08-19-21-09-39","","null","","images/semantic_sequence/maintaining_a_car_semantic/maintaining_a_car_semantic_0.png","null","",""
"","","","","","html-audio-response","12","249118","0.0-10.0","8DB8AAE0ADE141ACAA8C487CC311A959","8DB8AAE0ADE141ACAA8C487CC311A959","0198c422-0de5-7b7f-acc5-14c5955cfc34","0198c3e5-90db-7030-b026-3fe33584d632","{""num_scrambled_semantic"":""8"",""num_scrambled_causal"":""4"",""num_scrambled_schematic"":""4"",""participantId"":""8DB8AAE0ADE141ACAA8C487CC311A959"",""assignmentId"":""0198c422-0de5-7b7f-acc5-14c5955cfc34"",""projectId"":""0198c3e5-90db-7030-b026-3fe33584d632""}","https://test12345.live/?num_scrambled_semantic=8&num_scrambled_causal=4&num_scrambled_schematic=4&participantId=8DB8AAE0ADE141ACAA8C487CC311A959&assignmentId=0198c422-0de5-7b7f-acc5-14c5955cfc34&projectId=0198c3e5-90db-7030-b026-3fe33584d632","8DB8AAE0ADE141ACAA8C487CC311A959-2025-08-19-21-09-39","","24964","","[""<span style=\""color: red; font-size: 24px\""> NOW RECORDING</span><p>Please say out loud all the images you saw, following the storyline they create. Try to recall the sequence of events as they unfolded in the story, rather than the order in which they appeared on the screen.</p>""]","","2","maintaining_a_car_semantic"
"","","","","","image-button-response","13","255138","0.0-11.0-0.0","8DB8AAE0ADE141ACAA8C487CC311A959","8DB8AAE0ADE141ACAA8C487CC311A959","0198c422-0de5-7b7f-acc5-14c5955cfc34","0198c3e5-90db-7030-b026-3fe33584d632","{""num_scrambled_semantic"":""8"",""num_scrambled_causal"":""4"",""num_scrambled_schematic"":""4"",""participantId"":""8DB8AAE0ADE141ACAA8C487CC311A959"",""assignmentId"":""0198c422-0de5-7b7f-acc5-14c5955cfc34"",""projectId"":""0198c3e5-90db-7030-b026-3fe33584d632""}","https://test12345.live/?num_scrambled_semantic=8&num_scrambled_causal=4&num_scrambled_schematic=4&participantId=8DB8AAE0ADE141ACAA8C487CC311A959&assignmentId=0198c422-0de5-7b7f-acc5-14c5955cfc34&projectId=0198c3e5-90db-7030-b026-3fe33584d632","8DB8AAE0ADE141ACAA8C487CC311A959-2025-08-19-21-09-39","","null","","images/causal_sequence/the_performance_causal/the_performance_causal_0.png","null","",""
"","","","","","html-audio-response","14","298672","0.0-12.0","8DB8AAE0ADE141ACAA8C487CC311A959","8DB8AAE0ADE141ACAA8C487CC311A959","0198c422-0de5-7b7f-acc5-14c5955cfc34","0198c3e5-90db-7030-b026-3fe33584d632","{""num_scrambled_semantic"":""8"",""num_scrambled_causal"":""4"",""num_scrambled_schematic"":""4"",""participantId"":""8DB8AAE0ADE141ACAA8C487CC311A959"",""assignmentId"":""0198c422-0de5-7b7f-acc5-14c5955cfc34"",""projectId"":""0198c3e5-90db-7030-b026-3fe33584d632""}","https://test12345.live/?num_scrambled_semantic=8&num_scrambled_causal=4&num_scrambled_schematic=4&participantId=8DB8AAE0ADE141ACAA8C487CC311A959&assignmentId=0198c422-0de5-7b7f-acc5-14c5955cfc34&projectId=0198c3e5-90db-7030-b026-3fe33584d632","8DB8AAE0ADE141ACAA8C487CC311A959-2025-08-19-21-09-39","","26077","","[""<span style=\""color: red; font-size: 24px\""> NOW RECORDING</span><p>Please say out loud all the images you saw, following the storyline they create. Try to recall the sequence of events as they unfolded in the story, rather than the order in which they appeared on the screen.</p>""]","","3","the_performance_causal"
"","","","","","image-button-response","15","304714","0.0-13.0-0.0","8DB8AAE0ADE141ACAA8C487CC311A959","8DB8AAE0ADE141ACAA8C487CC311A959","0198c422-0de5-7b7f-acc5-14c5955cfc34","0198c3e5-90db-7030-b026-3fe33584d632","{""num_scrambled_semantic"":""8"",""num_scrambled_causal"":""4"",""num_scrambled_schematic"":""4"",""participantId"":""8DB8AAE0ADE141ACAA8C487CC311A959"",""assignmentId"":""0198c422-0de5-7b7f-acc5-14c5955cfc34"",""projectId"":""0198c3e5-90db-7030-b026-3fe33584d632""}","https://test12345.live/?num_scrambled_semantic=8&num_scrambled_causal=4&num_scrambled_schematic=4&participantId=8DB8AAE0ADE141ACAA8C487CC311A959&assignmentId=0198c422-0de5-7b7f-acc5-14c5955cfc34&projectId=0198c3e5-90db-7030-b026-3fe33584d632","8DB8AAE0ADE141ACAA8C487CC311A959-2025-08-19-21-09-39","","null","","images/causal_sequence/saving_a_cat_causal/saving_a_cat_causal_0.png","null","",""
"","","","","","html-audio-response","16","329183","0.0-14.0","8DB8AAE0ADE141ACAA8C487CC311A959","8DB8AAE0ADE141ACAA8C487CC311A959","0198c422-0de5-7b7f-acc5-14c5955cfc34","0198c3e5-90db-7030-b026-3fe33584d632","{""num_scrambled_semantic"":""8"",""num_scrambled_causal"":""4"",""num_scrambled_schematic"":""4"",""participantId"":""8DB8AAE0ADE141ACAA8C487CC311A959"",""assignmentId"":""0198c422-0de5-7b7f-acc5-14c5955cfc34"",""projectId"":""0198c3e5-90db-7030-b026-3fe33584d632""}","https://test12345.live/?num_scrambled_semantic=8&num_scrambled_causal=4&num_scrambled_schematic=4&participantId=8DB8AAE0ADE141ACAA8C487CC311A959&assignmentId=0198c422-0de5-7b7f-acc5-14c5955cfc34&projectId=0198c3e5-90db-7030-b026-3fe33584d632","8DB8AAE0ADE141ACAA8C487CC311A959-2025-08-19-21-09-39","","23468","","[""<span style=\""color: red; font-size: 24px\""> NOW RECORDING</span><p>Please say out loud all the images you saw, following the storyline they create. Try to recall the sequence of events as they unfolded in the story, rather than the order in which they appeared on the screen.</p>""]","","2","saving_a_cat_causal"
"","","","","","image-button-response","17","335203","0.0-15.0-0.0","8DB8AAE0ADE141ACAA8C487CC311A959","8DB8AAE0ADE141ACAA8C487CC311A959","0198c422-0de5-7b7f-acc5-14c5955cfc34","0198c3e5-90db-7030-b026-3fe33584d632","{""num_scrambled_semantic"":""8"",""num_scrambled_causal"":""4"",""num_scrambled_schematic"":""4"",""participantId"":""8DB8AAE0ADE141ACAA8C487CC311A959"",""assignmentId"":""0198c422-0de5-7b7f-acc5-14c5955cfc34"",""projectId"":""0198c3e5-90db-7030-b026-3fe33584d632""}","https://test12345.live/?num_scrambled_semantic=8&num_scrambled_causal=4&num_scrambled_schematic=4&participantId=8DB8AAE0ADE141ACAA8C487CC311A959&assignmentId=0198c422-0de5-7b7f-acc5-14c5955cfc34&projectId=0198c3e5-90db-7030-b026-3fe33584d632","8DB8AAE0ADE141ACAA8C487CC311A959-2025-08-19-21-09-39","","null","","images/causal_sequence/museum_causal/museum_causal_0.png","null","",""
"","","","","","html-audio-response","18","358076","0.0-16.0","8DB8AAE0ADE141ACAA8C487CC311A959","8DB8AAE0ADE141ACAA8C487CC311A959","0198c422-0de5-7b7f-acc5-14c5955cfc34","0198c3e5-90db-7030-b026-3fe33584d632","{""num_scrambled_semantic"":""8"",""num_scrambled_causal"":""4"",""num_scrambled_schematic"":""4"",""participantId"":""8DB8AAE0ADE141ACAA8C487CC311A959"",""assignmentId"":""0198c422-0de5-7b7f-acc5-14c5955cfc34"",""projectId"":""0198c3e5-90db-7030-b026-3fe33584d632""}","https://test12345.live/?num_scrambled_semantic=8&num_scrambled_causal=4&num_scrambled_schematic=4&participantId=8DB8AAE0ADE141ACAA8C487CC311A959&assignmentId=0198c422-0de5-7b7f-acc5-14c5955cfc34&projectId=0198c3e5-90db-7030-b026-3fe33584d632","8DB8AAE0ADE141ACAA8C487CC311A959-2025-08-19-21-09-39","","21942","","[""<span style=\""color: red; font-size: 24px\""> NOW RECORDING</span><p>Please say out loud all the images you saw, following the storyline they create. Try to recall the sequence of events as they unfolded in the story, rather than the order in which they appeared on the screen.</p>""]","","2","museum_causal"
"","","","","","image-button-response","19","364104","0.0-17.0-0.0","8DB8AAE0ADE141ACAA8C487CC311A959","8DB8AAE0ADE141ACAA8C487CC311A959","0198c422-0de5-7b7f-acc5-14c5955cfc34","0198c3e5-90db-7030-b026-3fe33584d632","{""num_scrambled_semantic"":""8"",""num_scrambled_causal"":""4"",""num_scrambled_schematic"":""4"",""participantId"":""8DB8AAE0ADE141ACAA8C487CC311A959"",""assignmentId"":""0198c422-0de5-7b7f-acc5-14c5955cfc34"",""projectId"":""0198c3e5-90db-7030-b026-3fe33584d632""}","https://test12345.live/?num_scrambled_semantic=8&num_scrambled_causal=4&num_scrambled_schematic=4&participantId=8DB8AAE0ADE141ACAA8C487CC311A959&assignmentId=0198c422-0de5-7b7f-acc5-14c5955cfc34&projectId=0198c3e5-90db-7030-b026-3fe33584d632","8DB8AAE0ADE141ACAA8C487CC311A959-2025-08-19-21-09-39","","null","","images/causal_sequence/package_causal/package_causal_0.png","null","",""
"","","","","","html-audio-response","20","387617","0.0-18.0","8DB8AAE0ADE141ACAA8C487CC311A959","8DB8AAE0ADE141ACAA8C487CC311A959","0198c422-0de5-7b7f-acc5-14c5955cfc34","0198c3e5-90db-7030-b026-3fe33584d632","{""num_scrambled_semantic"":""8"",""num_scrambled_causal"":""4"",""num_scrambled_schematic"":""4"",""participantId"":""8DB8AAE0ADE141ACAA8C487CC311A959"",""assignmentId"":""0198c422-0de5-7b7f-acc5-14c5955cfc34"",""projectId"":""0198c3e5-90db-7030-b026-3fe33584d632""}","https://test12345.live/?num_scrambled_semantic=8&num_scrambled_causal=4&num_scrambled_schematic=4&participantId=8DB8AAE0ADE141ACAA8C487CC311A959&assignmentId=0198c422-0de5-7b7f-acc5-14c5955cfc34&projectId=0198c3e5-90db-7030-b026-3fe33584d632","8DB8AAE0ADE141ACAA8C487CC311A959-2025-08-19-21-09-39","","22390","","[""<span style=\""color: red; font-size: 24px\""> NOW RECORDING</span><p>Please say out loud all the images you saw, following the storyline they create. Try to recall the sequence of events as they unfolded in the story, rather than the order in which they appeared on the screen.</p>""]","","2","package_causal"
"","","","","","image-button-response","21","393627","0.0-19.0-0.0","8DB8AAE0ADE141ACAA8C487CC311A959","8DB8AAE0ADE141ACAA8C487CC311A959","0198c422-0de5-7b7f-acc5-14c5955cfc34","0198c3e5-90db-7030-b026-3fe33584d632","{""num_scrambled_semantic"":""8"",""num_scrambled_causal"":""4"",""num_scrambled_schematic"":""4"",""participantId"":""8DB8AAE0ADE141ACAA8C487CC311A959"",""assignmentId"":""0198c422-0de5-7b7f-acc5-14c5955cfc34"",""projectId"":""0198c3e5-90db-7030-b026-3fe33584d632""}","https://test12345.live/?num_scrambled_semantic=8&num_scrambled_causal=4&num_scrambled_schematic=4&participantId=8DB8AAE0ADE141ACAA8C487CC311A959&assignmentId=0198c422-0de5-7b7f-acc5-14c5955cfc34&projectId=0198c3e5-90db-7030-b026-3fe33584d632","8DB8AAE0ADE141ACAA8C487CC311A959-2025-08-19-21-09-39","","null","","images/semantic_sequence/using_technology_semantic/using_technology_semantic_0.png","null","",""
"","","","","","html-audio-response","22","405885","0.0-20.0","8DB8AAE0ADE141ACAA8C487CC311A959","8DB8AAE0ADE141ACAA8C487CC311A959","0198c422-0de5-7b7f-acc5-14c5955cfc34","0198c3e5-90db-7030-b026-3fe33584d632","{""num_scrambled_semantic"":""8"",""num_scrambled_causal"":""4"",""num_scrambled_schematic"":""4"",""participantId"":""8DB8AAE0ADE141ACAA8C487CC311A959"",""assignmentId"":""0198c422-0de5-7b7f-acc5-14c5955cfc34"",""projectId"":""0198c3e5-90db-7030-b026-3fe33584d632""}","https://test12345.live/?num_scrambled_semantic=8&num_scrambled_causal=4&num_scrambled_schematic=4&participantId=8DB8AAE0ADE141ACAA8C487CC311A959&assignmentId=0198c422-0de5-7b7f-acc5-14c5955cfc34&projectId=0198c3e5-90db-7030-b026-3fe33584d632","8DB8AAE0ADE141ACAA8C487CC311A959-2025-08-19-21-09-39","","11393","","[""<span style=\""color: red; font-size: 24px\""> NOW RECORDING</span><p>Please say out loud all the images you saw, following the storyline they create. Try to recall the sequence of events as they unfolded in the story, rather than the order in which they appeared on the screen.</p>""]","","3","using_technology_semantic"
"","","","","","image-button-response","23","411905","0.0-21.0-0.0","8DB8AAE0ADE141ACAA8C487CC311A959","8DB8AAE0ADE141ACAA8C487CC311A959","0198c422-0de5-7b7f-acc5-14c5955cfc34","0198c3e5-90db-7030-b026-3fe33584d632","{""num_scrambled_semantic"":""8"",""num_scrambled_causal"":""4"",""num_scrambled_schematic"":""4"",""participantId"":""8DB8AAE0ADE141ACAA8C487CC311A959"",""assignmentId"":""0198c422-0de5-7b7f-acc5-14c5955cfc34"",""projectId"":""0198c3e5-90db-7030-b026-3fe33584d632""}","https://test12345.live/?num_scrambled_semantic=8&num_scrambled_causal=4&num_scrambled_schematic=4&participantId=8DB8AAE0ADE141ACAA8C487CC311A959&assignmentId=0198c422-0de5-7b7f-acc5-14c5955cfc34&projectId=0198c3e5-90db-7030-b026-3fe33584d632","8DB8AAE0ADE141ACAA8C487CC311A959-2025-08-19-21-09-39","","null","","images/semantic_sequence/redecorating_semantic/redecorating_semantic_0.png","null","",""
"","","","","","html-audio-response","24","425536","0.0-22.0","8DB8AAE0ADE141ACAA8C487CC311A959","8DB8AAE0ADE141ACAA8C487CC311A959","0198c422-0de5-7b7f-acc5-14c5955cfc34","0198c3e5-90db-7030-b026-3fe33584d632","{""num_scrambled_semantic"":""8"",""num_scrambled_causal"":""4"",""num_scrambled_schematic"":""4"",""participantId"":""8DB8AAE0ADE141ACAA8C487CC311A959"",""assignmentId"":""0198c422-0de5-7b7f-acc5-14c5955cfc34"",""projectId"":""0198c3e5-90db-7030-b026-3fe33584d632""}","https://test12345.live/?num_scrambled_semantic=8&num_scrambled_causal=4&num_scrambled_schematic=4&participantId=8DB8AAE0ADE141ACAA8C487CC311A959&assignmentId=0198c422-0de5-7b7f-acc5-14c5955cfc34&projectId=0198c3e5-90db-7030-b026-3fe33584d632","8DB8AAE0ADE141ACAA8C487CC311A959-2025-08-19-21-09-39","","12847","","[""<span style=\""color: red; font-size: 24px\""> NOW RECORDING</span><p>Please say out loud all the images you saw, following the storyline they create. Try to recall the sequence of events as they unfolded in the story, rather than the order in which they appeared on the screen.</p>""]","","4","redecorating_semantic"
"","","","","","image-button-response","25","431552","0.0-23.0-0.0","8DB8AAE0ADE141ACAA8C487CC311A959","8DB8AAE0ADE141ACAA8C487CC311A959","0198c422-0de5-7b7f-acc5-14c5955cfc34","0198c3e5-90db-7030-b026-3fe33584d632","{""num_scrambled_semantic"":""8"",""num_scrambled_causal"":""4"",""num_scrambled_schematic"":""4"",""participantId"":""8DB8AAE0ADE141ACAA8C487CC311A959"",""assignmentId"":""0198c422-0de5-7b7f-acc5-14c5955cfc34"",""projectId"":""0198c3e5-90db-7030-b026-3fe33584d632""}","https://test12345.live/?num_scrambled_semantic=8&num_scrambled_causal=4&num_scrambled_schematic=4&participantId=8DB8AAE0ADE141ACAA8C487CC311A959&assignmentId=0198c422-0de5-7b7f-acc5-14c5955cfc34&projectId=0198c3e5-90db-7030-b026-3fe33584d632","8DB8AAE0ADE141ACAA8C487CC311A959-2025-08-19-21-09-39","","null","","images/semantic_sequence/housework_semantic/housework_semantic_0.png","null","",""
"","","","","","html-audio-response","26","449212","0.0-24.0","8DB8AAE0ADE141ACAA8C487CC311A959","8DB8AAE0ADE141ACAA8C487CC311A959","0198c422-0de5-7b7f-acc5-14c5955cfc34","0198c3e5-90db-7030-b026-3fe33584d632","{""num_scrambled_semantic"":""8"",""num_scrambled_causal"":""4"",""num_scrambled_schematic"":""4"",""participantId"":""8DB8AAE0ADE141ACAA8C487CC311A959"",""assignmentId"":""0198c422-0de5-7b7f-acc5-14c5955cfc34"",""projectId"":""0198c3e5-90db-7030-b026-3fe33584d632""}","https://test12345.live/?num_scrambled_semantic=8&num_scrambled_causal=4&num_scrambled_schematic=4&participantId=8DB8AAE0ADE141ACAA8C487CC311A959&assignmentId=0198c422-0de5-7b7f-acc5-14c5955cfc34&projectId=0198c3e5-90db-7030-b026-3fe33584d632","8DB8AAE0ADE141ACAA8C487CC311A959-2025-08-19-21-09-39","","16707","","[""<span style=\""color: red; font-size: 24px\""> NOW RECORDING</span><p>Please say out loud all the images you saw, following the storyline they create. Try to recall the sequence of events as they unfolded in the story, rather than the order in which they appeared on the screen.</p>""]","","2","housework_semantic"
"","","","","","image-button-response","27","455247","0.0-25.0-0.0","8DB8AAE0ADE141ACAA8C487CC311A959","8DB8AAE0ADE141ACAA8C487CC311A959","0198c422-0de5-7b7f-acc5-14c5955cfc34","0198c3e5-90db-7030-b026-3fe33584d632","{""num_scrambled_semantic"":""8"",""num_scrambled_causal"":""4"",""num_scrambled_schematic"":""4"",""participantId"":""8DB8AAE0ADE141ACAA8C487CC311A959"",""assignmentId"":""0198c422-0de5-7b7f-acc5-14c5955cfc34"",""projectId"":""0198c3e5-90db-7030-b026-3fe33584d632""}","https://test12345.live/?num_scrambled_semantic=8&num_scrambled_causal=4&num_scrambled_schematic=4&participantId=8DB8AAE0ADE141ACAA8C487CC311A959&assignmentId=0198c422-0de5-7b7f-acc5-14c5955cfc34&projectId=0198c3e5-90db-7030-b026-3fe33584d632","8DB8AAE0ADE141ACAA8C487CC311A959-2025-08-19-21-09-39","","null","","images/causal_sequence/coin_causal/coin_causal_0.png","null","",""
"","","","","","html-audio-response","28","480087","0.0-26.0","8DB8AAE0ADE141ACAA8C487CC311A959","8DB8AAE0ADE141ACAA8C487CC311A959","0198c422-0de5-7b7f-acc5-14c5955cfc34","0198c3e5-90db-7030-b026-3fe33584d632","{""num_scrambled_semantic"":""8"",""num_scrambled_causal"":""4"",""num_scrambled_schematic"":""4"",""participantId"":""8DB8AAE0ADE141ACAA8C487CC311A959"",""assignmentId"":""0198c422-0de5-7b7f-acc5-14c5955cfc34"",""projectId"":""0198c3e5-90db-7030-b026-3fe33584d632""}","https://test12345.live/?num_scrambled_semantic=8&num_scrambled_causal=4&num_scrambled_schematic=4&participantId=8DB8AAE0ADE141ACAA8C487CC311A959&assignmentId=0198c422-0de5-7b7f-acc5-14c5955cfc34&projectId=0198c3e5-90db-7030-b026-3fe33584d632","8DB8AAE0ADE141ACAA8C487CC311A959-2025-08-19-21-09-39","","23360","","[""<span style=\""color: red; font-size: 24px\""> NOW RECORDING</span><p>Please say out loud all the images you saw, following the storyline they create. Try to recall the sequence of events as they unfolded in the story, rather than the order in which they appeared on the screen.</p>""]","","2","coin_causal"
"","","","","","image-button-response","29","486122","0.0-27.0-0.0","8DB8AAE0ADE141ACAA8C487CC311A959","8DB8AAE0ADE141ACAA8C487CC311A959","0198c422-0de5-7b7f-acc5-14c5955cfc34","0198c3e5-90db-7030-b026-3fe33584d632","{""num_scrambled_semantic"":""8"",""num_scrambled_causal"":""4"",""num_scrambled_schematic"":""4"",""participantId"":""8DB8AAE0ADE141ACAA8C487CC311A959"",""assignmentId"":""0198c422-0de5-7b7f-acc5-14c5955cfc34"",""projectId"":""0198c3e5-90db-7030-b026-3fe33584d632""}","https://test12345.live/?num_scrambled_semantic=8&num_scrambled_causal=4&num_scrambled_schematic=4&participantId=8DB8AAE0ADE141ACAA8C487CC311A959&assignmentId=0198c422-0de5-7b7f-acc5-14c5955cfc34&projectId=0198c3e5-90db-7030-b026-3fe33584d632","8DB8AAE0ADE141ACAA8C487CC311A959-2025-08-19-21-09-39","","null","","images/semantic_sequence/cat_care_semantic/cat_care_semantic_0.png","null","",""
"","","","","","html-audio-response","30","496893","0.0-28.0","8DB8AAE0ADE141ACAA8C487CC311A959","8DB8AAE0ADE141ACAA8C487CC311A959","0198c422-0de5-7b7f-acc5-14c5955cfc34","0198c3e5-90db-7030-b026-3fe33584d632","{""num_scrambled_semantic"":""8"",""num_scrambled_causal"":""4"",""num_scrambled_schematic"":""4"",""participantId"":""8DB8AAE0ADE141ACAA8C487CC311A959"",""assignmentId"":""0198c422-0de5-7b7f-acc5-14c5955cfc34"",""projectId"":""0198c3e5-90db-7030-b026-3fe33584d632""}","https://test12345.live/?num_scrambled_semantic=8&num_scrambled_causal=4&num_scrambled_schematic=4&participantId=8DB8AAE0ADE141ACAA8C487CC311A959&assignmentId=0198c422-0de5-7b7f-acc5-14c5955cfc34&projectId=0198c3e5-90db-7030-b026-3fe33584d632","8DB8AAE0ADE141ACAA8C487CC311A959-2025-08-19-21-09-39","","10077","","[""<span style=\""color: red; font-size: 24px\""> NOW RECORDING</span><p>Please say out loud all the images you saw, following the storyline they create. Try to recall the sequence of events as they unfolded in the story, rather than the order in which they appeared on the screen.</p>""]","","3","cat_care_semantic"
"","","","","","image-button-response","31","502910","0.0-29.0-0.0","8DB8AAE0ADE141ACAA8C487CC311A959","8DB8AAE0ADE141ACAA8C487CC311A959","0198c422-0de5-7b7f-acc5-14c5955cfc34","0198c3e5-90db-7030-b026-3fe33584d632","{""num_scrambled_semantic"":""8"",""num_scrambled_causal"":""4"",""num_scrambled_schematic"":""4"",""participantId"":""8DB8AAE0ADE141ACAA8C487CC311A959"",""assignmentId"":""0198c422-0de5-7b7f-acc5-14c5955cfc34"",""projectId"":""0198c3e5-90db-7030-b026-3fe33584d632""}","https://test12345.live/?num_scrambled_semantic=8&num_scrambled_causal=4&num_scrambled_schematic=4&participantId=8DB8AAE0ADE141ACAA8C487CC311A959&assignmentId=0198c422-0de5-7b7f-acc5-14c5955cfc34&projectId=0198c3e5-90db-7030-b026-3fe33584d632","8DB8AAE0ADE141ACAA8C487CC311A959-2025-08-19-21-09-39","","null","","images/semantic_sequence/physical_activity_semantic/physical_activity_semantic_0.png","null","",""
"","","","","","html-audio-response","32","516855","0.0-30.0","8DB8AAE0ADE141ACAA8C487CC311A959","8DB8AAE0ADE141ACAA8C487CC311A959","0198c422-0de5-7b7f-acc5-14c5955cfc34","0198c3e5-90db-7030-b026-3fe33584d632","{""num_scrambled_semantic"":""8"",""num_scrambled_causal"":""4"",""num_scrambled_schematic"":""4"",""participantId"":""8DB8AAE0ADE141ACAA8C487CC311A959"",""assignmentId"":""0198c422-0de5-7b7f-acc5-14c5955cfc34"",""projectId"":""0198c3e5-90db-7030-b026-3fe33584d632""}","https://test12345.live/?num_scrambled_semantic=8&num_scrambled_causal=4&num_scrambled_schematic=4&participantId=8DB8AAE0ADE141ACAA8C487CC311A959&assignmentId=0198c422-0de5-7b7f-acc5-14c5955cfc34&projectId=0198c3e5-90db-7030-b026-3fe33584d632","8DB8AAE0ADE141ACAA8C487CC311A959-2025-08-19-21-09-39","","12563","","[""<span style=\""color: red; font-size: 24px\""> NOW RECORDING</span><p>Please say out loud all the images you saw, following the storyline they create. Try to recall the sequence of events as they unfolded in the story, rather than the order in which they appeared on the screen.</p>""]","","2","physical_activity_semantic"
"","","","","","image-button-response","33","522875","0.0-31.0-0.0","8DB8AAE0ADE141ACAA8C487CC311A959","8DB8AAE0ADE141ACAA8C487CC311A959","0198c422-0de5-7b7f-acc5-14c5955cfc34","0198c3e5-90db-7030-b026-3fe33584d632","{""num_scrambled_semantic"":""8"",""num_scrambled_causal"":""4"",""num_scrambled_schematic"":""4"",""participantId"":""8DB8AAE0ADE141ACAA8C487CC311A959"",""assignmentId"":""0198c422-0de5-7b7f-acc5-14c5955cfc34"",""projectId"":""0198c3e5-90db-7030-b026-3fe33584d632""}","https://test12345.live/?num_scrambled_semantic=8&num_scrambled_causal=4&num_scrambled_schematic=4&participantId=8DB8AAE0ADE141ACAA8C487CC311A959&assignmentId=0198c422-0de5-7b7f-acc5-14c5955cfc34&projectId=0198c3e5-90db-7030-b026-3fe33584d632","8DB8AAE0ADE141ACAA8C487CC311A959-2025-08-19-21-09-39","","null","","images/causal_sequence/dog_causal/dog_causal_0.png","null","",""
"","","","","","html-audio-response","34","530218","0.0-32.0","8DB8AAE0ADE141ACAA8C487CC311A959","8DB8AAE0ADE141ACAA8C487CC311A959","0198c422-0de5-7b7f-acc5-14c5955cfc34","0198c3e5-90db-7030-b026-3fe33584d632","{""num_scrambled_semantic"":""8"",""num_scrambled_causal"":""4"",""num_scrambled_schematic"":""4"",""participantId"":""8DB8AAE0ADE141ACAA8C487CC311A959"",""assignmentId"":""0198c422-0de5-7b7f-acc5-14c5955cfc34"",""projectId"":""0198c3e5-90db-7030-b026-3fe33584d632""}","https://test12345.live/?num_scrambled_semantic=8&num_scrambled_causal=4&num_scrambled_schematic=4&participantId=8DB8AAE0ADE141ACAA8C487CC311A959&assignmentId=0198c422-0de5-7b7f-acc5-14c5955cfc34&projectId=0198c3e5-90db-7030-b026-3fe33584d632","8DB8AAE0ADE141ACAA8C487CC311A959-2025-08-19-21-09-39","","5388","","[""<span style=\""color: red; font-size: 24px\""> NOW RECORDING</span><p>Please say out loud all the images you saw, following the storyline they create. Try to recall the sequence of events as they unfolded in the story, rather than the order in which they appeared on the screen.</p>""]","","2","dog_causal"
"","","","","","image-button-response","35","536238","0.0-33.0-0.0","8DB8AAE0ADE141ACAA8C487CC311A959","8DB8AAE0ADE141ACAA8C487CC311A959","0198c422-0de5-7b7f-acc5-14c5955cfc34","0198c3e5-90db-7030-b026-3fe33584d632","{""num_scrambled_semantic"":""8"",""num_scrambled_causal"":""4"",""num_scrambled_schematic"":""4"",""participantId"":""8DB8AAE0ADE141ACAA8C487CC311A959"",""assignmentId"":""0198c422-0de5-7b7f-acc5-14c5955cfc34"",""projectId"":""0198c3e5-90db-7030-b026-3fe33584d632""}","https://test12345.live/?num_scrambled_semantic=8&num_scrambled_causal=4&num_scrambled_schematic=4&participantId=8DB8AAE0ADE141ACAA8C487CC311A959&assignmentId=0198c422-0de5-7b7f-acc5-14c5955cfc34&projectId=0198c3e5-90db-7030-b026-3fe33584d632","8DB8AAE0ADE141ACAA8C487CC311A959-2025-08-19-21-09-39","","null","","images/semantic_sequence/creative_activities_semantic/creative_activities_semantic_0.png","null","",""
"","","","","","html-audio-response","36","548547","0.0-34.0","8DB8AAE0ADE141ACAA8C487CC311A959","8DB8AAE0ADE141ACAA8C487CC311A959","0198c422-0de5-7b7f-acc5-14c5955cfc34","0198c3e5-90db-7030-b026-3fe33584d632","{""num_scrambled_semantic"":""8"",""num_scrambled_causal"":""4"",""num_scrambled_schematic"":""4"",""participantId"":""8DB8AAE0ADE141ACAA8C487CC311A959"",""assignmentId"":""0198c422-0de5-7b7f-acc5-14c5955cfc34"",""projectId"":""0198c3e5-90db-7030-b026-3fe33584d632""}","https://test12345.live/?num_scrambled_semantic=8&num_scrambled_causal=4&num_scrambled_schematic=4&participantId=8DB8AAE0ADE141ACAA8C487CC311A959&assignmentId=0198c422-0de5-7b7f-acc5-14c5955cfc34&projectId=0198c3e5-90db-7030-b026-3fe33584d632","8DB8AAE0ADE141ACAA8C487CC311A959-2025-08-19-21-09-39","","11283","","[""<span style=\""color: red; font-size: 24px\""> NOW RECORDING</span><p>Please say out loud all the images you saw, following the storyline they create. Try to recall the sequence of events as they unfolded in the story, rather than the order in which they appeared on the screen.</p>""]","","3","creative_activities_semantic"
"","","","","","survey-text","37","558281","0.0-35.0","8DB8AAE0ADE141ACAA8C487CC311A959","8DB8AAE0ADE141ACAA8C487CC311A959","0198c422-0de5-7b7f-acc5-14c5955cfc34","0198c3e5-90db-7030-b026-3fe33584d632","{""num_scrambled_semantic"":""8"",""num_scrambled_causal"":""4"",""num_scrambled_schematic"":""4"",""participantId"":""8DB8AAE0ADE141ACAA8C487CC311A959"",""assignmentId"":""0198c422-0de5-7b7f-acc5-14c5955cfc34"",""projectId"":""0198c3e5-90db-7030-b026-3fe33584d632""}","https://test12345.live/?num_scrambled_semantic=8&num_scrambled_causal=4&num_scrambled_schematic=4&participantId=8DB8AAE0ADE141ACAA8C487CC311A959&assignmentId=0198c422-0de5-7b7f-acc5-14c5955cfc34&projectId=0198c3e5-90db-7030-b026-3fe33584d632","8DB8AAE0ADE141ACAA8C487CC311A959-2025-08-19-21-09-39","","9663","","","{""Q0"":""Female"",""Q1"":""31""}","",""
"","","","","","instructions","38","565246","0.0-36.0","8DB8AAE0ADE141ACAA8C487CC311A959","8DB8AAE0ADE141ACAA8C487CC311A959","0198c422-0de5-7b7f-acc5-14c5955cfc34","0198c3e5-90db-7030-b026-3fe33584d632","{""num_scrambled_semantic"":""8"",""num_scrambled_causal"":""4"",""num_scrambled_schematic"":""4"",""participantId"":""8DB8AAE0ADE141ACAA8C487CC311A959"",""assignmentId"":""0198c422-0de5-7b7f-acc5-14c5955cfc34"",""projectId"":""0198c3e5-90db-7030-b026-3fe33584d632""}","https://test12345.live/?num_scrambled_semantic=8&num_scrambled_causal=4&num_scrambled_schematic=4&participantId=8DB8AAE0ADE141ACAA8C487CC311A959&assignmentId=0198c422-0de5-7b7f-acc5-14c5955cfc34&projectId=0198c3e5-90db-7030-b026-3fe33584d632","8DB8AAE0ADE141ACAA8C487CC311A959-2025-08-19-21-09-39","[{""page_index"":0,""viewing_time"":6963}]","6964","","","","",""
"","","","","","survey-text","39","570124","0.0-37.0","8DB8AAE0ADE141ACAA8C487CC311A959","8DB8AAE0ADE141ACAA8C487CC311A959","0198c422-0de5-7b7f-acc5-14c5955cfc34","0198c3e5-90db-7030-b026-3fe33584d632","{""num_scrambled_semantic"":""8"",""num_scrambled_causal"":""4"",""num_scrambled_schematic"":""4"",""participantId"":""8DB8AAE0ADE141ACAA8C487CC311A959"",""assignmentId"":""0198c422-0de5-7b7f-acc5-14c5955cfc34"",""projectId"":""0198c3e5-90db-7030-b026-3fe33584d632""}","https://test12345.live/?num_scrambled_semantic=8&num_scrambled_causal=4&num_scrambled_schematic=4&participantId=8DB8AAE0ADE141ACAA8C487CC311A959&assignmentId=0198c422-0de5-7b7f-acc5-14c5955cfc34&projectId=0198c3e5-90db-7030-b026-3fe33584d632","8DB8AAE0ADE141ACAA8C487CC311A959-2025-08-19-21-09-39","","4866","","","{""Q0"":""AJFHBG896""}","",""
