"success","timeout","failed_images","failed_audio","failed_video","trial_type","trial_index","time_elapsed","internal_node_id","subject","subject_id","study_id","session_id","urlvar","current_url","audio_id","view_history","rt","device_id","stimulus","response","estimated_stimulus_onset","seq_name"
"true","false","[]","[]","[]","preload","0","20014","0.0-0.0","923774E1DC524B0E9A666C35AB9E57E6","923774E1DC524B0E9A666C35AB9E57E6","28ee0082-f71c-40b9-9bab-093b9f2f2d24","8dfb86c6-d592-4b65-b168-1bfaa987a769","{""part"":""2"",""participantId"":""923774E1DC524B0E9A666C35AB9E57E6"",""assignmentId"":""28ee0082-f71c-40b9-9bab-093b9f2f2d24"",""projectId"":""8dfb86c6-d592-4b65-b168-1bfaa987a769""}","https://test12345.live/?part=2&participantId=923774E1DC524B0E9A666C35AB9E57E6&assignmentId=28ee0082-f71c-40b9-9bab-093b9f2f2d24&projectId=8dfb86c6-d592-4b65-b168-1bfaa987a769","923774E1DC524B0E9A666C35AB9E57E6-2025-05-24-13-25-50","","","","","","",""
"","","","","","instructions","1","30829","0.0-1.0","923774E1DC524B0E9A666C35AB9E57E6","923774E1DC524B0E9A666C35AB9E57E6","28ee0082-f71c-40b9-9bab-093b9f2f2d24","8dfb86c6-d592-4b65-b168-1bfaa987a769","{""part"":""2"",""participantId"":""923774E1DC524B0E9A666C35AB9E57E6"",""assignmentId"":""28ee0082-f71c-40b9-9bab-093b9f2f2d24"",""projectId"":""8dfb86c6-d592-4b65-b168-1bfaa987a769""}","https://test12345.live/?part=2&participantId=923774E1DC524B0E9A666C35AB9E57E6&assignmentId=28ee0082-f71c-40b9-9bab-093b9f2f2d24&projectId=8dfb86c6-d592-4b65-b168-1bfaa987a769","923774E1DC524B0E9A666C35AB9E57E6-2025-05-24-13-25-50","[{""page_index"":0,""viewing_time"":10814}]","10814","","","","",""
"","","","","","instructions","2","37585","0.0-2.0","923774E1DC524B0E9A666C35AB9E57E6","923774E1DC524B0E9A666C35AB9E57E6","28ee0082-f71c-40b9-9bab-093b9f2f2d24","8dfb86c6-d592-4b65-b168-1bfaa987a769","{""part"":""2"",""participantId"":""923774E1DC524B0E9A666C35AB9E57E6"",""assignmentId"":""28ee0082-f71c-40b9-9bab-093b9f2f2d24"",""projectId"":""8dfb86c6-d592-4b65-b168-1bfaa987a769""}","https://test12345.live/?part=2&participantId=923774E1DC524B0E9A666C35AB9E57E6&assignmentId=28ee0082-f71c-40b9-9bab-093b9f2f2d24&projectId=8dfb86c6-d592-4b65-b168-1bfaa987a769","923774E1DC524B0E9A666C35AB9E57E6-2025-05-24-13-25-50","[{""page_index"":0,""viewing_time"":6755}]","6755","","","","",""
"true","","","","","fullscreen","3","44007","0.0-3.0","923774E1DC524B0E9A666C35AB9E57E6","923774E1DC524B0E9A666C35AB9E57E6","28ee0082-f71c-40b9-9bab-093b9f2f2d24","8dfb86c6-d592-4b65-b168-1bfaa987a769","{""part"":""2"",""participantId"":""923774E1DC524B0E9A666C35AB9E57E6"",""assignmentId"":""28ee0082-f71c-40b9-9bab-093b9f2f2d24"",""projectId"":""8dfb86c6-d592-4b65-b168-1bfaa987a769""}","https://test12345.live/?part=2&participantId=923774E1DC524B0E9A666C35AB9E57E6&assignmentId=28ee0082-f71c-40b9-9bab-093b9f2f2d24&projectId=8dfb86c6-d592-4b65-b168-1bfaa987a769","923774E1DC524B0E9A666C35AB9E57E6-2025-05-24-13-25-50","","5413","","","","",""
"","","","","","initialize-microphone","4","50412","0.0-4.0-0.0","923774E1DC524B0E9A666C35AB9E57E6","923774E1DC524B0E9A666C35AB9E57E6","28ee0082-f71c-40b9-9bab-093b9f2f2d24","8dfb86c6-d592-4b65-b168-1bfaa987a769","{""part"":""2"",""participantId"":""923774E1DC524B0E9A666C35AB9E57E6"",""assignmentId"":""28ee0082-f71c-40b9-9bab-093b9f2f2d24"",""projectId"":""8dfb86c6-d592-4b65-b168-1bfaa987a769""}","https://test12345.live/?part=2&participantId=923774E1DC524B0E9A666C35AB9E57E6&assignmentId=28ee0082-f71c-40b9-9bab-093b9f2f2d24&projectId=8dfb86c6-d592-4b65-b168-1bfaa987a769","923774E1DC524B0E9A666C35AB9E57E6-2025-05-24-13-25-50","","","6b824bdef4f497a38ea8dbe714e14377cbd7758407d45b2d796fe2c88cf874e7","","","",""
"","","","","","html-audio-response","5","60801","0.0-4.0-1.0","923774E1DC524B0E9A666C35AB9E57E6","923774E1DC524B0E9A666C35AB9E57E6","28ee0082-f71c-40b9-9bab-093b9f2f2d24","8dfb86c6-d592-4b65-b168-1bfaa987a769","{""part"":""2"",""participantId"":""923774E1DC524B0E9A666C35AB9E57E6"",""assignmentId"":""28ee0082-f71c-40b9-9bab-093b9f2f2d24"",""projectId"":""8dfb86c6-d592-4b65-b168-1bfaa987a769""}","https://test12345.live/?part=2&participantId=923774E1DC524B0E9A666C35AB9E57E6&assignmentId=28ee0082-f71c-40b9-9bab-093b9f2f2d24&projectId=8dfb86c6-d592-4b65-b168-1bfaa987a769","923774E1DC524B0E9A666C35AB9E57E6-2025-05-24-13-25-50","","4055","","<span style=""color: red; font-size: 24px""> NOW RECORDING</span>
        <p>Please test Microphone</p>","","3",""
"","","","","","html-button-response","6","66187","0.0-4.0-2.0","923774E1DC524B0E9A666C35AB9E57E6","923774E1DC524B0E9A666C35AB9E57E6","28ee0082-f71c-40b9-9bab-093b9f2f2d24","8dfb86c6-d592-4b65-b168-1bfaa987a769","{""part"":""2"",""participantId"":""923774E1DC524B0E9A666C35AB9E57E6"",""assignmentId"":""28ee0082-f71c-40b9-9bab-093b9f2f2d24"",""projectId"":""8dfb86c6-d592-4b65-b168-1bfaa987a769""}","https://test12345.live/?part=2&participantId=923774E1DC524B0E9A666C35AB9E57E6&assignmentId=28ee0082-f71c-40b9-9bab-093b9f2f2d24&projectId=8dfb86c6-d592-4b65-b168-1bfaa987a769","923774E1DC524B0E9A666C35AB9E57E6-2025-05-24-13-25-50","","5384","","<p style=""font-size:48px; color:red;"">Is Microphone OK?</p>","1","",""
"","","","","","instructions","7","85505","0.0-5.0","923774E1DC524B0E9A666C35AB9E57E6","923774E1DC524B0E9A666C35AB9E57E6","28ee0082-f71c-40b9-9bab-093b9f2f2d24","8dfb86c6-d592-4b65-b168-1bfaa987a769","{""part"":""2"",""participantId"":""923774E1DC524B0E9A666C35AB9E57E6"",""assignmentId"":""28ee0082-f71c-40b9-9bab-093b9f2f2d24"",""projectId"":""8dfb86c6-d592-4b65-b168-1bfaa987a769""}","https://test12345.live/?part=2&participantId=923774E1DC524B0E9A666C35AB9E57E6&assignmentId=28ee0082-f71c-40b9-9bab-093b9f2f2d24&projectId=8dfb86c6-d592-4b65-b168-1bfaa987a769","923774E1DC524B0E9A666C35AB9E57E6-2025-05-24-13-25-50","[{""page_index"":0,""viewing_time"":2066},{""page_index"":1,""viewing_time"":6018},{""page_index"":2,""viewing_time"":11232}]","19316","","","","",""
"","","","","","image-button-response","8","91520","0.0-6.0-0.0","923774E1DC524B0E9A666C35AB9E57E6","923774E1DC524B0E9A666C35AB9E57E6","28ee0082-f71c-40b9-9bab-093b9f2f2d24","8dfb86c6-d592-4b65-b168-1bfaa987a769","{""part"":""2"",""participantId"":""923774E1DC524B0E9A666C35AB9E57E6"",""assignmentId"":""28ee0082-f71c-40b9-9bab-093b9f2f2d24"",""projectId"":""8dfb86c6-d592-4b65-b168-1bfaa987a769""}","https://test12345.live/?part=2&participantId=923774E1DC524B0E9A666C35AB9E57E6&assignmentId=28ee0082-f71c-40b9-9bab-093b9f2f2d24&projectId=8dfb86c6-d592-4b65-b168-1bfaa987a769","923774E1DC524B0E9A666C35AB9E57E6-2025-05-24-13-25-50","","null","","images/instructions/movie_0.png","null","",""
"","","","","","html-audio-response","9","120249","0.0-7.0","923774E1DC524B0E9A666C35AB9E57E6","923774E1DC524B0E9A666C35AB9E57E6","28ee0082-f71c-40b9-9bab-093b9f2f2d24","8dfb86c6-d592-4b65-b168-1bfaa987a769","{""part"":""2"",""participantId"":""923774E1DC524B0E9A666C35AB9E57E6"",""assignmentId"":""28ee0082-f71c-40b9-9bab-093b9f2f2d24"",""projectId"":""8dfb86c6-d592-4b65-b168-1bfaa987a769""}","https://test12345.live/?part=2&participantId=923774E1DC524B0E9A666C35AB9E57E6&assignmentId=28ee0082-f71c-40b9-9bab-093b9f2f2d24&projectId=8dfb86c6-d592-4b65-b168-1bfaa987a769","923774E1DC524B0E9A666C35AB9E57E6-2025-05-24-13-25-50","","14636","","[""<span style=\""color: red; font-size: 24px\""> NOW RECORDING</span><p>Please say out loud all the images you saw in part 1 of the experiment, in the exact order you saw them. Try to recall as many images as you can, but remember: getting the order right is more important than the number of images you recall.</p>""]","","2",""
"","","","","","instructions","10","124049","0.0-8.0","923774E1DC524B0E9A666C35AB9E57E6","923774E1DC524B0E9A666C35AB9E57E6","28ee0082-f71c-40b9-9bab-093b9f2f2d24","8dfb86c6-d592-4b65-b168-1bfaa987a769","{""part"":""2"",""participantId"":""923774E1DC524B0E9A666C35AB9E57E6"",""assignmentId"":""28ee0082-f71c-40b9-9bab-093b9f2f2d24"",""projectId"":""8dfb86c6-d592-4b65-b168-1bfaa987a769""}","https://test12345.live/?part=2&participantId=923774E1DC524B0E9A666C35AB9E57E6&assignmentId=28ee0082-f71c-40b9-9bab-093b9f2f2d24&projectId=8dfb86c6-d592-4b65-b168-1bfaa987a769","923774E1DC524B0E9A666C35AB9E57E6-2025-05-24-13-25-50","[{""page_index"":0,""viewing_time"":3794}]","3794","","","","",""
"","","","","","image-button-response","11","130063","0.0-9.0-0.0","923774E1DC524B0E9A666C35AB9E57E6","923774E1DC524B0E9A666C35AB9E57E6","28ee0082-f71c-40b9-9bab-093b9f2f2d24","8dfb86c6-d592-4b65-b168-1bfaa987a769","{""part"":""2"",""participantId"":""923774E1DC524B0E9A666C35AB9E57E6"",""assignmentId"":""28ee0082-f71c-40b9-9bab-093b9f2f2d24"",""projectId"":""8dfb86c6-d592-4b65-b168-1bfaa987a769""}","https://test12345.live/?part=2&participantId=923774E1DC524B0E9A666C35AB9E57E6&assignmentId=28ee0082-f71c-40b9-9bab-093b9f2f2d24&projectId=8dfb86c6-d592-4b65-b168-1bfaa987a769","923774E1DC524B0E9A666C35AB9E57E6-2025-05-24-13-25-50","","null","","images/semantic_sequence/creative_activities_semantic/creative_activities_semantic_0.png","null","",""
"","","","","","html-audio-response","12","151758","0.0-10.0","923774E1DC524B0E9A666C35AB9E57E6","923774E1DC524B0E9A666C35AB9E57E6","28ee0082-f71c-40b9-9bab-093b9f2f2d24","8dfb86c6-d592-4b65-b168-1bfaa987a769","{""part"":""2"",""participantId"":""923774E1DC524B0E9A666C35AB9E57E6"",""assignmentId"":""28ee0082-f71c-40b9-9bab-093b9f2f2d24"",""projectId"":""8dfb86c6-d592-4b65-b168-1bfaa987a769""}","https://test12345.live/?part=2&participantId=923774E1DC524B0E9A666C35AB9E57E6&assignmentId=28ee0082-f71c-40b9-9bab-093b9f2f2d24&projectId=8dfb86c6-d592-4b65-b168-1bfaa987a769","923774E1DC524B0E9A666C35AB9E57E6-2025-05-24-13-25-50","","11812","","[""<span style=\""color: red; font-size: 24px\""> NOW RECORDING</span><p>Please say out loud all the images you saw in part 1 of the experiment, in the exact order you saw them. Try to recall as many images as you can, but remember: getting the order right is more important than the number of images you recall. </p>""]","","1","creative_activities_semantic"
"","","","","","image-button-response","13","157766","0.0-11.0-0.0","923774E1DC524B0E9A666C35AB9E57E6","923774E1DC524B0E9A666C35AB9E57E6","28ee0082-f71c-40b9-9bab-093b9f2f2d24","8dfb86c6-d592-4b65-b168-1bfaa987a769","{""part"":""2"",""participantId"":""923774E1DC524B0E9A666C35AB9E57E6"",""assignmentId"":""28ee0082-f71c-40b9-9bab-093b9f2f2d24"",""projectId"":""8dfb86c6-d592-4b65-b168-1bfaa987a769""}","https://test12345.live/?part=2&participantId=923774E1DC524B0E9A666C35AB9E57E6&assignmentId=28ee0082-f71c-40b9-9bab-093b9f2f2d24&projectId=8dfb86c6-d592-4b65-b168-1bfaa987a769","923774E1DC524B0E9A666C35AB9E57E6-2025-05-24-13-25-50","","null","","images/semantic_sequence/visiting_cities_semantic/visiting_cities_semantic_0.png","null","",""
"","","","","","html-audio-response","14","184024","0.0-12.0","923774E1DC524B0E9A666C35AB9E57E6","923774E1DC524B0E9A666C35AB9E57E6","28ee0082-f71c-40b9-9bab-093b9f2f2d24","8dfb86c6-d592-4b65-b168-1bfaa987a769","{""part"":""2"",""participantId"":""923774E1DC524B0E9A666C35AB9E57E6"",""assignmentId"":""28ee0082-f71c-40b9-9bab-093b9f2f2d24"",""projectId"":""8dfb86c6-d592-4b65-b168-1bfaa987a769""}","https://test12345.live/?part=2&participantId=923774E1DC524B0E9A666C35AB9E57E6&assignmentId=28ee0082-f71c-40b9-9bab-093b9f2f2d24&projectId=8dfb86c6-d592-4b65-b168-1bfaa987a769","923774E1DC524B0E9A666C35AB9E57E6-2025-05-24-13-25-50","","11580","","[""<span style=\""color: red; font-size: 24px\""> NOW RECORDING</span><p>Please say out loud all the images you saw in part 1 of the experiment, in the exact order you saw them. Try to recall as many images as you can, but remember: getting the order right is more important than the number of images you recall. </p>""]","","2","visiting_cities_semantic"
"","","","","","image-button-response","15","190041","0.0-13.0-0.0","923774E1DC524B0E9A666C35AB9E57E6","923774E1DC524B0E9A666C35AB9E57E6","28ee0082-f71c-40b9-9bab-093b9f2f2d24","8dfb86c6-d592-4b65-b168-1bfaa987a769","{""part"":""2"",""participantId"":""923774E1DC524B0E9A666C35AB9E57E6"",""assignmentId"":""28ee0082-f71c-40b9-9bab-093b9f2f2d24"",""projectId"":""8dfb86c6-d592-4b65-b168-1bfaa987a769""}","https://test12345.live/?part=2&participantId=923774E1DC524B0E9A666C35AB9E57E6&assignmentId=28ee0082-f71c-40b9-9bab-093b9f2f2d24&projectId=8dfb86c6-d592-4b65-b168-1bfaa987a769","923774E1DC524B0E9A666C35AB9E57E6-2025-05-24-13-25-50","","null","","images/schematic_sequence/supermarket_scheme/supermarket_scheme_0.png","null","",""
"","","","","","html-audio-response","16","214176","0.0-14.0","923774E1DC524B0E9A666C35AB9E57E6","923774E1DC524B0E9A666C35AB9E57E6","28ee0082-f71c-40b9-9bab-093b9f2f2d24","8dfb86c6-d592-4b65-b168-1bfaa987a769","{""part"":""2"",""participantId"":""923774E1DC524B0E9A666C35AB9E57E6"",""assignmentId"":""28ee0082-f71c-40b9-9bab-093b9f2f2d24"",""projectId"":""8dfb86c6-d592-4b65-b168-1bfaa987a769""}","https://test12345.live/?part=2&participantId=923774E1DC524B0E9A666C35AB9E57E6&assignmentId=28ee0082-f71c-40b9-9bab-093b9f2f2d24&projectId=8dfb86c6-d592-4b65-b168-1bfaa987a769","923774E1DC524B0E9A666C35AB9E57E6-2025-05-24-13-25-50","","10426","","[""<span style=\""color: red; font-size: 24px\""> NOW RECORDING</span><p>Please say out loud all the images you saw in part 1 of the experiment, in the exact order you saw them. Try to recall as many images as you can, but remember: getting the order right is more important than the number of images you recall. </p>""]","","1","supermarket_scheme"
"","","","","","image-button-response","17","220193","0.0-15.0-0.0","923774E1DC524B0E9A666C35AB9E57E6","923774E1DC524B0E9A666C35AB9E57E6","28ee0082-f71c-40b9-9bab-093b9f2f2d24","8dfb86c6-d592-4b65-b168-1bfaa987a769","{""part"":""2"",""participantId"":""923774E1DC524B0E9A666C35AB9E57E6"",""assignmentId"":""28ee0082-f71c-40b9-9bab-093b9f2f2d24"",""projectId"":""8dfb86c6-d592-4b65-b168-1bfaa987a769""}","https://test12345.live/?part=2&participantId=923774E1DC524B0E9A666C35AB9E57E6&assignmentId=28ee0082-f71c-40b9-9bab-093b9f2f2d24&projectId=8dfb86c6-d592-4b65-b168-1bfaa987a769","923774E1DC524B0E9A666C35AB9E57E6-2025-05-24-13-25-50","","null","","images/semantic_sequence/housework_semantic/housework_semantic_0.png","null","",""
"","","","","","html-audio-response","18","241408","0.0-16.0","923774E1DC524B0E9A666C35AB9E57E6","923774E1DC524B0E9A666C35AB9E57E6","28ee0082-f71c-40b9-9bab-093b9f2f2d24","8dfb86c6-d592-4b65-b168-1bfaa987a769","{""part"":""2"",""participantId"":""923774E1DC524B0E9A666C35AB9E57E6"",""assignmentId"":""28ee0082-f71c-40b9-9bab-093b9f2f2d24"",""projectId"":""8dfb86c6-d592-4b65-b168-1bfaa987a769""}","https://test12345.live/?part=2&participantId=923774E1DC524B0E9A666C35AB9E57E6&assignmentId=28ee0082-f71c-40b9-9bab-093b9f2f2d24&projectId=8dfb86c6-d592-4b65-b168-1bfaa987a769","923774E1DC524B0E9A666C35AB9E57E6-2025-05-24-13-25-50","","10404","","[""<span style=\""color: red; font-size: 24px\""> NOW RECORDING</span><p>Please say out loud all the images you saw in part 1 of the experiment, in the exact order you saw them. Try to recall as many images as you can, but remember: getting the order right is more important than the number of images you recall. </p>""]","","1","housework_semantic"
"","","","","","image-button-response","19","247421","0.0-17.0-0.0","923774E1DC524B0E9A666C35AB9E57E6","923774E1DC524B0E9A666C35AB9E57E6","28ee0082-f71c-40b9-9bab-093b9f2f2d24","8dfb86c6-d592-4b65-b168-1bfaa987a769","{""part"":""2"",""participantId"":""923774E1DC524B0E9A666C35AB9E57E6"",""assignmentId"":""28ee0082-f71c-40b9-9bab-093b9f2f2d24"",""projectId"":""8dfb86c6-d592-4b65-b168-1bfaa987a769""}","https://test12345.live/?part=2&participantId=923774E1DC524B0E9A666C35AB9E57E6&assignmentId=28ee0082-f71c-40b9-9bab-093b9f2f2d24&projectId=8dfb86c6-d592-4b65-b168-1bfaa987a769","923774E1DC524B0E9A666C35AB9E57E6-2025-05-24-13-25-50","","null","","images/causal_sequence/package_causal/package_causal_0.png","null","",""
"","","","","","html-audio-response","20","279204","0.0-18.0","923774E1DC524B0E9A666C35AB9E57E6","923774E1DC524B0E9A666C35AB9E57E6","28ee0082-f71c-40b9-9bab-093b9f2f2d24","8dfb86c6-d592-4b65-b168-1bfaa987a769","{""part"":""2"",""participantId"":""923774E1DC524B0E9A666C35AB9E57E6"",""assignmentId"":""28ee0082-f71c-40b9-9bab-093b9f2f2d24"",""projectId"":""8dfb86c6-d592-4b65-b168-1bfaa987a769""}","https://test12345.live/?part=2&participantId=923774E1DC524B0E9A666C35AB9E57E6&assignmentId=28ee0082-f71c-40b9-9bab-093b9f2f2d24&projectId=8dfb86c6-d592-4b65-b168-1bfaa987a769","923774E1DC524B0E9A666C35AB9E57E6-2025-05-24-13-25-50","","15572","","[""<span style=\""color: red; font-size: 24px\""> NOW RECORDING</span><p>Please say out loud all the images you saw in part 1 of the experiment, in the exact order you saw them. Try to recall as many images as you can, but remember: getting the order right is more important than the number of images you recall. </p>""]","","1","package_causal"
"","","","","","image-button-response","21","285214","0.0-19.0-0.0","923774E1DC524B0E9A666C35AB9E57E6","923774E1DC524B0E9A666C35AB9E57E6","28ee0082-f71c-40b9-9bab-093b9f2f2d24","8dfb86c6-d592-4b65-b168-1bfaa987a769","{""part"":""2"",""participantId"":""923774E1DC524B0E9A666C35AB9E57E6"",""assignmentId"":""28ee0082-f71c-40b9-9bab-093b9f2f2d24"",""projectId"":""8dfb86c6-d592-4b65-b168-1bfaa987a769""}","https://test12345.live/?part=2&participantId=923774E1DC524B0E9A666C35AB9E57E6&assignmentId=28ee0082-f71c-40b9-9bab-093b9f2f2d24&projectId=8dfb86c6-d592-4b65-b168-1bfaa987a769","923774E1DC524B0E9A666C35AB9E57E6-2025-05-24-13-25-50","","null","","images/semantic_sequence/maintaining_a_car_semantic/maintaining_a_car_semantic_0.png","null","",""
"","","","","","html-audio-response","22","304549","0.0-20.0","923774E1DC524B0E9A666C35AB9E57E6","923774E1DC524B0E9A666C35AB9E57E6","28ee0082-f71c-40b9-9bab-093b9f2f2d24","8dfb86c6-d592-4b65-b168-1bfaa987a769","{""part"":""2"",""participantId"":""923774E1DC524B0E9A666C35AB9E57E6"",""assignmentId"":""28ee0082-f71c-40b9-9bab-093b9f2f2d24"",""projectId"":""8dfb86c6-d592-4b65-b168-1bfaa987a769""}","https://test12345.live/?part=2&participantId=923774E1DC524B0E9A666C35AB9E57E6&assignmentId=28ee0082-f71c-40b9-9bab-093b9f2f2d24&projectId=8dfb86c6-d592-4b65-b168-1bfaa987a769","923774E1DC524B0E9A666C35AB9E57E6-2025-05-24-13-25-50","","11876","","[""<span style=\""color: red; font-size: 24px\""> NOW RECORDING</span><p>Please say out loud all the images you saw in part 1 of the experiment, in the exact order you saw them. Try to recall as many images as you can, but remember: getting the order right is more important than the number of images you recall. </p>""]","","2","maintaining_a_car_semantic"
"","","","","","image-button-response","23","310562","0.0-21.0-0.0","923774E1DC524B0E9A666C35AB9E57E6","923774E1DC524B0E9A666C35AB9E57E6","28ee0082-f71c-40b9-9bab-093b9f2f2d24","8dfb86c6-d592-4b65-b168-1bfaa987a769","{""part"":""2"",""participantId"":""923774E1DC524B0E9A666C35AB9E57E6"",""assignmentId"":""28ee0082-f71c-40b9-9bab-093b9f2f2d24"",""projectId"":""8dfb86c6-d592-4b65-b168-1bfaa987a769""}","https://test12345.live/?part=2&participantId=923774E1DC524B0E9A666C35AB9E57E6&assignmentId=28ee0082-f71c-40b9-9bab-093b9f2f2d24&projectId=8dfb86c6-d592-4b65-b168-1bfaa987a769","923774E1DC524B0E9A666C35AB9E57E6-2025-05-24-13-25-50","","null","","images/semantic_sequence/redecorating_semantic/redecorating_semantic_0.png","null","",""
"","","","","","html-audio-response","24","327991","0.0-22.0","923774E1DC524B0E9A666C35AB9E57E6","923774E1DC524B0E9A666C35AB9E57E6","28ee0082-f71c-40b9-9bab-093b9f2f2d24","8dfb86c6-d592-4b65-b168-1bfaa987a769","{""part"":""2"",""participantId"":""923774E1DC524B0E9A666C35AB9E57E6"",""assignmentId"":""28ee0082-f71c-40b9-9bab-093b9f2f2d24"",""projectId"":""8dfb86c6-d592-4b65-b168-1bfaa987a769""}","https://test12345.live/?part=2&participantId=923774E1DC524B0E9A666C35AB9E57E6&assignmentId=28ee0082-f71c-40b9-9bab-093b9f2f2d24&projectId=8dfb86c6-d592-4b65-b168-1bfaa987a769","923774E1DC524B0E9A666C35AB9E57E6-2025-05-24-13-25-50","","11966","","[""<span style=\""color: red; font-size: 24px\""> NOW RECORDING</span><p>Please say out loud all the images you saw in part 1 of the experiment, in the exact order you saw them. Try to recall as many images as you can, but remember: getting the order right is more important than the number of images you recall. </p>""]","","2","redecorating_semantic"
"","","","","","image-button-response","25","334002","0.0-23.0-0.0","923774E1DC524B0E9A666C35AB9E57E6","923774E1DC524B0E9A666C35AB9E57E6","28ee0082-f71c-40b9-9bab-093b9f2f2d24","8dfb86c6-d592-4b65-b168-1bfaa987a769","{""part"":""2"",""participantId"":""923774E1DC524B0E9A666C35AB9E57E6"",""assignmentId"":""28ee0082-f71c-40b9-9bab-093b9f2f2d24"",""projectId"":""8dfb86c6-d592-4b65-b168-1bfaa987a769""}","https://test12345.live/?part=2&participantId=923774E1DC524B0E9A666C35AB9E57E6&assignmentId=28ee0082-f71c-40b9-9bab-093b9f2f2d24&projectId=8dfb86c6-d592-4b65-b168-1bfaa987a769","923774E1DC524B0E9A666C35AB9E57E6-2025-05-24-13-25-50","","null","","images/schematic_sequence/interview_scheme/interview_scheme_0.png","null","",""
"","","","","","html-audio-response","26","365795","0.0-24.0","923774E1DC524B0E9A666C35AB9E57E6","923774E1DC524B0E9A666C35AB9E57E6","28ee0082-f71c-40b9-9bab-093b9f2f2d24","8dfb86c6-d592-4b65-b168-1bfaa987a769","{""part"":""2"",""participantId"":""923774E1DC524B0E9A666C35AB9E57E6"",""assignmentId"":""28ee0082-f71c-40b9-9bab-093b9f2f2d24"",""projectId"":""8dfb86c6-d592-4b65-b168-1bfaa987a769""}","https://test12345.live/?part=2&participantId=923774E1DC524B0E9A666C35AB9E57E6&assignmentId=28ee0082-f71c-40b9-9bab-093b9f2f2d24&projectId=8dfb86c6-d592-4b65-b168-1bfaa987a769","923774E1DC524B0E9A666C35AB9E57E6-2025-05-24-13-25-50","","18670","","[""<span style=\""color: red; font-size: 24px\""> NOW RECORDING</span><p>Please say out loud all the images you saw in part 1 of the experiment, in the exact order you saw them. Try to recall as many images as you can, but remember: getting the order right is more important than the number of images you recall. </p>""]","","2","interview_scheme"
"","","","","","image-button-response","27","371806","0.0-25.0-0.0","923774E1DC524B0E9A666C35AB9E57E6","923774E1DC524B0E9A666C35AB9E57E6","28ee0082-f71c-40b9-9bab-093b9f2f2d24","8dfb86c6-d592-4b65-b168-1bfaa987a769","{""part"":""2"",""participantId"":""923774E1DC524B0E9A666C35AB9E57E6"",""assignmentId"":""28ee0082-f71c-40b9-9bab-093b9f2f2d24"",""projectId"":""8dfb86c6-d592-4b65-b168-1bfaa987a769""}","https://test12345.live/?part=2&participantId=923774E1DC524B0E9A666C35AB9E57E6&assignmentId=28ee0082-f71c-40b9-9bab-093b9f2f2d24&projectId=8dfb86c6-d592-4b65-b168-1bfaa987a769","923774E1DC524B0E9A666C35AB9E57E6-2025-05-24-13-25-50","","null","","images/schematic_sequence/hotel_scheme/hotel_scheme_0.png","null","",""
"","","","","","html-audio-response","28","396453","0.0-26.0","923774E1DC524B0E9A666C35AB9E57E6","923774E1DC524B0E9A666C35AB9E57E6","28ee0082-f71c-40b9-9bab-093b9f2f2d24","8dfb86c6-d592-4b65-b168-1bfaa987a769","{""part"":""2"",""participantId"":""923774E1DC524B0E9A666C35AB9E57E6"",""assignmentId"":""28ee0082-f71c-40b9-9bab-093b9f2f2d24"",""projectId"":""8dfb86c6-d592-4b65-b168-1bfaa987a769""}","https://test12345.live/?part=2&participantId=923774E1DC524B0E9A666C35AB9E57E6&assignmentId=28ee0082-f71c-40b9-9bab-093b9f2f2d24&projectId=8dfb86c6-d592-4b65-b168-1bfaa987a769","923774E1DC524B0E9A666C35AB9E57E6-2025-05-24-13-25-50","","13374","","[""<span style=\""color: red; font-size: 24px\""> NOW RECORDING</span><p>Please say out loud all the images you saw in part 1 of the experiment, in the exact order you saw them. Try to recall as many images as you can, but remember: getting the order right is more important than the number of images you recall. </p>""]","","1","hotel_scheme"
"","","","","","image-button-response","29","402465","0.0-27.0-0.0","923774E1DC524B0E9A666C35AB9E57E6","923774E1DC524B0E9A666C35AB9E57E6","28ee0082-f71c-40b9-9bab-093b9f2f2d24","8dfb86c6-d592-4b65-b168-1bfaa987a769","{""part"":""2"",""participantId"":""923774E1DC524B0E9A666C35AB9E57E6"",""assignmentId"":""28ee0082-f71c-40b9-9bab-093b9f2f2d24"",""projectId"":""8dfb86c6-d592-4b65-b168-1bfaa987a769""}","https://test12345.live/?part=2&participantId=923774E1DC524B0E9A666C35AB9E57E6&assignmentId=28ee0082-f71c-40b9-9bab-093b9f2f2d24&projectId=8dfb86c6-d592-4b65-b168-1bfaa987a769","923774E1DC524B0E9A666C35AB9E57E6-2025-05-24-13-25-50","","null","","images/schematic_sequence/restaurant_scheme/restaurant_scheme_0.png","null","",""
"","","","","","html-audio-response","30","423449","0.0-28.0","923774E1DC524B0E9A666C35AB9E57E6","923774E1DC524B0E9A666C35AB9E57E6","28ee0082-f71c-40b9-9bab-093b9f2f2d24","8dfb86c6-d592-4b65-b168-1bfaa987a769","{""part"":""2"",""participantId"":""923774E1DC524B0E9A666C35AB9E57E6"",""assignmentId"":""28ee0082-f71c-40b9-9bab-093b9f2f2d24"",""projectId"":""8dfb86c6-d592-4b65-b168-1bfaa987a769""}","https://test12345.live/?part=2&participantId=923774E1DC524B0E9A666C35AB9E57E6&assignmentId=28ee0082-f71c-40b9-9bab-093b9f2f2d24&projectId=8dfb86c6-d592-4b65-b168-1bfaa987a769","923774E1DC524B0E9A666C35AB9E57E6-2025-05-24-13-25-50","","16102","","[""<span style=\""color: red; font-size: 24px\""> NOW RECORDING</span><p>Please say out loud all the images you saw in part 1 of the experiment, in the exact order you saw them. Try to recall as many images as you can, but remember: getting the order right is more important than the number of images you recall. </p>""]","","1","restaurant_scheme"
"","","","","","image-button-response","31","429465","0.0-29.0-0.0","923774E1DC524B0E9A666C35AB9E57E6","923774E1DC524B0E9A666C35AB9E57E6","28ee0082-f71c-40b9-9bab-093b9f2f2d24","8dfb86c6-d592-4b65-b168-1bfaa987a769","{""part"":""2"",""participantId"":""923774E1DC524B0E9A666C35AB9E57E6"",""assignmentId"":""28ee0082-f71c-40b9-9bab-093b9f2f2d24"",""projectId"":""8dfb86c6-d592-4b65-b168-1bfaa987a769""}","https://test12345.live/?part=2&participantId=923774E1DC524B0E9A666C35AB9E57E6&assignmentId=28ee0082-f71c-40b9-9bab-093b9f2f2d24&projectId=8dfb86c6-d592-4b65-b168-1bfaa987a769","923774E1DC524B0E9A666C35AB9E57E6-2025-05-24-13-25-50","","null","","images/causal_sequence/the_performance_causal/the_performance_causal_0.png","null","",""
"","","","","","html-audio-response","32","449488","0.0-30.0","923774E1DC524B0E9A666C35AB9E57E6","923774E1DC524B0E9A666C35AB9E57E6","28ee0082-f71c-40b9-9bab-093b9f2f2d24","8dfb86c6-d592-4b65-b168-1bfaa987a769","{""part"":""2"",""participantId"":""923774E1DC524B0E9A666C35AB9E57E6"",""assignmentId"":""28ee0082-f71c-40b9-9bab-093b9f2f2d24"",""projectId"":""8dfb86c6-d592-4b65-b168-1bfaa987a769""}","https://test12345.live/?part=2&participantId=923774E1DC524B0E9A666C35AB9E57E6&assignmentId=28ee0082-f71c-40b9-9bab-093b9f2f2d24&projectId=8dfb86c6-d592-4b65-b168-1bfaa987a769","923774E1DC524B0E9A666C35AB9E57E6-2025-05-24-13-25-50","","14604","","[""<span style=\""color: red; font-size: 24px\""> NOW RECORDING</span><p>Please say out loud all the images you saw in part 1 of the experiment, in the exact order you saw them. Try to recall as many images as you can, but remember: getting the order right is more important than the number of images you recall. </p>""]","","1","the_performance_causal"
"","","","","","image-button-response","33","455495","0.0-31.0-0.0","923774E1DC524B0E9A666C35AB9E57E6","923774E1DC524B0E9A666C35AB9E57E6","28ee0082-f71c-40b9-9bab-093b9f2f2d24","8dfb86c6-d592-4b65-b168-1bfaa987a769","{""part"":""2"",""participantId"":""923774E1DC524B0E9A666C35AB9E57E6"",""assignmentId"":""28ee0082-f71c-40b9-9bab-093b9f2f2d24"",""projectId"":""8dfb86c6-d592-4b65-b168-1bfaa987a769""}","https://test12345.live/?part=2&participantId=923774E1DC524B0E9A666C35AB9E57E6&assignmentId=28ee0082-f71c-40b9-9bab-093b9f2f2d24&projectId=8dfb86c6-d592-4b65-b168-1bfaa987a769","923774E1DC524B0E9A666C35AB9E57E6-2025-05-24-13-25-50","","null","","images/semantic_sequence/exploring_nature_semantic/exploring_nature_semantic_0.png","null","",""
"","","","","","html-audio-response","34","471336","0.0-32.0","923774E1DC524B0E9A666C35AB9E57E6","923774E1DC524B0E9A666C35AB9E57E6","28ee0082-f71c-40b9-9bab-093b9f2f2d24","8dfb86c6-d592-4b65-b168-1bfaa987a769","{""part"":""2"",""participantId"":""923774E1DC524B0E9A666C35AB9E57E6"",""assignmentId"":""28ee0082-f71c-40b9-9bab-093b9f2f2d24"",""projectId"":""8dfb86c6-d592-4b65-b168-1bfaa987a769""}","https://test12345.live/?part=2&participantId=923774E1DC524B0E9A666C35AB9E57E6&assignmentId=28ee0082-f71c-40b9-9bab-093b9f2f2d24&projectId=8dfb86c6-d592-4b65-b168-1bfaa987a769","923774E1DC524B0E9A666C35AB9E57E6-2025-05-24-13-25-50","","11346","","[""<span style=\""color: red; font-size: 24px\""> NOW RECORDING</span><p>Please say out loud all the images you saw in part 1 of the experiment, in the exact order you saw them. Try to recall as many images as you can, but remember: getting the order right is more important than the number of images you recall. </p>""]","","1","exploring_nature_semantic"
"","","","","","image-button-response","35","477345","0.0-33.0-0.0","923774E1DC524B0E9A666C35AB9E57E6","923774E1DC524B0E9A666C35AB9E57E6","28ee0082-f71c-40b9-9bab-093b9f2f2d24","8dfb86c6-d592-4b65-b168-1bfaa987a769","{""part"":""2"",""participantId"":""923774E1DC524B0E9A666C35AB9E57E6"",""assignmentId"":""28ee0082-f71c-40b9-9bab-093b9f2f2d24"",""projectId"":""8dfb86c6-d592-4b65-b168-1bfaa987a769""}","https://test12345.live/?part=2&participantId=923774E1DC524B0E9A666C35AB9E57E6&assignmentId=28ee0082-f71c-40b9-9bab-093b9f2f2d24&projectId=8dfb86c6-d592-4b65-b168-1bfaa987a769","923774E1DC524B0E9A666C35AB9E57E6-2025-05-24-13-25-50","","null","","images/causal_sequence/coin_causal/coin_causal_0.png","null","",""
"","","","","","html-audio-response","36","510306","0.0-34.0","923774E1DC524B0E9A666C35AB9E57E6","923774E1DC524B0E9A666C35AB9E57E6","28ee0082-f71c-40b9-9bab-093b9f2f2d24","8dfb86c6-d592-4b65-b168-1bfaa987a769","{""part"":""2"",""participantId"":""923774E1DC524B0E9A666C35AB9E57E6"",""assignmentId"":""28ee0082-f71c-40b9-9bab-093b9f2f2d24"",""projectId"":""8dfb86c6-d592-4b65-b168-1bfaa987a769""}","https://test12345.live/?part=2&participantId=923774E1DC524B0E9A666C35AB9E57E6&assignmentId=28ee0082-f71c-40b9-9bab-093b9f2f2d24&projectId=8dfb86c6-d592-4b65-b168-1bfaa987a769","923774E1DC524B0E9A666C35AB9E57E6-2025-05-24-13-25-50","","25630","","[""<span style=\""color: red; font-size: 24px\""> NOW RECORDING</span><p>Please say out loud all the images you saw in part 1 of the experiment, in the exact order you saw them. Try to recall as many images as you can, but remember: getting the order right is more important than the number of images you recall. </p>""]","","1","coin_causal"
"","","","","","image-button-response","37","516323","0.0-35.0-0.0","923774E1DC524B0E9A666C35AB9E57E6","923774E1DC524B0E9A666C35AB9E57E6","28ee0082-f71c-40b9-9bab-093b9f2f2d24","8dfb86c6-d592-4b65-b168-1bfaa987a769","{""part"":""2"",""participantId"":""923774E1DC524B0E9A666C35AB9E57E6"",""assignmentId"":""28ee0082-f71c-40b9-9bab-093b9f2f2d24"",""projectId"":""8dfb86c6-d592-4b65-b168-1bfaa987a769""}","https://test12345.live/?part=2&participantId=923774E1DC524B0E9A666C35AB9E57E6&assignmentId=28ee0082-f71c-40b9-9bab-093b9f2f2d24&projectId=8dfb86c6-d592-4b65-b168-1bfaa987a769","923774E1DC524B0E9A666C35AB9E57E6-2025-05-24-13-25-50","","null","","images/semantic_sequence/using_technology_semantic/using_technology_semantic_0.png","null","",""
"","","","","","html-audio-response","38","545334","0.0-36.0","923774E1DC524B0E9A666C35AB9E57E6","923774E1DC524B0E9A666C35AB9E57E6","28ee0082-f71c-40b9-9bab-093b9f2f2d24","8dfb86c6-d592-4b65-b168-1bfaa987a769","{""part"":""2"",""participantId"":""923774E1DC524B0E9A666C35AB9E57E6"",""assignmentId"":""28ee0082-f71c-40b9-9bab-093b9f2f2d24"",""projectId"":""8dfb86c6-d592-4b65-b168-1bfaa987a769""}","https://test12345.live/?part=2&participantId=923774E1DC524B0E9A666C35AB9E57E6&assignmentId=28ee0082-f71c-40b9-9bab-093b9f2f2d24&projectId=8dfb86c6-d592-4b65-b168-1bfaa987a769","923774E1DC524B0E9A666C35AB9E57E6-2025-05-24-13-25-50","","14178","","[""<span style=\""color: red; font-size: 24px\""> NOW RECORDING</span><p>Please say out loud all the images you saw in part 1 of the experiment, in the exact order you saw them. Try to recall as many images as you can, but remember: getting the order right is more important than the number of images you recall. </p>""]","","1","using_technology_semantic"
"","","","","","image-button-response","39","551346","0.0-37.0-0.0","923774E1DC524B0E9A666C35AB9E57E6","923774E1DC524B0E9A666C35AB9E57E6","28ee0082-f71c-40b9-9bab-093b9f2f2d24","8dfb86c6-d592-4b65-b168-1bfaa987a769","{""part"":""2"",""participantId"":""923774E1DC524B0E9A666C35AB9E57E6"",""assignmentId"":""28ee0082-f71c-40b9-9bab-093b9f2f2d24"",""projectId"":""8dfb86c6-d592-4b65-b168-1bfaa987a769""}","https://test12345.live/?part=2&participantId=923774E1DC524B0E9A666C35AB9E57E6&assignmentId=28ee0082-f71c-40b9-9bab-093b9f2f2d24&projectId=8dfb86c6-d592-4b65-b168-1bfaa987a769","923774E1DC524B0E9A666C35AB9E57E6-2025-05-24-13-25-50","","null","","images/semantic_sequence/cat_care_semantic/cat_care_semantic_0.png","null","",""
"","","","","","html-audio-response","40","570775","0.0-38.0","923774E1DC524B0E9A666C35AB9E57E6","923774E1DC524B0E9A666C35AB9E57E6","28ee0082-f71c-40b9-9bab-093b9f2f2d24","8dfb86c6-d592-4b65-b168-1bfaa987a769","{""part"":""2"",""participantId"":""923774E1DC524B0E9A666C35AB9E57E6"",""assignmentId"":""28ee0082-f71c-40b9-9bab-093b9f2f2d24"",""projectId"":""8dfb86c6-d592-4b65-b168-1bfaa987a769""}","https://test12345.live/?part=2&participantId=923774E1DC524B0E9A666C35AB9E57E6&assignmentId=28ee0082-f71c-40b9-9bab-093b9f2f2d24&projectId=8dfb86c6-d592-4b65-b168-1bfaa987a769","923774E1DC524B0E9A666C35AB9E57E6-2025-05-24-13-25-50","","12716","","[""<span style=\""color: red; font-size: 24px\""> NOW RECORDING</span><p>Please say out loud all the images you saw in part 1 of the experiment, in the exact order you saw them. Try to recall as many images as you can, but remember: getting the order right is more important than the number of images you recall. </p>""]","","1","cat_care_semantic"
"","","","","","image-button-response","41","576786","0.0-39.0-0.0","923774E1DC524B0E9A666C35AB9E57E6","923774E1DC524B0E9A666C35AB9E57E6","28ee0082-f71c-40b9-9bab-093b9f2f2d24","8dfb86c6-d592-4b65-b168-1bfaa987a769","{""part"":""2"",""participantId"":""923774E1DC524B0E9A666C35AB9E57E6"",""assignmentId"":""28ee0082-f71c-40b9-9bab-093b9f2f2d24"",""projectId"":""8dfb86c6-d592-4b65-b168-1bfaa987a769""}","https://test12345.live/?part=2&participantId=923774E1DC524B0E9A666C35AB9E57E6&assignmentId=28ee0082-f71c-40b9-9bab-093b9f2f2d24&projectId=8dfb86c6-d592-4b65-b168-1bfaa987a769","923774E1DC524B0E9A666C35AB9E57E6-2025-05-24-13-25-50","","null","","images/schematic_sequence/flight_scheme/flight_scheme_0.png","null","",""
"","","","","","html-audio-response","42","608939","0.0-40.0","923774E1DC524B0E9A666C35AB9E57E6","923774E1DC524B0E9A666C35AB9E57E6","28ee0082-f71c-40b9-9bab-093b9f2f2d24","8dfb86c6-d592-4b65-b168-1bfaa987a769","{""part"":""2"",""participantId"":""923774E1DC524B0E9A666C35AB9E57E6"",""assignmentId"":""28ee0082-f71c-40b9-9bab-093b9f2f2d24"",""projectId"":""8dfb86c6-d592-4b65-b168-1bfaa987a769""}","https://test12345.live/?part=2&participantId=923774E1DC524B0E9A666C35AB9E57E6&assignmentId=28ee0082-f71c-40b9-9bab-093b9f2f2d24&projectId=8dfb86c6-d592-4b65-b168-1bfaa987a769","923774E1DC524B0E9A666C35AB9E57E6-2025-05-24-13-25-50","","23866","","[""<span style=\""color: red; font-size: 24px\""> NOW RECORDING</span><p>Please say out loud all the images you saw in part 1 of the experiment, in the exact order you saw them. Try to recall as many images as you can, but remember: getting the order right is more important than the number of images you recall. </p>""]","","1","flight_scheme"
"","","","","","image-button-response","43","614956","0.0-41.0-0.0","923774E1DC524B0E9A666C35AB9E57E6","923774E1DC524B0E9A666C35AB9E57E6","28ee0082-f71c-40b9-9bab-093b9f2f2d24","8dfb86c6-d592-4b65-b168-1bfaa987a769","{""part"":""2"",""participantId"":""923774E1DC524B0E9A666C35AB9E57E6"",""assignmentId"":""28ee0082-f71c-40b9-9bab-093b9f2f2d24"",""projectId"":""8dfb86c6-d592-4b65-b168-1bfaa987a769""}","https://test12345.live/?part=2&participantId=923774E1DC524B0E9A666C35AB9E57E6&assignmentId=28ee0082-f71c-40b9-9bab-093b9f2f2d24&projectId=8dfb86c6-d592-4b65-b168-1bfaa987a769","923774E1DC524B0E9A666C35AB9E57E6-2025-05-24-13-25-50","","null","","images/semantic_sequence/self_care_activities_semantic/self_care_activities_semantic_0.png","null","",""
"","","","","","html-audio-response","44","663370","0.0-42.0","923774E1DC524B0E9A666C35AB9E57E6","923774E1DC524B0E9A666C35AB9E57E6","28ee0082-f71c-40b9-9bab-093b9f2f2d24","8dfb86c6-d592-4b65-b168-1bfaa987a769","{""part"":""2"",""participantId"":""923774E1DC524B0E9A666C35AB9E57E6"",""assignmentId"":""28ee0082-f71c-40b9-9bab-093b9f2f2d24"",""projectId"":""8dfb86c6-d592-4b65-b168-1bfaa987a769""}","https://test12345.live/?part=2&participantId=923774E1DC524B0E9A666C35AB9E57E6&assignmentId=28ee0082-f71c-40b9-9bab-093b9f2f2d24&projectId=8dfb86c6-d592-4b65-b168-1bfaa987a769","923774E1DC524B0E9A666C35AB9E57E6-2025-05-24-13-25-50","","11664","","[""<span style=\""color: red; font-size: 24px\""> NOW RECORDING</span><p>Please say out loud all the images you saw in part 1 of the experiment, in the exact order you saw them. Try to recall as many images as you can, but remember: getting the order right is more important than the number of images you recall. </p>""]","","2","self_care_activities_semantic"
"","","","","","image-button-response","45","669379","0.0-43.0-0.0","923774E1DC524B0E9A666C35AB9E57E6","923774E1DC524B0E9A666C35AB9E57E6","28ee0082-f71c-40b9-9bab-093b9f2f2d24","8dfb86c6-d592-4b65-b168-1bfaa987a769","{""part"":""2"",""participantId"":""923774E1DC524B0E9A666C35AB9E57E6"",""assignmentId"":""28ee0082-f71c-40b9-9bab-093b9f2f2d24"",""projectId"":""8dfb86c6-d592-4b65-b168-1bfaa987a769""}","https://test12345.live/?part=2&participantId=923774E1DC524B0E9A666C35AB9E57E6&assignmentId=28ee0082-f71c-40b9-9bab-093b9f2f2d24&projectId=8dfb86c6-d592-4b65-b168-1bfaa987a769","923774E1DC524B0E9A666C35AB9E57E6-2025-05-24-13-25-50","","null","","images/semantic_sequence/kitchen_operations_semantic/kitchen_operations_semantic_0.png","null","",""
"","","","","","html-audio-response","46","681992","0.0-44.0","923774E1DC524B0E9A666C35AB9E57E6","923774E1DC524B0E9A666C35AB9E57E6","28ee0082-f71c-40b9-9bab-093b9f2f2d24","8dfb86c6-d592-4b65-b168-1bfaa987a769","{""part"":""2"",""participantId"":""923774E1DC524B0E9A666C35AB9E57E6"",""assignmentId"":""28ee0082-f71c-40b9-9bab-093b9f2f2d24"",""projectId"":""8dfb86c6-d592-4b65-b168-1bfaa987a769""}","https://test12345.live/?part=2&participantId=923774E1DC524B0E9A666C35AB9E57E6&assignmentId=28ee0082-f71c-40b9-9bab-093b9f2f2d24&projectId=8dfb86c6-d592-4b65-b168-1bfaa987a769","923774E1DC524B0E9A666C35AB9E57E6-2025-05-24-13-25-50","","8674","","[""<span style=\""color: red; font-size: 24px\""> NOW RECORDING</span><p>Please say out loud all the images you saw in part 1 of the experiment, in the exact order you saw them. Try to recall as many images as you can, but remember: getting the order right is more important than the number of images you recall. </p>""]","","1","kitchen_operations_semantic"
"","","","","","image-button-response","47","688008","0.0-45.0-0.0","923774E1DC524B0E9A666C35AB9E57E6","923774E1DC524B0E9A666C35AB9E57E6","28ee0082-f71c-40b9-9bab-093b9f2f2d24","8dfb86c6-d592-4b65-b168-1bfaa987a769","{""part"":""2"",""participantId"":""923774E1DC524B0E9A666C35AB9E57E6"",""assignmentId"":""28ee0082-f71c-40b9-9bab-093b9f2f2d24"",""projectId"":""8dfb86c6-d592-4b65-b168-1bfaa987a769""}","https://test12345.live/?part=2&participantId=923774E1DC524B0E9A666C35AB9E57E6&assignmentId=28ee0082-f71c-40b9-9bab-093b9f2f2d24&projectId=8dfb86c6-d592-4b65-b168-1bfaa987a769","923774E1DC524B0E9A666C35AB9E57E6-2025-05-24-13-25-50","","null","","images/semantic_sequence/market_semantic/market_semantic_0.png","null","",""
"","","","","","html-audio-response","48","706215","0.0-46.0","923774E1DC524B0E9A666C35AB9E57E6","923774E1DC524B0E9A666C35AB9E57E6","28ee0082-f71c-40b9-9bab-093b9f2f2d24","8dfb86c6-d592-4b65-b168-1bfaa987a769","{""part"":""2"",""participantId"":""923774E1DC524B0E9A666C35AB9E57E6"",""assignmentId"":""28ee0082-f71c-40b9-9bab-093b9f2f2d24"",""projectId"":""8dfb86c6-d592-4b65-b168-1bfaa987a769""}","https://test12345.live/?part=2&participantId=923774E1DC524B0E9A666C35AB9E57E6&assignmentId=28ee0082-f71c-40b9-9bab-093b9f2f2d24&projectId=8dfb86c6-d592-4b65-b168-1bfaa987a769","923774E1DC524B0E9A666C35AB9E57E6-2025-05-24-13-25-50","","13964","","[""<span style=\""color: red; font-size: 24px\""> NOW RECORDING</span><p>Please say out loud all the images you saw in part 1 of the experiment, in the exact order you saw them. Try to recall as many images as you can, but remember: getting the order right is more important than the number of images you recall. </p>""]","","1","market_semantic"
"","","","","","image-button-response","49","712230","0.0-47.0-0.0","923774E1DC524B0E9A666C35AB9E57E6","923774E1DC524B0E9A666C35AB9E57E6","28ee0082-f71c-40b9-9bab-093b9f2f2d24","8dfb86c6-d592-4b65-b168-1bfaa987a769","{""part"":""2"",""participantId"":""923774E1DC524B0E9A666C35AB9E57E6"",""assignmentId"":""28ee0082-f71c-40b9-9bab-093b9f2f2d24"",""projectId"":""8dfb86c6-d592-4b65-b168-1bfaa987a769""}","https://test12345.live/?part=2&participantId=923774E1DC524B0E9A666C35AB9E57E6&assignmentId=28ee0082-f71c-40b9-9bab-093b9f2f2d24&projectId=8dfb86c6-d592-4b65-b168-1bfaa987a769","923774E1DC524B0E9A666C35AB9E57E6-2025-05-24-13-25-50","","null","","images/semantic_sequence/physical_activity_semantic/physical_activity_semantic_0.png","null","",""
"","","","","","html-audio-response","50","732483","0.0-48.0","923774E1DC524B0E9A666C35AB9E57E6","923774E1DC524B0E9A666C35AB9E57E6","28ee0082-f71c-40b9-9bab-093b9f2f2d24","8dfb86c6-d592-4b65-b168-1bfaa987a769","{""part"":""2"",""participantId"":""923774E1DC524B0E9A666C35AB9E57E6"",""assignmentId"":""28ee0082-f71c-40b9-9bab-093b9f2f2d24"",""projectId"":""8dfb86c6-d592-4b65-b168-1bfaa987a769""}","https://test12345.live/?part=2&participantId=923774E1DC524B0E9A666C35AB9E57E6&assignmentId=28ee0082-f71c-40b9-9bab-093b9f2f2d24&projectId=8dfb86c6-d592-4b65-b168-1bfaa987a769","923774E1DC524B0E9A666C35AB9E57E6-2025-05-24-13-25-50","","7774","","[""<span style=\""color: red; font-size: 24px\""> NOW RECORDING</span><p>Please say out loud all the images you saw in part 1 of the experiment, in the exact order you saw them. Try to recall as many images as you can, but remember: getting the order right is more important than the number of images you recall. </p>""]","","1","physical_activity_semantic"
"","","","","","image-button-response","51","738493","0.0-49.0-0.0","923774E1DC524B0E9A666C35AB9E57E6","923774E1DC524B0E9A666C35AB9E57E6","28ee0082-f71c-40b9-9bab-093b9f2f2d24","8dfb86c6-d592-4b65-b168-1bfaa987a769","{""part"":""2"",""participantId"":""923774E1DC524B0E9A666C35AB9E57E6"",""assignmentId"":""28ee0082-f71c-40b9-9bab-093b9f2f2d24"",""projectId"":""8dfb86c6-d592-4b65-b168-1bfaa987a769""}","https://test12345.live/?part=2&participantId=923774E1DC524B0E9A666C35AB9E57E6&assignmentId=28ee0082-f71c-40b9-9bab-093b9f2f2d24&projectId=8dfb86c6-d592-4b65-b168-1bfaa987a769","923774E1DC524B0E9A666C35AB9E57E6-2025-05-24-13-25-50","","null","","images/causal_sequence/saving_a_cat_causal/saving_a_cat_causal_0.png","null","",""
"","","","","","html-audio-response","52","751841","0.0-50.0","923774E1DC524B0E9A666C35AB9E57E6","923774E1DC524B0E9A666C35AB9E57E6","28ee0082-f71c-40b9-9bab-093b9f2f2d24","8dfb86c6-d592-4b65-b168-1bfaa987a769","{""part"":""2"",""participantId"":""923774E1DC524B0E9A666C35AB9E57E6"",""assignmentId"":""28ee0082-f71c-40b9-9bab-093b9f2f2d24"",""projectId"":""8dfb86c6-d592-4b65-b168-1bfaa987a769""}","https://test12345.live/?part=2&participantId=923774E1DC524B0E9A666C35AB9E57E6&assignmentId=28ee0082-f71c-40b9-9bab-093b9f2f2d24&projectId=8dfb86c6-d592-4b65-b168-1bfaa987a769","923774E1DC524B0E9A666C35AB9E57E6-2025-05-24-13-25-50","","6090","","[""<span style=\""color: red; font-size: 24px\""> NOW RECORDING</span><p>Please say out loud all the images you saw in part 1 of the experiment, in the exact order you saw them. Try to recall as many images as you can, but remember: getting the order right is more important than the number of images you recall. </p>""]","","1","saving_a_cat_causal"
"","","","","","image-button-response","53","757853","0.0-51.0-0.0","923774E1DC524B0E9A666C35AB9E57E6","923774E1DC524B0E9A666C35AB9E57E6","28ee0082-f71c-40b9-9bab-093b9f2f2d24","8dfb86c6-d592-4b65-b168-1bfaa987a769","{""part"":""2"",""participantId"":""923774E1DC524B0E9A666C35AB9E57E6"",""assignmentId"":""28ee0082-f71c-40b9-9bab-093b9f2f2d24"",""projectId"":""8dfb86c6-d592-4b65-b168-1bfaa987a769""}","https://test12345.live/?part=2&participantId=923774E1DC524B0E9A666C35AB9E57E6&assignmentId=28ee0082-f71c-40b9-9bab-093b9f2f2d24&projectId=8dfb86c6-d592-4b65-b168-1bfaa987a769","923774E1DC524B0E9A666C35AB9E57E6-2025-05-24-13-25-50","","null","","images/causal_sequence/dog_causal/dog_causal_0.png","null","",""
"","","","","","html-audio-response","54","779232","0.0-52.0","923774E1DC524B0E9A666C35AB9E57E6","923774E1DC524B0E9A666C35AB9E57E6","28ee0082-f71c-40b9-9bab-093b9f2f2d24","8dfb86c6-d592-4b65-b168-1bfaa987a769","{""part"":""2"",""participantId"":""923774E1DC524B0E9A666C35AB9E57E6"",""assignmentId"":""28ee0082-f71c-40b9-9bab-093b9f2f2d24"",""projectId"":""8dfb86c6-d592-4b65-b168-1bfaa987a769""}","https://test12345.live/?part=2&participantId=923774E1DC524B0E9A666C35AB9E57E6&assignmentId=28ee0082-f71c-40b9-9bab-093b9f2f2d24&projectId=8dfb86c6-d592-4b65-b168-1bfaa987a769","923774E1DC524B0E9A666C35AB9E57E6-2025-05-24-13-25-50","","12574","","[""<span style=\""color: red; font-size: 24px\""> NOW RECORDING</span><p>Please say out loud all the images you saw in part 1 of the experiment, in the exact order you saw them. Try to recall as many images as you can, but remember: getting the order right is more important than the number of images you recall. </p>""]","","1","dog_causal"
"","","","","","image-button-response","55","785246","0.0-53.0-0.0","923774E1DC524B0E9A666C35AB9E57E6","923774E1DC524B0E9A666C35AB9E57E6","28ee0082-f71c-40b9-9bab-093b9f2f2d24","8dfb86c6-d592-4b65-b168-1bfaa987a769","{""part"":""2"",""participantId"":""923774E1DC524B0E9A666C35AB9E57E6"",""assignmentId"":""28ee0082-f71c-40b9-9bab-093b9f2f2d24"",""projectId"":""8dfb86c6-d592-4b65-b168-1bfaa987a769""}","https://test12345.live/?part=2&participantId=923774E1DC524B0E9A666C35AB9E57E6&assignmentId=28ee0082-f71c-40b9-9bab-093b9f2f2d24&projectId=8dfb86c6-d592-4b65-b168-1bfaa987a769","923774E1DC524B0E9A666C35AB9E57E6-2025-05-24-13-25-50","","null","","images/causal_sequence/museum_causal/museum_causal_0.png","null","",""
"","","","","","html-audio-response","56","800624","0.0-54.0","923774E1DC524B0E9A666C35AB9E57E6","923774E1DC524B0E9A666C35AB9E57E6","28ee0082-f71c-40b9-9bab-093b9f2f2d24","8dfb86c6-d592-4b65-b168-1bfaa987a769","{""part"":""2"",""participantId"":""923774E1DC524B0E9A666C35AB9E57E6"",""assignmentId"":""28ee0082-f71c-40b9-9bab-093b9f2f2d24"",""projectId"":""8dfb86c6-d592-4b65-b168-1bfaa987a769""}","https://test12345.live/?part=2&participantId=923774E1DC524B0E9A666C35AB9E57E6&assignmentId=28ee0082-f71c-40b9-9bab-093b9f2f2d24&projectId=8dfb86c6-d592-4b65-b168-1bfaa987a769","923774E1DC524B0E9A666C35AB9E57E6-2025-05-24-13-25-50","","10565","","[""<span style=\""color: red; font-size: 24px\""> NOW RECORDING</span><p>Please say out loud all the images you saw in part 1 of the experiment, in the exact order you saw them. Try to recall as many images as you can, but remember: getting the order right is more important than the number of images you recall. </p>""]","","2","museum_causal"
"","","","","","image-button-response","57","806641","0.0-55.0-0.0","923774E1DC524B0E9A666C35AB9E57E6","923774E1DC524B0E9A666C35AB9E57E6","28ee0082-f71c-40b9-9bab-093b9f2f2d24","8dfb86c6-d592-4b65-b168-1bfaa987a769","{""part"":""2"",""participantId"":""923774E1DC524B0E9A666C35AB9E57E6"",""assignmentId"":""28ee0082-f71c-40b9-9bab-093b9f2f2d24"",""projectId"":""8dfb86c6-d592-4b65-b168-1bfaa987a769""}","https://test12345.live/?part=2&participantId=923774E1DC524B0E9A666C35AB9E57E6&assignmentId=28ee0082-f71c-40b9-9bab-093b9f2f2d24&projectId=8dfb86c6-d592-4b65-b168-1bfaa987a769","923774E1DC524B0E9A666C35AB9E57E6-2025-05-24-13-25-50","","null","","images/schematic_sequence/dinner_party_scheme/dinner_party_scheme_0.png","null","",""
"","","","","","html-audio-response","58","853820","0.0-56.0","923774E1DC524B0E9A666C35AB9E57E6","923774E1DC524B0E9A666C35AB9E57E6","28ee0082-f71c-40b9-9bab-093b9f2f2d24","8dfb86c6-d592-4b65-b168-1bfaa987a769","{""part"":""2"",""participantId"":""923774E1DC524B0E9A666C35AB9E57E6"",""assignmentId"":""28ee0082-f71c-40b9-9bab-093b9f2f2d24"",""projectId"":""8dfb86c6-d592-4b65-b168-1bfaa987a769""}","https://test12345.live/?part=2&participantId=923774E1DC524B0E9A666C35AB9E57E6&assignmentId=28ee0082-f71c-40b9-9bab-093b9f2f2d24&projectId=8dfb86c6-d592-4b65-b168-1bfaa987a769","923774E1DC524B0E9A666C35AB9E57E6-2025-05-24-13-25-50","","19562","","[""<span style=\""color: red; font-size: 24px\""> NOW RECORDING</span><p>Please say out loud all the images you saw in part 1 of the experiment, in the exact order you saw them. Try to recall as many images as you can, but remember: getting the order right is more important than the number of images you recall. </p>""]","","1","dinner_party_scheme"
"","","","","","survey-text","59","865411","0.0-57.0","923774E1DC524B0E9A666C35AB9E57E6","923774E1DC524B0E9A666C35AB9E57E6","28ee0082-f71c-40b9-9bab-093b9f2f2d24","8dfb86c6-d592-4b65-b168-1bfaa987a769","{""part"":""2"",""participantId"":""923774E1DC524B0E9A666C35AB9E57E6"",""assignmentId"":""28ee0082-f71c-40b9-9bab-093b9f2f2d24"",""projectId"":""8dfb86c6-d592-4b65-b168-1bfaa987a769""}","https://test12345.live/?part=2&participantId=923774E1DC524B0E9A666C35AB9E57E6&assignmentId=28ee0082-f71c-40b9-9bab-093b9f2f2d24&projectId=8dfb86c6-d592-4b65-b168-1bfaa987a769","923774E1DC524B0E9A666C35AB9E57E6-2025-05-24-13-25-50","","11581","","","{""Q0"":""MALE"",""Q1"":""32""}","",""
"","","","","","instructions","60","871459","0.0-58.0","923774E1DC524B0E9A666C35AB9E57E6","923774E1DC524B0E9A666C35AB9E57E6","28ee0082-f71c-40b9-9bab-093b9f2f2d24","8dfb86c6-d592-4b65-b168-1bfaa987a769","{""part"":""2"",""participantId"":""923774E1DC524B0E9A666C35AB9E57E6"",""assignmentId"":""28ee0082-f71c-40b9-9bab-093b9f2f2d24"",""projectId"":""8dfb86c6-d592-4b65-b168-1bfaa987a769""}","https://test12345.live/?part=2&participantId=923774E1DC524B0E9A666C35AB9E57E6&assignmentId=28ee0082-f71c-40b9-9bab-093b9f2f2d24&projectId=8dfb86c6-d592-4b65-b168-1bfaa987a769","923774E1DC524B0E9A666C35AB9E57E6-2025-05-24-13-25-50","[{""page_index"":0,""viewing_time"":6046}]","6047","","","","",""
"","","","","","survey-text","61","874846","0.0-59.0","923774E1DC524B0E9A666C35AB9E57E6","923774E1DC524B0E9A666C35AB9E57E6","28ee0082-f71c-40b9-9bab-093b9f2f2d24","8dfb86c6-d592-4b65-b168-1bfaa987a769","{""part"":""2"",""participantId"":""923774E1DC524B0E9A666C35AB9E57E6"",""assignmentId"":""28ee0082-f71c-40b9-9bab-093b9f2f2d24"",""projectId"":""8dfb86c6-d592-4b65-b168-1bfaa987a769""}","https://test12345.live/?part=2&participantId=923774E1DC524B0E9A666C35AB9E57E6&assignmentId=28ee0082-f71c-40b9-9bab-093b9f2f2d24&projectId=8dfb86c6-d592-4b65-b168-1bfaa987a769","923774E1DC524B0E9A666C35AB9E57E6-2025-05-24-13-25-50","","3385","","","{""Q0"":""AJFHBG896""}","",""
