"success","timeout","failed_images","failed_audio","failed_video","trial_type","trial_index","time_elapsed","internal_node_id","subject","subject_id","study_id","session_id","urlvar","current_url","audio_id","view_history","rt","device_id","stimulus","response","estimated_stimulus_onset","seq_name"
"true","false","[]","[]","[]","preload","0","2421","0.0-0.0","945B815AA9D04EDBA58B91E4C01FA46D","945B815AA9D04EDBA58B91E4C01FA46D","0198c322-ffcc-7132-b467-d8fdb14286c0","0198c320-653a-770c-93e4-41e10e7faa5f","{""num_scrambled_semantic"":""8"",""num_scrambled_causal"":""4"",""num_scrambled_schematic"":""4"",""participantId"":""945B815AA9D04EDBA58B91E4C01FA46D"",""assignmentId"":""0198c322-ffcc-7132-b467-d8fdb14286c0"",""projectId"":""0198c320-653a-770c-93e4-41e10e7faa5f""}","https://test12345.live/?num_scrambled_semantic=8&num_scrambled_causal=4&num_scrambled_schematic=4&participantId=945B815AA9D04EDBA58B91E4C01FA46D&assignmentId=0198c322-ffcc-7132-b467-d8fdb14286c0&projectId=0198c320-653a-770c-93e4-41e10e7faa5f","945B815AA9D04EDBA58B91E4C01FA46D-2025-08-19-16-39-02","","","","","","",""
"","","","","","instructions","1","89190","0.0-1.0","945B815AA9D04EDBA58B91E4C01FA46D","945B815AA9D04EDBA58B91E4C01FA46D","0198c322-ffcc-7132-b467-d8fdb14286c0","0198c320-653a-770c-93e4-41e10e7faa5f","{""num_scrambled_semantic"":""8"",""num_scrambled_causal"":""4"",""num_scrambled_schematic"":""4"",""participantId"":""945B815AA9D04EDBA58B91E4C01FA46D"",""assignmentId"":""0198c322-ffcc-7132-b467-d8fdb14286c0"",""projectId"":""0198c320-653a-770c-93e4-41e10e7faa5f""}","https://test12345.live/?num_scrambled_semantic=8&num_scrambled_causal=4&num_scrambled_schematic=4&participantId=945B815AA9D04EDBA58B91E4C01FA46D&assignmentId=0198c322-ffcc-7132-b467-d8fdb14286c0&projectId=0198c320-653a-770c-93e4-41e10e7faa5f","945B815AA9D04EDBA58B91E4C01FA46D-2025-08-19-16-39-02","[{""page_index"":0,""viewing_time"":86769}]","86769","","","","",""
"","","","","","instructions","2","90972","0.0-2.0","945B815AA9D04EDBA58B91E4C01FA46D","945B815AA9D04EDBA58B91E4C01FA46D","0198c322-ffcc-7132-b467-d8fdb14286c0","0198c320-653a-770c-93e4-41e10e7faa5f","{""num_scrambled_semantic"":""8"",""num_scrambled_causal"":""4"",""num_scrambled_schematic"":""4"",""participantId"":""945B815AA9D04EDBA58B91E4C01FA46D"",""assignmentId"":""0198c322-ffcc-7132-b467-d8fdb14286c0"",""projectId"":""0198c320-653a-770c-93e4-41e10e7faa5f""}","https://test12345.live/?num_scrambled_semantic=8&num_scrambled_causal=4&num_scrambled_schematic=4&participantId=945B815AA9D04EDBA58B91E4C01FA46D&assignmentId=0198c322-ffcc-7132-b467-d8fdb14286c0&projectId=0198c320-653a-770c-93e4-41e10e7faa5f","945B815AA9D04EDBA58B91E4C01FA46D-2025-08-19-16-39-02","[{""page_index"":0,""viewing_time"":1782}]","1782","","","","",""
"true","","","","","fullscreen","3","92691","0.0-3.0","945B815AA9D04EDBA58B91E4C01FA46D","945B815AA9D04EDBA58B91E4C01FA46D","0198c322-ffcc-7132-b467-d8fdb14286c0","0198c320-653a-770c-93e4-41e10e7faa5f","{""num_scrambled_semantic"":""8"",""num_scrambled_causal"":""4"",""num_scrambled_schematic"":""4"",""participantId"":""945B815AA9D04EDBA58B91E4C01FA46D"",""assignmentId"":""0198c322-ffcc-7132-b467-d8fdb14286c0"",""projectId"":""0198c320-653a-770c-93e4-41e10e7faa5f""}","https://test12345.live/?num_scrambled_semantic=8&num_scrambled_causal=4&num_scrambled_schematic=4&participantId=945B815AA9D04EDBA58B91E4C01FA46D&assignmentId=0198c322-ffcc-7132-b467-d8fdb14286c0&projectId=0198c320-653a-770c-93e4-41e10e7faa5f","945B815AA9D04EDBA58B91E4C01FA46D-2025-08-19-16-39-02","","716","","","","",""
"","","","","","initialize-microphone","4","94091","0.0-4.0-0.0","945B815AA9D04EDBA58B91E4C01FA46D","945B815AA9D04EDBA58B91E4C01FA46D","0198c322-ffcc-7132-b467-d8fdb14286c0","0198c320-653a-770c-93e4-41e10e7faa5f","{""num_scrambled_semantic"":""8"",""num_scrambled_causal"":""4"",""num_scrambled_schematic"":""4"",""participantId"":""945B815AA9D04EDBA58B91E4C01FA46D"",""assignmentId"":""0198c322-ffcc-7132-b467-d8fdb14286c0"",""projectId"":""0198c320-653a-770c-93e4-41e10e7faa5f""}","https://test12345.live/?num_scrambled_semantic=8&num_scrambled_causal=4&num_scrambled_schematic=4&participantId=945B815AA9D04EDBA58B91E4C01FA46D&assignmentId=0198c322-ffcc-7132-b467-d8fdb14286c0&projectId=0198c320-653a-770c-93e4-41e10e7faa5f","945B815AA9D04EDBA58B91E4C01FA46D-2025-08-19-16-39-02","","","df2c82e7f20c4942cedbaeb2867f26d8547fd371170e979927641692eba1ad9c","","","",""
"","","","","","html-audio-response","5","103973","0.0-4.0-1.0","945B815AA9D04EDBA58B91E4C01FA46D","945B815AA9D04EDBA58B91E4C01FA46D","0198c322-ffcc-7132-b467-d8fdb14286c0","0198c320-653a-770c-93e4-41e10e7faa5f","{""num_scrambled_semantic"":""8"",""num_scrambled_causal"":""4"",""num_scrambled_schematic"":""4"",""participantId"":""945B815AA9D04EDBA58B91E4C01FA46D"",""assignmentId"":""0198c322-ffcc-7132-b467-d8fdb14286c0"",""projectId"":""0198c320-653a-770c-93e4-41e10e7faa5f""}","https://test12345.live/?num_scrambled_semantic=8&num_scrambled_causal=4&num_scrambled_schematic=4&participantId=945B815AA9D04EDBA58B91E4C01FA46D&assignmentId=0198c322-ffcc-7132-b467-d8fdb14286c0&projectId=0198c320-653a-770c-93e4-41e10e7faa5f","945B815AA9D04EDBA58B91E4C01FA46D-2025-08-19-16-39-02","","3296","","<span style=""color: red; font-size: 24px""> NOW RECORDING</span>
        <p>Please test Microphone</p>","","10",""
"","","","","","html-button-response","6","105872","0.0-4.0-2.0","945B815AA9D04EDBA58B91E4C01FA46D","945B815AA9D04EDBA58B91E4C01FA46D","0198c322-ffcc-7132-b467-d8fdb14286c0","0198c320-653a-770c-93e4-41e10e7faa5f","{""num_scrambled_semantic"":""8"",""num_scrambled_causal"":""4"",""num_scrambled_schematic"":""4"",""participantId"":""945B815AA9D04EDBA58B91E4C01FA46D"",""assignmentId"":""0198c322-ffcc-7132-b467-d8fdb14286c0"",""projectId"":""0198c320-653a-770c-93e4-41e10e7faa5f""}","https://test12345.live/?num_scrambled_semantic=8&num_scrambled_causal=4&num_scrambled_schematic=4&participantId=945B815AA9D04EDBA58B91E4C01FA46D&assignmentId=0198c322-ffcc-7132-b467-d8fdb14286c0&projectId=0198c320-653a-770c-93e4-41e10e7faa5f","945B815AA9D04EDBA58B91E4C01FA46D-2025-08-19-16-39-02","","1898","","<p style=""font-size:48px; color:red;"">Is Microphone OK?</p>","1","",""
"","","","","","instructions","7","161722","0.0-5.0","945B815AA9D04EDBA58B91E4C01FA46D","945B815AA9D04EDBA58B91E4C01FA46D","0198c322-ffcc-7132-b467-d8fdb14286c0","0198c320-653a-770c-93e4-41e10e7faa5f","{""num_scrambled_semantic"":""8"",""num_scrambled_causal"":""4"",""num_scrambled_schematic"":""4"",""participantId"":""945B815AA9D04EDBA58B91E4C01FA46D"",""assignmentId"":""0198c322-ffcc-7132-b467-d8fdb14286c0"",""projectId"":""0198c320-653a-770c-93e4-41e10e7faa5f""}","https://test12345.live/?num_scrambled_semantic=8&num_scrambled_causal=4&num_scrambled_schematic=4&participantId=945B815AA9D04EDBA58B91E4C01FA46D&assignmentId=0198c322-ffcc-7132-b467-d8fdb14286c0&projectId=0198c320-653a-770c-93e4-41e10e7faa5f","945B815AA9D04EDBA58B91E4C01FA46D-2025-08-19-16-39-02","[{""page_index"":0,""viewing_time"":6199},{""page_index"":1,""viewing_time"":4384},{""page_index"":2,""viewing_time"":45266}]","55849","","","","",""
"","","","","","image-button-response","8","167726","0.0-6.0-0.0","945B815AA9D04EDBA58B91E4C01FA46D","945B815AA9D04EDBA58B91E4C01FA46D","0198c322-ffcc-7132-b467-d8fdb14286c0","0198c320-653a-770c-93e4-41e10e7faa5f","{""num_scrambled_semantic"":""8"",""num_scrambled_causal"":""4"",""num_scrambled_schematic"":""4"",""participantId"":""945B815AA9D04EDBA58B91E4C01FA46D"",""assignmentId"":""0198c322-ffcc-7132-b467-d8fdb14286c0"",""projectId"":""0198c320-653a-770c-93e4-41e10e7faa5f""}","https://test12345.live/?num_scrambled_semantic=8&num_scrambled_causal=4&num_scrambled_schematic=4&participantId=945B815AA9D04EDBA58B91E4C01FA46D&assignmentId=0198c322-ffcc-7132-b467-d8fdb14286c0&projectId=0198c320-653a-770c-93e4-41e10e7faa5f","945B815AA9D04EDBA58B91E4C01FA46D-2025-08-19-16-39-02","","null","","images/instructions/movie_0.png","null","",""
"","","","","","html-audio-response","9","260873","0.0-7.0","945B815AA9D04EDBA58B91E4C01FA46D","945B815AA9D04EDBA58B91E4C01FA46D","0198c322-ffcc-7132-b467-d8fdb14286c0","0198c320-653a-770c-93e4-41e10e7faa5f","{""num_scrambled_semantic"":""8"",""num_scrambled_causal"":""4"",""num_scrambled_schematic"":""4"",""participantId"":""945B815AA9D04EDBA58B91E4C01FA46D"",""assignmentId"":""0198c322-ffcc-7132-b467-d8fdb14286c0"",""projectId"":""0198c320-653a-770c-93e4-41e10e7faa5f""}","https://test12345.live/?num_scrambled_semantic=8&num_scrambled_causal=4&num_scrambled_schematic=4&participantId=945B815AA9D04EDBA58B91E4C01FA46D&assignmentId=0198c322-ffcc-7132-b467-d8fdb14286c0&projectId=0198c320-653a-770c-93e4-41e10e7faa5f","945B815AA9D04EDBA58B91E4C01FA46D-2025-08-19-16-39-02","","28820","","[""<span style=\""color: red; font-size: 24px\""> NOW RECORDING</span><p>Please say out loud all the images you saw in part 1 of the experiment, as many as you can remember. The images can be said in any order.</p>""]","","2",""
"","","","","","instructions","10","261805","0.0-8.0","945B815AA9D04EDBA58B91E4C01FA46D","945B815AA9D04EDBA58B91E4C01FA46D","0198c322-ffcc-7132-b467-d8fdb14286c0","0198c320-653a-770c-93e4-41e10e7faa5f","{""num_scrambled_semantic"":""8"",""num_scrambled_causal"":""4"",""num_scrambled_schematic"":""4"",""participantId"":""945B815AA9D04EDBA58B91E4C01FA46D"",""assignmentId"":""0198c322-ffcc-7132-b467-d8fdb14286c0"",""projectId"":""0198c320-653a-770c-93e4-41e10e7faa5f""}","https://test12345.live/?num_scrambled_semantic=8&num_scrambled_causal=4&num_scrambled_schematic=4&participantId=945B815AA9D04EDBA58B91E4C01FA46D&assignmentId=0198c322-ffcc-7132-b467-d8fdb14286c0&projectId=0198c320-653a-770c-93e4-41e10e7faa5f","945B815AA9D04EDBA58B91E4C01FA46D-2025-08-19-16-39-02","[{""page_index"":0,""viewing_time"":927}]","928","","","","",""
"","","","","","image-button-response","11","267807","0.0-9.0-0.0","945B815AA9D04EDBA58B91E4C01FA46D","945B815AA9D04EDBA58B91E4C01FA46D","0198c322-ffcc-7132-b467-d8fdb14286c0","0198c320-653a-770c-93e4-41e10e7faa5f","{""num_scrambled_semantic"":""8"",""num_scrambled_causal"":""4"",""num_scrambled_schematic"":""4"",""participantId"":""945B815AA9D04EDBA58B91E4C01FA46D"",""assignmentId"":""0198c322-ffcc-7132-b467-d8fdb14286c0"",""projectId"":""0198c320-653a-770c-93e4-41e10e7faa5f""}","https://test12345.live/?num_scrambled_semantic=8&num_scrambled_causal=4&num_scrambled_schematic=4&participantId=945B815AA9D04EDBA58B91E4C01FA46D&assignmentId=0198c322-ffcc-7132-b467-d8fdb14286c0&projectId=0198c320-653a-770c-93e4-41e10e7faa5f","945B815AA9D04EDBA58B91E4C01FA46D-2025-08-19-16-39-02","","null","","images/causal_sequence/package_causal/package_causal_0.png","null","",""
"","","","","","html-audio-response","12","294338","0.0-10.0","945B815AA9D04EDBA58B91E4C01FA46D","945B815AA9D04EDBA58B91E4C01FA46D","0198c322-ffcc-7132-b467-d8fdb14286c0","0198c320-653a-770c-93e4-41e10e7faa5f","{""num_scrambled_semantic"":""8"",""num_scrambled_causal"":""4"",""num_scrambled_schematic"":""4"",""participantId"":""945B815AA9D04EDBA58B91E4C01FA46D"",""assignmentId"":""0198c322-ffcc-7132-b467-d8fdb14286c0"",""projectId"":""0198c320-653a-770c-93e4-41e10e7faa5f""}","https://test12345.live/?num_scrambled_semantic=8&num_scrambled_causal=4&num_scrambled_schematic=4&participantId=945B815AA9D04EDBA58B91E4C01FA46D&assignmentId=0198c322-ffcc-7132-b467-d8fdb14286c0&projectId=0198c320-653a-770c-93e4-41e10e7faa5f","945B815AA9D04EDBA58B91E4C01FA46D-2025-08-19-16-39-02","","25646","","[""<span style=\""color: red; font-size: 24px\""> NOW RECORDING</span><p>Please say out loud all the images you saw in part 1 of the experiment, as many as you can remember. The images can be said in any order.</p>""]","","16","package_causal"
"","","","","","image-button-response","13","300349","0.0-11.0-0.0","945B815AA9D04EDBA58B91E4C01FA46D","945B815AA9D04EDBA58B91E4C01FA46D","0198c322-ffcc-7132-b467-d8fdb14286c0","0198c320-653a-770c-93e4-41e10e7faa5f","{""num_scrambled_semantic"":""8"",""num_scrambled_causal"":""4"",""num_scrambled_schematic"":""4"",""participantId"":""945B815AA9D04EDBA58B91E4C01FA46D"",""assignmentId"":""0198c322-ffcc-7132-b467-d8fdb14286c0"",""projectId"":""0198c320-653a-770c-93e4-41e10e7faa5f""}","https://test12345.live/?num_scrambled_semantic=8&num_scrambled_causal=4&num_scrambled_schematic=4&participantId=945B815AA9D04EDBA58B91E4C01FA46D&assignmentId=0198c322-ffcc-7132-b467-d8fdb14286c0&projectId=0198c320-653a-770c-93e4-41e10e7faa5f","945B815AA9D04EDBA58B91E4C01FA46D-2025-08-19-16-39-02","","null","","images/causal_sequence/the_performance_causal/the_performance_causal_0.png","null","",""
"","","","","","html-audio-response","14","338020","0.0-12.0","945B815AA9D04EDBA58B91E4C01FA46D","945B815AA9D04EDBA58B91E4C01FA46D","0198c322-ffcc-7132-b467-d8fdb14286c0","0198c320-653a-770c-93e4-41e10e7faa5f","{""num_scrambled_semantic"":""8"",""num_scrambled_causal"":""4"",""num_scrambled_schematic"":""4"",""participantId"":""945B815AA9D04EDBA58B91E4C01FA46D"",""assignmentId"":""0198c322-ffcc-7132-b467-d8fdb14286c0"",""projectId"":""0198c320-653a-770c-93e4-41e10e7faa5f""}","https://test12345.live/?num_scrambled_semantic=8&num_scrambled_causal=4&num_scrambled_schematic=4&participantId=945B815AA9D04EDBA58B91E4C01FA46D&assignmentId=0198c322-ffcc-7132-b467-d8fdb14286c0&projectId=0198c320-653a-770c-93e4-41e10e7faa5f","945B815AA9D04EDBA58B91E4C01FA46D-2025-08-19-16-39-02","","36645","","[""<span style=\""color: red; font-size: 24px\""> NOW RECORDING</span><p>Please say out loud all the images you saw in part 1 of the experiment, as many as you can remember. The images can be said in any order.</p>""]","","1","the_performance_causal"
"","","","","","image-button-response","15","344030","0.0-13.0-0.0","945B815AA9D04EDBA58B91E4C01FA46D","945B815AA9D04EDBA58B91E4C01FA46D","0198c322-ffcc-7132-b467-d8fdb14286c0","0198c320-653a-770c-93e4-41e10e7faa5f","{""num_scrambled_semantic"":""8"",""num_scrambled_causal"":""4"",""num_scrambled_schematic"":""4"",""participantId"":""945B815AA9D04EDBA58B91E4C01FA46D"",""assignmentId"":""0198c322-ffcc-7132-b467-d8fdb14286c0"",""projectId"":""0198c320-653a-770c-93e4-41e10e7faa5f""}","https://test12345.live/?num_scrambled_semantic=8&num_scrambled_causal=4&num_scrambled_schematic=4&participantId=945B815AA9D04EDBA58B91E4C01FA46D&assignmentId=0198c322-ffcc-7132-b467-d8fdb14286c0&projectId=0198c320-653a-770c-93e4-41e10e7faa5f","945B815AA9D04EDBA58B91E4C01FA46D-2025-08-19-16-39-02","","null","","images/causal_sequence/coin_causal/coin_causal_0.png","null","",""
"","","","","","html-audio-response","16","367070","0.0-14.0","945B815AA9D04EDBA58B91E4C01FA46D","945B815AA9D04EDBA58B91E4C01FA46D","0198c322-ffcc-7132-b467-d8fdb14286c0","0198c320-653a-770c-93e4-41e10e7faa5f","{""num_scrambled_semantic"":""8"",""num_scrambled_causal"":""4"",""num_scrambled_schematic"":""4"",""participantId"":""945B815AA9D04EDBA58B91E4C01FA46D"",""assignmentId"":""0198c322-ffcc-7132-b467-d8fdb14286c0"",""projectId"":""0198c320-653a-770c-93e4-41e10e7faa5f""}","https://test12345.live/?num_scrambled_semantic=8&num_scrambled_causal=4&num_scrambled_schematic=4&participantId=945B815AA9D04EDBA58B91E4C01FA46D&assignmentId=0198c322-ffcc-7132-b467-d8fdb14286c0&projectId=0198c320-653a-770c-93e4-41e10e7faa5f","945B815AA9D04EDBA58B91E4C01FA46D-2025-08-19-16-39-02","","17694","","[""<span style=\""color: red; font-size: 24px\""> NOW RECORDING</span><p>Please say out loud all the images you saw in part 1 of the experiment, as many as you can remember. The images can be said in any order.</p>""]","","1","coin_causal"
"","","","","","image-button-response","17","373075","0.0-15.0-0.0","945B815AA9D04EDBA58B91E4C01FA46D","945B815AA9D04EDBA58B91E4C01FA46D","0198c322-ffcc-7132-b467-d8fdb14286c0","0198c320-653a-770c-93e4-41e10e7faa5f","{""num_scrambled_semantic"":""8"",""num_scrambled_causal"":""4"",""num_scrambled_schematic"":""4"",""participantId"":""945B815AA9D04EDBA58B91E4C01FA46D"",""assignmentId"":""0198c322-ffcc-7132-b467-d8fdb14286c0"",""projectId"":""0198c320-653a-770c-93e4-41e10e7faa5f""}","https://test12345.live/?num_scrambled_semantic=8&num_scrambled_causal=4&num_scrambled_schematic=4&participantId=945B815AA9D04EDBA58B91E4C01FA46D&assignmentId=0198c322-ffcc-7132-b467-d8fdb14286c0&projectId=0198c320-653a-770c-93e4-41e10e7faa5f","945B815AA9D04EDBA58B91E4C01FA46D-2025-08-19-16-39-02","","null","","images/semantic_sequence/creative_activities_semantic/creative_activities_semantic_0.png","null","",""
"","","","","","html-audio-response","18","409120","0.0-16.0","945B815AA9D04EDBA58B91E4C01FA46D","945B815AA9D04EDBA58B91E4C01FA46D","0198c322-ffcc-7132-b467-d8fdb14286c0","0198c320-653a-770c-93e4-41e10e7faa5f","{""num_scrambled_semantic"":""8"",""num_scrambled_causal"":""4"",""num_scrambled_schematic"":""4"",""participantId"":""945B815AA9D04EDBA58B91E4C01FA46D"",""assignmentId"":""0198c322-ffcc-7132-b467-d8fdb14286c0"",""projectId"":""0198c320-653a-770c-93e4-41e10e7faa5f""}","https://test12345.live/?num_scrambled_semantic=8&num_scrambled_causal=4&num_scrambled_schematic=4&participantId=945B815AA9D04EDBA58B91E4C01FA46D&assignmentId=0198c322-ffcc-7132-b467-d8fdb14286c0&projectId=0198c320-653a-770c-93e4-41e10e7faa5f","945B815AA9D04EDBA58B91E4C01FA46D-2025-08-19-16-39-02","","35424","","[""<span style=\""color: red; font-size: 24px\""> NOW RECORDING</span><p>Please say out loud all the images you saw in part 1 of the experiment, as many as you can remember. The images can be said in any order.</p>""]","","1","creative_activities_semantic"
"","","","","","image-button-response","19","415131","0.0-17.0-0.0","945B815AA9D04EDBA58B91E4C01FA46D","945B815AA9D04EDBA58B91E4C01FA46D","0198c322-ffcc-7132-b467-d8fdb14286c0","0198c320-653a-770c-93e4-41e10e7faa5f","{""num_scrambled_semantic"":""8"",""num_scrambled_causal"":""4"",""num_scrambled_schematic"":""4"",""participantId"":""945B815AA9D04EDBA58B91E4C01FA46D"",""assignmentId"":""0198c322-ffcc-7132-b467-d8fdb14286c0"",""projectId"":""0198c320-653a-770c-93e4-41e10e7faa5f""}","https://test12345.live/?num_scrambled_semantic=8&num_scrambled_causal=4&num_scrambled_schematic=4&participantId=945B815AA9D04EDBA58B91E4C01FA46D&assignmentId=0198c322-ffcc-7132-b467-d8fdb14286c0&projectId=0198c320-653a-770c-93e4-41e10e7faa5f","945B815AA9D04EDBA58B91E4C01FA46D-2025-08-19-16-39-02","","null","","images/causal_sequence/saving_a_cat_causal/saving_a_cat_causal_0.png","null","",""
"","","","","","html-audio-response","20","439870","0.0-18.0","945B815AA9D04EDBA58B91E4C01FA46D","945B815AA9D04EDBA58B91E4C01FA46D","0198c322-ffcc-7132-b467-d8fdb14286c0","0198c320-653a-770c-93e4-41e10e7faa5f","{""num_scrambled_semantic"":""8"",""num_scrambled_causal"":""4"",""num_scrambled_schematic"":""4"",""participantId"":""945B815AA9D04EDBA58B91E4C01FA46D"",""assignmentId"":""0198c322-ffcc-7132-b467-d8fdb14286c0"",""projectId"":""0198c320-653a-770c-93e4-41e10e7faa5f""}","https://test12345.live/?num_scrambled_semantic=8&num_scrambled_causal=4&num_scrambled_schematic=4&participantId=945B815AA9D04EDBA58B91E4C01FA46D&assignmentId=0198c322-ffcc-7132-b467-d8fdb14286c0&projectId=0198c320-653a-770c-93e4-41e10e7faa5f","945B815AA9D04EDBA58B91E4C01FA46D-2025-08-19-16-39-02","","23979","","[""<span style=\""color: red; font-size: 24px\""> NOW RECORDING</span><p>Please say out loud all the images you saw in part 1 of the experiment, as many as you can remember. The images can be said in any order.</p>""]","","3","saving_a_cat_causal"
"","","","","","image-button-response","21","445879","0.0-19.0-0.0","945B815AA9D04EDBA58B91E4C01FA46D","945B815AA9D04EDBA58B91E4C01FA46D","0198c322-ffcc-7132-b467-d8fdb14286c0","0198c320-653a-770c-93e4-41e10e7faa5f","{""num_scrambled_semantic"":""8"",""num_scrambled_causal"":""4"",""num_scrambled_schematic"":""4"",""participantId"":""945B815AA9D04EDBA58B91E4C01FA46D"",""assignmentId"":""0198c322-ffcc-7132-b467-d8fdb14286c0"",""projectId"":""0198c320-653a-770c-93e4-41e10e7faa5f""}","https://test12345.live/?num_scrambled_semantic=8&num_scrambled_causal=4&num_scrambled_schematic=4&participantId=945B815AA9D04EDBA58B91E4C01FA46D&assignmentId=0198c322-ffcc-7132-b467-d8fdb14286c0&projectId=0198c320-653a-770c-93e4-41e10e7faa5f","945B815AA9D04EDBA58B91E4C01FA46D-2025-08-19-16-39-02","","null","","images/semantic_sequence/using_technology_semantic/using_technology_semantic_0.png","null","",""
"","","","","","html-audio-response","22","475086","0.0-20.0","945B815AA9D04EDBA58B91E4C01FA46D","945B815AA9D04EDBA58B91E4C01FA46D","0198c322-ffcc-7132-b467-d8fdb14286c0","0198c320-653a-770c-93e4-41e10e7faa5f","{""num_scrambled_semantic"":""8"",""num_scrambled_causal"":""4"",""num_scrambled_schematic"":""4"",""participantId"":""945B815AA9D04EDBA58B91E4C01FA46D"",""assignmentId"":""0198c322-ffcc-7132-b467-d8fdb14286c0"",""projectId"":""0198c320-653a-770c-93e4-41e10e7faa5f""}","https://test12345.live/?num_scrambled_semantic=8&num_scrambled_causal=4&num_scrambled_schematic=4&participantId=945B815AA9D04EDBA58B91E4C01FA46D&assignmentId=0198c322-ffcc-7132-b467-d8fdb14286c0&projectId=0198c320-653a-770c-93e4-41e10e7faa5f","945B815AA9D04EDBA58B91E4C01FA46D-2025-08-19-16-39-02","","28515","","[""<span style=\""color: red; font-size: 24px\""> NOW RECORDING</span><p>Please say out loud all the images you saw in part 1 of the experiment, as many as you can remember. The images can be said in any order.</p>""]","","1","using_technology_semantic"
"","","","","","image-button-response","23","481095","0.0-21.0-0.0","945B815AA9D04EDBA58B91E4C01FA46D","945B815AA9D04EDBA58B91E4C01FA46D","0198c322-ffcc-7132-b467-d8fdb14286c0","0198c320-653a-770c-93e4-41e10e7faa5f","{""num_scrambled_semantic"":""8"",""num_scrambled_causal"":""4"",""num_scrambled_schematic"":""4"",""participantId"":""945B815AA9D04EDBA58B91E4C01FA46D"",""assignmentId"":""0198c322-ffcc-7132-b467-d8fdb14286c0"",""projectId"":""0198c320-653a-770c-93e4-41e10e7faa5f""}","https://test12345.live/?num_scrambled_semantic=8&num_scrambled_causal=4&num_scrambled_schematic=4&participantId=945B815AA9D04EDBA58B91E4C01FA46D&assignmentId=0198c322-ffcc-7132-b467-d8fdb14286c0&projectId=0198c320-653a-770c-93e4-41e10e7faa5f","945B815AA9D04EDBA58B91E4C01FA46D-2025-08-19-16-39-02","","null","","images/semantic_sequence/maintaining_a_car_semantic/maintaining_a_car_semantic_0.png","null","",""
"","","","","","html-audio-response","24","497303","0.0-22.0","945B815AA9D04EDBA58B91E4C01FA46D","945B815AA9D04EDBA58B91E4C01FA46D","0198c322-ffcc-7132-b467-d8fdb14286c0","0198c320-653a-770c-93e4-41e10e7faa5f","{""num_scrambled_semantic"":""8"",""num_scrambled_causal"":""4"",""num_scrambled_schematic"":""4"",""participantId"":""945B815AA9D04EDBA58B91E4C01FA46D"",""assignmentId"":""0198c322-ffcc-7132-b467-d8fdb14286c0"",""projectId"":""0198c320-653a-770c-93e4-41e10e7faa5f""}","https://test12345.live/?num_scrambled_semantic=8&num_scrambled_causal=4&num_scrambled_schematic=4&participantId=945B815AA9D04EDBA58B91E4C01FA46D&assignmentId=0198c322-ffcc-7132-b467-d8fdb14286c0&projectId=0198c320-653a-770c-93e4-41e10e7faa5f","945B815AA9D04EDBA58B91E4C01FA46D-2025-08-19-16-39-02","","15637","","[""<span style=\""color: red; font-size: 24px\""> NOW RECORDING</span><p>Please say out loud all the images you saw in part 1 of the experiment, as many as you can remember. The images can be said in any order.</p>""]","","1","maintaining_a_car_semantic"
"","","","","","image-button-response","25","503312","0.0-23.0-0.0","945B815AA9D04EDBA58B91E4C01FA46D","945B815AA9D04EDBA58B91E4C01FA46D","0198c322-ffcc-7132-b467-d8fdb14286c0","0198c320-653a-770c-93e4-41e10e7faa5f","{""num_scrambled_semantic"":""8"",""num_scrambled_causal"":""4"",""num_scrambled_schematic"":""4"",""participantId"":""945B815AA9D04EDBA58B91E4C01FA46D"",""assignmentId"":""0198c322-ffcc-7132-b467-d8fdb14286c0"",""projectId"":""0198c320-653a-770c-93e4-41e10e7faa5f""}","https://test12345.live/?num_scrambled_semantic=8&num_scrambled_causal=4&num_scrambled_schematic=4&participantId=945B815AA9D04EDBA58B91E4C01FA46D&assignmentId=0198c322-ffcc-7132-b467-d8fdb14286c0&projectId=0198c320-653a-770c-93e4-41e10e7faa5f","945B815AA9D04EDBA58B91E4C01FA46D-2025-08-19-16-39-02","","null","","images/semantic_sequence/cat_care_semantic/cat_care_semantic_0.png","null","",""
"","","","","","html-audio-response","26","522603","0.0-24.0","945B815AA9D04EDBA58B91E4C01FA46D","945B815AA9D04EDBA58B91E4C01FA46D","0198c322-ffcc-7132-b467-d8fdb14286c0","0198c320-653a-770c-93e4-41e10e7faa5f","{""num_scrambled_semantic"":""8"",""num_scrambled_causal"":""4"",""num_scrambled_schematic"":""4"",""participantId"":""945B815AA9D04EDBA58B91E4C01FA46D"",""assignmentId"":""0198c322-ffcc-7132-b467-d8fdb14286c0"",""projectId"":""0198c320-653a-770c-93e4-41e10e7faa5f""}","https://test12345.live/?num_scrambled_semantic=8&num_scrambled_causal=4&num_scrambled_schematic=4&participantId=945B815AA9D04EDBA58B91E4C01FA46D&assignmentId=0198c322-ffcc-7132-b467-d8fdb14286c0&projectId=0198c320-653a-770c-93e4-41e10e7faa5f","945B815AA9D04EDBA58B91E4C01FA46D-2025-08-19-16-39-02","","18817","","[""<span style=\""color: red; font-size: 24px\""> NOW RECORDING</span><p>Please say out loud all the images you saw in part 1 of the experiment, as many as you can remember. The images can be said in any order.</p>""]","","1","cat_care_semantic"
"","","","","","image-button-response","27","528612","0.0-25.0-0.0","945B815AA9D04EDBA58B91E4C01FA46D","945B815AA9D04EDBA58B91E4C01FA46D","0198c322-ffcc-7132-b467-d8fdb14286c0","0198c320-653a-770c-93e4-41e10e7faa5f","{""num_scrambled_semantic"":""8"",""num_scrambled_causal"":""4"",""num_scrambled_schematic"":""4"",""participantId"":""945B815AA9D04EDBA58B91E4C01FA46D"",""assignmentId"":""0198c322-ffcc-7132-b467-d8fdb14286c0"",""projectId"":""0198c320-653a-770c-93e4-41e10e7faa5f""}","https://test12345.live/?num_scrambled_semantic=8&num_scrambled_causal=4&num_scrambled_schematic=4&participantId=945B815AA9D04EDBA58B91E4C01FA46D&assignmentId=0198c322-ffcc-7132-b467-d8fdb14286c0&projectId=0198c320-653a-770c-93e4-41e10e7faa5f","945B815AA9D04EDBA58B91E4C01FA46D-2025-08-19-16-39-02","","null","","images/causal_sequence/dog_causal/dog_causal_0.png","null","",""
"","","","","","html-audio-response","28","553369","0.0-26.0","945B815AA9D04EDBA58B91E4C01FA46D","945B815AA9D04EDBA58B91E4C01FA46D","0198c322-ffcc-7132-b467-d8fdb14286c0","0198c320-653a-770c-93e4-41e10e7faa5f","{""num_scrambled_semantic"":""8"",""num_scrambled_causal"":""4"",""num_scrambled_schematic"":""4"",""participantId"":""945B815AA9D04EDBA58B91E4C01FA46D"",""assignmentId"":""0198c322-ffcc-7132-b467-d8fdb14286c0"",""projectId"":""0198c320-653a-770c-93e4-41e10e7faa5f""}","https://test12345.live/?num_scrambled_semantic=8&num_scrambled_causal=4&num_scrambled_schematic=4&participantId=945B815AA9D04EDBA58B91E4C01FA46D&assignmentId=0198c322-ffcc-7132-b467-d8fdb14286c0&projectId=0198c320-653a-770c-93e4-41e10e7faa5f","945B815AA9D04EDBA58B91E4C01FA46D-2025-08-19-16-39-02","","24285","","[""<span style=\""color: red; font-size: 24px\""> NOW RECORDING</span><p>Please say out loud all the images you saw in part 1 of the experiment, as many as you can remember. The images can be said in any order.</p>""]","","1","dog_causal"
"","","","","","image-button-response","29","559378","0.0-27.0-0.0","945B815AA9D04EDBA58B91E4C01FA46D","945B815AA9D04EDBA58B91E4C01FA46D","0198c322-ffcc-7132-b467-d8fdb14286c0","0198c320-653a-770c-93e4-41e10e7faa5f","{""num_scrambled_semantic"":""8"",""num_scrambled_causal"":""4"",""num_scrambled_schematic"":""4"",""participantId"":""945B815AA9D04EDBA58B91E4C01FA46D"",""assignmentId"":""0198c322-ffcc-7132-b467-d8fdb14286c0"",""projectId"":""0198c320-653a-770c-93e4-41e10e7faa5f""}","https://test12345.live/?num_scrambled_semantic=8&num_scrambled_causal=4&num_scrambled_schematic=4&participantId=945B815AA9D04EDBA58B91E4C01FA46D&assignmentId=0198c322-ffcc-7132-b467-d8fdb14286c0&projectId=0198c320-653a-770c-93e4-41e10e7faa5f","945B815AA9D04EDBA58B91E4C01FA46D-2025-08-19-16-39-02","","null","","images/semantic_sequence/redecorating_semantic/redecorating_semantic_0.png","null","",""
"","","","","","html-audio-response","30","576720","0.0-28.0","945B815AA9D04EDBA58B91E4C01FA46D","945B815AA9D04EDBA58B91E4C01FA46D","0198c322-ffcc-7132-b467-d8fdb14286c0","0198c320-653a-770c-93e4-41e10e7faa5f","{""num_scrambled_semantic"":""8"",""num_scrambled_causal"":""4"",""num_scrambled_schematic"":""4"",""participantId"":""945B815AA9D04EDBA58B91E4C01FA46D"",""assignmentId"":""0198c322-ffcc-7132-b467-d8fdb14286c0"",""projectId"":""0198c320-653a-770c-93e4-41e10e7faa5f""}","https://test12345.live/?num_scrambled_semantic=8&num_scrambled_causal=4&num_scrambled_schematic=4&participantId=945B815AA9D04EDBA58B91E4C01FA46D&assignmentId=0198c322-ffcc-7132-b467-d8fdb14286c0&projectId=0198c320-653a-770c-93e4-41e10e7faa5f","945B815AA9D04EDBA58B91E4C01FA46D-2025-08-19-16-39-02","","16481","","[""<span style=\""color: red; font-size: 24px\""> NOW RECORDING</span><p>Please say out loud all the images you saw in part 1 of the experiment, as many as you can remember. The images can be said in any order.</p>""]","","1","redecorating_semantic"
"","","","","","image-button-response","31","582729","0.0-29.0-0.0","945B815AA9D04EDBA58B91E4C01FA46D","945B815AA9D04EDBA58B91E4C01FA46D","0198c322-ffcc-7132-b467-d8fdb14286c0","0198c320-653a-770c-93e4-41e10e7faa5f","{""num_scrambled_semantic"":""8"",""num_scrambled_causal"":""4"",""num_scrambled_schematic"":""4"",""participantId"":""945B815AA9D04EDBA58B91E4C01FA46D"",""assignmentId"":""0198c322-ffcc-7132-b467-d8fdb14286c0"",""projectId"":""0198c320-653a-770c-93e4-41e10e7faa5f""}","https://test12345.live/?num_scrambled_semantic=8&num_scrambled_causal=4&num_scrambled_schematic=4&participantId=945B815AA9D04EDBA58B91E4C01FA46D&assignmentId=0198c322-ffcc-7132-b467-d8fdb14286c0&projectId=0198c320-653a-770c-93e4-41e10e7faa5f","945B815AA9D04EDBA58B91E4C01FA46D-2025-08-19-16-39-02","","null","","images/semantic_sequence/housework_semantic/housework_semantic_0.png","null","",""
"","","","","","html-audio-response","32","598152","0.0-30.0","945B815AA9D04EDBA58B91E4C01FA46D","945B815AA9D04EDBA58B91E4C01FA46D","0198c322-ffcc-7132-b467-d8fdb14286c0","0198c320-653a-770c-93e4-41e10e7faa5f","{""num_scrambled_semantic"":""8"",""num_scrambled_causal"":""4"",""num_scrambled_schematic"":""4"",""participantId"":""945B815AA9D04EDBA58B91E4C01FA46D"",""assignmentId"":""0198c322-ffcc-7132-b467-d8fdb14286c0"",""projectId"":""0198c320-653a-770c-93e4-41e10e7faa5f""}","https://test12345.live/?num_scrambled_semantic=8&num_scrambled_causal=4&num_scrambled_schematic=4&participantId=945B815AA9D04EDBA58B91E4C01FA46D&assignmentId=0198c322-ffcc-7132-b467-d8fdb14286c0&projectId=0198c320-653a-770c-93e4-41e10e7faa5f","945B815AA9D04EDBA58B91E4C01FA46D-2025-08-19-16-39-02","","14980","","[""<span style=\""color: red; font-size: 24px\""> NOW RECORDING</span><p>Please say out loud all the images you saw in part 1 of the experiment, as many as you can remember. The images can be said in any order.</p>""]","","1","housework_semantic"
"","","","","","image-button-response","33","604158","0.0-31.0-0.0","945B815AA9D04EDBA58B91E4C01FA46D","945B815AA9D04EDBA58B91E4C01FA46D","0198c322-ffcc-7132-b467-d8fdb14286c0","0198c320-653a-770c-93e4-41e10e7faa5f","{""num_scrambled_semantic"":""8"",""num_scrambled_causal"":""4"",""num_scrambled_schematic"":""4"",""participantId"":""945B815AA9D04EDBA58B91E4C01FA46D"",""assignmentId"":""0198c322-ffcc-7132-b467-d8fdb14286c0"",""projectId"":""0198c320-653a-770c-93e4-41e10e7faa5f""}","https://test12345.live/?num_scrambled_semantic=8&num_scrambled_causal=4&num_scrambled_schematic=4&participantId=945B815AA9D04EDBA58B91E4C01FA46D&assignmentId=0198c322-ffcc-7132-b467-d8fdb14286c0&projectId=0198c320-653a-770c-93e4-41e10e7faa5f","945B815AA9D04EDBA58B91E4C01FA46D-2025-08-19-16-39-02","","null","","images/causal_sequence/museum_causal/museum_causal_0.png","null","",""
"","","","","","html-audio-response","34","620336","0.0-32.0","945B815AA9D04EDBA58B91E4C01FA46D","945B815AA9D04EDBA58B91E4C01FA46D","0198c322-ffcc-7132-b467-d8fdb14286c0","0198c320-653a-770c-93e4-41e10e7faa5f","{""num_scrambled_semantic"":""8"",""num_scrambled_causal"":""4"",""num_scrambled_schematic"":""4"",""participantId"":""945B815AA9D04EDBA58B91E4C01FA46D"",""assignmentId"":""0198c322-ffcc-7132-b467-d8fdb14286c0"",""projectId"":""0198c320-653a-770c-93e4-41e10e7faa5f""}","https://test12345.live/?num_scrambled_semantic=8&num_scrambled_causal=4&num_scrambled_schematic=4&participantId=945B815AA9D04EDBA58B91E4C01FA46D&assignmentId=0198c322-ffcc-7132-b467-d8fdb14286c0&projectId=0198c320-653a-770c-93e4-41e10e7faa5f","945B815AA9D04EDBA58B91E4C01FA46D-2025-08-19-16-39-02","","15134","","[""<span style=\""color: red; font-size: 24px\""> NOW RECORDING</span><p>Please say out loud all the images you saw in part 1 of the experiment, as many as you can remember. The images can be said in any order.</p>""]","","1","museum_causal"
"","","","","","image-button-response","35","626340","0.0-33.0-0.0","945B815AA9D04EDBA58B91E4C01FA46D","945B815AA9D04EDBA58B91E4C01FA46D","0198c322-ffcc-7132-b467-d8fdb14286c0","0198c320-653a-770c-93e4-41e10e7faa5f","{""num_scrambled_semantic"":""8"",""num_scrambled_causal"":""4"",""num_scrambled_schematic"":""4"",""participantId"":""945B815AA9D04EDBA58B91E4C01FA46D"",""assignmentId"":""0198c322-ffcc-7132-b467-d8fdb14286c0"",""projectId"":""0198c320-653a-770c-93e4-41e10e7faa5f""}","https://test12345.live/?num_scrambled_semantic=8&num_scrambled_causal=4&num_scrambled_schematic=4&participantId=945B815AA9D04EDBA58B91E4C01FA46D&assignmentId=0198c322-ffcc-7132-b467-d8fdb14286c0&projectId=0198c320-653a-770c-93e4-41e10e7faa5f","945B815AA9D04EDBA58B91E4C01FA46D-2025-08-19-16-39-02","","null","","images/semantic_sequence/physical_activity_semantic/physical_activity_semantic_0.png","null","",""
"","","","","","html-audio-response","36","643753","0.0-34.0","945B815AA9D04EDBA58B91E4C01FA46D","945B815AA9D04EDBA58B91E4C01FA46D","0198c322-ffcc-7132-b467-d8fdb14286c0","0198c320-653a-770c-93e4-41e10e7faa5f","{""num_scrambled_semantic"":""8"",""num_scrambled_causal"":""4"",""num_scrambled_schematic"":""4"",""participantId"":""945B815AA9D04EDBA58B91E4C01FA46D"",""assignmentId"":""0198c322-ffcc-7132-b467-d8fdb14286c0"",""projectId"":""0198c320-653a-770c-93e4-41e10e7faa5f""}","https://test12345.live/?num_scrambled_semantic=8&num_scrambled_causal=4&num_scrambled_schematic=4&participantId=945B815AA9D04EDBA58B91E4C01FA46D&assignmentId=0198c322-ffcc-7132-b467-d8fdb14286c0&projectId=0198c320-653a-770c-93e4-41e10e7faa5f","945B815AA9D04EDBA58B91E4C01FA46D-2025-08-19-16-39-02","","14571","","[""<span style=\""color: red; font-size: 24px\""> NOW RECORDING</span><p>Please say out loud all the images you saw in part 1 of the experiment, as many as you can remember. The images can be said in any order.</p>""]","","1","physical_activity_semantic"
"","","","","","survey-text","37","650038","0.0-35.0","945B815AA9D04EDBA58B91E4C01FA46D","945B815AA9D04EDBA58B91E4C01FA46D","0198c322-ffcc-7132-b467-d8fdb14286c0","0198c320-653a-770c-93e4-41e10e7faa5f","{""num_scrambled_semantic"":""8"",""num_scrambled_causal"":""4"",""num_scrambled_schematic"":""4"",""participantId"":""945B815AA9D04EDBA58B91E4C01FA46D"",""assignmentId"":""0198c322-ffcc-7132-b467-d8fdb14286c0"",""projectId"":""0198c320-653a-770c-93e4-41e10e7faa5f""}","https://test12345.live/?num_scrambled_semantic=8&num_scrambled_causal=4&num_scrambled_schematic=4&participantId=945B815AA9D04EDBA58B91E4C01FA46D&assignmentId=0198c322-ffcc-7132-b467-d8fdb14286c0&projectId=0198c320-653a-770c-93e4-41e10e7faa5f","945B815AA9D04EDBA58B91E4C01FA46D-2025-08-19-16-39-02","","6280","","","{""Q0"":""MALE"",""Q1"":""22""}","",""
"","","","","","instructions","38","659086","0.0-36.0","945B815AA9D04EDBA58B91E4C01FA46D","945B815AA9D04EDBA58B91E4C01FA46D","0198c322-ffcc-7132-b467-d8fdb14286c0","0198c320-653a-770c-93e4-41e10e7faa5f","{""num_scrambled_semantic"":""8"",""num_scrambled_causal"":""4"",""num_scrambled_schematic"":""4"",""participantId"":""945B815AA9D04EDBA58B91E4C01FA46D"",""assignmentId"":""0198c322-ffcc-7132-b467-d8fdb14286c0"",""projectId"":""0198c320-653a-770c-93e4-41e10e7faa5f""}","https://test12345.live/?num_scrambled_semantic=8&num_scrambled_causal=4&num_scrambled_schematic=4&participantId=945B815AA9D04EDBA58B91E4C01FA46D&assignmentId=0198c322-ffcc-7132-b467-d8fdb14286c0&projectId=0198c320-653a-770c-93e4-41e10e7faa5f","945B815AA9D04EDBA58B91E4C01FA46D-2025-08-19-16-39-02","[{""page_index"":0,""viewing_time"":9047}]","9047","","","","",""
"","","","","","survey-text","39","661120","0.0-37.0","945B815AA9D04EDBA58B91E4C01FA46D","945B815AA9D04EDBA58B91E4C01FA46D","0198c322-ffcc-7132-b467-d8fdb14286c0","0198c320-653a-770c-93e4-41e10e7faa5f","{""num_scrambled_semantic"":""8"",""num_scrambled_causal"":""4"",""num_scrambled_schematic"":""4"",""participantId"":""945B815AA9D04EDBA58B91E4C01FA46D"",""assignmentId"":""0198c322-ffcc-7132-b467-d8fdb14286c0"",""projectId"":""0198c320-653a-770c-93e4-41e10e7faa5f""}","https://test12345.live/?num_scrambled_semantic=8&num_scrambled_causal=4&num_scrambled_schematic=4&participantId=945B815AA9D04EDBA58B91E4C01FA46D&assignmentId=0198c322-ffcc-7132-b467-d8fdb14286c0&projectId=0198c320-653a-770c-93e4-41e10e7faa5f","945B815AA9D04EDBA58B91E4C01FA46D-2025-08-19-16-39-02","","2032","","","{""Q0"":""AJFHBG896""}","",""
