"success","timeout","failed_images","failed_audio","failed_video","trial_type","trial_index","time_elapsed","internal_node_id","subject","subject_id","study_id","session_id","urlvar","current_url","audio_id","view_history","rt","device_id","stimulus","response","estimated_stimulus_onset","seq_name"
"true","false","[]","[]","[]","preload","0","5940","0.0-0.0","9939035525C34E0CA5EAB5375AF3FBE7","9939035525C34E0CA5EAB5375AF3FBE7","0198c325-014a-7e3b-836e-35de343c836f","0198c320-653a-770c-93e4-41e10e7faa5f","{""num_scrambled_semantic"":""8"",""num_scrambled_causal"":""4"",""num_scrambled_schematic"":""4"",""participantId"":""9939035525C34E0CA5EAB5375AF3FBE7"",""assignmentId"":""0198c325-014a-7e3b-836e-35de343c836f"",""projectId"":""0198c320-653a-770c-93e4-41e10e7faa5f""}","https://test12345.live/?num_scrambled_semantic=8&num_scrambled_causal=4&num_scrambled_schematic=4&participantId=9939035525C34E0CA5EAB5375AF3FBE7&assignmentId=0198c325-014a-7e3b-836e-35de343c836f&projectId=0198c320-653a-770c-93e4-41e10e7faa5f","9939035525C34E0CA5EAB5375AF3FBE7-2025-08-19-16-34-33","","","","","","",""
"","","","","","instructions","1","199435","0.0-1.0","9939035525C34E0CA5EAB5375AF3FBE7","9939035525C34E0CA5EAB5375AF3FBE7","0198c325-014a-7e3b-836e-35de343c836f","0198c320-653a-770c-93e4-41e10e7faa5f","{""num_scrambled_semantic"":""8"",""num_scrambled_causal"":""4"",""num_scrambled_schematic"":""4"",""participantId"":""9939035525C34E0CA5EAB5375AF3FBE7"",""assignmentId"":""0198c325-014a-7e3b-836e-35de343c836f"",""projectId"":""0198c320-653a-770c-93e4-41e10e7faa5f""}","https://test12345.live/?num_scrambled_semantic=8&num_scrambled_causal=4&num_scrambled_schematic=4&participantId=9939035525C34E0CA5EAB5375AF3FBE7&assignmentId=0198c325-014a-7e3b-836e-35de343c836f&projectId=0198c320-653a-770c-93e4-41e10e7faa5f","9939035525C34E0CA5EAB5375AF3FBE7-2025-08-19-16-34-33","[{""page_index"":0,""viewing_time"":193498}]","193499","","","","",""
"","","","","","instructions","2","203717","0.0-2.0","9939035525C34E0CA5EAB5375AF3FBE7","9939035525C34E0CA5EAB5375AF3FBE7","0198c325-014a-7e3b-836e-35de343c836f","0198c320-653a-770c-93e4-41e10e7faa5f","{""num_scrambled_semantic"":""8"",""num_scrambled_causal"":""4"",""num_scrambled_schematic"":""4"",""participantId"":""9939035525C34E0CA5EAB5375AF3FBE7"",""assignmentId"":""0198c325-014a-7e3b-836e-35de343c836f"",""projectId"":""0198c320-653a-770c-93e4-41e10e7faa5f""}","https://test12345.live/?num_scrambled_semantic=8&num_scrambled_causal=4&num_scrambled_schematic=4&participantId=9939035525C34E0CA5EAB5375AF3FBE7&assignmentId=0198c325-014a-7e3b-836e-35de343c836f&projectId=0198c320-653a-770c-93e4-41e10e7faa5f","9939035525C34E0CA5EAB5375AF3FBE7-2025-08-19-16-34-33","[{""page_index"":0,""viewing_time"":4280}]","4281","","","","",""
"true","","","","","fullscreen","3","207360","0.0-3.0","9939035525C34E0CA5EAB5375AF3FBE7","9939035525C34E0CA5EAB5375AF3FBE7","0198c325-014a-7e3b-836e-35de343c836f","0198c320-653a-770c-93e4-41e10e7faa5f","{""num_scrambled_semantic"":""8"",""num_scrambled_causal"":""4"",""num_scrambled_schematic"":""4"",""participantId"":""9939035525C34E0CA5EAB5375AF3FBE7"",""assignmentId"":""0198c325-014a-7e3b-836e-35de343c836f"",""projectId"":""0198c320-653a-770c-93e4-41e10e7faa5f""}","https://test12345.live/?num_scrambled_semantic=8&num_scrambled_causal=4&num_scrambled_schematic=4&participantId=9939035525C34E0CA5EAB5375AF3FBE7&assignmentId=0198c325-014a-7e3b-836e-35de343c836f&projectId=0198c320-653a-770c-93e4-41e10e7faa5f","9939035525C34E0CA5EAB5375AF3FBE7-2025-08-19-16-34-33","","2633","","","","",""
"","","","","","initialize-microphone","4","215632","0.0-4.0-0.0","9939035525C34E0CA5EAB5375AF3FBE7","9939035525C34E0CA5EAB5375AF3FBE7","0198c325-014a-7e3b-836e-35de343c836f","0198c320-653a-770c-93e4-41e10e7faa5f","{""num_scrambled_semantic"":""8"",""num_scrambled_causal"":""4"",""num_scrambled_schematic"":""4"",""participantId"":""9939035525C34E0CA5EAB5375AF3FBE7"",""assignmentId"":""0198c325-014a-7e3b-836e-35de343c836f"",""projectId"":""0198c320-653a-770c-93e4-41e10e7faa5f""}","https://test12345.live/?num_scrambled_semantic=8&num_scrambled_causal=4&num_scrambled_schematic=4&participantId=9939035525C34E0CA5EAB5375AF3FBE7&assignmentId=0198c325-014a-7e3b-836e-35de343c836f&projectId=0198c320-653a-770c-93e4-41e10e7faa5f","9939035525C34E0CA5EAB5375AF3FBE7-2025-08-19-16-34-33","","","be7da4b5d137f8d9dfb8ab46419551fd86d97278ce3e62e3b961f958bb96f05c","","","",""
"","","","","","html-audio-response","5","222824","0.0-4.0-1.0","9939035525C34E0CA5EAB5375AF3FBE7","9939035525C34E0CA5EAB5375AF3FBE7","0198c325-014a-7e3b-836e-35de343c836f","0198c320-653a-770c-93e4-41e10e7faa5f","{""num_scrambled_semantic"":""8"",""num_scrambled_causal"":""4"",""num_scrambled_schematic"":""4"",""participantId"":""9939035525C34E0CA5EAB5375AF3FBE7"",""assignmentId"":""0198c325-014a-7e3b-836e-35de343c836f"",""projectId"":""0198c320-653a-770c-93e4-41e10e7faa5f""}","https://test12345.live/?num_scrambled_semantic=8&num_scrambled_causal=4&num_scrambled_schematic=4&participantId=9939035525C34E0CA5EAB5375AF3FBE7&assignmentId=0198c325-014a-7e3b-836e-35de343c836f&projectId=0198c320-653a-770c-93e4-41e10e7faa5f","9939035525C34E0CA5EAB5375AF3FBE7-2025-08-19-16-34-33","","2562","","<span style=""color: red; font-size: 24px""> NOW RECORDING</span>
        <p>Please test Microphone</p>","","6",""
"","","","","","html-button-response","6","223797","0.0-4.0-2.0","9939035525C34E0CA5EAB5375AF3FBE7","9939035525C34E0CA5EAB5375AF3FBE7","0198c325-014a-7e3b-836e-35de343c836f","0198c320-653a-770c-93e4-41e10e7faa5f","{""num_scrambled_semantic"":""8"",""num_scrambled_causal"":""4"",""num_scrambled_schematic"":""4"",""participantId"":""9939035525C34E0CA5EAB5375AF3FBE7"",""assignmentId"":""0198c325-014a-7e3b-836e-35de343c836f"",""projectId"":""0198c320-653a-770c-93e4-41e10e7faa5f""}","https://test12345.live/?num_scrambled_semantic=8&num_scrambled_causal=4&num_scrambled_schematic=4&participantId=9939035525C34E0CA5EAB5375AF3FBE7&assignmentId=0198c325-014a-7e3b-836e-35de343c836f&projectId=0198c320-653a-770c-93e4-41e10e7faa5f","9939035525C34E0CA5EAB5375AF3FBE7-2025-08-19-16-34-33","","971","","<p style=""font-size:48px; color:red;"">Is Microphone OK?</p>","1","",""
"","","","","","instructions","7","238089","0.0-5.0","9939035525C34E0CA5EAB5375AF3FBE7","9939035525C34E0CA5EAB5375AF3FBE7","0198c325-014a-7e3b-836e-35de343c836f","0198c320-653a-770c-93e4-41e10e7faa5f","{""num_scrambled_semantic"":""8"",""num_scrambled_causal"":""4"",""num_scrambled_schematic"":""4"",""participantId"":""9939035525C34E0CA5EAB5375AF3FBE7"",""assignmentId"":""0198c325-014a-7e3b-836e-35de343c836f"",""projectId"":""0198c320-653a-770c-93e4-41e10e7faa5f""}","https://test12345.live/?num_scrambled_semantic=8&num_scrambled_causal=4&num_scrambled_schematic=4&participantId=9939035525C34E0CA5EAB5375AF3FBE7&assignmentId=0198c325-014a-7e3b-836e-35de343c836f&projectId=0198c320-653a-770c-93e4-41e10e7faa5f","9939035525C34E0CA5EAB5375AF3FBE7-2025-08-19-16-34-33","[{""page_index"":0,""viewing_time"":1208},{""page_index"":1,""viewing_time"":5612},{""page_index"":2,""viewing_time"":7472}]","14292","","","","",""
"","","","","","image-button-response","8","244095","0.0-6.0-0.0","9939035525C34E0CA5EAB5375AF3FBE7","9939035525C34E0CA5EAB5375AF3FBE7","0198c325-014a-7e3b-836e-35de343c836f","0198c320-653a-770c-93e4-41e10e7faa5f","{""num_scrambled_semantic"":""8"",""num_scrambled_causal"":""4"",""num_scrambled_schematic"":""4"",""participantId"":""9939035525C34E0CA5EAB5375AF3FBE7"",""assignmentId"":""0198c325-014a-7e3b-836e-35de343c836f"",""projectId"":""0198c320-653a-770c-93e4-41e10e7faa5f""}","https://test12345.live/?num_scrambled_semantic=8&num_scrambled_causal=4&num_scrambled_schematic=4&participantId=9939035525C34E0CA5EAB5375AF3FBE7&assignmentId=0198c325-014a-7e3b-836e-35de343c836f&projectId=0198c320-653a-770c-93e4-41e10e7faa5f","9939035525C34E0CA5EAB5375AF3FBE7-2025-08-19-16-34-33","","null","","images/instructions/movie_0.png","null","",""
"","","","","","html-audio-response","9","262299","0.0-7.0","9939035525C34E0CA5EAB5375AF3FBE7","9939035525C34E0CA5EAB5375AF3FBE7","0198c325-014a-7e3b-836e-35de343c836f","0198c320-653a-770c-93e4-41e10e7faa5f","{""num_scrambled_semantic"":""8"",""num_scrambled_causal"":""4"",""num_scrambled_schematic"":""4"",""participantId"":""9939035525C34E0CA5EAB5375AF3FBE7"",""assignmentId"":""0198c325-014a-7e3b-836e-35de343c836f"",""projectId"":""0198c320-653a-770c-93e4-41e10e7faa5f""}","https://test12345.live/?num_scrambled_semantic=8&num_scrambled_causal=4&num_scrambled_schematic=4&participantId=9939035525C34E0CA5EAB5375AF3FBE7&assignmentId=0198c325-014a-7e3b-836e-35de343c836f&projectId=0198c320-653a-770c-93e4-41e10e7faa5f","9939035525C34E0CA5EAB5375AF3FBE7-2025-08-19-16-34-33","","12034","","[""<span style=\""color: red; font-size: 24px\""> NOW RECORDING</span><p>Please say out loud all the images you saw in part 1 of the experiment, as many as you can remember. The images can be said in any order.</p>""]","","3",""
"","","","","","instructions","10","264490","0.0-8.0","9939035525C34E0CA5EAB5375AF3FBE7","9939035525C34E0CA5EAB5375AF3FBE7","0198c325-014a-7e3b-836e-35de343c836f","0198c320-653a-770c-93e4-41e10e7faa5f","{""num_scrambled_semantic"":""8"",""num_scrambled_causal"":""4"",""num_scrambled_schematic"":""4"",""participantId"":""9939035525C34E0CA5EAB5375AF3FBE7"",""assignmentId"":""0198c325-014a-7e3b-836e-35de343c836f"",""projectId"":""0198c320-653a-770c-93e4-41e10e7faa5f""}","https://test12345.live/?num_scrambled_semantic=8&num_scrambled_causal=4&num_scrambled_schematic=4&participantId=9939035525C34E0CA5EAB5375AF3FBE7&assignmentId=0198c325-014a-7e3b-836e-35de343c836f&projectId=0198c320-653a-770c-93e4-41e10e7faa5f","9939035525C34E0CA5EAB5375AF3FBE7-2025-08-19-16-34-33","[{""page_index"":0,""viewing_time"":2186}]","2186","","","","",""
"","","","","","image-button-response","11","270501","0.0-9.0-0.0","9939035525C34E0CA5EAB5375AF3FBE7","9939035525C34E0CA5EAB5375AF3FBE7","0198c325-014a-7e3b-836e-35de343c836f","0198c320-653a-770c-93e4-41e10e7faa5f","{""num_scrambled_semantic"":""8"",""num_scrambled_causal"":""4"",""num_scrambled_schematic"":""4"",""participantId"":""9939035525C34E0CA5EAB5375AF3FBE7"",""assignmentId"":""0198c325-014a-7e3b-836e-35de343c836f"",""projectId"":""0198c320-653a-770c-93e4-41e10e7faa5f""}","https://test12345.live/?num_scrambled_semantic=8&num_scrambled_causal=4&num_scrambled_schematic=4&participantId=9939035525C34E0CA5EAB5375AF3FBE7&assignmentId=0198c325-014a-7e3b-836e-35de343c836f&projectId=0198c320-653a-770c-93e4-41e10e7faa5f","9939035525C34E0CA5EAB5375AF3FBE7-2025-08-19-16-34-33","","null","","images/semantic_sequence/creative_activities_semantic/creative_activities_semantic_0.png","null","",""
"","","","","","html-audio-response","12","292798","0.0-10.0","9939035525C34E0CA5EAB5375AF3FBE7","9939035525C34E0CA5EAB5375AF3FBE7","0198c325-014a-7e3b-836e-35de343c836f","0198c320-653a-770c-93e4-41e10e7faa5f","{""num_scrambled_semantic"":""8"",""num_scrambled_causal"":""4"",""num_scrambled_schematic"":""4"",""participantId"":""9939035525C34E0CA5EAB5375AF3FBE7"",""assignmentId"":""0198c325-014a-7e3b-836e-35de343c836f"",""projectId"":""0198c320-653a-770c-93e4-41e10e7faa5f""}","https://test12345.live/?num_scrambled_semantic=8&num_scrambled_causal=4&num_scrambled_schematic=4&participantId=9939035525C34E0CA5EAB5375AF3FBE7&assignmentId=0198c325-014a-7e3b-836e-35de343c836f&projectId=0198c320-653a-770c-93e4-41e10e7faa5f","9939035525C34E0CA5EAB5375AF3FBE7-2025-08-19-16-34-33","","20115","","[""<span style=\""color: red; font-size: 24px\""> NOW RECORDING</span><p>Please say out loud all the images you saw in part 1 of the experiment, as many as you can remember. The images can be said in any order.</p>""]","","2","creative_activities_semantic"
"","","","","","image-button-response","13","298806","0.0-11.0-0.0","9939035525C34E0CA5EAB5375AF3FBE7","9939035525C34E0CA5EAB5375AF3FBE7","0198c325-014a-7e3b-836e-35de343c836f","0198c320-653a-770c-93e4-41e10e7faa5f","{""num_scrambled_semantic"":""8"",""num_scrambled_causal"":""4"",""num_scrambled_schematic"":""4"",""participantId"":""9939035525C34E0CA5EAB5375AF3FBE7"",""assignmentId"":""0198c325-014a-7e3b-836e-35de343c836f"",""projectId"":""0198c320-653a-770c-93e4-41e10e7faa5f""}","https://test12345.live/?num_scrambled_semantic=8&num_scrambled_causal=4&num_scrambled_schematic=4&participantId=9939035525C34E0CA5EAB5375AF3FBE7&assignmentId=0198c325-014a-7e3b-836e-35de343c836f&projectId=0198c320-653a-770c-93e4-41e10e7faa5f","9939035525C34E0CA5EAB5375AF3FBE7-2025-08-19-16-34-33","","null","","images/causal_sequence/coin_causal/coin_causal_0.png","null","",""
"","","","","","html-audio-response","14","331766","0.0-12.0","9939035525C34E0CA5EAB5375AF3FBE7","9939035525C34E0CA5EAB5375AF3FBE7","0198c325-014a-7e3b-836e-35de343c836f","0198c320-653a-770c-93e4-41e10e7faa5f","{""num_scrambled_semantic"":""8"",""num_scrambled_causal"":""4"",""num_scrambled_schematic"":""4"",""participantId"":""9939035525C34E0CA5EAB5375AF3FBE7"",""assignmentId"":""0198c325-014a-7e3b-836e-35de343c836f"",""projectId"":""0198c320-653a-770c-93e4-41e10e7faa5f""}","https://test12345.live/?num_scrambled_semantic=8&num_scrambled_causal=4&num_scrambled_schematic=4&participantId=9939035525C34E0CA5EAB5375AF3FBE7&assignmentId=0198c325-014a-7e3b-836e-35de343c836f&projectId=0198c320-653a-770c-93e4-41e10e7faa5f","9939035525C34E0CA5EAB5375AF3FBE7-2025-08-19-16-34-33","","31505","","[""<span style=\""color: red; font-size: 24px\""> NOW RECORDING</span><p>Please say out loud all the images you saw in part 1 of the experiment, as many as you can remember. The images can be said in any order.</p>""]","","2","coin_causal"
"","","","","","image-button-response","15","337782","0.0-13.0-0.0","9939035525C34E0CA5EAB5375AF3FBE7","9939035525C34E0CA5EAB5375AF3FBE7","0198c325-014a-7e3b-836e-35de343c836f","0198c320-653a-770c-93e4-41e10e7faa5f","{""num_scrambled_semantic"":""8"",""num_scrambled_causal"":""4"",""num_scrambled_schematic"":""4"",""participantId"":""9939035525C34E0CA5EAB5375AF3FBE7"",""assignmentId"":""0198c325-014a-7e3b-836e-35de343c836f"",""projectId"":""0198c320-653a-770c-93e4-41e10e7faa5f""}","https://test12345.live/?num_scrambled_semantic=8&num_scrambled_causal=4&num_scrambled_schematic=4&participantId=9939035525C34E0CA5EAB5375AF3FBE7&assignmentId=0198c325-014a-7e3b-836e-35de343c836f&projectId=0198c320-653a-770c-93e4-41e10e7faa5f","9939035525C34E0CA5EAB5375AF3FBE7-2025-08-19-16-34-33","","null","","images/semantic_sequence/using_technology_semantic/using_technology_semantic_0.png","null","",""
"","","","","","html-audio-response","16","361033","0.0-14.0","9939035525C34E0CA5EAB5375AF3FBE7","9939035525C34E0CA5EAB5375AF3FBE7","0198c325-014a-7e3b-836e-35de343c836f","0198c320-653a-770c-93e4-41e10e7faa5f","{""num_scrambled_semantic"":""8"",""num_scrambled_causal"":""4"",""num_scrambled_schematic"":""4"",""participantId"":""9939035525C34E0CA5EAB5375AF3FBE7"",""assignmentId"":""0198c325-014a-7e3b-836e-35de343c836f"",""projectId"":""0198c320-653a-770c-93e4-41e10e7faa5f""}","https://test12345.live/?num_scrambled_semantic=8&num_scrambled_causal=4&num_scrambled_schematic=4&participantId=9939035525C34E0CA5EAB5375AF3FBE7&assignmentId=0198c325-014a-7e3b-836e-35de343c836f&projectId=0198c320-653a-770c-93e4-41e10e7faa5f","9939035525C34E0CA5EAB5375AF3FBE7-2025-08-19-16-34-33","","22063","","[""<span style=\""color: red; font-size: 24px\""> NOW RECORDING</span><p>Please say out loud all the images you saw in part 1 of the experiment, as many as you can remember. The images can be said in any order.</p>""]","","2","using_technology_semantic"
"","","","","","image-button-response","17","367050","0.0-15.0-0.0","9939035525C34E0CA5EAB5375AF3FBE7","9939035525C34E0CA5EAB5375AF3FBE7","0198c325-014a-7e3b-836e-35de343c836f","0198c320-653a-770c-93e4-41e10e7faa5f","{""num_scrambled_semantic"":""8"",""num_scrambled_causal"":""4"",""num_scrambled_schematic"":""4"",""participantId"":""9939035525C34E0CA5EAB5375AF3FBE7"",""assignmentId"":""0198c325-014a-7e3b-836e-35de343c836f"",""projectId"":""0198c320-653a-770c-93e4-41e10e7faa5f""}","https://test12345.live/?num_scrambled_semantic=8&num_scrambled_causal=4&num_scrambled_schematic=4&participantId=9939035525C34E0CA5EAB5375AF3FBE7&assignmentId=0198c325-014a-7e3b-836e-35de343c836f&projectId=0198c320-653a-770c-93e4-41e10e7faa5f","9939035525C34E0CA5EAB5375AF3FBE7-2025-08-19-16-34-33","","null","","images/causal_sequence/package_causal/package_causal_0.png","null","",""
"","","","","","html-audio-response","18","398489","0.0-16.0","9939035525C34E0CA5EAB5375AF3FBE7","9939035525C34E0CA5EAB5375AF3FBE7","0198c325-014a-7e3b-836e-35de343c836f","0198c320-653a-770c-93e4-41e10e7faa5f","{""num_scrambled_semantic"":""8"",""num_scrambled_causal"":""4"",""num_scrambled_schematic"":""4"",""participantId"":""9939035525C34E0CA5EAB5375AF3FBE7"",""assignmentId"":""0198c325-014a-7e3b-836e-35de343c836f"",""projectId"":""0198c320-653a-770c-93e4-41e10e7faa5f""}","https://test12345.live/?num_scrambled_semantic=8&num_scrambled_causal=4&num_scrambled_schematic=4&participantId=9939035525C34E0CA5EAB5375AF3FBE7&assignmentId=0198c325-014a-7e3b-836e-35de343c836f&projectId=0198c320-653a-770c-93e4-41e10e7faa5f","9939035525C34E0CA5EAB5375AF3FBE7-2025-08-19-16-34-33","","30530","","[""<span style=\""color: red; font-size: 24px\""> NOW RECORDING</span><p>Please say out loud all the images you saw in part 1 of the experiment, as many as you can remember. The images can be said in any order.</p>""]","","2","package_causal"
"","","","","","image-button-response","19","404507","0.0-17.0-0.0","9939035525C34E0CA5EAB5375AF3FBE7","9939035525C34E0CA5EAB5375AF3FBE7","0198c325-014a-7e3b-836e-35de343c836f","0198c320-653a-770c-93e4-41e10e7faa5f","{""num_scrambled_semantic"":""8"",""num_scrambled_causal"":""4"",""num_scrambled_schematic"":""4"",""participantId"":""9939035525C34E0CA5EAB5375AF3FBE7"",""assignmentId"":""0198c325-014a-7e3b-836e-35de343c836f"",""projectId"":""0198c320-653a-770c-93e4-41e10e7faa5f""}","https://test12345.live/?num_scrambled_semantic=8&num_scrambled_causal=4&num_scrambled_schematic=4&participantId=9939035525C34E0CA5EAB5375AF3FBE7&assignmentId=0198c325-014a-7e3b-836e-35de343c836f&projectId=0198c320-653a-770c-93e4-41e10e7faa5f","9939035525C34E0CA5EAB5375AF3FBE7-2025-08-19-16-34-33","","null","","images/causal_sequence/saving_a_cat_causal/saving_a_cat_causal_0.png","null","",""
"","","","","","html-audio-response","20","428229","0.0-18.0","9939035525C34E0CA5EAB5375AF3FBE7","9939035525C34E0CA5EAB5375AF3FBE7","0198c325-014a-7e3b-836e-35de343c836f","0198c320-653a-770c-93e4-41e10e7faa5f","{""num_scrambled_semantic"":""8"",""num_scrambled_causal"":""4"",""num_scrambled_schematic"":""4"",""participantId"":""9939035525C34E0CA5EAB5375AF3FBE7"",""assignmentId"":""0198c325-014a-7e3b-836e-35de343c836f"",""projectId"":""0198c320-653a-770c-93e4-41e10e7faa5f""}","https://test12345.live/?num_scrambled_semantic=8&num_scrambled_causal=4&num_scrambled_schematic=4&participantId=9939035525C34E0CA5EAB5375AF3FBE7&assignmentId=0198c325-014a-7e3b-836e-35de343c836f&projectId=0198c320-653a-770c-93e4-41e10e7faa5f","9939035525C34E0CA5EAB5375AF3FBE7-2025-08-19-16-34-33","","22859","","[""<span style=\""color: red; font-size: 24px\""> NOW RECORDING</span><p>Please say out loud all the images you saw in part 1 of the experiment, as many as you can remember. The images can be said in any order.</p>""]","","2","saving_a_cat_causal"
"","","","","","image-button-response","21","434249","0.0-19.0-0.0","9939035525C34E0CA5EAB5375AF3FBE7","9939035525C34E0CA5EAB5375AF3FBE7","0198c325-014a-7e3b-836e-35de343c836f","0198c320-653a-770c-93e4-41e10e7faa5f","{""num_scrambled_semantic"":""8"",""num_scrambled_causal"":""4"",""num_scrambled_schematic"":""4"",""participantId"":""9939035525C34E0CA5EAB5375AF3FBE7"",""assignmentId"":""0198c325-014a-7e3b-836e-35de343c836f"",""projectId"":""0198c320-653a-770c-93e4-41e10e7faa5f""}","https://test12345.live/?num_scrambled_semantic=8&num_scrambled_causal=4&num_scrambled_schematic=4&participantId=9939035525C34E0CA5EAB5375AF3FBE7&assignmentId=0198c325-014a-7e3b-836e-35de343c836f&projectId=0198c320-653a-770c-93e4-41e10e7faa5f","9939035525C34E0CA5EAB5375AF3FBE7-2025-08-19-16-34-33","","null","","images/semantic_sequence/redecorating_semantic/redecorating_semantic_0.png","null","",""
"","","","","","html-audio-response","22","460508","0.0-20.0","9939035525C34E0CA5EAB5375AF3FBE7","9939035525C34E0CA5EAB5375AF3FBE7","0198c325-014a-7e3b-836e-35de343c836f","0198c320-653a-770c-93e4-41e10e7faa5f","{""num_scrambled_semantic"":""8"",""num_scrambled_causal"":""4"",""num_scrambled_schematic"":""4"",""participantId"":""9939035525C34E0CA5EAB5375AF3FBE7"",""assignmentId"":""0198c325-014a-7e3b-836e-35de343c836f"",""projectId"":""0198c320-653a-770c-93e4-41e10e7faa5f""}","https://test12345.live/?num_scrambled_semantic=8&num_scrambled_causal=4&num_scrambled_schematic=4&participantId=9939035525C34E0CA5EAB5375AF3FBE7&assignmentId=0198c325-014a-7e3b-836e-35de343c836f&projectId=0198c320-653a-770c-93e4-41e10e7faa5f","9939035525C34E0CA5EAB5375AF3FBE7-2025-08-19-16-34-33","","25246","","[""<span style=\""color: red; font-size: 24px\""> NOW RECORDING</span><p>Please say out loud all the images you saw in part 1 of the experiment, as many as you can remember. The images can be said in any order.</p>""]","","2","redecorating_semantic"
"","","","","","image-button-response","23","466532","0.0-21.0-0.0","9939035525C34E0CA5EAB5375AF3FBE7","9939035525C34E0CA5EAB5375AF3FBE7","0198c325-014a-7e3b-836e-35de343c836f","0198c320-653a-770c-93e4-41e10e7faa5f","{""num_scrambled_semantic"":""8"",""num_scrambled_causal"":""4"",""num_scrambled_schematic"":""4"",""participantId"":""9939035525C34E0CA5EAB5375AF3FBE7"",""assignmentId"":""0198c325-014a-7e3b-836e-35de343c836f"",""projectId"":""0198c320-653a-770c-93e4-41e10e7faa5f""}","https://test12345.live/?num_scrambled_semantic=8&num_scrambled_causal=4&num_scrambled_schematic=4&participantId=9939035525C34E0CA5EAB5375AF3FBE7&assignmentId=0198c325-014a-7e3b-836e-35de343c836f&projectId=0198c320-653a-770c-93e4-41e10e7faa5f","9939035525C34E0CA5EAB5375AF3FBE7-2025-08-19-16-34-33","","null","","images/semantic_sequence/maintaining_a_car_semantic/maintaining_a_car_semantic_0.png","null","",""
"","","","","","html-audio-response","24","475123","0.0-22.0","9939035525C34E0CA5EAB5375AF3FBE7","9939035525C34E0CA5EAB5375AF3FBE7","0198c325-014a-7e3b-836e-35de343c836f","0198c320-653a-770c-93e4-41e10e7faa5f","{""num_scrambled_semantic"":""8"",""num_scrambled_causal"":""4"",""num_scrambled_schematic"":""4"",""participantId"":""9939035525C34E0CA5EAB5375AF3FBE7"",""assignmentId"":""0198c325-014a-7e3b-836e-35de343c836f"",""projectId"":""0198c320-653a-770c-93e4-41e10e7faa5f""}","https://test12345.live/?num_scrambled_semantic=8&num_scrambled_causal=4&num_scrambled_schematic=4&participantId=9939035525C34E0CA5EAB5375AF3FBE7&assignmentId=0198c325-014a-7e3b-836e-35de343c836f&projectId=0198c320-653a-770c-93e4-41e10e7faa5f","9939035525C34E0CA5EAB5375AF3FBE7-2025-08-19-16-34-33","","7673","","[""<span style=\""color: red; font-size: 24px\""> NOW RECORDING</span><p>Please say out loud all the images you saw in part 1 of the experiment, as many as you can remember. The images can be said in any order.</p>""]","","2","maintaining_a_car_semantic"
"","","","","","image-button-response","25","481131","0.0-23.0-0.0","9939035525C34E0CA5EAB5375AF3FBE7","9939035525C34E0CA5EAB5375AF3FBE7","0198c325-014a-7e3b-836e-35de343c836f","0198c320-653a-770c-93e4-41e10e7faa5f","{""num_scrambled_semantic"":""8"",""num_scrambled_causal"":""4"",""num_scrambled_schematic"":""4"",""participantId"":""9939035525C34E0CA5EAB5375AF3FBE7"",""assignmentId"":""0198c325-014a-7e3b-836e-35de343c836f"",""projectId"":""0198c320-653a-770c-93e4-41e10e7faa5f""}","https://test12345.live/?num_scrambled_semantic=8&num_scrambled_causal=4&num_scrambled_schematic=4&participantId=9939035525C34E0CA5EAB5375AF3FBE7&assignmentId=0198c325-014a-7e3b-836e-35de343c836f&projectId=0198c320-653a-770c-93e4-41e10e7faa5f","9939035525C34E0CA5EAB5375AF3FBE7-2025-08-19-16-34-33","","null","","images/semantic_sequence/cat_care_semantic/cat_care_semantic_0.png","null","",""
"","","","","","html-audio-response","26","506829","0.0-24.0","9939035525C34E0CA5EAB5375AF3FBE7","9939035525C34E0CA5EAB5375AF3FBE7","0198c325-014a-7e3b-836e-35de343c836f","0198c320-653a-770c-93e4-41e10e7faa5f","{""num_scrambled_semantic"":""8"",""num_scrambled_causal"":""4"",""num_scrambled_schematic"":""4"",""participantId"":""9939035525C34E0CA5EAB5375AF3FBE7"",""assignmentId"":""0198c325-014a-7e3b-836e-35de343c836f"",""projectId"":""0198c320-653a-770c-93e4-41e10e7faa5f""}","https://test12345.live/?num_scrambled_semantic=8&num_scrambled_causal=4&num_scrambled_schematic=4&participantId=9939035525C34E0CA5EAB5375AF3FBE7&assignmentId=0198c325-014a-7e3b-836e-35de343c836f&projectId=0198c320-653a-770c-93e4-41e10e7faa5f","9939035525C34E0CA5EAB5375AF3FBE7-2025-08-19-16-34-33","","20791","","[""<span style=\""color: red; font-size: 24px\""> NOW RECORDING</span><p>Please say out loud all the images you saw in part 1 of the experiment, as many as you can remember. The images can be said in any order.</p>""]","","2","cat_care_semantic"
"","","","","","image-button-response","27","512840","0.0-25.0-0.0","9939035525C34E0CA5EAB5375AF3FBE7","9939035525C34E0CA5EAB5375AF3FBE7","0198c325-014a-7e3b-836e-35de343c836f","0198c320-653a-770c-93e4-41e10e7faa5f","{""num_scrambled_semantic"":""8"",""num_scrambled_causal"":""4"",""num_scrambled_schematic"":""4"",""participantId"":""9939035525C34E0CA5EAB5375AF3FBE7"",""assignmentId"":""0198c325-014a-7e3b-836e-35de343c836f"",""projectId"":""0198c320-653a-770c-93e4-41e10e7faa5f""}","https://test12345.live/?num_scrambled_semantic=8&num_scrambled_causal=4&num_scrambled_schematic=4&participantId=9939035525C34E0CA5EAB5375AF3FBE7&assignmentId=0198c325-014a-7e3b-836e-35de343c836f&projectId=0198c320-653a-770c-93e4-41e10e7faa5f","9939035525C34E0CA5EAB5375AF3FBE7-2025-08-19-16-34-33","","null","","images/causal_sequence/dog_causal/dog_causal_0.png","null","",""
"","","","","","html-audio-response","28","542623","0.0-26.0","9939035525C34E0CA5EAB5375AF3FBE7","9939035525C34E0CA5EAB5375AF3FBE7","0198c325-014a-7e3b-836e-35de343c836f","0198c320-653a-770c-93e4-41e10e7faa5f","{""num_scrambled_semantic"":""8"",""num_scrambled_causal"":""4"",""num_scrambled_schematic"":""4"",""participantId"":""9939035525C34E0CA5EAB5375AF3FBE7"",""assignmentId"":""0198c325-014a-7e3b-836e-35de343c836f"",""projectId"":""0198c320-653a-770c-93e4-41e10e7faa5f""}","https://test12345.live/?num_scrambled_semantic=8&num_scrambled_causal=4&num_scrambled_schematic=4&participantId=9939035525C34E0CA5EAB5375AF3FBE7&assignmentId=0198c325-014a-7e3b-836e-35de343c836f&projectId=0198c320-653a-770c-93e4-41e10e7faa5f","9939035525C34E0CA5EAB5375AF3FBE7-2025-08-19-16-34-33","","29124","","[""<span style=\""color: red; font-size: 24px\""> NOW RECORDING</span><p>Please say out loud all the images you saw in part 1 of the experiment, as many as you can remember. The images can be said in any order.</p>""]","","2","dog_causal"
"","","","","","image-button-response","29","548645","0.0-27.0-0.0","9939035525C34E0CA5EAB5375AF3FBE7","9939035525C34E0CA5EAB5375AF3FBE7","0198c325-014a-7e3b-836e-35de343c836f","0198c320-653a-770c-93e4-41e10e7faa5f","{""num_scrambled_semantic"":""8"",""num_scrambled_causal"":""4"",""num_scrambled_schematic"":""4"",""participantId"":""9939035525C34E0CA5EAB5375AF3FBE7"",""assignmentId"":""0198c325-014a-7e3b-836e-35de343c836f"",""projectId"":""0198c320-653a-770c-93e4-41e10e7faa5f""}","https://test12345.live/?num_scrambled_semantic=8&num_scrambled_causal=4&num_scrambled_schematic=4&participantId=9939035525C34E0CA5EAB5375AF3FBE7&assignmentId=0198c325-014a-7e3b-836e-35de343c836f&projectId=0198c320-653a-770c-93e4-41e10e7faa5f","9939035525C34E0CA5EAB5375AF3FBE7-2025-08-19-16-34-33","","null","","images/causal_sequence/the_performance_causal/the_performance_causal_0.png","null","",""
"","","","","","html-audio-response","30","577131","0.0-28.0","9939035525C34E0CA5EAB5375AF3FBE7","9939035525C34E0CA5EAB5375AF3FBE7","0198c325-014a-7e3b-836e-35de343c836f","0198c320-653a-770c-93e4-41e10e7faa5f","{""num_scrambled_semantic"":""8"",""num_scrambled_causal"":""4"",""num_scrambled_schematic"":""4"",""participantId"":""9939035525C34E0CA5EAB5375AF3FBE7"",""assignmentId"":""0198c325-014a-7e3b-836e-35de343c836f"",""projectId"":""0198c320-653a-770c-93e4-41e10e7faa5f""}","https://test12345.live/?num_scrambled_semantic=8&num_scrambled_causal=4&num_scrambled_schematic=4&participantId=9939035525C34E0CA5EAB5375AF3FBE7&assignmentId=0198c325-014a-7e3b-836e-35de343c836f&projectId=0198c320-653a-770c-93e4-41e10e7faa5f","9939035525C34E0CA5EAB5375AF3FBE7-2025-08-19-16-34-33","","27652","","[""<span style=\""color: red; font-size: 24px\""> NOW RECORDING</span><p>Please say out loud all the images you saw in part 1 of the experiment, as many as you can remember. The images can be said in any order.</p>""]","","2","the_performance_causal"
"","","","","","image-button-response","31","583140","0.0-29.0-0.0","9939035525C34E0CA5EAB5375AF3FBE7","9939035525C34E0CA5EAB5375AF3FBE7","0198c325-014a-7e3b-836e-35de343c836f","0198c320-653a-770c-93e4-41e10e7faa5f","{""num_scrambled_semantic"":""8"",""num_scrambled_causal"":""4"",""num_scrambled_schematic"":""4"",""participantId"":""9939035525C34E0CA5EAB5375AF3FBE7"",""assignmentId"":""0198c325-014a-7e3b-836e-35de343c836f"",""projectId"":""0198c320-653a-770c-93e4-41e10e7faa5f""}","https://test12345.live/?num_scrambled_semantic=8&num_scrambled_causal=4&num_scrambled_schematic=4&participantId=9939035525C34E0CA5EAB5375AF3FBE7&assignmentId=0198c325-014a-7e3b-836e-35de343c836f&projectId=0198c320-653a-770c-93e4-41e10e7faa5f","9939035525C34E0CA5EAB5375AF3FBE7-2025-08-19-16-34-33","","null","","images/semantic_sequence/housework_semantic/housework_semantic_0.png","null","",""
"","","","","","html-audio-response","32","596439","0.0-30.0","9939035525C34E0CA5EAB5375AF3FBE7","9939035525C34E0CA5EAB5375AF3FBE7","0198c325-014a-7e3b-836e-35de343c836f","0198c320-653a-770c-93e4-41e10e7faa5f","{""num_scrambled_semantic"":""8"",""num_scrambled_causal"":""4"",""num_scrambled_schematic"":""4"",""participantId"":""9939035525C34E0CA5EAB5375AF3FBE7"",""assignmentId"":""0198c325-014a-7e3b-836e-35de343c836f"",""projectId"":""0198c320-653a-770c-93e4-41e10e7faa5f""}","https://test12345.live/?num_scrambled_semantic=8&num_scrambled_causal=4&num_scrambled_schematic=4&participantId=9939035525C34E0CA5EAB5375AF3FBE7&assignmentId=0198c325-014a-7e3b-836e-35de343c836f&projectId=0198c320-653a-770c-93e4-41e10e7faa5f","9939035525C34E0CA5EAB5375AF3FBE7-2025-08-19-16-34-33","","12510","","[""<span style=\""color: red; font-size: 24px\""> NOW RECORDING</span><p>Please say out loud all the images you saw in part 1 of the experiment, as many as you can remember. The images can be said in any order.</p>""]","","9","housework_semantic"
"","","","","","image-button-response","33","602452","0.0-31.0-0.0","9939035525C34E0CA5EAB5375AF3FBE7","9939035525C34E0CA5EAB5375AF3FBE7","0198c325-014a-7e3b-836e-35de343c836f","0198c320-653a-770c-93e4-41e10e7faa5f","{""num_scrambled_semantic"":""8"",""num_scrambled_causal"":""4"",""num_scrambled_schematic"":""4"",""participantId"":""9939035525C34E0CA5EAB5375AF3FBE7"",""assignmentId"":""0198c325-014a-7e3b-836e-35de343c836f"",""projectId"":""0198c320-653a-770c-93e4-41e10e7faa5f""}","https://test12345.live/?num_scrambled_semantic=8&num_scrambled_causal=4&num_scrambled_schematic=4&participantId=9939035525C34E0CA5EAB5375AF3FBE7&assignmentId=0198c325-014a-7e3b-836e-35de343c836f&projectId=0198c320-653a-770c-93e4-41e10e7faa5f","9939035525C34E0CA5EAB5375AF3FBE7-2025-08-19-16-34-33","","null","","images/causal_sequence/museum_causal/museum_causal_0.png","null","",""
"","","","","","html-audio-response","34","612004","0.0-32.0","9939035525C34E0CA5EAB5375AF3FBE7","9939035525C34E0CA5EAB5375AF3FBE7","0198c325-014a-7e3b-836e-35de343c836f","0198c320-653a-770c-93e4-41e10e7faa5f","{""num_scrambled_semantic"":""8"",""num_scrambled_causal"":""4"",""num_scrambled_schematic"":""4"",""participantId"":""9939035525C34E0CA5EAB5375AF3FBE7"",""assignmentId"":""0198c325-014a-7e3b-836e-35de343c836f"",""projectId"":""0198c320-653a-770c-93e4-41e10e7faa5f""}","https://test12345.live/?num_scrambled_semantic=8&num_scrambled_causal=4&num_scrambled_schematic=4&participantId=9939035525C34E0CA5EAB5375AF3FBE7&assignmentId=0198c325-014a-7e3b-836e-35de343c836f&projectId=0198c320-653a-770c-93e4-41e10e7faa5f","9939035525C34E0CA5EAB5375AF3FBE7-2025-08-19-16-34-33","","8665","","[""<span style=\""color: red; font-size: 24px\""> NOW RECORDING</span><p>Please say out loud all the images you saw in part 1 of the experiment, as many as you can remember. The images can be said in any order.</p>""]","","2","museum_causal"
"","","","","","image-button-response","35","618013","0.0-33.0-0.0","9939035525C34E0CA5EAB5375AF3FBE7","9939035525C34E0CA5EAB5375AF3FBE7","0198c325-014a-7e3b-836e-35de343c836f","0198c320-653a-770c-93e4-41e10e7faa5f","{""num_scrambled_semantic"":""8"",""num_scrambled_causal"":""4"",""num_scrambled_schematic"":""4"",""participantId"":""9939035525C34E0CA5EAB5375AF3FBE7"",""assignmentId"":""0198c325-014a-7e3b-836e-35de343c836f"",""projectId"":""0198c320-653a-770c-93e4-41e10e7faa5f""}","https://test12345.live/?num_scrambled_semantic=8&num_scrambled_causal=4&num_scrambled_schematic=4&participantId=9939035525C34E0CA5EAB5375AF3FBE7&assignmentId=0198c325-014a-7e3b-836e-35de343c836f&projectId=0198c320-653a-770c-93e4-41e10e7faa5f","9939035525C34E0CA5EAB5375AF3FBE7-2025-08-19-16-34-33","","null","","images/semantic_sequence/physical_activity_semantic/physical_activity_semantic_0.png","null","",""
"","","","","","html-audio-response","36","631771","0.0-34.0","9939035525C34E0CA5EAB5375AF3FBE7","9939035525C34E0CA5EAB5375AF3FBE7","0198c325-014a-7e3b-836e-35de343c836f","0198c320-653a-770c-93e4-41e10e7faa5f","{""num_scrambled_semantic"":""8"",""num_scrambled_causal"":""4"",""num_scrambled_schematic"":""4"",""participantId"":""9939035525C34E0CA5EAB5375AF3FBE7"",""assignmentId"":""0198c325-014a-7e3b-836e-35de343c836f"",""projectId"":""0198c320-653a-770c-93e4-41e10e7faa5f""}","https://test12345.live/?num_scrambled_semantic=8&num_scrambled_causal=4&num_scrambled_schematic=4&participantId=9939035525C34E0CA5EAB5375AF3FBE7&assignmentId=0198c325-014a-7e3b-836e-35de343c836f&projectId=0198c320-653a-770c-93e4-41e10e7faa5f","9939035525C34E0CA5EAB5375AF3FBE7-2025-08-19-16-34-33","","12935","","[""<span style=\""color: red; font-size: 24px\""> NOW RECORDING</span><p>Please say out loud all the images you saw in part 1 of the experiment, as many as you can remember. The images can be said in any order.</p>""]","","2","physical_activity_semantic"
"","","","","","survey-text","37","642160","0.0-35.0","9939035525C34E0CA5EAB5375AF3FBE7","9939035525C34E0CA5EAB5375AF3FBE7","0198c325-014a-7e3b-836e-35de343c836f","0198c320-653a-770c-93e4-41e10e7faa5f","{""num_scrambled_semantic"":""8"",""num_scrambled_causal"":""4"",""num_scrambled_schematic"":""4"",""participantId"":""9939035525C34E0CA5EAB5375AF3FBE7"",""assignmentId"":""0198c325-014a-7e3b-836e-35de343c836f"",""projectId"":""0198c320-653a-770c-93e4-41e10e7faa5f""}","https://test12345.live/?num_scrambled_semantic=8&num_scrambled_causal=4&num_scrambled_schematic=4&participantId=9939035525C34E0CA5EAB5375AF3FBE7&assignmentId=0198c325-014a-7e3b-836e-35de343c836f&projectId=0198c320-653a-770c-93e4-41e10e7faa5f","9939035525C34E0CA5EAB5375AF3FBE7-2025-08-19-16-34-33","","10380","","","{""Q0"":""FEMALE"",""Q1"":""32""}","",""
"","","","","","instructions","38","647493","0.0-36.0","9939035525C34E0CA5EAB5375AF3FBE7","9939035525C34E0CA5EAB5375AF3FBE7","0198c325-014a-7e3b-836e-35de343c836f","0198c320-653a-770c-93e4-41e10e7faa5f","{""num_scrambled_semantic"":""8"",""num_scrambled_causal"":""4"",""num_scrambled_schematic"":""4"",""participantId"":""9939035525C34E0CA5EAB5375AF3FBE7"",""assignmentId"":""0198c325-014a-7e3b-836e-35de343c836f"",""projectId"":""0198c320-653a-770c-93e4-41e10e7faa5f""}","https://test12345.live/?num_scrambled_semantic=8&num_scrambled_causal=4&num_scrambled_schematic=4&participantId=9939035525C34E0CA5EAB5375AF3FBE7&assignmentId=0198c325-014a-7e3b-836e-35de343c836f&projectId=0198c320-653a-770c-93e4-41e10e7faa5f","9939035525C34E0CA5EAB5375AF3FBE7-2025-08-19-16-34-33","[{""page_index"":0,""viewing_time"":5332}]","5332","","","","",""
"","","","","","survey-text","39","650291","0.0-37.0","9939035525C34E0CA5EAB5375AF3FBE7","9939035525C34E0CA5EAB5375AF3FBE7","0198c325-014a-7e3b-836e-35de343c836f","0198c320-653a-770c-93e4-41e10e7faa5f","{""num_scrambled_semantic"":""8"",""num_scrambled_causal"":""4"",""num_scrambled_schematic"":""4"",""participantId"":""9939035525C34E0CA5EAB5375AF3FBE7"",""assignmentId"":""0198c325-014a-7e3b-836e-35de343c836f"",""projectId"":""0198c320-653a-770c-93e4-41e10e7faa5f""}","https://test12345.live/?num_scrambled_semantic=8&num_scrambled_causal=4&num_scrambled_schematic=4&participantId=9939035525C34E0CA5EAB5375AF3FBE7&assignmentId=0198c325-014a-7e3b-836e-35de343c836f&projectId=0198c320-653a-770c-93e4-41e10e7faa5f","9939035525C34E0CA5EAB5375AF3FBE7-2025-08-19-16-34-33","","2796","","","{""Q0"":""AJFHBG896""}","",""
