"success","timeout","failed_images","failed_audio","failed_video","trial_type","trial_index","time_elapsed","internal_node_id","subject","subject_id","study_id","session_id","urlvar","current_url","audio_id","view_history","rt","device_id","stimulus","response","estimated_stimulus_onset","seq_name"
"true","false","[]","[]","[]","preload","0","1682","0.0-0.0","99C5C62D646A41BDA3AB280D794D9DB0","99C5C62D646A41BDA3AB280D794D9DB0","501d0af2-b94d-41f5-8e25-96c7c25dc1a3","9596d7a2-d401-47b1-aedd-70105f5f2f42","{""part"":""2"",""participantId"":""99C5C62D646A41BDA3AB280D794D9DB0"",""assignmentId"":""501d0af2-b94d-41f5-8e25-96c7c25dc1a3"",""projectId"":""9596d7a2-d401-47b1-aedd-70105f5f2f42""}","https://test12345.live/?part=2&participantId=99C5C62D646A41BDA3AB280D794D9DB0&assignmentId=501d0af2-b94d-41f5-8e25-96c7c25dc1a3&projectId=9596d7a2-d401-47b1-aedd-70105f5f2f42","99C5C62D646A41BDA3AB280D794D9DB0-2025-05-28-18-17-03","","","","","","",""
"","","","","","instructions","1","53400","0.0-1.0","99C5C62D646A41BDA3AB280D794D9DB0","99C5C62D646A41BDA3AB280D794D9DB0","501d0af2-b94d-41f5-8e25-96c7c25dc1a3","9596d7a2-d401-47b1-aedd-70105f5f2f42","{""part"":""2"",""participantId"":""99C5C62D646A41BDA3AB280D794D9DB0"",""assignmentId"":""501d0af2-b94d-41f5-8e25-96c7c25dc1a3"",""projectId"":""9596d7a2-d401-47b1-aedd-70105f5f2f42""}","https://test12345.live/?part=2&participantId=99C5C62D646A41BDA3AB280D794D9DB0&assignmentId=501d0af2-b94d-41f5-8e25-96c7c25dc1a3&projectId=9596d7a2-d401-47b1-aedd-70105f5f2f42","99C5C62D646A41BDA3AB280D794D9DB0-2025-05-28-18-17-03","[{""page_index"":0,""viewing_time"":51718}]","51719","","","","",""
"","","","","","instructions","2","56248","0.0-2.0","99C5C62D646A41BDA3AB280D794D9DB0","99C5C62D646A41BDA3AB280D794D9DB0","501d0af2-b94d-41f5-8e25-96c7c25dc1a3","9596d7a2-d401-47b1-aedd-70105f5f2f42","{""part"":""2"",""participantId"":""99C5C62D646A41BDA3AB280D794D9DB0"",""assignmentId"":""501d0af2-b94d-41f5-8e25-96c7c25dc1a3"",""projectId"":""9596d7a2-d401-47b1-aedd-70105f5f2f42""}","https://test12345.live/?part=2&participantId=99C5C62D646A41BDA3AB280D794D9DB0&assignmentId=501d0af2-b94d-41f5-8e25-96c7c25dc1a3&projectId=9596d7a2-d401-47b1-aedd-70105f5f2f42","99C5C62D646A41BDA3AB280D794D9DB0-2025-05-28-18-17-03","[{""page_index"":0,""viewing_time"":2847}]","2847","","","","",""
"true","","","","","fullscreen","3","58833","0.0-3.0","99C5C62D646A41BDA3AB280D794D9DB0","99C5C62D646A41BDA3AB280D794D9DB0","501d0af2-b94d-41f5-8e25-96c7c25dc1a3","9596d7a2-d401-47b1-aedd-70105f5f2f42","{""part"":""2"",""participantId"":""99C5C62D646A41BDA3AB280D794D9DB0"",""assignmentId"":""501d0af2-b94d-41f5-8e25-96c7c25dc1a3"",""projectId"":""9596d7a2-d401-47b1-aedd-70105f5f2f42""}","https://test12345.live/?part=2&participantId=99C5C62D646A41BDA3AB280D794D9DB0&assignmentId=501d0af2-b94d-41f5-8e25-96c7c25dc1a3&projectId=9596d7a2-d401-47b1-aedd-70105f5f2f42","99C5C62D646A41BDA3AB280D794D9DB0-2025-05-28-18-17-03","","1582","","","","",""
"","","","","","initialize-microphone","4","62464","0.0-4.0-0.0","99C5C62D646A41BDA3AB280D794D9DB0","99C5C62D646A41BDA3AB280D794D9DB0","501d0af2-b94d-41f5-8e25-96c7c25dc1a3","9596d7a2-d401-47b1-aedd-70105f5f2f42","{""part"":""2"",""participantId"":""99C5C62D646A41BDA3AB280D794D9DB0"",""assignmentId"":""501d0af2-b94d-41f5-8e25-96c7c25dc1a3"",""projectId"":""9596d7a2-d401-47b1-aedd-70105f5f2f42""}","https://test12345.live/?part=2&participantId=99C5C62D646A41BDA3AB280D794D9DB0&assignmentId=501d0af2-b94d-41f5-8e25-96c7c25dc1a3&projectId=9596d7a2-d401-47b1-aedd-70105f5f2f42","99C5C62D646A41BDA3AB280D794D9DB0-2025-05-28-18-17-03","","","df715ffbcfeafe18c40829864ac27d5d233ae577659d208ce63d31ac58ad9d06","","","",""
"","","","","","html-audio-response","5","71335","0.0-4.0-1.0","99C5C62D646A41BDA3AB280D794D9DB0","99C5C62D646A41BDA3AB280D794D9DB0","501d0af2-b94d-41f5-8e25-96c7c25dc1a3","9596d7a2-d401-47b1-aedd-70105f5f2f42","{""part"":""2"",""participantId"":""99C5C62D646A41BDA3AB280D794D9DB0"",""assignmentId"":""501d0af2-b94d-41f5-8e25-96c7c25dc1a3"",""projectId"":""9596d7a2-d401-47b1-aedd-70105f5f2f42""}","https://test12345.live/?part=2&participantId=99C5C62D646A41BDA3AB280D794D9DB0&assignmentId=501d0af2-b94d-41f5-8e25-96c7c25dc1a3&projectId=9596d7a2-d401-47b1-aedd-70105f5f2f42","99C5C62D646A41BDA3AB280D794D9DB0-2025-05-28-18-17-03","","3676","","<span style=""color: red; font-size: 24px""> NOW RECORDING</span>
        <p>Please test Microphone</p>","","2",""
"","","","","","html-button-response","6","72832","0.0-4.0-2.0","99C5C62D646A41BDA3AB280D794D9DB0","99C5C62D646A41BDA3AB280D794D9DB0","501d0af2-b94d-41f5-8e25-96c7c25dc1a3","9596d7a2-d401-47b1-aedd-70105f5f2f42","{""part"":""2"",""participantId"":""99C5C62D646A41BDA3AB280D794D9DB0"",""assignmentId"":""501d0af2-b94d-41f5-8e25-96c7c25dc1a3"",""projectId"":""9596d7a2-d401-47b1-aedd-70105f5f2f42""}","https://test12345.live/?part=2&participantId=99C5C62D646A41BDA3AB280D794D9DB0&assignmentId=501d0af2-b94d-41f5-8e25-96c7c25dc1a3&projectId=9596d7a2-d401-47b1-aedd-70105f5f2f42","99C5C62D646A41BDA3AB280D794D9DB0-2025-05-28-18-17-03","","1495","","<p style=""font-size:48px; color:red;"">Is Microphone OK?</p>","1","",""
"","","","","","instructions","7","126717","0.0-5.0","99C5C62D646A41BDA3AB280D794D9DB0","99C5C62D646A41BDA3AB280D794D9DB0","501d0af2-b94d-41f5-8e25-96c7c25dc1a3","9596d7a2-d401-47b1-aedd-70105f5f2f42","{""part"":""2"",""participantId"":""99C5C62D646A41BDA3AB280D794D9DB0"",""assignmentId"":""501d0af2-b94d-41f5-8e25-96c7c25dc1a3"",""projectId"":""9596d7a2-d401-47b1-aedd-70105f5f2f42""}","https://test12345.live/?part=2&participantId=99C5C62D646A41BDA3AB280D794D9DB0&assignmentId=501d0af2-b94d-41f5-8e25-96c7c25dc1a3&projectId=9596d7a2-d401-47b1-aedd-70105f5f2f42","99C5C62D646A41BDA3AB280D794D9DB0-2025-05-28-18-17-03","[{""page_index"":0,""viewing_time"":1333},{""page_index"":1,""viewing_time"":5832},{""page_index"":2,""viewing_time"":46721}]","53887","","","","",""
"","","","","","image-button-response","8","132727","0.0-6.0-0.0","99C5C62D646A41BDA3AB280D794D9DB0","99C5C62D646A41BDA3AB280D794D9DB0","501d0af2-b94d-41f5-8e25-96c7c25dc1a3","9596d7a2-d401-47b1-aedd-70105f5f2f42","{""part"":""2"",""participantId"":""99C5C62D646A41BDA3AB280D794D9DB0"",""assignmentId"":""501d0af2-b94d-41f5-8e25-96c7c25dc1a3"",""projectId"":""9596d7a2-d401-47b1-aedd-70105f5f2f42""}","https://test12345.live/?part=2&participantId=99C5C62D646A41BDA3AB280D794D9DB0&assignmentId=501d0af2-b94d-41f5-8e25-96c7c25dc1a3&projectId=9596d7a2-d401-47b1-aedd-70105f5f2f42","99C5C62D646A41BDA3AB280D794D9DB0-2025-05-28-18-17-03","","null","","images/instructions/movie_0.png","null","",""
"","","","","","html-audio-response","9","158230","0.0-7.0","99C5C62D646A41BDA3AB280D794D9DB0","99C5C62D646A41BDA3AB280D794D9DB0","501d0af2-b94d-41f5-8e25-96c7c25dc1a3","9596d7a2-d401-47b1-aedd-70105f5f2f42","{""part"":""2"",""participantId"":""99C5C62D646A41BDA3AB280D794D9DB0"",""assignmentId"":""501d0af2-b94d-41f5-8e25-96c7c25dc1a3"",""projectId"":""9596d7a2-d401-47b1-aedd-70105f5f2f42""}","https://test12345.live/?part=2&participantId=99C5C62D646A41BDA3AB280D794D9DB0&assignmentId=501d0af2-b94d-41f5-8e25-96c7c25dc1a3&projectId=9596d7a2-d401-47b1-aedd-70105f5f2f42","99C5C62D646A41BDA3AB280D794D9DB0-2025-05-28-18-17-03","","24015","","[""<span style=\""color: red; font-size: 24px\""> NOW RECORDING</span><p>Please say out loud all the images you saw in part 1 of the experiment, in the exact order you saw them. Try to recall as many images as you can, but remember: getting the order right is more important than the number of images you recall.</p>""]","","4",""
"","","","","","instructions","10","161397","0.0-8.0","99C5C62D646A41BDA3AB280D794D9DB0","99C5C62D646A41BDA3AB280D794D9DB0","501d0af2-b94d-41f5-8e25-96c7c25dc1a3","9596d7a2-d401-47b1-aedd-70105f5f2f42","{""part"":""2"",""participantId"":""99C5C62D646A41BDA3AB280D794D9DB0"",""assignmentId"":""501d0af2-b94d-41f5-8e25-96c7c25dc1a3"",""projectId"":""9596d7a2-d401-47b1-aedd-70105f5f2f42""}","https://test12345.live/?part=2&participantId=99C5C62D646A41BDA3AB280D794D9DB0&assignmentId=501d0af2-b94d-41f5-8e25-96c7c25dc1a3&projectId=9596d7a2-d401-47b1-aedd-70105f5f2f42","99C5C62D646A41BDA3AB280D794D9DB0-2025-05-28-18-17-03","[{""page_index"":0,""viewing_time"":3162}]","3162","","","","",""
"","","","","","image-button-response","11","167412","0.0-9.0-0.0","99C5C62D646A41BDA3AB280D794D9DB0","99C5C62D646A41BDA3AB280D794D9DB0","501d0af2-b94d-41f5-8e25-96c7c25dc1a3","9596d7a2-d401-47b1-aedd-70105f5f2f42","{""part"":""2"",""participantId"":""99C5C62D646A41BDA3AB280D794D9DB0"",""assignmentId"":""501d0af2-b94d-41f5-8e25-96c7c25dc1a3"",""projectId"":""9596d7a2-d401-47b1-aedd-70105f5f2f42""}","https://test12345.live/?part=2&participantId=99C5C62D646A41BDA3AB280D794D9DB0&assignmentId=501d0af2-b94d-41f5-8e25-96c7c25dc1a3&projectId=9596d7a2-d401-47b1-aedd-70105f5f2f42","99C5C62D646A41BDA3AB280D794D9DB0-2025-05-28-18-17-03","","null","","images/semantic_sequence/market_semantic/market_semantic_0.png","null","",""
"","","","","","html-audio-response","12","195182","0.0-10.0","99C5C62D646A41BDA3AB280D794D9DB0","99C5C62D646A41BDA3AB280D794D9DB0","501d0af2-b94d-41f5-8e25-96c7c25dc1a3","9596d7a2-d401-47b1-aedd-70105f5f2f42","{""part"":""2"",""participantId"":""99C5C62D646A41BDA3AB280D794D9DB0"",""assignmentId"":""501d0af2-b94d-41f5-8e25-96c7c25dc1a3"",""projectId"":""9596d7a2-d401-47b1-aedd-70105f5f2f42""}","https://test12345.live/?part=2&participantId=99C5C62D646A41BDA3AB280D794D9DB0&assignmentId=501d0af2-b94d-41f5-8e25-96c7c25dc1a3&projectId=9596d7a2-d401-47b1-aedd-70105f5f2f42","99C5C62D646A41BDA3AB280D794D9DB0-2025-05-28-18-17-03","","26842","","[""<span style=\""color: red; font-size: 24px\""> NOW RECORDING</span><p>Please say out loud all the images you saw in part 1 of the experiment, in the exact order you saw them. Try to recall as many images as you can, but remember: getting the order right is more important than the number of images you recall. </p>""]","","14","market_semantic"
"","","","","","image-button-response","13","201191","0.0-11.0-0.0","99C5C62D646A41BDA3AB280D794D9DB0","99C5C62D646A41BDA3AB280D794D9DB0","501d0af2-b94d-41f5-8e25-96c7c25dc1a3","9596d7a2-d401-47b1-aedd-70105f5f2f42","{""part"":""2"",""participantId"":""99C5C62D646A41BDA3AB280D794D9DB0"",""assignmentId"":""501d0af2-b94d-41f5-8e25-96c7c25dc1a3"",""projectId"":""9596d7a2-d401-47b1-aedd-70105f5f2f42""}","https://test12345.live/?part=2&participantId=99C5C62D646A41BDA3AB280D794D9DB0&assignmentId=501d0af2-b94d-41f5-8e25-96c7c25dc1a3&projectId=9596d7a2-d401-47b1-aedd-70105f5f2f42","99C5C62D646A41BDA3AB280D794D9DB0-2025-05-28-18-17-03","","null","","images/causal_sequence/package_causal/package_causal_0.png","null","",""
"","","","","","html-audio-response","14","237331","0.0-12.0","99C5C62D646A41BDA3AB280D794D9DB0","99C5C62D646A41BDA3AB280D794D9DB0","501d0af2-b94d-41f5-8e25-96c7c25dc1a3","9596d7a2-d401-47b1-aedd-70105f5f2f42","{""part"":""2"",""participantId"":""99C5C62D646A41BDA3AB280D794D9DB0"",""assignmentId"":""501d0af2-b94d-41f5-8e25-96c7c25dc1a3"",""projectId"":""9596d7a2-d401-47b1-aedd-70105f5f2f42""}","https://test12345.live/?part=2&participantId=99C5C62D646A41BDA3AB280D794D9DB0&assignmentId=501d0af2-b94d-41f5-8e25-96c7c25dc1a3&projectId=9596d7a2-d401-47b1-aedd-70105f5f2f42","99C5C62D646A41BDA3AB280D794D9DB0-2025-05-28-18-17-03","","34599","","[""<span style=\""color: red; font-size: 24px\""> NOW RECORDING</span><p>Please say out loud all the images you saw in part 1 of the experiment, in the exact order you saw them. Try to recall as many images as you can, but remember: getting the order right is more important than the number of images you recall. </p>""]","","1","package_causal"
"","","","","","image-button-response","15","243342","0.0-13.0-0.0","99C5C62D646A41BDA3AB280D794D9DB0","99C5C62D646A41BDA3AB280D794D9DB0","501d0af2-b94d-41f5-8e25-96c7c25dc1a3","9596d7a2-d401-47b1-aedd-70105f5f2f42","{""part"":""2"",""participantId"":""99C5C62D646A41BDA3AB280D794D9DB0"",""assignmentId"":""501d0af2-b94d-41f5-8e25-96c7c25dc1a3"",""projectId"":""9596d7a2-d401-47b1-aedd-70105f5f2f42""}","https://test12345.live/?part=2&participantId=99C5C62D646A41BDA3AB280D794D9DB0&assignmentId=501d0af2-b94d-41f5-8e25-96c7c25dc1a3&projectId=9596d7a2-d401-47b1-aedd-70105f5f2f42","99C5C62D646A41BDA3AB280D794D9DB0-2025-05-28-18-17-03","","null","","images/causal_sequence/coin_causal/coin_causal_0.png","null","",""
"","","","","","html-audio-response","16","274365","0.0-14.0","99C5C62D646A41BDA3AB280D794D9DB0","99C5C62D646A41BDA3AB280D794D9DB0","501d0af2-b94d-41f5-8e25-96c7c25dc1a3","9596d7a2-d401-47b1-aedd-70105f5f2f42","{""part"":""2"",""participantId"":""99C5C62D646A41BDA3AB280D794D9DB0"",""assignmentId"":""501d0af2-b94d-41f5-8e25-96c7c25dc1a3"",""projectId"":""9596d7a2-d401-47b1-aedd-70105f5f2f42""}","https://test12345.live/?part=2&participantId=99C5C62D646A41BDA3AB280D794D9DB0&assignmentId=501d0af2-b94d-41f5-8e25-96c7c25dc1a3&projectId=9596d7a2-d401-47b1-aedd-70105f5f2f42","99C5C62D646A41BDA3AB280D794D9DB0-2025-05-28-18-17-03","","30196","","[""<span style=\""color: red; font-size: 24px\""> NOW RECORDING</span><p>Please say out loud all the images you saw in part 1 of the experiment, in the exact order you saw them. Try to recall as many images as you can, but remember: getting the order right is more important than the number of images you recall. </p>""]","","3","coin_causal"
"","","","","","image-button-response","17","280386","0.0-15.0-0.0","99C5C62D646A41BDA3AB280D794D9DB0","99C5C62D646A41BDA3AB280D794D9DB0","501d0af2-b94d-41f5-8e25-96c7c25dc1a3","9596d7a2-d401-47b1-aedd-70105f5f2f42","{""part"":""2"",""participantId"":""99C5C62D646A41BDA3AB280D794D9DB0"",""assignmentId"":""501d0af2-b94d-41f5-8e25-96c7c25dc1a3"",""projectId"":""9596d7a2-d401-47b1-aedd-70105f5f2f42""}","https://test12345.live/?part=2&participantId=99C5C62D646A41BDA3AB280D794D9DB0&assignmentId=501d0af2-b94d-41f5-8e25-96c7c25dc1a3&projectId=9596d7a2-d401-47b1-aedd-70105f5f2f42","99C5C62D646A41BDA3AB280D794D9DB0-2025-05-28-18-17-03","","null","","images/schematic_sequence/dinner_party_scheme/dinner_party_scheme_0.png","null","",""
"","","","","","html-audio-response","18","306916","0.0-16.0","99C5C62D646A41BDA3AB280D794D9DB0","99C5C62D646A41BDA3AB280D794D9DB0","501d0af2-b94d-41f5-8e25-96c7c25dc1a3","9596d7a2-d401-47b1-aedd-70105f5f2f42","{""part"":""2"",""participantId"":""99C5C62D646A41BDA3AB280D794D9DB0"",""assignmentId"":""501d0af2-b94d-41f5-8e25-96c7c25dc1a3"",""projectId"":""9596d7a2-d401-47b1-aedd-70105f5f2f42""}","https://test12345.live/?part=2&participantId=99C5C62D646A41BDA3AB280D794D9DB0&assignmentId=501d0af2-b94d-41f5-8e25-96c7c25dc1a3&projectId=9596d7a2-d401-47b1-aedd-70105f5f2f42","99C5C62D646A41BDA3AB280D794D9DB0-2025-05-28-18-17-03","","25690","","[""<span style=\""color: red; font-size: 24px\""> NOW RECORDING</span><p>Please say out loud all the images you saw in part 1 of the experiment, in the exact order you saw them. Try to recall as many images as you can, but remember: getting the order right is more important than the number of images you recall. </p>""]","","2","dinner_party_scheme"
"","","","","","image-button-response","19","312939","0.0-17.0-0.0","99C5C62D646A41BDA3AB280D794D9DB0","99C5C62D646A41BDA3AB280D794D9DB0","501d0af2-b94d-41f5-8e25-96c7c25dc1a3","9596d7a2-d401-47b1-aedd-70105f5f2f42","{""part"":""2"",""participantId"":""99C5C62D646A41BDA3AB280D794D9DB0"",""assignmentId"":""501d0af2-b94d-41f5-8e25-96c7c25dc1a3"",""projectId"":""9596d7a2-d401-47b1-aedd-70105f5f2f42""}","https://test12345.live/?part=2&participantId=99C5C62D646A41BDA3AB280D794D9DB0&assignmentId=501d0af2-b94d-41f5-8e25-96c7c25dc1a3&projectId=9596d7a2-d401-47b1-aedd-70105f5f2f42","99C5C62D646A41BDA3AB280D794D9DB0-2025-05-28-18-17-03","","null","","images/semantic_sequence/self_care_activities_semantic/self_care_activities_semantic_0.png","null","",""
"","","","","","html-audio-response","20","336016","0.0-18.0","99C5C62D646A41BDA3AB280D794D9DB0","99C5C62D646A41BDA3AB280D794D9DB0","501d0af2-b94d-41f5-8e25-96c7c25dc1a3","9596d7a2-d401-47b1-aedd-70105f5f2f42","{""part"":""2"",""participantId"":""99C5C62D646A41BDA3AB280D794D9DB0"",""assignmentId"":""501d0af2-b94d-41f5-8e25-96c7c25dc1a3"",""projectId"":""9596d7a2-d401-47b1-aedd-70105f5f2f42""}","https://test12345.live/?part=2&participantId=99C5C62D646A41BDA3AB280D794D9DB0&assignmentId=501d0af2-b94d-41f5-8e25-96c7c25dc1a3&projectId=9596d7a2-d401-47b1-aedd-70105f5f2f42","99C5C62D646A41BDA3AB280D794D9DB0-2025-05-28-18-17-03","","21979","","[""<span style=\""color: red; font-size: 24px\""> NOW RECORDING</span><p>Please say out loud all the images you saw in part 1 of the experiment, in the exact order you saw them. Try to recall as many images as you can, but remember: getting the order right is more important than the number of images you recall. </p>""]","","2","self_care_activities_semantic"
"","","","","","image-button-response","21","342029","0.0-19.0-0.0","99C5C62D646A41BDA3AB280D794D9DB0","99C5C62D646A41BDA3AB280D794D9DB0","501d0af2-b94d-41f5-8e25-96c7c25dc1a3","9596d7a2-d401-47b1-aedd-70105f5f2f42","{""part"":""2"",""participantId"":""99C5C62D646A41BDA3AB280D794D9DB0"",""assignmentId"":""501d0af2-b94d-41f5-8e25-96c7c25dc1a3"",""projectId"":""9596d7a2-d401-47b1-aedd-70105f5f2f42""}","https://test12345.live/?part=2&participantId=99C5C62D646A41BDA3AB280D794D9DB0&assignmentId=501d0af2-b94d-41f5-8e25-96c7c25dc1a3&projectId=9596d7a2-d401-47b1-aedd-70105f5f2f42","99C5C62D646A41BDA3AB280D794D9DB0-2025-05-28-18-17-03","","null","","images/schematic_sequence/hotel_scheme/hotel_scheme_0.png","null","",""
"","","","","","html-audio-response","22","367597","0.0-20.0","99C5C62D646A41BDA3AB280D794D9DB0","99C5C62D646A41BDA3AB280D794D9DB0","501d0af2-b94d-41f5-8e25-96c7c25dc1a3","9596d7a2-d401-47b1-aedd-70105f5f2f42","{""part"":""2"",""participantId"":""99C5C62D646A41BDA3AB280D794D9DB0"",""assignmentId"":""501d0af2-b94d-41f5-8e25-96c7c25dc1a3"",""projectId"":""9596d7a2-d401-47b1-aedd-70105f5f2f42""}","https://test12345.live/?part=2&participantId=99C5C62D646A41BDA3AB280D794D9DB0&assignmentId=501d0af2-b94d-41f5-8e25-96c7c25dc1a3&projectId=9596d7a2-d401-47b1-aedd-70105f5f2f42","99C5C62D646A41BDA3AB280D794D9DB0-2025-05-28-18-17-03","","24475","","[""<span style=\""color: red; font-size: 24px\""> NOW RECORDING</span><p>Please say out loud all the images you saw in part 1 of the experiment, in the exact order you saw them. Try to recall as many images as you can, but remember: getting the order right is more important than the number of images you recall. </p>""]","","2","hotel_scheme"
"","","","","","image-button-response","23","373608","0.0-21.0-0.0","99C5C62D646A41BDA3AB280D794D9DB0","99C5C62D646A41BDA3AB280D794D9DB0","501d0af2-b94d-41f5-8e25-96c7c25dc1a3","9596d7a2-d401-47b1-aedd-70105f5f2f42","{""part"":""2"",""participantId"":""99C5C62D646A41BDA3AB280D794D9DB0"",""assignmentId"":""501d0af2-b94d-41f5-8e25-96c7c25dc1a3"",""projectId"":""9596d7a2-d401-47b1-aedd-70105f5f2f42""}","https://test12345.live/?part=2&participantId=99C5C62D646A41BDA3AB280D794D9DB0&assignmentId=501d0af2-b94d-41f5-8e25-96c7c25dc1a3&projectId=9596d7a2-d401-47b1-aedd-70105f5f2f42","99C5C62D646A41BDA3AB280D794D9DB0-2025-05-28-18-17-03","","null","","images/schematic_sequence/flight_scheme/flight_scheme_0.png","null","",""
"","","","","","html-audio-response","24","401113","0.0-22.0","99C5C62D646A41BDA3AB280D794D9DB0","99C5C62D646A41BDA3AB280D794D9DB0","501d0af2-b94d-41f5-8e25-96c7c25dc1a3","9596d7a2-d401-47b1-aedd-70105f5f2f42","{""part"":""2"",""participantId"":""99C5C62D646A41BDA3AB280D794D9DB0"",""assignmentId"":""501d0af2-b94d-41f5-8e25-96c7c25dc1a3"",""projectId"":""9596d7a2-d401-47b1-aedd-70105f5f2f42""}","https://test12345.live/?part=2&participantId=99C5C62D646A41BDA3AB280D794D9DB0&assignmentId=501d0af2-b94d-41f5-8e25-96c7c25dc1a3&projectId=9596d7a2-d401-47b1-aedd-70105f5f2f42","99C5C62D646A41BDA3AB280D794D9DB0-2025-05-28-18-17-03","","26376","","[""<span style=\""color: red; font-size: 24px\""> NOW RECORDING</span><p>Please say out loud all the images you saw in part 1 of the experiment, in the exact order you saw them. Try to recall as many images as you can, but remember: getting the order right is more important than the number of images you recall. </p>""]","","3","flight_scheme"
"","","","","","image-button-response","25","407127","0.0-23.0-0.0","99C5C62D646A41BDA3AB280D794D9DB0","99C5C62D646A41BDA3AB280D794D9DB0","501d0af2-b94d-41f5-8e25-96c7c25dc1a3","9596d7a2-d401-47b1-aedd-70105f5f2f42","{""part"":""2"",""participantId"":""99C5C62D646A41BDA3AB280D794D9DB0"",""assignmentId"":""501d0af2-b94d-41f5-8e25-96c7c25dc1a3"",""projectId"":""9596d7a2-d401-47b1-aedd-70105f5f2f42""}","https://test12345.live/?part=2&participantId=99C5C62D646A41BDA3AB280D794D9DB0&assignmentId=501d0af2-b94d-41f5-8e25-96c7c25dc1a3&projectId=9596d7a2-d401-47b1-aedd-70105f5f2f42","99C5C62D646A41BDA3AB280D794D9DB0-2025-05-28-18-17-03","","null","","images/semantic_sequence/kitchen_operations_semantic/kitchen_operations_semantic_0.png","null","",""
"","","","","","html-audio-response","26","430798","0.0-24.0","99C5C62D646A41BDA3AB280D794D9DB0","99C5C62D646A41BDA3AB280D794D9DB0","501d0af2-b94d-41f5-8e25-96c7c25dc1a3","9596d7a2-d401-47b1-aedd-70105f5f2f42","{""part"":""2"",""participantId"":""99C5C62D646A41BDA3AB280D794D9DB0"",""assignmentId"":""501d0af2-b94d-41f5-8e25-96c7c25dc1a3"",""projectId"":""9596d7a2-d401-47b1-aedd-70105f5f2f42""}","https://test12345.live/?part=2&participantId=99C5C62D646A41BDA3AB280D794D9DB0&assignmentId=501d0af2-b94d-41f5-8e25-96c7c25dc1a3&projectId=9596d7a2-d401-47b1-aedd-70105f5f2f42","99C5C62D646A41BDA3AB280D794D9DB0-2025-05-28-18-17-03","","21508","","[""<span style=\""color: red; font-size: 24px\""> NOW RECORDING</span><p>Please say out loud all the images you saw in part 1 of the experiment, in the exact order you saw them. Try to recall as many images as you can, but remember: getting the order right is more important than the number of images you recall. </p>""]","","1","kitchen_operations_semantic"
"","","","","","image-button-response","27","436809","0.0-25.0-0.0","99C5C62D646A41BDA3AB280D794D9DB0","99C5C62D646A41BDA3AB280D794D9DB0","501d0af2-b94d-41f5-8e25-96c7c25dc1a3","9596d7a2-d401-47b1-aedd-70105f5f2f42","{""part"":""2"",""participantId"":""99C5C62D646A41BDA3AB280D794D9DB0"",""assignmentId"":""501d0af2-b94d-41f5-8e25-96c7c25dc1a3"",""projectId"":""9596d7a2-d401-47b1-aedd-70105f5f2f42""}","https://test12345.live/?part=2&participantId=99C5C62D646A41BDA3AB280D794D9DB0&assignmentId=501d0af2-b94d-41f5-8e25-96c7c25dc1a3&projectId=9596d7a2-d401-47b1-aedd-70105f5f2f42","99C5C62D646A41BDA3AB280D794D9DB0-2025-05-28-18-17-03","","null","","images/semantic_sequence/creative_activities_semantic/creative_activities_semantic_0.png","null","",""
"","","","","","html-audio-response","28","463566","0.0-26.0","99C5C62D646A41BDA3AB280D794D9DB0","99C5C62D646A41BDA3AB280D794D9DB0","501d0af2-b94d-41f5-8e25-96c7c25dc1a3","9596d7a2-d401-47b1-aedd-70105f5f2f42","{""part"":""2"",""participantId"":""99C5C62D646A41BDA3AB280D794D9DB0"",""assignmentId"":""501d0af2-b94d-41f5-8e25-96c7c25dc1a3"",""projectId"":""9596d7a2-d401-47b1-aedd-70105f5f2f42""}","https://test12345.live/?part=2&participantId=99C5C62D646A41BDA3AB280D794D9DB0&assignmentId=501d0af2-b94d-41f5-8e25-96c7c25dc1a3&projectId=9596d7a2-d401-47b1-aedd-70105f5f2f42","99C5C62D646A41BDA3AB280D794D9DB0-2025-05-28-18-17-03","","25661","","[""<span style=\""color: red; font-size: 24px\""> NOW RECORDING</span><p>Please say out loud all the images you saw in part 1 of the experiment, in the exact order you saw them. Try to recall as many images as you can, but remember: getting the order right is more important than the number of images you recall. </p>""]","","1","creative_activities_semantic"
"","","","","","image-button-response","29","469587","0.0-27.0-0.0","99C5C62D646A41BDA3AB280D794D9DB0","99C5C62D646A41BDA3AB280D794D9DB0","501d0af2-b94d-41f5-8e25-96c7c25dc1a3","9596d7a2-d401-47b1-aedd-70105f5f2f42","{""part"":""2"",""participantId"":""99C5C62D646A41BDA3AB280D794D9DB0"",""assignmentId"":""501d0af2-b94d-41f5-8e25-96c7c25dc1a3"",""projectId"":""9596d7a2-d401-47b1-aedd-70105f5f2f42""}","https://test12345.live/?part=2&participantId=99C5C62D646A41BDA3AB280D794D9DB0&assignmentId=501d0af2-b94d-41f5-8e25-96c7c25dc1a3&projectId=9596d7a2-d401-47b1-aedd-70105f5f2f42","99C5C62D646A41BDA3AB280D794D9DB0-2025-05-28-18-17-03","","null","","images/semantic_sequence/visiting_cities_semantic/visiting_cities_semantic_0.png","null","",""
"","","","","","html-audio-response","30","491697","0.0-28.0","99C5C62D646A41BDA3AB280D794D9DB0","99C5C62D646A41BDA3AB280D794D9DB0","501d0af2-b94d-41f5-8e25-96c7c25dc1a3","9596d7a2-d401-47b1-aedd-70105f5f2f42","{""part"":""2"",""participantId"":""99C5C62D646A41BDA3AB280D794D9DB0"",""assignmentId"":""501d0af2-b94d-41f5-8e25-96c7c25dc1a3"",""projectId"":""9596d7a2-d401-47b1-aedd-70105f5f2f42""}","https://test12345.live/?part=2&participantId=99C5C62D646A41BDA3AB280D794D9DB0&assignmentId=501d0af2-b94d-41f5-8e25-96c7c25dc1a3&projectId=9596d7a2-d401-47b1-aedd-70105f5f2f42","99C5C62D646A41BDA3AB280D794D9DB0-2025-05-28-18-17-03","","21290","","[""<span style=\""color: red; font-size: 24px\""> NOW RECORDING</span><p>Please say out loud all the images you saw in part 1 of the experiment, in the exact order you saw them. Try to recall as many images as you can, but remember: getting the order right is more important than the number of images you recall. </p>""]","","2","visiting_cities_semantic"
"","","","","","image-button-response","31","497708","0.0-29.0-0.0","99C5C62D646A41BDA3AB280D794D9DB0","99C5C62D646A41BDA3AB280D794D9DB0","501d0af2-b94d-41f5-8e25-96c7c25dc1a3","9596d7a2-d401-47b1-aedd-70105f5f2f42","{""part"":""2"",""participantId"":""99C5C62D646A41BDA3AB280D794D9DB0"",""assignmentId"":""501d0af2-b94d-41f5-8e25-96c7c25dc1a3"",""projectId"":""9596d7a2-d401-47b1-aedd-70105f5f2f42""}","https://test12345.live/?part=2&participantId=99C5C62D646A41BDA3AB280D794D9DB0&assignmentId=501d0af2-b94d-41f5-8e25-96c7c25dc1a3&projectId=9596d7a2-d401-47b1-aedd-70105f5f2f42","99C5C62D646A41BDA3AB280D794D9DB0-2025-05-28-18-17-03","","null","","images/schematic_sequence/interview_scheme/interview_scheme_0.png","null","",""
"","","","","","html-audio-response","32","523933","0.0-30.0","99C5C62D646A41BDA3AB280D794D9DB0","99C5C62D646A41BDA3AB280D794D9DB0","501d0af2-b94d-41f5-8e25-96c7c25dc1a3","9596d7a2-d401-47b1-aedd-70105f5f2f42","{""part"":""2"",""participantId"":""99C5C62D646A41BDA3AB280D794D9DB0"",""assignmentId"":""501d0af2-b94d-41f5-8e25-96c7c25dc1a3"",""projectId"":""9596d7a2-d401-47b1-aedd-70105f5f2f42""}","https://test12345.live/?part=2&participantId=99C5C62D646A41BDA3AB280D794D9DB0&assignmentId=501d0af2-b94d-41f5-8e25-96c7c25dc1a3&projectId=9596d7a2-d401-47b1-aedd-70105f5f2f42","99C5C62D646A41BDA3AB280D794D9DB0-2025-05-28-18-17-03","","25527","","[""<span style=\""color: red; font-size: 24px\""> NOW RECORDING</span><p>Please say out loud all the images you saw in part 1 of the experiment, in the exact order you saw them. Try to recall as many images as you can, but remember: getting the order right is more important than the number of images you recall. </p>""]","","2","interview_scheme"
"","","","","","image-button-response","33","529941","0.0-31.0-0.0","99C5C62D646A41BDA3AB280D794D9DB0","99C5C62D646A41BDA3AB280D794D9DB0","501d0af2-b94d-41f5-8e25-96c7c25dc1a3","9596d7a2-d401-47b1-aedd-70105f5f2f42","{""part"":""2"",""participantId"":""99C5C62D646A41BDA3AB280D794D9DB0"",""assignmentId"":""501d0af2-b94d-41f5-8e25-96c7c25dc1a3"",""projectId"":""9596d7a2-d401-47b1-aedd-70105f5f2f42""}","https://test12345.live/?part=2&participantId=99C5C62D646A41BDA3AB280D794D9DB0&assignmentId=501d0af2-b94d-41f5-8e25-96c7c25dc1a3&projectId=9596d7a2-d401-47b1-aedd-70105f5f2f42","99C5C62D646A41BDA3AB280D794D9DB0-2025-05-28-18-17-03","","null","","images/causal_sequence/saving_a_cat_causal/saving_a_cat_causal_0.png","null","",""
"","","","","","html-audio-response","34","564582","0.0-32.0","99C5C62D646A41BDA3AB280D794D9DB0","99C5C62D646A41BDA3AB280D794D9DB0","501d0af2-b94d-41f5-8e25-96c7c25dc1a3","9596d7a2-d401-47b1-aedd-70105f5f2f42","{""part"":""2"",""participantId"":""99C5C62D646A41BDA3AB280D794D9DB0"",""assignmentId"":""501d0af2-b94d-41f5-8e25-96c7c25dc1a3"",""projectId"":""9596d7a2-d401-47b1-aedd-70105f5f2f42""}","https://test12345.live/?part=2&participantId=99C5C62D646A41BDA3AB280D794D9DB0&assignmentId=501d0af2-b94d-41f5-8e25-96c7c25dc1a3&projectId=9596d7a2-d401-47b1-aedd-70105f5f2f42","99C5C62D646A41BDA3AB280D794D9DB0-2025-05-28-18-17-03","","33547","","[""<span style=\""color: red; font-size: 24px\""> NOW RECORDING</span><p>Please say out loud all the images you saw in part 1 of the experiment, in the exact order you saw them. Try to recall as many images as you can, but remember: getting the order right is more important than the number of images you recall. </p>""]","","2","saving_a_cat_causal"
"","","","","","image-button-response","35","570595","0.0-33.0-0.0","99C5C62D646A41BDA3AB280D794D9DB0","99C5C62D646A41BDA3AB280D794D9DB0","501d0af2-b94d-41f5-8e25-96c7c25dc1a3","9596d7a2-d401-47b1-aedd-70105f5f2f42","{""part"":""2"",""participantId"":""99C5C62D646A41BDA3AB280D794D9DB0"",""assignmentId"":""501d0af2-b94d-41f5-8e25-96c7c25dc1a3"",""projectId"":""9596d7a2-d401-47b1-aedd-70105f5f2f42""}","https://test12345.live/?part=2&participantId=99C5C62D646A41BDA3AB280D794D9DB0&assignmentId=501d0af2-b94d-41f5-8e25-96c7c25dc1a3&projectId=9596d7a2-d401-47b1-aedd-70105f5f2f42","99C5C62D646A41BDA3AB280D794D9DB0-2025-05-28-18-17-03","","null","","images/semantic_sequence/exploring_nature_semantic/exploring_nature_semantic_0.png","null","",""
"","","","","","html-audio-response","36","631933","0.0-34.0","99C5C62D646A41BDA3AB280D794D9DB0","99C5C62D646A41BDA3AB280D794D9DB0","501d0af2-b94d-41f5-8e25-96c7c25dc1a3","9596d7a2-d401-47b1-aedd-70105f5f2f42","{""part"":""2"",""participantId"":""99C5C62D646A41BDA3AB280D794D9DB0"",""assignmentId"":""501d0af2-b94d-41f5-8e25-96c7c25dc1a3"",""projectId"":""9596d7a2-d401-47b1-aedd-70105f5f2f42""}","https://test12345.live/?part=2&participantId=99C5C62D646A41BDA3AB280D794D9DB0&assignmentId=501d0af2-b94d-41f5-8e25-96c7c25dc1a3&projectId=9596d7a2-d401-47b1-aedd-70105f5f2f42","99C5C62D646A41BDA3AB280D794D9DB0-2025-05-28-18-17-03","","23963","","[""<span style=\""color: red; font-size: 24px\""> NOW RECORDING</span><p>Please say out loud all the images you saw in part 1 of the experiment, in the exact order you saw them. Try to recall as many images as you can, but remember: getting the order right is more important than the number of images you recall. </p>""]","","2","exploring_nature_semantic"
"","","","","","instructions","37","635863","0.0-35.0","99C5C62D646A41BDA3AB280D794D9DB0","99C5C62D646A41BDA3AB280D794D9DB0","501d0af2-b94d-41f5-8e25-96c7c25dc1a3","9596d7a2-d401-47b1-aedd-70105f5f2f42","{""part"":""2"",""participantId"":""99C5C62D646A41BDA3AB280D794D9DB0"",""assignmentId"":""501d0af2-b94d-41f5-8e25-96c7c25dc1a3"",""projectId"":""9596d7a2-d401-47b1-aedd-70105f5f2f42""}","https://test12345.live/?part=2&participantId=99C5C62D646A41BDA3AB280D794D9DB0&assignmentId=501d0af2-b94d-41f5-8e25-96c7c25dc1a3&projectId=9596d7a2-d401-47b1-aedd-70105f5f2f42","99C5C62D646A41BDA3AB280D794D9DB0-2025-05-28-18-17-03","[{""page_index"":0,""viewing_time"":3912}]","3912","","","","",""
"","","","","","image-button-response","38","641869","0.0-36.0-0.0","99C5C62D646A41BDA3AB280D794D9DB0","99C5C62D646A41BDA3AB280D794D9DB0","501d0af2-b94d-41f5-8e25-96c7c25dc1a3","9596d7a2-d401-47b1-aedd-70105f5f2f42","{""part"":""2"",""participantId"":""99C5C62D646A41BDA3AB280D794D9DB0"",""assignmentId"":""501d0af2-b94d-41f5-8e25-96c7c25dc1a3"",""projectId"":""9596d7a2-d401-47b1-aedd-70105f5f2f42""}","https://test12345.live/?part=2&participantId=99C5C62D646A41BDA3AB280D794D9DB0&assignmentId=501d0af2-b94d-41f5-8e25-96c7c25dc1a3&projectId=9596d7a2-d401-47b1-aedd-70105f5f2f42","99C5C62D646A41BDA3AB280D794D9DB0-2025-05-28-18-17-03","","null","","images/causal_sequence/museum_causal/museum_causal_0.png","null","",""
"","","","","","html-audio-response","39","667463","0.0-37.0","99C5C62D646A41BDA3AB280D794D9DB0","99C5C62D646A41BDA3AB280D794D9DB0","501d0af2-b94d-41f5-8e25-96c7c25dc1a3","9596d7a2-d401-47b1-aedd-70105f5f2f42","{""part"":""2"",""participantId"":""99C5C62D646A41BDA3AB280D794D9DB0"",""assignmentId"":""501d0af2-b94d-41f5-8e25-96c7c25dc1a3"",""projectId"":""9596d7a2-d401-47b1-aedd-70105f5f2f42""}","https://test12345.live/?part=2&participantId=99C5C62D646A41BDA3AB280D794D9DB0&assignmentId=501d0af2-b94d-41f5-8e25-96c7c25dc1a3&projectId=9596d7a2-d401-47b1-aedd-70105f5f2f42","99C5C62D646A41BDA3AB280D794D9DB0-2025-05-28-18-17-03","","24833","","[""<span style=\""color: red; font-size: 24px\""> NOW RECORDING</span><p>Please say out loud all the images you saw in part 1 of the experiment, in the exact order you saw them. Try to recall as many images as you can, but remember: getting the order right is more important than the number of images you recall. </p>""]","","4","museum_causal"
"","","","","","image-button-response","40","673468","0.0-38.0-0.0","99C5C62D646A41BDA3AB280D794D9DB0","99C5C62D646A41BDA3AB280D794D9DB0","501d0af2-b94d-41f5-8e25-96c7c25dc1a3","9596d7a2-d401-47b1-aedd-70105f5f2f42","{""part"":""2"",""participantId"":""99C5C62D646A41BDA3AB280D794D9DB0"",""assignmentId"":""501d0af2-b94d-41f5-8e25-96c7c25dc1a3"",""projectId"":""9596d7a2-d401-47b1-aedd-70105f5f2f42""}","https://test12345.live/?part=2&participantId=99C5C62D646A41BDA3AB280D794D9DB0&assignmentId=501d0af2-b94d-41f5-8e25-96c7c25dc1a3&projectId=9596d7a2-d401-47b1-aedd-70105f5f2f42","99C5C62D646A41BDA3AB280D794D9DB0-2025-05-28-18-17-03","","null","","images/schematic_sequence/restaurant_scheme/restaurant_scheme_0.png","null","",""
"","","","","","html-audio-response","41","696797","0.0-39.0","99C5C62D646A41BDA3AB280D794D9DB0","99C5C62D646A41BDA3AB280D794D9DB0","501d0af2-b94d-41f5-8e25-96c7c25dc1a3","9596d7a2-d401-47b1-aedd-70105f5f2f42","{""part"":""2"",""participantId"":""99C5C62D646A41BDA3AB280D794D9DB0"",""assignmentId"":""501d0af2-b94d-41f5-8e25-96c7c25dc1a3"",""projectId"":""9596d7a2-d401-47b1-aedd-70105f5f2f42""}","https://test12345.live/?part=2&participantId=99C5C62D646A41BDA3AB280D794D9DB0&assignmentId=501d0af2-b94d-41f5-8e25-96c7c25dc1a3&projectId=9596d7a2-d401-47b1-aedd-70105f5f2f42","99C5C62D646A41BDA3AB280D794D9DB0-2025-05-28-18-17-03","","22618","","[""<span style=\""color: red; font-size: 24px\""> NOW RECORDING</span><p>Please say out loud all the images you saw in part 1 of the experiment, in the exact order you saw them. Try to recall as many images as you can, but remember: getting the order right is more important than the number of images you recall. </p>""]","","2","restaurant_scheme"
"","","","","","image-button-response","42","702810","0.0-40.0-0.0","99C5C62D646A41BDA3AB280D794D9DB0","99C5C62D646A41BDA3AB280D794D9DB0","501d0af2-b94d-41f5-8e25-96c7c25dc1a3","9596d7a2-d401-47b1-aedd-70105f5f2f42","{""part"":""2"",""participantId"":""99C5C62D646A41BDA3AB280D794D9DB0"",""assignmentId"":""501d0af2-b94d-41f5-8e25-96c7c25dc1a3"",""projectId"":""9596d7a2-d401-47b1-aedd-70105f5f2f42""}","https://test12345.live/?part=2&participantId=99C5C62D646A41BDA3AB280D794D9DB0&assignmentId=501d0af2-b94d-41f5-8e25-96c7c25dc1a3&projectId=9596d7a2-d401-47b1-aedd-70105f5f2f42","99C5C62D646A41BDA3AB280D794D9DB0-2025-05-28-18-17-03","","null","","images/causal_sequence/dog_causal/dog_causal_0.png","null","",""
"","","","","","html-audio-response","43","737347","0.0-41.0","99C5C62D646A41BDA3AB280D794D9DB0","99C5C62D646A41BDA3AB280D794D9DB0","501d0af2-b94d-41f5-8e25-96c7c25dc1a3","9596d7a2-d401-47b1-aedd-70105f5f2f42","{""part"":""2"",""participantId"":""99C5C62D646A41BDA3AB280D794D9DB0"",""assignmentId"":""501d0af2-b94d-41f5-8e25-96c7c25dc1a3"",""projectId"":""9596d7a2-d401-47b1-aedd-70105f5f2f42""}","https://test12345.live/?part=2&participantId=99C5C62D646A41BDA3AB280D794D9DB0&assignmentId=501d0af2-b94d-41f5-8e25-96c7c25dc1a3&projectId=9596d7a2-d401-47b1-aedd-70105f5f2f42","99C5C62D646A41BDA3AB280D794D9DB0-2025-05-28-18-17-03","","33695","","[""<span style=\""color: red; font-size: 24px\""> NOW RECORDING</span><p>Please say out loud all the images you saw in part 1 of the experiment, in the exact order you saw them. Try to recall as many images as you can, but remember: getting the order right is more important than the number of images you recall. </p>""]","","2","dog_causal"
"","","","","","image-button-response","44","743359","0.0-42.0-0.0","99C5C62D646A41BDA3AB280D794D9DB0","99C5C62D646A41BDA3AB280D794D9DB0","501d0af2-b94d-41f5-8e25-96c7c25dc1a3","9596d7a2-d401-47b1-aedd-70105f5f2f42","{""part"":""2"",""participantId"":""99C5C62D646A41BDA3AB280D794D9DB0"",""assignmentId"":""501d0af2-b94d-41f5-8e25-96c7c25dc1a3"",""projectId"":""9596d7a2-d401-47b1-aedd-70105f5f2f42""}","https://test12345.live/?part=2&participantId=99C5C62D646A41BDA3AB280D794D9DB0&assignmentId=501d0af2-b94d-41f5-8e25-96c7c25dc1a3&projectId=9596d7a2-d401-47b1-aedd-70105f5f2f42","99C5C62D646A41BDA3AB280D794D9DB0-2025-05-28-18-17-03","","null","","images/semantic_sequence/using_technology_semantic/using_technology_semantic_0.png","null","",""
"","","","","","html-audio-response","45","758598","0.0-43.0","99C5C62D646A41BDA3AB280D794D9DB0","99C5C62D646A41BDA3AB280D794D9DB0","501d0af2-b94d-41f5-8e25-96c7c25dc1a3","9596d7a2-d401-47b1-aedd-70105f5f2f42","{""part"":""2"",""participantId"":""99C5C62D646A41BDA3AB280D794D9DB0"",""assignmentId"":""501d0af2-b94d-41f5-8e25-96c7c25dc1a3"",""projectId"":""9596d7a2-d401-47b1-aedd-70105f5f2f42""}","https://test12345.live/?part=2&participantId=99C5C62D646A41BDA3AB280D794D9DB0&assignmentId=501d0af2-b94d-41f5-8e25-96c7c25dc1a3&projectId=9596d7a2-d401-47b1-aedd-70105f5f2f42","99C5C62D646A41BDA3AB280D794D9DB0-2025-05-28-18-17-03","","14143","","[""<span style=\""color: red; font-size: 24px\""> NOW RECORDING</span><p>Please say out loud all the images you saw in part 1 of the experiment, in the exact order you saw them. Try to recall as many images as you can, but remember: getting the order right is more important than the number of images you recall. </p>""]","","2","using_technology_semantic"
"","","","","","image-button-response","46","764607","0.0-44.0-0.0","99C5C62D646A41BDA3AB280D794D9DB0","99C5C62D646A41BDA3AB280D794D9DB0","501d0af2-b94d-41f5-8e25-96c7c25dc1a3","9596d7a2-d401-47b1-aedd-70105f5f2f42","{""part"":""2"",""participantId"":""99C5C62D646A41BDA3AB280D794D9DB0"",""assignmentId"":""501d0af2-b94d-41f5-8e25-96c7c25dc1a3"",""projectId"":""9596d7a2-d401-47b1-aedd-70105f5f2f42""}","https://test12345.live/?part=2&participantId=99C5C62D646A41BDA3AB280D794D9DB0&assignmentId=501d0af2-b94d-41f5-8e25-96c7c25dc1a3&projectId=9596d7a2-d401-47b1-aedd-70105f5f2f42","99C5C62D646A41BDA3AB280D794D9DB0-2025-05-28-18-17-03","","null","","images/semantic_sequence/maintaining_a_car_semantic/maintaining_a_car_semantic_0.png","null","",""
"","","","","","html-audio-response","47","789830","0.0-45.0","99C5C62D646A41BDA3AB280D794D9DB0","99C5C62D646A41BDA3AB280D794D9DB0","501d0af2-b94d-41f5-8e25-96c7c25dc1a3","9596d7a2-d401-47b1-aedd-70105f5f2f42","{""part"":""2"",""participantId"":""99C5C62D646A41BDA3AB280D794D9DB0"",""assignmentId"":""501d0af2-b94d-41f5-8e25-96c7c25dc1a3"",""projectId"":""9596d7a2-d401-47b1-aedd-70105f5f2f42""}","https://test12345.live/?part=2&participantId=99C5C62D646A41BDA3AB280D794D9DB0&assignmentId=501d0af2-b94d-41f5-8e25-96c7c25dc1a3&projectId=9596d7a2-d401-47b1-aedd-70105f5f2f42","99C5C62D646A41BDA3AB280D794D9DB0-2025-05-28-18-17-03","","24011","","[""<span style=\""color: red; font-size: 24px\""> NOW RECORDING</span><p>Please say out loud all the images you saw in part 1 of the experiment, in the exact order you saw them. Try to recall as many images as you can, but remember: getting the order right is more important than the number of images you recall. </p>""]","","2","maintaining_a_car_semantic"
"","","","","","image-button-response","48","795842","0.0-46.0-0.0","99C5C62D646A41BDA3AB280D794D9DB0","99C5C62D646A41BDA3AB280D794D9DB0","501d0af2-b94d-41f5-8e25-96c7c25dc1a3","9596d7a2-d401-47b1-aedd-70105f5f2f42","{""part"":""2"",""participantId"":""99C5C62D646A41BDA3AB280D794D9DB0"",""assignmentId"":""501d0af2-b94d-41f5-8e25-96c7c25dc1a3"",""projectId"":""9596d7a2-d401-47b1-aedd-70105f5f2f42""}","https://test12345.live/?part=2&participantId=99C5C62D646A41BDA3AB280D794D9DB0&assignmentId=501d0af2-b94d-41f5-8e25-96c7c25dc1a3&projectId=9596d7a2-d401-47b1-aedd-70105f5f2f42","99C5C62D646A41BDA3AB280D794D9DB0-2025-05-28-18-17-03","","null","","images/semantic_sequence/cat_care_semantic/cat_care_semantic_0.png","null","",""
"","","","","","html-audio-response","49","811482","0.0-47.0","99C5C62D646A41BDA3AB280D794D9DB0","99C5C62D646A41BDA3AB280D794D9DB0","501d0af2-b94d-41f5-8e25-96c7c25dc1a3","9596d7a2-d401-47b1-aedd-70105f5f2f42","{""part"":""2"",""participantId"":""99C5C62D646A41BDA3AB280D794D9DB0"",""assignmentId"":""501d0af2-b94d-41f5-8e25-96c7c25dc1a3"",""projectId"":""9596d7a2-d401-47b1-aedd-70105f5f2f42""}","https://test12345.live/?part=2&participantId=99C5C62D646A41BDA3AB280D794D9DB0&assignmentId=501d0af2-b94d-41f5-8e25-96c7c25dc1a3&projectId=9596d7a2-d401-47b1-aedd-70105f5f2f42","99C5C62D646A41BDA3AB280D794D9DB0-2025-05-28-18-17-03","","15049","","[""<span style=\""color: red; font-size: 24px\""> NOW RECORDING</span><p>Please say out loud all the images you saw in part 1 of the experiment, in the exact order you saw them. Try to recall as many images as you can, but remember: getting the order right is more important than the number of images you recall. </p>""]","","1","cat_care_semantic"
"","","","","","image-button-response","50","817492","0.0-48.0-0.0","99C5C62D646A41BDA3AB280D794D9DB0","99C5C62D646A41BDA3AB280D794D9DB0","501d0af2-b94d-41f5-8e25-96c7c25dc1a3","9596d7a2-d401-47b1-aedd-70105f5f2f42","{""part"":""2"",""participantId"":""99C5C62D646A41BDA3AB280D794D9DB0"",""assignmentId"":""501d0af2-b94d-41f5-8e25-96c7c25dc1a3"",""projectId"":""9596d7a2-d401-47b1-aedd-70105f5f2f42""}","https://test12345.live/?part=2&participantId=99C5C62D646A41BDA3AB280D794D9DB0&assignmentId=501d0af2-b94d-41f5-8e25-96c7c25dc1a3&projectId=9596d7a2-d401-47b1-aedd-70105f5f2f42","99C5C62D646A41BDA3AB280D794D9DB0-2025-05-28-18-17-03","","null","","images/semantic_sequence/redecorating_semantic/redecorating_semantic_0.png","null","",""
"","","","","","html-audio-response","51","843764","0.0-49.0","99C5C62D646A41BDA3AB280D794D9DB0","99C5C62D646A41BDA3AB280D794D9DB0","501d0af2-b94d-41f5-8e25-96c7c25dc1a3","9596d7a2-d401-47b1-aedd-70105f5f2f42","{""part"":""2"",""participantId"":""99C5C62D646A41BDA3AB280D794D9DB0"",""assignmentId"":""501d0af2-b94d-41f5-8e25-96c7c25dc1a3"",""projectId"":""9596d7a2-d401-47b1-aedd-70105f5f2f42""}","https://test12345.live/?part=2&participantId=99C5C62D646A41BDA3AB280D794D9DB0&assignmentId=501d0af2-b94d-41f5-8e25-96c7c25dc1a3&projectId=9596d7a2-d401-47b1-aedd-70105f5f2f42","99C5C62D646A41BDA3AB280D794D9DB0-2025-05-28-18-17-03","","25465","","[""<span style=\""color: red; font-size: 24px\""> NOW RECORDING</span><p>Please say out loud all the images you saw in part 1 of the experiment, in the exact order you saw them. Try to recall as many images as you can, but remember: getting the order right is more important than the number of images you recall. </p>""]","","3","redecorating_semantic"
"","","","","","image-button-response","52","849772","0.0-50.0-0.0","99C5C62D646A41BDA3AB280D794D9DB0","99C5C62D646A41BDA3AB280D794D9DB0","501d0af2-b94d-41f5-8e25-96c7c25dc1a3","9596d7a2-d401-47b1-aedd-70105f5f2f42","{""part"":""2"",""participantId"":""99C5C62D646A41BDA3AB280D794D9DB0"",""assignmentId"":""501d0af2-b94d-41f5-8e25-96c7c25dc1a3"",""projectId"":""9596d7a2-d401-47b1-aedd-70105f5f2f42""}","https://test12345.live/?part=2&participantId=99C5C62D646A41BDA3AB280D794D9DB0&assignmentId=501d0af2-b94d-41f5-8e25-96c7c25dc1a3&projectId=9596d7a2-d401-47b1-aedd-70105f5f2f42","99C5C62D646A41BDA3AB280D794D9DB0-2025-05-28-18-17-03","","null","","images/semantic_sequence/housework_semantic/housework_semantic_0.png","null","",""
"","","","","","html-audio-response","53","863864","0.0-51.0","99C5C62D646A41BDA3AB280D794D9DB0","99C5C62D646A41BDA3AB280D794D9DB0","501d0af2-b94d-41f5-8e25-96c7c25dc1a3","9596d7a2-d401-47b1-aedd-70105f5f2f42","{""part"":""2"",""participantId"":""99C5C62D646A41BDA3AB280D794D9DB0"",""assignmentId"":""501d0af2-b94d-41f5-8e25-96c7c25dc1a3"",""projectId"":""9596d7a2-d401-47b1-aedd-70105f5f2f42""}","https://test12345.live/?part=2&participantId=99C5C62D646A41BDA3AB280D794D9DB0&assignmentId=501d0af2-b94d-41f5-8e25-96c7c25dc1a3&projectId=9596d7a2-d401-47b1-aedd-70105f5f2f42","99C5C62D646A41BDA3AB280D794D9DB0-2025-05-28-18-17-03","","13034","","[""<span style=\""color: red; font-size: 24px\""> NOW RECORDING</span><p>Please say out loud all the images you saw in part 1 of the experiment, in the exact order you saw them. Try to recall as many images as you can, but remember: getting the order right is more important than the number of images you recall. </p>""]","","4","housework_semantic"
"","","","","","image-button-response","54","869874","0.0-52.0-0.0","99C5C62D646A41BDA3AB280D794D9DB0","99C5C62D646A41BDA3AB280D794D9DB0","501d0af2-b94d-41f5-8e25-96c7c25dc1a3","9596d7a2-d401-47b1-aedd-70105f5f2f42","{""part"":""2"",""participantId"":""99C5C62D646A41BDA3AB280D794D9DB0"",""assignmentId"":""501d0af2-b94d-41f5-8e25-96c7c25dc1a3"",""projectId"":""9596d7a2-d401-47b1-aedd-70105f5f2f42""}","https://test12345.live/?part=2&participantId=99C5C62D646A41BDA3AB280D794D9DB0&assignmentId=501d0af2-b94d-41f5-8e25-96c7c25dc1a3&projectId=9596d7a2-d401-47b1-aedd-70105f5f2f42","99C5C62D646A41BDA3AB280D794D9DB0-2025-05-28-18-17-03","","null","","images/schematic_sequence/supermarket_scheme/supermarket_scheme_0.png","null","",""
"","","","","","html-audio-response","55","902581","0.0-53.0","99C5C62D646A41BDA3AB280D794D9DB0","99C5C62D646A41BDA3AB280D794D9DB0","501d0af2-b94d-41f5-8e25-96c7c25dc1a3","9596d7a2-d401-47b1-aedd-70105f5f2f42","{""part"":""2"",""participantId"":""99C5C62D646A41BDA3AB280D794D9DB0"",""assignmentId"":""501d0af2-b94d-41f5-8e25-96c7c25dc1a3"",""projectId"":""9596d7a2-d401-47b1-aedd-70105f5f2f42""}","https://test12345.live/?part=2&participantId=99C5C62D646A41BDA3AB280D794D9DB0&assignmentId=501d0af2-b94d-41f5-8e25-96c7c25dc1a3&projectId=9596d7a2-d401-47b1-aedd-70105f5f2f42","99C5C62D646A41BDA3AB280D794D9DB0-2025-05-28-18-17-03","","31718","","[""<span style=\""color: red; font-size: 24px\""> NOW RECORDING</span><p>Please say out loud all the images you saw in part 1 of the experiment, in the exact order you saw them. Try to recall as many images as you can, but remember: getting the order right is more important than the number of images you recall. </p>""]","","4","supermarket_scheme"
"","","","","","image-button-response","56","908592","0.0-54.0-0.0","99C5C62D646A41BDA3AB280D794D9DB0","99C5C62D646A41BDA3AB280D794D9DB0","501d0af2-b94d-41f5-8e25-96c7c25dc1a3","9596d7a2-d401-47b1-aedd-70105f5f2f42","{""part"":""2"",""participantId"":""99C5C62D646A41BDA3AB280D794D9DB0"",""assignmentId"":""501d0af2-b94d-41f5-8e25-96c7c25dc1a3"",""projectId"":""9596d7a2-d401-47b1-aedd-70105f5f2f42""}","https://test12345.live/?part=2&participantId=99C5C62D646A41BDA3AB280D794D9DB0&assignmentId=501d0af2-b94d-41f5-8e25-96c7c25dc1a3&projectId=9596d7a2-d401-47b1-aedd-70105f5f2f42","99C5C62D646A41BDA3AB280D794D9DB0-2025-05-28-18-17-03","","null","","images/causal_sequence/the_performance_causal/the_performance_causal_0.png","null","",""
"","","","","","html-audio-response","57","942448","0.0-55.0","99C5C62D646A41BDA3AB280D794D9DB0","99C5C62D646A41BDA3AB280D794D9DB0","501d0af2-b94d-41f5-8e25-96c7c25dc1a3","9596d7a2-d401-47b1-aedd-70105f5f2f42","{""part"":""2"",""participantId"":""99C5C62D646A41BDA3AB280D794D9DB0"",""assignmentId"":""501d0af2-b94d-41f5-8e25-96c7c25dc1a3"",""projectId"":""9596d7a2-d401-47b1-aedd-70105f5f2f42""}","https://test12345.live/?part=2&participantId=99C5C62D646A41BDA3AB280D794D9DB0&assignmentId=501d0af2-b94d-41f5-8e25-96c7c25dc1a3&projectId=9596d7a2-d401-47b1-aedd-70105f5f2f42","99C5C62D646A41BDA3AB280D794D9DB0-2025-05-28-18-17-03","","33131","","[""<span style=\""color: red; font-size: 24px\""> NOW RECORDING</span><p>Please say out loud all the images you saw in part 1 of the experiment, in the exact order you saw them. Try to recall as many images as you can, but remember: getting the order right is more important than the number of images you recall. </p>""]","","2","the_performance_causal"
"","","","","","image-button-response","58","948463","0.0-56.0-0.0","99C5C62D646A41BDA3AB280D794D9DB0","99C5C62D646A41BDA3AB280D794D9DB0","501d0af2-b94d-41f5-8e25-96c7c25dc1a3","9596d7a2-d401-47b1-aedd-70105f5f2f42","{""part"":""2"",""participantId"":""99C5C62D646A41BDA3AB280D794D9DB0"",""assignmentId"":""501d0af2-b94d-41f5-8e25-96c7c25dc1a3"",""projectId"":""9596d7a2-d401-47b1-aedd-70105f5f2f42""}","https://test12345.live/?part=2&participantId=99C5C62D646A41BDA3AB280D794D9DB0&assignmentId=501d0af2-b94d-41f5-8e25-96c7c25dc1a3&projectId=9596d7a2-d401-47b1-aedd-70105f5f2f42","99C5C62D646A41BDA3AB280D794D9DB0-2025-05-28-18-17-03","","null","","images/semantic_sequence/physical_activity_semantic/physical_activity_semantic_0.png","null","",""
"","","","","","html-audio-response","59","981515","0.0-57.0","99C5C62D646A41BDA3AB280D794D9DB0","99C5C62D646A41BDA3AB280D794D9DB0","501d0af2-b94d-41f5-8e25-96c7c25dc1a3","9596d7a2-d401-47b1-aedd-70105f5f2f42","{""part"":""2"",""participantId"":""99C5C62D646A41BDA3AB280D794D9DB0"",""assignmentId"":""501d0af2-b94d-41f5-8e25-96c7c25dc1a3"",""projectId"":""9596d7a2-d401-47b1-aedd-70105f5f2f42""}","https://test12345.live/?part=2&participantId=99C5C62D646A41BDA3AB280D794D9DB0&assignmentId=501d0af2-b94d-41f5-8e25-96c7c25dc1a3&projectId=9596d7a2-d401-47b1-aedd-70105f5f2f42","99C5C62D646A41BDA3AB280D794D9DB0-2025-05-28-18-17-03","","32378","","[""<span style=\""color: red; font-size: 24px\""> NOW RECORDING</span><p>Please say out loud all the images you saw in part 1 of the experiment, in the exact order you saw them. Try to recall as many images as you can, but remember: getting the order right is more important than the number of images you recall. </p>""]","","2","physical_activity_semantic"
"","","","","","survey-text","60","987432","0.0-58.0","99C5C62D646A41BDA3AB280D794D9DB0","99C5C62D646A41BDA3AB280D794D9DB0","501d0af2-b94d-41f5-8e25-96c7c25dc1a3","9596d7a2-d401-47b1-aedd-70105f5f2f42","{""part"":""2"",""participantId"":""99C5C62D646A41BDA3AB280D794D9DB0"",""assignmentId"":""501d0af2-b94d-41f5-8e25-96c7c25dc1a3"",""projectId"":""9596d7a2-d401-47b1-aedd-70105f5f2f42""}","https://test12345.live/?part=2&participantId=99C5C62D646A41BDA3AB280D794D9DB0&assignmentId=501d0af2-b94d-41f5-8e25-96c7c25dc1a3&projectId=9596d7a2-d401-47b1-aedd-70105f5f2f42","99C5C62D646A41BDA3AB280D794D9DB0-2025-05-28-18-17-03","","5901","","","{""Q0"":""Female"",""Q1"":""29""}","",""
"","","","","","instructions","61","992632","0.0-59.0","99C5C62D646A41BDA3AB280D794D9DB0","99C5C62D646A41BDA3AB280D794D9DB0","501d0af2-b94d-41f5-8e25-96c7c25dc1a3","9596d7a2-d401-47b1-aedd-70105f5f2f42","{""part"":""2"",""participantId"":""99C5C62D646A41BDA3AB280D794D9DB0"",""assignmentId"":""501d0af2-b94d-41f5-8e25-96c7c25dc1a3"",""projectId"":""9596d7a2-d401-47b1-aedd-70105f5f2f42""}","https://test12345.live/?part=2&participantId=99C5C62D646A41BDA3AB280D794D9DB0&assignmentId=501d0af2-b94d-41f5-8e25-96c7c25dc1a3&projectId=9596d7a2-d401-47b1-aedd-70105f5f2f42","99C5C62D646A41BDA3AB280D794D9DB0-2025-05-28-18-17-03","[{""page_index"":0,""viewing_time"":5199}]","5199","","","","",""
"","","","","","survey-text","62","995647","0.0-60.0","99C5C62D646A41BDA3AB280D794D9DB0","99C5C62D646A41BDA3AB280D794D9DB0","501d0af2-b94d-41f5-8e25-96c7c25dc1a3","9596d7a2-d401-47b1-aedd-70105f5f2f42","{""part"":""2"",""participantId"":""99C5C62D646A41BDA3AB280D794D9DB0"",""assignmentId"":""501d0af2-b94d-41f5-8e25-96c7c25dc1a3"",""projectId"":""9596d7a2-d401-47b1-aedd-70105f5f2f42""}","https://test12345.live/?part=2&participantId=99C5C62D646A41BDA3AB280D794D9DB0&assignmentId=501d0af2-b94d-41f5-8e25-96c7c25dc1a3&projectId=9596d7a2-d401-47b1-aedd-70105f5f2f42","99C5C62D646A41BDA3AB280D794D9DB0-2025-05-28-18-17-03","","3011","","","{""Q0"":""AJFHBG896""}","",""
