"success","timeout","failed_images","failed_audio","failed_video","trial_type","trial_index","time_elapsed","internal_node_id","subject","subject_id","study_id","session_id","urlvar","current_url","audio_id","view_history","rt","device_id","stimulus","response","estimated_stimulus_onset","seq_name"
"true","false","[]","[]","[]","preload","0","24795","0.0-0.0","9B55B16496F04787B72417D2E7356689","9B55B16496F04787B72417D2E7356689","05c279bd-c2c2-48b4-9bc2-4ba0e172dd02","e9cc2542-c7dc-4d8f-b94f-d088ad8989d1","{""part"":""2"",""participantId"":""9B55B16496F04787B72417D2E7356689"",""assignmentId"":""05c279bd-c2c2-48b4-9bc2-4ba0e172dd02"",""projectId"":""e9cc2542-c7dc-4d8f-b94f-d088ad8989d1""}","https://test12345.live/?part=2&participantId=9B55B16496F04787B72417D2E7356689&assignmentId=05c279bd-c2c2-48b4-9bc2-4ba0e172dd02&projectId=e9cc2542-c7dc-4d8f-b94f-d088ad8989d1","9B55B16496F04787B72417D2E7356689-2025-05-16-18-24-42","","","","","","",""
"","","","","","instructions","1","38384","0.0-1.0","9B55B16496F04787B72417D2E7356689","9B55B16496F04787B72417D2E7356689","05c279bd-c2c2-48b4-9bc2-4ba0e172dd02","e9cc2542-c7dc-4d8f-b94f-d088ad8989d1","{""part"":""2"",""participantId"":""9B55B16496F04787B72417D2E7356689"",""assignmentId"":""05c279bd-c2c2-48b4-9bc2-4ba0e172dd02"",""projectId"":""e9cc2542-c7dc-4d8f-b94f-d088ad8989d1""}","https://test12345.live/?part=2&participantId=9B55B16496F04787B72417D2E7356689&assignmentId=05c279bd-c2c2-48b4-9bc2-4ba0e172dd02&projectId=e9cc2542-c7dc-4d8f-b94f-d088ad8989d1","9B55B16496F04787B72417D2E7356689-2025-05-16-18-24-42","[{""page_index"":0,""viewing_time"":13588}]","13588","","","","",""
"","","","","","instructions","2","51819","0.0-2.0","9B55B16496F04787B72417D2E7356689","9B55B16496F04787B72417D2E7356689","05c279bd-c2c2-48b4-9bc2-4ba0e172dd02","e9cc2542-c7dc-4d8f-b94f-d088ad8989d1","{""part"":""2"",""participantId"":""9B55B16496F04787B72417D2E7356689"",""assignmentId"":""05c279bd-c2c2-48b4-9bc2-4ba0e172dd02"",""projectId"":""e9cc2542-c7dc-4d8f-b94f-d088ad8989d1""}","https://test12345.live/?part=2&participantId=9B55B16496F04787B72417D2E7356689&assignmentId=05c279bd-c2c2-48b4-9bc2-4ba0e172dd02&projectId=e9cc2542-c7dc-4d8f-b94f-d088ad8989d1","9B55B16496F04787B72417D2E7356689-2025-05-16-18-24-42","[{""page_index"":0,""viewing_time"":13447}]","13448","","","","",""
"true","","","","","fullscreen","3","54809","0.0-3.0","9B55B16496F04787B72417D2E7356689","9B55B16496F04787B72417D2E7356689","05c279bd-c2c2-48b4-9bc2-4ba0e172dd02","e9cc2542-c7dc-4d8f-b94f-d088ad8989d1","{""part"":""2"",""participantId"":""9B55B16496F04787B72417D2E7356689"",""assignmentId"":""05c279bd-c2c2-48b4-9bc2-4ba0e172dd02"",""projectId"":""e9cc2542-c7dc-4d8f-b94f-d088ad8989d1""}","https://test12345.live/?part=2&participantId=9B55B16496F04787B72417D2E7356689&assignmentId=05c279bd-c2c2-48b4-9bc2-4ba0e172dd02&projectId=e9cc2542-c7dc-4d8f-b94f-d088ad8989d1","9B55B16496F04787B72417D2E7356689-2025-05-16-18-24-42","","1989","","","","",""
"","","","","","initialize-microphone","4","76815","0.0-4.0-0.0","9B55B16496F04787B72417D2E7356689","9B55B16496F04787B72417D2E7356689","05c279bd-c2c2-48b4-9bc2-4ba0e172dd02","e9cc2542-c7dc-4d8f-b94f-d088ad8989d1","{""part"":""2"",""participantId"":""9B55B16496F04787B72417D2E7356689"",""assignmentId"":""05c279bd-c2c2-48b4-9bc2-4ba0e172dd02"",""projectId"":""e9cc2542-c7dc-4d8f-b94f-d088ad8989d1""}","https://test12345.live/?part=2&participantId=9B55B16496F04787B72417D2E7356689&assignmentId=05c279bd-c2c2-48b4-9bc2-4ba0e172dd02&projectId=e9cc2542-c7dc-4d8f-b94f-d088ad8989d1","9B55B16496F04787B72417D2E7356689-2025-05-16-18-24-42","","","fc25cedad8fd7c26b67c8808ec89d13bb312da861c60650dbc1cd1f52aa2a096","","","",""
"","","","","","html-audio-response","5","84473","0.0-4.0-1.0","9B55B16496F04787B72417D2E7356689","9B55B16496F04787B72417D2E7356689","05c279bd-c2c2-48b4-9bc2-4ba0e172dd02","e9cc2542-c7dc-4d8f-b94f-d088ad8989d1","{""part"":""2"",""participantId"":""9B55B16496F04787B72417D2E7356689"",""assignmentId"":""05c279bd-c2c2-48b4-9bc2-4ba0e172dd02"",""projectId"":""e9cc2542-c7dc-4d8f-b94f-d088ad8989d1""}","https://test12345.live/?part=2&participantId=9B55B16496F04787B72417D2E7356689&assignmentId=05c279bd-c2c2-48b4-9bc2-4ba0e172dd02&projectId=e9cc2542-c7dc-4d8f-b94f-d088ad8989d1","9B55B16496F04787B72417D2E7356689-2025-05-16-18-24-42","","2746","","<span style=""color: red; font-size: 24px""> NOW RECORDING</span>
        <p>Please test Microphone</p>","","6",""
"","","","","","html-button-response","6","85792","0.0-4.0-2.0","9B55B16496F04787B72417D2E7356689","9B55B16496F04787B72417D2E7356689","05c279bd-c2c2-48b4-9bc2-4ba0e172dd02","e9cc2542-c7dc-4d8f-b94f-d088ad8989d1","{""part"":""2"",""participantId"":""9B55B16496F04787B72417D2E7356689"",""assignmentId"":""05c279bd-c2c2-48b4-9bc2-4ba0e172dd02"",""projectId"":""e9cc2542-c7dc-4d8f-b94f-d088ad8989d1""}","https://test12345.live/?part=2&participantId=9B55B16496F04787B72417D2E7356689&assignmentId=05c279bd-c2c2-48b4-9bc2-4ba0e172dd02&projectId=e9cc2542-c7dc-4d8f-b94f-d088ad8989d1","9B55B16496F04787B72417D2E7356689-2025-05-16-18-24-42","","1318","","<p style=""font-size:48px; color:red;"">Is Microphone OK?</p>","1","",""
"","","","","","instructions","7","95981","0.0-5.0","9B55B16496F04787B72417D2E7356689","9B55B16496F04787B72417D2E7356689","05c279bd-c2c2-48b4-9bc2-4ba0e172dd02","e9cc2542-c7dc-4d8f-b94f-d088ad8989d1","{""part"":""2"",""participantId"":""9B55B16496F04787B72417D2E7356689"",""assignmentId"":""05c279bd-c2c2-48b4-9bc2-4ba0e172dd02"",""projectId"":""e9cc2542-c7dc-4d8f-b94f-d088ad8989d1""}","https://test12345.live/?part=2&participantId=9B55B16496F04787B72417D2E7356689&assignmentId=05c279bd-c2c2-48b4-9bc2-4ba0e172dd02&projectId=e9cc2542-c7dc-4d8f-b94f-d088ad8989d1","9B55B16496F04787B72417D2E7356689-2025-05-16-18-24-42","[{""page_index"":0,""viewing_time"":1274},{""page_index"":1,""viewing_time"":3745},{""page_index"":2,""viewing_time"":5168}]","10188","","","","",""
"","","","","","image-button-response","8","101991","0.0-6.0-0.0","9B55B16496F04787B72417D2E7356689","9B55B16496F04787B72417D2E7356689","05c279bd-c2c2-48b4-9bc2-4ba0e172dd02","e9cc2542-c7dc-4d8f-b94f-d088ad8989d1","{""part"":""2"",""participantId"":""9B55B16496F04787B72417D2E7356689"",""assignmentId"":""05c279bd-c2c2-48b4-9bc2-4ba0e172dd02"",""projectId"":""e9cc2542-c7dc-4d8f-b94f-d088ad8989d1""}","https://test12345.live/?part=2&participantId=9B55B16496F04787B72417D2E7356689&assignmentId=05c279bd-c2c2-48b4-9bc2-4ba0e172dd02&projectId=e9cc2542-c7dc-4d8f-b94f-d088ad8989d1","9B55B16496F04787B72417D2E7356689-2025-05-16-18-24-42","","null","","images/instructions/movie_0.png","null","",""
"","","","","","html-audio-response","9","160367","0.0-7.0","9B55B16496F04787B72417D2E7356689","9B55B16496F04787B72417D2E7356689","05c279bd-c2c2-48b4-9bc2-4ba0e172dd02","e9cc2542-c7dc-4d8f-b94f-d088ad8989d1","{""part"":""2"",""participantId"":""9B55B16496F04787B72417D2E7356689"",""assignmentId"":""05c279bd-c2c2-48b4-9bc2-4ba0e172dd02"",""projectId"":""e9cc2542-c7dc-4d8f-b94f-d088ad8989d1""}","https://test12345.live/?part=2&participantId=9B55B16496F04787B72417D2E7356689&assignmentId=05c279bd-c2c2-48b4-9bc2-4ba0e172dd02&projectId=e9cc2542-c7dc-4d8f-b94f-d088ad8989d1","9B55B16496F04787B72417D2E7356689-2025-05-16-18-24-42","","14316","","[""<span style=\""color: red; font-size: 24px\""> NOW RECORDING</span><p>Please say out loud all the images you saw in part 1 of the experiment, as many as you can remember. The images can be said in any order.</p>""]","","3",""
"","","","","","instructions","10","161825","0.0-8.0","9B55B16496F04787B72417D2E7356689","9B55B16496F04787B72417D2E7356689","05c279bd-c2c2-48b4-9bc2-4ba0e172dd02","e9cc2542-c7dc-4d8f-b94f-d088ad8989d1","{""part"":""2"",""participantId"":""9B55B16496F04787B72417D2E7356689"",""assignmentId"":""05c279bd-c2c2-48b4-9bc2-4ba0e172dd02"",""projectId"":""e9cc2542-c7dc-4d8f-b94f-d088ad8989d1""}","https://test12345.live/?part=2&participantId=9B55B16496F04787B72417D2E7356689&assignmentId=05c279bd-c2c2-48b4-9bc2-4ba0e172dd02&projectId=e9cc2542-c7dc-4d8f-b94f-d088ad8989d1","9B55B16496F04787B72417D2E7356689-2025-05-16-18-24-42","[{""page_index"":0,""viewing_time"":1453}]","1453","","","","",""
"","","","","","image-button-response","11","167832","0.0-9.0-0.0","9B55B16496F04787B72417D2E7356689","9B55B16496F04787B72417D2E7356689","05c279bd-c2c2-48b4-9bc2-4ba0e172dd02","e9cc2542-c7dc-4d8f-b94f-d088ad8989d1","{""part"":""2"",""participantId"":""9B55B16496F04787B72417D2E7356689"",""assignmentId"":""05c279bd-c2c2-48b4-9bc2-4ba0e172dd02"",""projectId"":""e9cc2542-c7dc-4d8f-b94f-d088ad8989d1""}","https://test12345.live/?part=2&participantId=9B55B16496F04787B72417D2E7356689&assignmentId=05c279bd-c2c2-48b4-9bc2-4ba0e172dd02&projectId=e9cc2542-c7dc-4d8f-b94f-d088ad8989d1","9B55B16496F04787B72417D2E7356689-2025-05-16-18-24-42","","null","","images/semantic_sequence/kitchen_operations_semantic/kitchen_operations_semantic_0.png","null","",""
"","","","","","html-audio-response","12","184831","0.0-10.0","9B55B16496F04787B72417D2E7356689","9B55B16496F04787B72417D2E7356689","05c279bd-c2c2-48b4-9bc2-4ba0e172dd02","e9cc2542-c7dc-4d8f-b94f-d088ad8989d1","{""part"":""2"",""participantId"":""9B55B16496F04787B72417D2E7356689"",""assignmentId"":""05c279bd-c2c2-48b4-9bc2-4ba0e172dd02"",""projectId"":""e9cc2542-c7dc-4d8f-b94f-d088ad8989d1""}","https://test12345.live/?part=2&participantId=9B55B16496F04787B72417D2E7356689&assignmentId=05c279bd-c2c2-48b4-9bc2-4ba0e172dd02&projectId=e9cc2542-c7dc-4d8f-b94f-d088ad8989d1","9B55B16496F04787B72417D2E7356689-2025-05-16-18-24-42","","7546","","[""<span style=\""color: red; font-size: 24px\""> NOW RECORDING</span><p>Please say out loud all the images you saw in part 1 of the experiment, as many as you can remember. The images can be said in any order.</p>""]","","3","kitchen_operations_semantic"
"","","","","","image-button-response","13","190840","0.0-11.0-0.0","9B55B16496F04787B72417D2E7356689","9B55B16496F04787B72417D2E7356689","05c279bd-c2c2-48b4-9bc2-4ba0e172dd02","e9cc2542-c7dc-4d8f-b94f-d088ad8989d1","{""part"":""2"",""participantId"":""9B55B16496F04787B72417D2E7356689"",""assignmentId"":""05c279bd-c2c2-48b4-9bc2-4ba0e172dd02"",""projectId"":""e9cc2542-c7dc-4d8f-b94f-d088ad8989d1""}","https://test12345.live/?part=2&participantId=9B55B16496F04787B72417D2E7356689&assignmentId=05c279bd-c2c2-48b4-9bc2-4ba0e172dd02&projectId=e9cc2542-c7dc-4d8f-b94f-d088ad8989d1","9B55B16496F04787B72417D2E7356689-2025-05-16-18-24-42","","null","","images/causal_sequence/saving_a_cat_causal/saving_a_cat_causal_0.png","null","",""
"","","","","","html-audio-response","14","239143","0.0-12.0","9B55B16496F04787B72417D2E7356689","9B55B16496F04787B72417D2E7356689","05c279bd-c2c2-48b4-9bc2-4ba0e172dd02","e9cc2542-c7dc-4d8f-b94f-d088ad8989d1","{""part"":""2"",""participantId"":""9B55B16496F04787B72417D2E7356689"",""assignmentId"":""05c279bd-c2c2-48b4-9bc2-4ba0e172dd02"",""projectId"":""e9cc2542-c7dc-4d8f-b94f-d088ad8989d1""}","https://test12345.live/?part=2&participantId=9B55B16496F04787B72417D2E7356689&assignmentId=05c279bd-c2c2-48b4-9bc2-4ba0e172dd02&projectId=e9cc2542-c7dc-4d8f-b94f-d088ad8989d1","9B55B16496F04787B72417D2E7356689-2025-05-16-18-24-42","","23671","","[""<span style=\""color: red; font-size: 24px\""> NOW RECORDING</span><p>Please say out loud all the images you saw in part 1 of the experiment, as many as you can remember. The images can be said in any order.</p>""]","","3","saving_a_cat_causal"
"","","","","","image-button-response","15","245154","0.0-13.0-0.0","9B55B16496F04787B72417D2E7356689","9B55B16496F04787B72417D2E7356689","05c279bd-c2c2-48b4-9bc2-4ba0e172dd02","e9cc2542-c7dc-4d8f-b94f-d088ad8989d1","{""part"":""2"",""participantId"":""9B55B16496F04787B72417D2E7356689"",""assignmentId"":""05c279bd-c2c2-48b4-9bc2-4ba0e172dd02"",""projectId"":""e9cc2542-c7dc-4d8f-b94f-d088ad8989d1""}","https://test12345.live/?part=2&participantId=9B55B16496F04787B72417D2E7356689&assignmentId=05c279bd-c2c2-48b4-9bc2-4ba0e172dd02&projectId=e9cc2542-c7dc-4d8f-b94f-d088ad8989d1","9B55B16496F04787B72417D2E7356689-2025-05-16-18-24-42","","null","","images/semantic_sequence/creative_activities_semantic/creative_activities_semantic_0.png","null","",""
"","","","","","html-audio-response","16","262295","0.0-14.0","9B55B16496F04787B72417D2E7356689","9B55B16496F04787B72417D2E7356689","05c279bd-c2c2-48b4-9bc2-4ba0e172dd02","e9cc2542-c7dc-4d8f-b94f-d088ad8989d1","{""part"":""2"",""participantId"":""9B55B16496F04787B72417D2E7356689"",""assignmentId"":""05c279bd-c2c2-48b4-9bc2-4ba0e172dd02"",""projectId"":""e9cc2542-c7dc-4d8f-b94f-d088ad8989d1""}","https://test12345.live/?part=2&participantId=9B55B16496F04787B72417D2E7356689&assignmentId=05c279bd-c2c2-48b4-9bc2-4ba0e172dd02&projectId=e9cc2542-c7dc-4d8f-b94f-d088ad8989d1","9B55B16496F04787B72417D2E7356689-2025-05-16-18-24-42","","8962","","[""<span style=\""color: red; font-size: 24px\""> NOW RECORDING</span><p>Please say out loud all the images you saw in part 1 of the experiment, as many as you can remember. The images can be said in any order.</p>""]","","6","creative_activities_semantic"
"","","","","","image-button-response","17","268300","0.0-15.0-0.0","9B55B16496F04787B72417D2E7356689","9B55B16496F04787B72417D2E7356689","05c279bd-c2c2-48b4-9bc2-4ba0e172dd02","e9cc2542-c7dc-4d8f-b94f-d088ad8989d1","{""part"":""2"",""participantId"":""9B55B16496F04787B72417D2E7356689"",""assignmentId"":""05c279bd-c2c2-48b4-9bc2-4ba0e172dd02"",""projectId"":""e9cc2542-c7dc-4d8f-b94f-d088ad8989d1""}","https://test12345.live/?part=2&participantId=9B55B16496F04787B72417D2E7356689&assignmentId=05c279bd-c2c2-48b4-9bc2-4ba0e172dd02&projectId=e9cc2542-c7dc-4d8f-b94f-d088ad8989d1","9B55B16496F04787B72417D2E7356689-2025-05-16-18-24-42","","null","","images/semantic_sequence/self_care_activities_semantic/self_care_activities_semantic_0.png","null","",""
"","","","","","html-audio-response","18","302507","0.0-16.0","9B55B16496F04787B72417D2E7356689","9B55B16496F04787B72417D2E7356689","05c279bd-c2c2-48b4-9bc2-4ba0e172dd02","e9cc2542-c7dc-4d8f-b94f-d088ad8989d1","{""part"":""2"",""participantId"":""9B55B16496F04787B72417D2E7356689"",""assignmentId"":""05c279bd-c2c2-48b4-9bc2-4ba0e172dd02"",""projectId"":""e9cc2542-c7dc-4d8f-b94f-d088ad8989d1""}","https://test12345.live/?part=2&participantId=9B55B16496F04787B72417D2E7356689&assignmentId=05c279bd-c2c2-48b4-9bc2-4ba0e172dd02&projectId=e9cc2542-c7dc-4d8f-b94f-d088ad8989d1","9B55B16496F04787B72417D2E7356689-2025-05-16-18-24-42","","16456","","[""<span style=\""color: red; font-size: 24px\""> NOW RECORDING</span><p>Please say out loud all the images you saw in part 1 of the experiment, as many as you can remember. The images can be said in any order.</p>""]","","3","self_care_activities_semantic"
"","","","","","image-button-response","19","308517","0.0-17.0-0.0","9B55B16496F04787B72417D2E7356689","9B55B16496F04787B72417D2E7356689","05c279bd-c2c2-48b4-9bc2-4ba0e172dd02","e9cc2542-c7dc-4d8f-b94f-d088ad8989d1","{""part"":""2"",""participantId"":""9B55B16496F04787B72417D2E7356689"",""assignmentId"":""05c279bd-c2c2-48b4-9bc2-4ba0e172dd02"",""projectId"":""e9cc2542-c7dc-4d8f-b94f-d088ad8989d1""}","https://test12345.live/?part=2&participantId=9B55B16496F04787B72417D2E7356689&assignmentId=05c279bd-c2c2-48b4-9bc2-4ba0e172dd02&projectId=e9cc2542-c7dc-4d8f-b94f-d088ad8989d1","9B55B16496F04787B72417D2E7356689-2025-05-16-18-24-42","","null","","images/causal_sequence/package_causal/package_causal_0.png","null","",""
"","","","","","html-audio-response","20","350173","0.0-18.0","9B55B16496F04787B72417D2E7356689","9B55B16496F04787B72417D2E7356689","05c279bd-c2c2-48b4-9bc2-4ba0e172dd02","e9cc2542-c7dc-4d8f-b94f-d088ad8989d1","{""part"":""2"",""participantId"":""9B55B16496F04787B72417D2E7356689"",""assignmentId"":""05c279bd-c2c2-48b4-9bc2-4ba0e172dd02"",""projectId"":""e9cc2542-c7dc-4d8f-b94f-d088ad8989d1""}","https://test12345.live/?part=2&participantId=9B55B16496F04787B72417D2E7356689&assignmentId=05c279bd-c2c2-48b4-9bc2-4ba0e172dd02&projectId=e9cc2542-c7dc-4d8f-b94f-d088ad8989d1","9B55B16496F04787B72417D2E7356689-2025-05-16-18-24-42","","19514","","[""<span style=\""color: red; font-size: 24px\""> NOW RECORDING</span><p>Please say out loud all the images you saw in part 1 of the experiment, as many as you can remember. The images can be said in any order.</p>""]","","18","package_causal"
"","","","","","image-button-response","21","356183","0.0-19.0-0.0","9B55B16496F04787B72417D2E7356689","9B55B16496F04787B72417D2E7356689","05c279bd-c2c2-48b4-9bc2-4ba0e172dd02","e9cc2542-c7dc-4d8f-b94f-d088ad8989d1","{""part"":""2"",""participantId"":""9B55B16496F04787B72417D2E7356689"",""assignmentId"":""05c279bd-c2c2-48b4-9bc2-4ba0e172dd02"",""projectId"":""e9cc2542-c7dc-4d8f-b94f-d088ad8989d1""}","https://test12345.live/?part=2&participantId=9B55B16496F04787B72417D2E7356689&assignmentId=05c279bd-c2c2-48b4-9bc2-4ba0e172dd02&projectId=e9cc2542-c7dc-4d8f-b94f-d088ad8989d1","9B55B16496F04787B72417D2E7356689-2025-05-16-18-24-42","","null","","images/schematic_sequence/hotel_scheme/hotel_scheme_0.png","null","",""
"","","","","","html-audio-response","22","414062","0.0-20.0","9B55B16496F04787B72417D2E7356689","9B55B16496F04787B72417D2E7356689","05c279bd-c2c2-48b4-9bc2-4ba0e172dd02","e9cc2542-c7dc-4d8f-b94f-d088ad8989d1","{""part"":""2"",""participantId"":""9B55B16496F04787B72417D2E7356689"",""assignmentId"":""05c279bd-c2c2-48b4-9bc2-4ba0e172dd02"",""projectId"":""e9cc2542-c7dc-4d8f-b94f-d088ad8989d1""}","https://test12345.live/?part=2&participantId=9B55B16496F04787B72417D2E7356689&assignmentId=05c279bd-c2c2-48b4-9bc2-4ba0e172dd02&projectId=e9cc2542-c7dc-4d8f-b94f-d088ad8989d1","9B55B16496F04787B72417D2E7356689-2025-05-16-18-24-42","","25205","","[""<span style=\""color: red; font-size: 24px\""> NOW RECORDING</span><p>Please say out loud all the images you saw in part 1 of the experiment, as many as you can remember. The images can be said in any order.</p>""]","","2","hotel_scheme"
"","","","","","image-button-response","23","420072","0.0-21.0-0.0","9B55B16496F04787B72417D2E7356689","9B55B16496F04787B72417D2E7356689","05c279bd-c2c2-48b4-9bc2-4ba0e172dd02","e9cc2542-c7dc-4d8f-b94f-d088ad8989d1","{""part"":""2"",""participantId"":""9B55B16496F04787B72417D2E7356689"",""assignmentId"":""05c279bd-c2c2-48b4-9bc2-4ba0e172dd02"",""projectId"":""e9cc2542-c7dc-4d8f-b94f-d088ad8989d1""}","https://test12345.live/?part=2&participantId=9B55B16496F04787B72417D2E7356689&assignmentId=05c279bd-c2c2-48b4-9bc2-4ba0e172dd02&projectId=e9cc2542-c7dc-4d8f-b94f-d088ad8989d1","9B55B16496F04787B72417D2E7356689-2025-05-16-18-24-42","","null","","images/semantic_sequence/maintaining_a_car_semantic/maintaining_a_car_semantic_0.png","null","",""
"","","","","","html-audio-response","24","449113","0.0-22.0","9B55B16496F04787B72417D2E7356689","9B55B16496F04787B72417D2E7356689","05c279bd-c2c2-48b4-9bc2-4ba0e172dd02","e9cc2542-c7dc-4d8f-b94f-d088ad8989d1","{""part"":""2"",""participantId"":""9B55B16496F04787B72417D2E7356689"",""assignmentId"":""05c279bd-c2c2-48b4-9bc2-4ba0e172dd02"",""projectId"":""e9cc2542-c7dc-4d8f-b94f-d088ad8989d1""}","https://test12345.live/?part=2&participantId=9B55B16496F04787B72417D2E7356689&assignmentId=05c279bd-c2c2-48b4-9bc2-4ba0e172dd02&projectId=e9cc2542-c7dc-4d8f-b94f-d088ad8989d1","9B55B16496F04787B72417D2E7356689-2025-05-16-18-24-42","","13987","","[""<span style=\""color: red; font-size: 24px\""> NOW RECORDING</span><p>Please say out loud all the images you saw in part 1 of the experiment, as many as you can remember. The images can be said in any order.</p>""]","","3","maintaining_a_car_semantic"
"","","","","","image-button-response","25","455121","0.0-23.0-0.0","9B55B16496F04787B72417D2E7356689","9B55B16496F04787B72417D2E7356689","05c279bd-c2c2-48b4-9bc2-4ba0e172dd02","e9cc2542-c7dc-4d8f-b94f-d088ad8989d1","{""part"":""2"",""participantId"":""9B55B16496F04787B72417D2E7356689"",""assignmentId"":""05c279bd-c2c2-48b4-9bc2-4ba0e172dd02"",""projectId"":""e9cc2542-c7dc-4d8f-b94f-d088ad8989d1""}","https://test12345.live/?part=2&participantId=9B55B16496F04787B72417D2E7356689&assignmentId=05c279bd-c2c2-48b4-9bc2-4ba0e172dd02&projectId=e9cc2542-c7dc-4d8f-b94f-d088ad8989d1","9B55B16496F04787B72417D2E7356689-2025-05-16-18-24-42","","null","","images/schematic_sequence/dinner_party_scheme/dinner_party_scheme_0.png","null","",""
"","","","","","html-audio-response","26","511757","0.0-24.0","9B55B16496F04787B72417D2E7356689","9B55B16496F04787B72417D2E7356689","05c279bd-c2c2-48b4-9bc2-4ba0e172dd02","e9cc2542-c7dc-4d8f-b94f-d088ad8989d1","{""part"":""2"",""participantId"":""9B55B16496F04787B72417D2E7356689"",""assignmentId"":""05c279bd-c2c2-48b4-9bc2-4ba0e172dd02"",""projectId"":""e9cc2542-c7dc-4d8f-b94f-d088ad8989d1""}","https://test12345.live/?part=2&participantId=9B55B16496F04787B72417D2E7356689&assignmentId=05c279bd-c2c2-48b4-9bc2-4ba0e172dd02&projectId=e9cc2542-c7dc-4d8f-b94f-d088ad8989d1","9B55B16496F04787B72417D2E7356689-2025-05-16-18-24-42","","14033","","[""<span style=\""color: red; font-size: 24px\""> NOW RECORDING</span><p>Please say out loud all the images you saw in part 1 of the experiment, as many as you can remember. The images can be said in any order.</p>""]","","2","dinner_party_scheme"
"","","","","","image-button-response","27","517760","0.0-25.0-0.0","9B55B16496F04787B72417D2E7356689","9B55B16496F04787B72417D2E7356689","05c279bd-c2c2-48b4-9bc2-4ba0e172dd02","e9cc2542-c7dc-4d8f-b94f-d088ad8989d1","{""part"":""2"",""participantId"":""9B55B16496F04787B72417D2E7356689"",""assignmentId"":""05c279bd-c2c2-48b4-9bc2-4ba0e172dd02"",""projectId"":""e9cc2542-c7dc-4d8f-b94f-d088ad8989d1""}","https://test12345.live/?part=2&participantId=9B55B16496F04787B72417D2E7356689&assignmentId=05c279bd-c2c2-48b4-9bc2-4ba0e172dd02&projectId=e9cc2542-c7dc-4d8f-b94f-d088ad8989d1","9B55B16496F04787B72417D2E7356689-2025-05-16-18-24-42","","null","","images/causal_sequence/coin_causal/coin_causal_0.png","null","",""
"","","","","","html-audio-response","28","581496","0.0-26.0","9B55B16496F04787B72417D2E7356689","9B55B16496F04787B72417D2E7356689","05c279bd-c2c2-48b4-9bc2-4ba0e172dd02","e9cc2542-c7dc-4d8f-b94f-d088ad8989d1","{""part"":""2"",""participantId"":""9B55B16496F04787B72417D2E7356689"",""assignmentId"":""05c279bd-c2c2-48b4-9bc2-4ba0e172dd02"",""projectId"":""e9cc2542-c7dc-4d8f-b94f-d088ad8989d1""}","https://test12345.live/?part=2&participantId=9B55B16496F04787B72417D2E7356689&assignmentId=05c279bd-c2c2-48b4-9bc2-4ba0e172dd02&projectId=e9cc2542-c7dc-4d8f-b94f-d088ad8989d1","9B55B16496F04787B72417D2E7356689-2025-05-16-18-24-42","","30923","","[""<span style=\""color: red; font-size: 24px\""> NOW RECORDING</span><p>Please say out loud all the images you saw in part 1 of the experiment, as many as you can remember. The images can be said in any order.</p>""]","","3","coin_causal"
"","","","","","image-button-response","29","587506","0.0-27.0-0.0","9B55B16496F04787B72417D2E7356689","9B55B16496F04787B72417D2E7356689","05c279bd-c2c2-48b4-9bc2-4ba0e172dd02","e9cc2542-c7dc-4d8f-b94f-d088ad8989d1","{""part"":""2"",""participantId"":""9B55B16496F04787B72417D2E7356689"",""assignmentId"":""05c279bd-c2c2-48b4-9bc2-4ba0e172dd02"",""projectId"":""e9cc2542-c7dc-4d8f-b94f-d088ad8989d1""}","https://test12345.live/?part=2&participantId=9B55B16496F04787B72417D2E7356689&assignmentId=05c279bd-c2c2-48b4-9bc2-4ba0e172dd02&projectId=e9cc2542-c7dc-4d8f-b94f-d088ad8989d1","9B55B16496F04787B72417D2E7356689-2025-05-16-18-24-42","","null","","images/semantic_sequence/exploring_nature_semantic/exploring_nature_semantic_0.png","null","",""
"","","","","","html-audio-response","30","605158","0.0-28.0","9B55B16496F04787B72417D2E7356689","9B55B16496F04787B72417D2E7356689","05c279bd-c2c2-48b4-9bc2-4ba0e172dd02","e9cc2542-c7dc-4d8f-b94f-d088ad8989d1","{""part"":""2"",""participantId"":""9B55B16496F04787B72417D2E7356689"",""assignmentId"":""05c279bd-c2c2-48b4-9bc2-4ba0e172dd02"",""projectId"":""e9cc2542-c7dc-4d8f-b94f-d088ad8989d1""}","https://test12345.live/?part=2&participantId=9B55B16496F04787B72417D2E7356689&assignmentId=05c279bd-c2c2-48b4-9bc2-4ba0e172dd02&projectId=e9cc2542-c7dc-4d8f-b94f-d088ad8989d1","9B55B16496F04787B72417D2E7356689-2025-05-16-18-24-42","","4379","","[""<span style=\""color: red; font-size: 24px\""> NOW RECORDING</span><p>Please say out loud all the images you saw in part 1 of the experiment, as many as you can remember. The images can be said in any order.</p>""]","","5","exploring_nature_semantic"
"","","","","","image-button-response","31","611167","0.0-29.0-0.0","9B55B16496F04787B72417D2E7356689","9B55B16496F04787B72417D2E7356689","05c279bd-c2c2-48b4-9bc2-4ba0e172dd02","e9cc2542-c7dc-4d8f-b94f-d088ad8989d1","{""part"":""2"",""participantId"":""9B55B16496F04787B72417D2E7356689"",""assignmentId"":""05c279bd-c2c2-48b4-9bc2-4ba0e172dd02"",""projectId"":""e9cc2542-c7dc-4d8f-b94f-d088ad8989d1""}","https://test12345.live/?part=2&participantId=9B55B16496F04787B72417D2E7356689&assignmentId=05c279bd-c2c2-48b4-9bc2-4ba0e172dd02&projectId=e9cc2542-c7dc-4d8f-b94f-d088ad8989d1","9B55B16496F04787B72417D2E7356689-2025-05-16-18-24-42","","null","","images/semantic_sequence/market_semantic/market_semantic_0.png","null","",""
"","","","","","html-audio-response","32","631661","0.0-30.0","9B55B16496F04787B72417D2E7356689","9B55B16496F04787B72417D2E7356689","05c279bd-c2c2-48b4-9bc2-4ba0e172dd02","e9cc2542-c7dc-4d8f-b94f-d088ad8989d1","{""part"":""2"",""participantId"":""9B55B16496F04787B72417D2E7356689"",""assignmentId"":""05c279bd-c2c2-48b4-9bc2-4ba0e172dd02"",""projectId"":""e9cc2542-c7dc-4d8f-b94f-d088ad8989d1""}","https://test12345.live/?part=2&participantId=9B55B16496F04787B72417D2E7356689&assignmentId=05c279bd-c2c2-48b4-9bc2-4ba0e172dd02&projectId=e9cc2542-c7dc-4d8f-b94f-d088ad8989d1","9B55B16496F04787B72417D2E7356689-2025-05-16-18-24-42","","9905","","[""<span style=\""color: red; font-size: 24px\""> NOW RECORDING</span><p>Please say out loud all the images you saw in part 1 of the experiment, as many as you can remember. The images can be said in any order.</p>""]","","3","market_semantic"
"","","","","","image-button-response","33","637669","0.0-31.0-0.0","9B55B16496F04787B72417D2E7356689","9B55B16496F04787B72417D2E7356689","05c279bd-c2c2-48b4-9bc2-4ba0e172dd02","e9cc2542-c7dc-4d8f-b94f-d088ad8989d1","{""part"":""2"",""participantId"":""9B55B16496F04787B72417D2E7356689"",""assignmentId"":""05c279bd-c2c2-48b4-9bc2-4ba0e172dd02"",""projectId"":""e9cc2542-c7dc-4d8f-b94f-d088ad8989d1""}","https://test12345.live/?part=2&participantId=9B55B16496F04787B72417D2E7356689&assignmentId=05c279bd-c2c2-48b4-9bc2-4ba0e172dd02&projectId=e9cc2542-c7dc-4d8f-b94f-d088ad8989d1","9B55B16496F04787B72417D2E7356689-2025-05-16-18-24-42","","null","","images/semantic_sequence/redecorating_semantic/redecorating_semantic_0.png","null","",""
"","","","","","html-audio-response","34","655946","0.0-32.0","9B55B16496F04787B72417D2E7356689","9B55B16496F04787B72417D2E7356689","05c279bd-c2c2-48b4-9bc2-4ba0e172dd02","e9cc2542-c7dc-4d8f-b94f-d088ad8989d1","{""part"":""2"",""participantId"":""9B55B16496F04787B72417D2E7356689"",""assignmentId"":""05c279bd-c2c2-48b4-9bc2-4ba0e172dd02"",""projectId"":""e9cc2542-c7dc-4d8f-b94f-d088ad8989d1""}","https://test12345.live/?part=2&participantId=9B55B16496F04787B72417D2E7356689&assignmentId=05c279bd-c2c2-48b4-9bc2-4ba0e172dd02&projectId=e9cc2542-c7dc-4d8f-b94f-d088ad8989d1","9B55B16496F04787B72417D2E7356689-2025-05-16-18-24-42","","8400","","[""<span style=\""color: red; font-size: 24px\""> NOW RECORDING</span><p>Please say out loud all the images you saw in part 1 of the experiment, as many as you can remember. The images can be said in any order.</p>""]","","1","redecorating_semantic"
"","","","","","image-button-response","35","661955","0.0-33.0-0.0","9B55B16496F04787B72417D2E7356689","9B55B16496F04787B72417D2E7356689","05c279bd-c2c2-48b4-9bc2-4ba0e172dd02","e9cc2542-c7dc-4d8f-b94f-d088ad8989d1","{""part"":""2"",""participantId"":""9B55B16496F04787B72417D2E7356689"",""assignmentId"":""05c279bd-c2c2-48b4-9bc2-4ba0e172dd02"",""projectId"":""e9cc2542-c7dc-4d8f-b94f-d088ad8989d1""}","https://test12345.live/?part=2&participantId=9B55B16496F04787B72417D2E7356689&assignmentId=05c279bd-c2c2-48b4-9bc2-4ba0e172dd02&projectId=e9cc2542-c7dc-4d8f-b94f-d088ad8989d1","9B55B16496F04787B72417D2E7356689-2025-05-16-18-24-42","","null","","images/schematic_sequence/supermarket_scheme/supermarket_scheme_0.png","null","",""
"","","","","","html-audio-response","36","691848","0.0-34.0","9B55B16496F04787B72417D2E7356689","9B55B16496F04787B72417D2E7356689","05c279bd-c2c2-48b4-9bc2-4ba0e172dd02","e9cc2542-c7dc-4d8f-b94f-d088ad8989d1","{""part"":""2"",""participantId"":""9B55B16496F04787B72417D2E7356689"",""assignmentId"":""05c279bd-c2c2-48b4-9bc2-4ba0e172dd02"",""projectId"":""e9cc2542-c7dc-4d8f-b94f-d088ad8989d1""}","https://test12345.live/?part=2&participantId=9B55B16496F04787B72417D2E7356689&assignmentId=05c279bd-c2c2-48b4-9bc2-4ba0e172dd02&projectId=e9cc2542-c7dc-4d8f-b94f-d088ad8989d1","9B55B16496F04787B72417D2E7356689-2025-05-16-18-24-42","","13385","","[""<span style=\""color: red; font-size: 24px\""> NOW RECORDING</span><p>Please say out loud all the images you saw in part 1 of the experiment, as many as you can remember. The images can be said in any order.</p>""]","","17","supermarket_scheme"
"","","","","","image-button-response","37","697856","0.0-35.0-0.0","9B55B16496F04787B72417D2E7356689","9B55B16496F04787B72417D2E7356689","05c279bd-c2c2-48b4-9bc2-4ba0e172dd02","e9cc2542-c7dc-4d8f-b94f-d088ad8989d1","{""part"":""2"",""participantId"":""9B55B16496F04787B72417D2E7356689"",""assignmentId"":""05c279bd-c2c2-48b4-9bc2-4ba0e172dd02"",""projectId"":""e9cc2542-c7dc-4d8f-b94f-d088ad8989d1""}","https://test12345.live/?part=2&participantId=9B55B16496F04787B72417D2E7356689&assignmentId=05c279bd-c2c2-48b4-9bc2-4ba0e172dd02&projectId=e9cc2542-c7dc-4d8f-b94f-d088ad8989d1","9B55B16496F04787B72417D2E7356689-2025-05-16-18-24-42","","null","","images/causal_sequence/the_performance_causal/the_performance_causal_0.png","null","",""
"","","","","","html-audio-response","38","760311","0.0-36.0","9B55B16496F04787B72417D2E7356689","9B55B16496F04787B72417D2E7356689","05c279bd-c2c2-48b4-9bc2-4ba0e172dd02","e9cc2542-c7dc-4d8f-b94f-d088ad8989d1","{""part"":""2"",""participantId"":""9B55B16496F04787B72417D2E7356689"",""assignmentId"":""05c279bd-c2c2-48b4-9bc2-4ba0e172dd02"",""projectId"":""e9cc2542-c7dc-4d8f-b94f-d088ad8989d1""}","https://test12345.live/?part=2&participantId=9B55B16496F04787B72417D2E7356689&assignmentId=05c279bd-c2c2-48b4-9bc2-4ba0e172dd02&projectId=e9cc2542-c7dc-4d8f-b94f-d088ad8989d1","9B55B16496F04787B72417D2E7356689-2025-05-16-18-24-42","","30584","","[""<span style=\""color: red; font-size: 24px\""> NOW RECORDING</span><p>Please say out loud all the images you saw in part 1 of the experiment, as many as you can remember. The images can be said in any order.</p>""]","","1","the_performance_causal"
"","","","","","image-button-response","39","766321","0.0-37.0-0.0","9B55B16496F04787B72417D2E7356689","9B55B16496F04787B72417D2E7356689","05c279bd-c2c2-48b4-9bc2-4ba0e172dd02","e9cc2542-c7dc-4d8f-b94f-d088ad8989d1","{""part"":""2"",""participantId"":""9B55B16496F04787B72417D2E7356689"",""assignmentId"":""05c279bd-c2c2-48b4-9bc2-4ba0e172dd02"",""projectId"":""e9cc2542-c7dc-4d8f-b94f-d088ad8989d1""}","https://test12345.live/?part=2&participantId=9B55B16496F04787B72417D2E7356689&assignmentId=05c279bd-c2c2-48b4-9bc2-4ba0e172dd02&projectId=e9cc2542-c7dc-4d8f-b94f-d088ad8989d1","9B55B16496F04787B72417D2E7356689-2025-05-16-18-24-42","","null","","images/semantic_sequence/visiting_cities_semantic/visiting_cities_semantic_0.png","null","",""
"","","","","","html-audio-response","40","789348","0.0-38.0","9B55B16496F04787B72417D2E7356689","9B55B16496F04787B72417D2E7356689","05c279bd-c2c2-48b4-9bc2-4ba0e172dd02","e9cc2542-c7dc-4d8f-b94f-d088ad8989d1","{""part"":""2"",""participantId"":""9B55B16496F04787B72417D2E7356689"",""assignmentId"":""05c279bd-c2c2-48b4-9bc2-4ba0e172dd02"",""projectId"":""e9cc2542-c7dc-4d8f-b94f-d088ad8989d1""}","https://test12345.live/?part=2&participantId=9B55B16496F04787B72417D2E7356689&assignmentId=05c279bd-c2c2-48b4-9bc2-4ba0e172dd02&projectId=e9cc2542-c7dc-4d8f-b94f-d088ad8989d1","9B55B16496F04787B72417D2E7356689-2025-05-16-18-24-42","","11089","","[""<span style=\""color: red; font-size: 24px\""> NOW RECORDING</span><p>Please say out loud all the images you saw in part 1 of the experiment, as many as you can remember. The images can be said in any order.</p>""]","","4","visiting_cities_semantic"
"","","","","","image-button-response","41","795356","0.0-39.0-0.0","9B55B16496F04787B72417D2E7356689","9B55B16496F04787B72417D2E7356689","05c279bd-c2c2-48b4-9bc2-4ba0e172dd02","e9cc2542-c7dc-4d8f-b94f-d088ad8989d1","{""part"":""2"",""participantId"":""9B55B16496F04787B72417D2E7356689"",""assignmentId"":""05c279bd-c2c2-48b4-9bc2-4ba0e172dd02"",""projectId"":""e9cc2542-c7dc-4d8f-b94f-d088ad8989d1""}","https://test12345.live/?part=2&participantId=9B55B16496F04787B72417D2E7356689&assignmentId=05c279bd-c2c2-48b4-9bc2-4ba0e172dd02&projectId=e9cc2542-c7dc-4d8f-b94f-d088ad8989d1","9B55B16496F04787B72417D2E7356689-2025-05-16-18-24-42","","null","","images/semantic_sequence/housework_semantic/housework_semantic_0.png","null","",""
"","","","","","html-audio-response","42","813050","0.0-40.0","9B55B16496F04787B72417D2E7356689","9B55B16496F04787B72417D2E7356689","05c279bd-c2c2-48b4-9bc2-4ba0e172dd02","e9cc2542-c7dc-4d8f-b94f-d088ad8989d1","{""part"":""2"",""participantId"":""9B55B16496F04787B72417D2E7356689"",""assignmentId"":""05c279bd-c2c2-48b4-9bc2-4ba0e172dd02"",""projectId"":""e9cc2542-c7dc-4d8f-b94f-d088ad8989d1""}","https://test12345.live/?part=2&participantId=9B55B16496F04787B72417D2E7356689&assignmentId=05c279bd-c2c2-48b4-9bc2-4ba0e172dd02&projectId=e9cc2542-c7dc-4d8f-b94f-d088ad8989d1","9B55B16496F04787B72417D2E7356689-2025-05-16-18-24-42","","8000","","[""<span style=\""color: red; font-size: 24px\""> NOW RECORDING</span><p>Please say out loud all the images you saw in part 1 of the experiment, as many as you can remember. The images can be said in any order.</p>""]","","1","housework_semantic"
"","","","","","image-button-response","43","819056","0.0-41.0-0.0","9B55B16496F04787B72417D2E7356689","9B55B16496F04787B72417D2E7356689","05c279bd-c2c2-48b4-9bc2-4ba0e172dd02","e9cc2542-c7dc-4d8f-b94f-d088ad8989d1","{""part"":""2"",""participantId"":""9B55B16496F04787B72417D2E7356689"",""assignmentId"":""05c279bd-c2c2-48b4-9bc2-4ba0e172dd02"",""projectId"":""e9cc2542-c7dc-4d8f-b94f-d088ad8989d1""}","https://test12345.live/?part=2&participantId=9B55B16496F04787B72417D2E7356689&assignmentId=05c279bd-c2c2-48b4-9bc2-4ba0e172dd02&projectId=e9cc2542-c7dc-4d8f-b94f-d088ad8989d1","9B55B16496F04787B72417D2E7356689-2025-05-16-18-24-42","","null","","images/semantic_sequence/physical_activity_semantic/physical_activity_semantic_0.png","null","",""
"","","","","","html-audio-response","44","837471","0.0-42.0","9B55B16496F04787B72417D2E7356689","9B55B16496F04787B72417D2E7356689","05c279bd-c2c2-48b4-9bc2-4ba0e172dd02","e9cc2542-c7dc-4d8f-b94f-d088ad8989d1","{""part"":""2"",""participantId"":""9B55B16496F04787B72417D2E7356689"",""assignmentId"":""05c279bd-c2c2-48b4-9bc2-4ba0e172dd02"",""projectId"":""e9cc2542-c7dc-4d8f-b94f-d088ad8989d1""}","https://test12345.live/?part=2&participantId=9B55B16496F04787B72417D2E7356689&assignmentId=05c279bd-c2c2-48b4-9bc2-4ba0e172dd02&projectId=e9cc2542-c7dc-4d8f-b94f-d088ad8989d1","9B55B16496F04787B72417D2E7356689-2025-05-16-18-24-42","","8839","","[""<span style=\""color: red; font-size: 24px\""> NOW RECORDING</span><p>Please say out loud all the images you saw in part 1 of the experiment, as many as you can remember. The images can be said in any order.</p>""]","","3","physical_activity_semantic"
"","","","","","image-button-response","45","843477","0.0-43.0-0.0","9B55B16496F04787B72417D2E7356689","9B55B16496F04787B72417D2E7356689","05c279bd-c2c2-48b4-9bc2-4ba0e172dd02","e9cc2542-c7dc-4d8f-b94f-d088ad8989d1","{""part"":""2"",""participantId"":""9B55B16496F04787B72417D2E7356689"",""assignmentId"":""05c279bd-c2c2-48b4-9bc2-4ba0e172dd02"",""projectId"":""e9cc2542-c7dc-4d8f-b94f-d088ad8989d1""}","https://test12345.live/?part=2&participantId=9B55B16496F04787B72417D2E7356689&assignmentId=05c279bd-c2c2-48b4-9bc2-4ba0e172dd02&projectId=e9cc2542-c7dc-4d8f-b94f-d088ad8989d1","9B55B16496F04787B72417D2E7356689-2025-05-16-18-24-42","","null","","images/causal_sequence/dog_causal/dog_causal_0.png","null","",""
"","","","","","html-audio-response","46","900266","0.0-44.0","9B55B16496F04787B72417D2E7356689","9B55B16496F04787B72417D2E7356689","05c279bd-c2c2-48b4-9bc2-4ba0e172dd02","e9cc2542-c7dc-4d8f-b94f-d088ad8989d1","{""part"":""2"",""participantId"":""9B55B16496F04787B72417D2E7356689"",""assignmentId"":""05c279bd-c2c2-48b4-9bc2-4ba0e172dd02"",""projectId"":""e9cc2542-c7dc-4d8f-b94f-d088ad8989d1""}","https://test12345.live/?part=2&participantId=9B55B16496F04787B72417D2E7356689&assignmentId=05c279bd-c2c2-48b4-9bc2-4ba0e172dd02&projectId=e9cc2542-c7dc-4d8f-b94f-d088ad8989d1","9B55B16496F04787B72417D2E7356689-2025-05-16-18-24-42","","27800","","[""<span style=\""color: red; font-size: 24px\""> NOW RECORDING</span><p>Please say out loud all the images you saw in part 1 of the experiment, as many as you can remember. The images can be said in any order.</p>""]","","3","dog_causal"
"","","","","","image-button-response","47","906277","0.0-45.0-0.0","9B55B16496F04787B72417D2E7356689","9B55B16496F04787B72417D2E7356689","05c279bd-c2c2-48b4-9bc2-4ba0e172dd02","e9cc2542-c7dc-4d8f-b94f-d088ad8989d1","{""part"":""2"",""participantId"":""9B55B16496F04787B72417D2E7356689"",""assignmentId"":""05c279bd-c2c2-48b4-9bc2-4ba0e172dd02"",""projectId"":""e9cc2542-c7dc-4d8f-b94f-d088ad8989d1""}","https://test12345.live/?part=2&participantId=9B55B16496F04787B72417D2E7356689&assignmentId=05c279bd-c2c2-48b4-9bc2-4ba0e172dd02&projectId=e9cc2542-c7dc-4d8f-b94f-d088ad8989d1","9B55B16496F04787B72417D2E7356689-2025-05-16-18-24-42","","null","","images/semantic_sequence/cat_care_semantic/cat_care_semantic_0.png","null","",""
"","","","","","html-audio-response","48","924441","0.0-46.0","9B55B16496F04787B72417D2E7356689","9B55B16496F04787B72417D2E7356689","05c279bd-c2c2-48b4-9bc2-4ba0e172dd02","e9cc2542-c7dc-4d8f-b94f-d088ad8989d1","{""part"":""2"",""participantId"":""9B55B16496F04787B72417D2E7356689"",""assignmentId"":""05c279bd-c2c2-48b4-9bc2-4ba0e172dd02"",""projectId"":""e9cc2542-c7dc-4d8f-b94f-d088ad8989d1""}","https://test12345.live/?part=2&participantId=9B55B16496F04787B72417D2E7356689&assignmentId=05c279bd-c2c2-48b4-9bc2-4ba0e172dd02&projectId=e9cc2542-c7dc-4d8f-b94f-d088ad8989d1","9B55B16496F04787B72417D2E7356689-2025-05-16-18-24-42","","8634","","[""<span style=\""color: red; font-size: 24px\""> NOW RECORDING</span><p>Please say out loud all the images you saw in part 1 of the experiment, as many as you can remember. The images can be said in any order.</p>""]","","3","cat_care_semantic"
"","","","","","image-button-response","49","930450","0.0-47.0-0.0","9B55B16496F04787B72417D2E7356689","9B55B16496F04787B72417D2E7356689","05c279bd-c2c2-48b4-9bc2-4ba0e172dd02","e9cc2542-c7dc-4d8f-b94f-d088ad8989d1","{""part"":""2"",""participantId"":""9B55B16496F04787B72417D2E7356689"",""assignmentId"":""05c279bd-c2c2-48b4-9bc2-4ba0e172dd02"",""projectId"":""e9cc2542-c7dc-4d8f-b94f-d088ad8989d1""}","https://test12345.live/?part=2&participantId=9B55B16496F04787B72417D2E7356689&assignmentId=05c279bd-c2c2-48b4-9bc2-4ba0e172dd02&projectId=e9cc2542-c7dc-4d8f-b94f-d088ad8989d1","9B55B16496F04787B72417D2E7356689-2025-05-16-18-24-42","","null","","images/schematic_sequence/flight_scheme/flight_scheme_0.png","null","",""
"","","","","","html-audio-response","50","978120","0.0-48.0","9B55B16496F04787B72417D2E7356689","9B55B16496F04787B72417D2E7356689","05c279bd-c2c2-48b4-9bc2-4ba0e172dd02","e9cc2542-c7dc-4d8f-b94f-d088ad8989d1","{""part"":""2"",""participantId"":""9B55B16496F04787B72417D2E7356689"",""assignmentId"":""05c279bd-c2c2-48b4-9bc2-4ba0e172dd02"",""projectId"":""e9cc2542-c7dc-4d8f-b94f-d088ad8989d1""}","https://test12345.live/?part=2&participantId=9B55B16496F04787B72417D2E7356689&assignmentId=05c279bd-c2c2-48b4-9bc2-4ba0e172dd02&projectId=e9cc2542-c7dc-4d8f-b94f-d088ad8989d1","9B55B16496F04787B72417D2E7356689-2025-05-16-18-24-42","","17668","","[""<span style=\""color: red; font-size: 24px\""> NOW RECORDING</span><p>Please say out loud all the images you saw in part 1 of the experiment, as many as you can remember. The images can be said in any order.</p>""]","","3","flight_scheme"
"","","","","","image-button-response","51","984127","0.0-49.0-0.0","9B55B16496F04787B72417D2E7356689","9B55B16496F04787B72417D2E7356689","05c279bd-c2c2-48b4-9bc2-4ba0e172dd02","e9cc2542-c7dc-4d8f-b94f-d088ad8989d1","{""part"":""2"",""participantId"":""9B55B16496F04787B72417D2E7356689"",""assignmentId"":""05c279bd-c2c2-48b4-9bc2-4ba0e172dd02"",""projectId"":""e9cc2542-c7dc-4d8f-b94f-d088ad8989d1""}","https://test12345.live/?part=2&participantId=9B55B16496F04787B72417D2E7356689&assignmentId=05c279bd-c2c2-48b4-9bc2-4ba0e172dd02&projectId=e9cc2542-c7dc-4d8f-b94f-d088ad8989d1","9B55B16496F04787B72417D2E7356689-2025-05-16-18-24-42","","null","","images/schematic_sequence/interview_scheme/interview_scheme_0.png","null","",""
"","","","","","html-audio-response","52","1031020","0.0-50.0","9B55B16496F04787B72417D2E7356689","9B55B16496F04787B72417D2E7356689","05c279bd-c2c2-48b4-9bc2-4ba0e172dd02","e9cc2542-c7dc-4d8f-b94f-d088ad8989d1","{""part"":""2"",""participantId"":""9B55B16496F04787B72417D2E7356689"",""assignmentId"":""05c279bd-c2c2-48b4-9bc2-4ba0e172dd02"",""projectId"":""e9cc2542-c7dc-4d8f-b94f-d088ad8989d1""}","https://test12345.live/?part=2&participantId=9B55B16496F04787B72417D2E7356689&assignmentId=05c279bd-c2c2-48b4-9bc2-4ba0e172dd02&projectId=e9cc2542-c7dc-4d8f-b94f-d088ad8989d1","9B55B16496F04787B72417D2E7356689-2025-05-16-18-24-42","","22712","","[""<span style=\""color: red; font-size: 24px\""> NOW RECORDING</span><p>Please say out loud all the images you saw in part 1 of the experiment, as many as you can remember. The images can be said in any order.</p>""]","","17","interview_scheme"
"","","","","","image-button-response","53","1037031","0.0-51.0-0.0","9B55B16496F04787B72417D2E7356689","9B55B16496F04787B72417D2E7356689","05c279bd-c2c2-48b4-9bc2-4ba0e172dd02","e9cc2542-c7dc-4d8f-b94f-d088ad8989d1","{""part"":""2"",""participantId"":""9B55B16496F04787B72417D2E7356689"",""assignmentId"":""05c279bd-c2c2-48b4-9bc2-4ba0e172dd02"",""projectId"":""e9cc2542-c7dc-4d8f-b94f-d088ad8989d1""}","https://test12345.live/?part=2&participantId=9B55B16496F04787B72417D2E7356689&assignmentId=05c279bd-c2c2-48b4-9bc2-4ba0e172dd02&projectId=e9cc2542-c7dc-4d8f-b94f-d088ad8989d1","9B55B16496F04787B72417D2E7356689-2025-05-16-18-24-42","","null","","images/schematic_sequence/restaurant_scheme/restaurant_scheme_0.png","null","",""
"","","","","","html-audio-response","54","1073819","0.0-52.0","9B55B16496F04787B72417D2E7356689","9B55B16496F04787B72417D2E7356689","05c279bd-c2c2-48b4-9bc2-4ba0e172dd02","e9cc2542-c7dc-4d8f-b94f-d088ad8989d1","{""part"":""2"",""participantId"":""9B55B16496F04787B72417D2E7356689"",""assignmentId"":""05c279bd-c2c2-48b4-9bc2-4ba0e172dd02"",""projectId"":""e9cc2542-c7dc-4d8f-b94f-d088ad8989d1""}","https://test12345.live/?part=2&participantId=9B55B16496F04787B72417D2E7356689&assignmentId=05c279bd-c2c2-48b4-9bc2-4ba0e172dd02&projectId=e9cc2542-c7dc-4d8f-b94f-d088ad8989d1","9B55B16496F04787B72417D2E7356689-2025-05-16-18-24-42","","17382","","[""<span style=\""color: red; font-size: 24px\""> NOW RECORDING</span><p>Please say out loud all the images you saw in part 1 of the experiment, as many as you can remember. The images can be said in any order.</p>""]","","3","restaurant_scheme"
"","","","","","image-button-response","55","1079826","0.0-53.0-0.0","9B55B16496F04787B72417D2E7356689","9B55B16496F04787B72417D2E7356689","05c279bd-c2c2-48b4-9bc2-4ba0e172dd02","e9cc2542-c7dc-4d8f-b94f-d088ad8989d1","{""part"":""2"",""participantId"":""9B55B16496F04787B72417D2E7356689"",""assignmentId"":""05c279bd-c2c2-48b4-9bc2-4ba0e172dd02"",""projectId"":""e9cc2542-c7dc-4d8f-b94f-d088ad8989d1""}","https://test12345.live/?part=2&participantId=9B55B16496F04787B72417D2E7356689&assignmentId=05c279bd-c2c2-48b4-9bc2-4ba0e172dd02&projectId=e9cc2542-c7dc-4d8f-b94f-d088ad8989d1","9B55B16496F04787B72417D2E7356689-2025-05-16-18-24-42","","null","","images/semantic_sequence/using_technology_semantic/using_technology_semantic_0.png","null","",""
"","","","","","html-audio-response","56","1094447","0.0-54.0","9B55B16496F04787B72417D2E7356689","9B55B16496F04787B72417D2E7356689","05c279bd-c2c2-48b4-9bc2-4ba0e172dd02","e9cc2542-c7dc-4d8f-b94f-d088ad8989d1","{""part"":""2"",""participantId"":""9B55B16496F04787B72417D2E7356689"",""assignmentId"":""05c279bd-c2c2-48b4-9bc2-4ba0e172dd02"",""projectId"":""e9cc2542-c7dc-4d8f-b94f-d088ad8989d1""}","https://test12345.live/?part=2&participantId=9B55B16496F04787B72417D2E7356689&assignmentId=05c279bd-c2c2-48b4-9bc2-4ba0e172dd02&projectId=e9cc2542-c7dc-4d8f-b94f-d088ad8989d1","9B55B16496F04787B72417D2E7356689-2025-05-16-18-24-42","","6336","","[""<span style=\""color: red; font-size: 24px\""> NOW RECORDING</span><p>Please say out loud all the images you saw in part 1 of the experiment, as many as you can remember. The images can be said in any order.</p>""]","","6","using_technology_semantic"
"","","","","","image-button-response","57","1100456","0.0-55.0-0.0","9B55B16496F04787B72417D2E7356689","9B55B16496F04787B72417D2E7356689","05c279bd-c2c2-48b4-9bc2-4ba0e172dd02","e9cc2542-c7dc-4d8f-b94f-d088ad8989d1","{""part"":""2"",""participantId"":""9B55B16496F04787B72417D2E7356689"",""assignmentId"":""05c279bd-c2c2-48b4-9bc2-4ba0e172dd02"",""projectId"":""e9cc2542-c7dc-4d8f-b94f-d088ad8989d1""}","https://test12345.live/?part=2&participantId=9B55B16496F04787B72417D2E7356689&assignmentId=05c279bd-c2c2-48b4-9bc2-4ba0e172dd02&projectId=e9cc2542-c7dc-4d8f-b94f-d088ad8989d1","9B55B16496F04787B72417D2E7356689-2025-05-16-18-24-42","","null","","images/causal_sequence/museum_causal/museum_causal_0.png","null","",""
"","","","","","html-audio-response","58","1115590","0.0-56.0","9B55B16496F04787B72417D2E7356689","9B55B16496F04787B72417D2E7356689","05c279bd-c2c2-48b4-9bc2-4ba0e172dd02","e9cc2542-c7dc-4d8f-b94f-d088ad8989d1","{""part"":""2"",""participantId"":""9B55B16496F04787B72417D2E7356689"",""assignmentId"":""05c279bd-c2c2-48b4-9bc2-4ba0e172dd02"",""projectId"":""e9cc2542-c7dc-4d8f-b94f-d088ad8989d1""}","https://test12345.live/?part=2&participantId=9B55B16496F04787B72417D2E7356689&assignmentId=05c279bd-c2c2-48b4-9bc2-4ba0e172dd02&projectId=e9cc2542-c7dc-4d8f-b94f-d088ad8989d1","9B55B16496F04787B72417D2E7356689-2025-05-16-18-24-42","","4954","","[""<span style=\""color: red; font-size: 24px\""> NOW RECORDING</span><p>Please say out loud all the images you saw in part 1 of the experiment, as many as you can remember. The images can be said in any order.</p>""]","","3","museum_causal"
"","","","","","survey-text","59","1122123","0.0-57.0","9B55B16496F04787B72417D2E7356689","9B55B16496F04787B72417D2E7356689","05c279bd-c2c2-48b4-9bc2-4ba0e172dd02","e9cc2542-c7dc-4d8f-b94f-d088ad8989d1","{""part"":""2"",""participantId"":""9B55B16496F04787B72417D2E7356689"",""assignmentId"":""05c279bd-c2c2-48b4-9bc2-4ba0e172dd02"",""projectId"":""e9cc2542-c7dc-4d8f-b94f-d088ad8989d1""}","https://test12345.live/?part=2&participantId=9B55B16496F04787B72417D2E7356689&assignmentId=05c279bd-c2c2-48b4-9bc2-4ba0e172dd02&projectId=e9cc2542-c7dc-4d8f-b94f-d088ad8989d1","9B55B16496F04787B72417D2E7356689-2025-05-16-18-24-42","","6524","","","{""Q0"":""Male"",""Q1"":""28""}","",""
"","","","","","instructions","60","1126342","0.0-58.0","9B55B16496F04787B72417D2E7356689","9B55B16496F04787B72417D2E7356689","05c279bd-c2c2-48b4-9bc2-4ba0e172dd02","e9cc2542-c7dc-4d8f-b94f-d088ad8989d1","{""part"":""2"",""participantId"":""9B55B16496F04787B72417D2E7356689"",""assignmentId"":""05c279bd-c2c2-48b4-9bc2-4ba0e172dd02"",""projectId"":""e9cc2542-c7dc-4d8f-b94f-d088ad8989d1""}","https://test12345.live/?part=2&participantId=9B55B16496F04787B72417D2E7356689&assignmentId=05c279bd-c2c2-48b4-9bc2-4ba0e172dd02&projectId=e9cc2542-c7dc-4d8f-b94f-d088ad8989d1","9B55B16496F04787B72417D2E7356689-2025-05-16-18-24-42","[{""page_index"":0,""viewing_time"":4217}]","4218","","","","",""
"","","","","","survey-text","61","1128795","0.0-59.0","9B55B16496F04787B72417D2E7356689","9B55B16496F04787B72417D2E7356689","05c279bd-c2c2-48b4-9bc2-4ba0e172dd02","e9cc2542-c7dc-4d8f-b94f-d088ad8989d1","{""part"":""2"",""participantId"":""9B55B16496F04787B72417D2E7356689"",""assignmentId"":""05c279bd-c2c2-48b4-9bc2-4ba0e172dd02"",""projectId"":""e9cc2542-c7dc-4d8f-b94f-d088ad8989d1""}","https://test12345.live/?part=2&participantId=9B55B16496F04787B72417D2E7356689&assignmentId=05c279bd-c2c2-48b4-9bc2-4ba0e172dd02&projectId=e9cc2542-c7dc-4d8f-b94f-d088ad8989d1","9B55B16496F04787B72417D2E7356689-2025-05-16-18-24-42","","2450","","","{""Q0"":""AJFHBG896""}","",""
