"success","timeout","failed_images","failed_audio","failed_video","trial_type","trial_index","time_elapsed","internal_node_id","subject","subject_id","study_id","session_id","urlvar","current_url","audio_id","view_history","rt","device_id","stimulus","response","estimated_stimulus_onset","seq_name"
"true","false","[]","[]","[]","preload","0","18673","0.0-0.0","AA15104FBB3D4B25A0CC341AD2F23419","AA15104FBB3D4B25A0CC341AD2F23419","01a2e87b-d199-4aee-880d-31ddb80d4a0b","e9cc2542-c7dc-4d8f-b94f-d088ad8989d1","{""part"":""2"",""participantId"":""AA15104FBB3D4B25A0CC341AD2F23419"",""assignmentId"":""01a2e87b-d199-4aee-880d-31ddb80d4a0b"",""projectId"":""e9cc2542-c7dc-4d8f-b94f-d088ad8989d1""}","https://test12345.live/?part=2&participantId=AA15104FBB3D4B25A0CC341AD2F23419&assignmentId=01a2e87b-d199-4aee-880d-31ddb80d4a0b&projectId=e9cc2542-c7dc-4d8f-b94f-d088ad8989d1","AA15104FBB3D4B25A0CC341AD2F23419-2025-05-16-18-12-48","","","","","","",""
"","","","","","instructions","1","32196","0.0-1.0","AA15104FBB3D4B25A0CC341AD2F23419","AA15104FBB3D4B25A0CC341AD2F23419","01a2e87b-d199-4aee-880d-31ddb80d4a0b","e9cc2542-c7dc-4d8f-b94f-d088ad8989d1","{""part"":""2"",""participantId"":""AA15104FBB3D4B25A0CC341AD2F23419"",""assignmentId"":""01a2e87b-d199-4aee-880d-31ddb80d4a0b"",""projectId"":""e9cc2542-c7dc-4d8f-b94f-d088ad8989d1""}","https://test12345.live/?part=2&participantId=AA15104FBB3D4B25A0CC341AD2F23419&assignmentId=01a2e87b-d199-4aee-880d-31ddb80d4a0b&projectId=e9cc2542-c7dc-4d8f-b94f-d088ad8989d1","AA15104FBB3D4B25A0CC341AD2F23419-2025-05-16-18-12-48","[{""page_index"":0,""viewing_time"":13523}]","13523","","","","",""
"","","","","","instructions","2","40984","0.0-2.0","AA15104FBB3D4B25A0CC341AD2F23419","AA15104FBB3D4B25A0CC341AD2F23419","01a2e87b-d199-4aee-880d-31ddb80d4a0b","e9cc2542-c7dc-4d8f-b94f-d088ad8989d1","{""part"":""2"",""participantId"":""AA15104FBB3D4B25A0CC341AD2F23419"",""assignmentId"":""01a2e87b-d199-4aee-880d-31ddb80d4a0b"",""projectId"":""e9cc2542-c7dc-4d8f-b94f-d088ad8989d1""}","https://test12345.live/?part=2&participantId=AA15104FBB3D4B25A0CC341AD2F23419&assignmentId=01a2e87b-d199-4aee-880d-31ddb80d4a0b&projectId=e9cc2542-c7dc-4d8f-b94f-d088ad8989d1","AA15104FBB3D4B25A0CC341AD2F23419-2025-05-16-18-12-48","[{""page_index"":0,""viewing_time"":8787}]","8787","","","","",""
"true","","","","","fullscreen","3","44262","0.0-3.0","AA15104FBB3D4B25A0CC341AD2F23419","AA15104FBB3D4B25A0CC341AD2F23419","01a2e87b-d199-4aee-880d-31ddb80d4a0b","e9cc2542-c7dc-4d8f-b94f-d088ad8989d1","{""part"":""2"",""participantId"":""AA15104FBB3D4B25A0CC341AD2F23419"",""assignmentId"":""01a2e87b-d199-4aee-880d-31ddb80d4a0b"",""projectId"":""e9cc2542-c7dc-4d8f-b94f-d088ad8989d1""}","https://test12345.live/?part=2&participantId=AA15104FBB3D4B25A0CC341AD2F23419&assignmentId=01a2e87b-d199-4aee-880d-31ddb80d4a0b&projectId=e9cc2542-c7dc-4d8f-b94f-d088ad8989d1","AA15104FBB3D4B25A0CC341AD2F23419-2025-05-16-18-12-48","","2275","","","","",""
"","","","","","initialize-microphone","4","48862","0.0-4.0-0.0","AA15104FBB3D4B25A0CC341AD2F23419","AA15104FBB3D4B25A0CC341AD2F23419","01a2e87b-d199-4aee-880d-31ddb80d4a0b","e9cc2542-c7dc-4d8f-b94f-d088ad8989d1","{""part"":""2"",""participantId"":""AA15104FBB3D4B25A0CC341AD2F23419"",""assignmentId"":""01a2e87b-d199-4aee-880d-31ddb80d4a0b"",""projectId"":""e9cc2542-c7dc-4d8f-b94f-d088ad8989d1""}","https://test12345.live/?part=2&participantId=AA15104FBB3D4B25A0CC341AD2F23419&assignmentId=01a2e87b-d199-4aee-880d-31ddb80d4a0b&projectId=e9cc2542-c7dc-4d8f-b94f-d088ad8989d1","AA15104FBB3D4B25A0CC341AD2F23419-2025-05-16-18-12-48","","","UgK0si1L0lpqMUc3lzBGbvKoJ/DI9Yrl9y7EInXrGA8=","","","",""
"","","","","","html-audio-response","5","51723","0.0-4.0-1.0","AA15104FBB3D4B25A0CC341AD2F23419","AA15104FBB3D4B25A0CC341AD2F23419","01a2e87b-d199-4aee-880d-31ddb80d4a0b","e9cc2542-c7dc-4d8f-b94f-d088ad8989d1","{""part"":""2"",""participantId"":""AA15104FBB3D4B25A0CC341AD2F23419"",""assignmentId"":""01a2e87b-d199-4aee-880d-31ddb80d4a0b"",""projectId"":""e9cc2542-c7dc-4d8f-b94f-d088ad8989d1""}","https://test12345.live/?part=2&participantId=AA15104FBB3D4B25A0CC341AD2F23419&assignmentId=01a2e87b-d199-4aee-880d-31ddb80d4a0b&projectId=e9cc2542-c7dc-4d8f-b94f-d088ad8989d1","AA15104FBB3D4B25A0CC341AD2F23419-2025-05-16-18-12-48","","1191","","<span style=""color: red; font-size: 24px""> NOW RECORDING</span>
        <p>Please test Microphone</p>","","2",""
"","","","","","html-button-response","6","52936","0.0-4.0-2.0","AA15104FBB3D4B25A0CC341AD2F23419","AA15104FBB3D4B25A0CC341AD2F23419","01a2e87b-d199-4aee-880d-31ddb80d4a0b","e9cc2542-c7dc-4d8f-b94f-d088ad8989d1","{""part"":""2"",""participantId"":""AA15104FBB3D4B25A0CC341AD2F23419"",""assignmentId"":""01a2e87b-d199-4aee-880d-31ddb80d4a0b"",""projectId"":""e9cc2542-c7dc-4d8f-b94f-d088ad8989d1""}","https://test12345.live/?part=2&participantId=AA15104FBB3D4B25A0CC341AD2F23419&assignmentId=01a2e87b-d199-4aee-880d-31ddb80d4a0b&projectId=e9cc2542-c7dc-4d8f-b94f-d088ad8989d1","AA15104FBB3D4B25A0CC341AD2F23419-2025-05-16-18-12-48","","1212","","<p style=""font-size:48px; color:red;"">Is Microphone OK?</p>","1","",""
"","","","","","instructions","7","66448","0.0-5.0","AA15104FBB3D4B25A0CC341AD2F23419","AA15104FBB3D4B25A0CC341AD2F23419","01a2e87b-d199-4aee-880d-31ddb80d4a0b","e9cc2542-c7dc-4d8f-b94f-d088ad8989d1","{""part"":""2"",""participantId"":""AA15104FBB3D4B25A0CC341AD2F23419"",""assignmentId"":""01a2e87b-d199-4aee-880d-31ddb80d4a0b"",""projectId"":""e9cc2542-c7dc-4d8f-b94f-d088ad8989d1""}","https://test12345.live/?part=2&participantId=AA15104FBB3D4B25A0CC341AD2F23419&assignmentId=01a2e87b-d199-4aee-880d-31ddb80d4a0b&projectId=e9cc2542-c7dc-4d8f-b94f-d088ad8989d1","AA15104FBB3D4B25A0CC341AD2F23419-2025-05-16-18-12-48","[{""page_index"":0,""viewing_time"":1207},{""page_index"":1,""viewing_time"":3569},{""page_index"":2,""viewing_time"":8735}]","13512","","","","",""
"","","","","","image-button-response","8","72540","0.0-6.0-0.0","AA15104FBB3D4B25A0CC341AD2F23419","AA15104FBB3D4B25A0CC341AD2F23419","01a2e87b-d199-4aee-880d-31ddb80d4a0b","e9cc2542-c7dc-4d8f-b94f-d088ad8989d1","{""part"":""2"",""participantId"":""AA15104FBB3D4B25A0CC341AD2F23419"",""assignmentId"":""01a2e87b-d199-4aee-880d-31ddb80d4a0b"",""projectId"":""e9cc2542-c7dc-4d8f-b94f-d088ad8989d1""}","https://test12345.live/?part=2&participantId=AA15104FBB3D4B25A0CC341AD2F23419&assignmentId=01a2e87b-d199-4aee-880d-31ddb80d4a0b&projectId=e9cc2542-c7dc-4d8f-b94f-d088ad8989d1","AA15104FBB3D4B25A0CC341AD2F23419-2025-05-16-18-12-48","","null","","images/instructions/movie_0.png","null","",""
"","","","","","html-audio-response","9","77657","0.0-7.0","AA15104FBB3D4B25A0CC341AD2F23419","AA15104FBB3D4B25A0CC341AD2F23419","01a2e87b-d199-4aee-880d-31ddb80d4a0b","e9cc2542-c7dc-4d8f-b94f-d088ad8989d1","{""part"":""2"",""participantId"":""AA15104FBB3D4B25A0CC341AD2F23419"",""assignmentId"":""01a2e87b-d199-4aee-880d-31ddb80d4a0b"",""projectId"":""e9cc2542-c7dc-4d8f-b94f-d088ad8989d1""}","https://test12345.live/?part=2&participantId=AA15104FBB3D4B25A0CC341AD2F23419&assignmentId=01a2e87b-d199-4aee-880d-31ddb80d4a0b&projectId=e9cc2542-c7dc-4d8f-b94f-d088ad8989d1","AA15104FBB3D4B25A0CC341AD2F23419-2025-05-16-18-12-48","","3742","","[""<span style=\""color: red; font-size: 24px\""> NOW RECORDING</span><p>Please say out loud all the images you saw in part 1 of the experiment, as many as you can remember. The images can be said in any order.</p>""]","","1",""
"","","","","","instructions","10","78800","0.0-8.0","AA15104FBB3D4B25A0CC341AD2F23419","AA15104FBB3D4B25A0CC341AD2F23419","01a2e87b-d199-4aee-880d-31ddb80d4a0b","e9cc2542-c7dc-4d8f-b94f-d088ad8989d1","{""part"":""2"",""participantId"":""AA15104FBB3D4B25A0CC341AD2F23419"",""assignmentId"":""01a2e87b-d199-4aee-880d-31ddb80d4a0b"",""projectId"":""e9cc2542-c7dc-4d8f-b94f-d088ad8989d1""}","https://test12345.live/?part=2&participantId=AA15104FBB3D4B25A0CC341AD2F23419&assignmentId=01a2e87b-d199-4aee-880d-31ddb80d4a0b&projectId=e9cc2542-c7dc-4d8f-b94f-d088ad8989d1","AA15104FBB3D4B25A0CC341AD2F23419-2025-05-16-18-12-48","[{""page_index"":0,""viewing_time"":1140}]","1140","","","","",""
"","","","","","image-button-response","11","84813","0.0-9.0-0.0","AA15104FBB3D4B25A0CC341AD2F23419","AA15104FBB3D4B25A0CC341AD2F23419","01a2e87b-d199-4aee-880d-31ddb80d4a0b","e9cc2542-c7dc-4d8f-b94f-d088ad8989d1","{""part"":""2"",""participantId"":""AA15104FBB3D4B25A0CC341AD2F23419"",""assignmentId"":""01a2e87b-d199-4aee-880d-31ddb80d4a0b"",""projectId"":""e9cc2542-c7dc-4d8f-b94f-d088ad8989d1""}","https://test12345.live/?part=2&participantId=AA15104FBB3D4B25A0CC341AD2F23419&assignmentId=01a2e87b-d199-4aee-880d-31ddb80d4a0b&projectId=e9cc2542-c7dc-4d8f-b94f-d088ad8989d1","AA15104FBB3D4B25A0CC341AD2F23419-2025-05-16-18-12-48","","null","","images/semantic_sequence/visiting_cities_semantic/visiting_cities_semantic_0.png","null","",""
"","","","","","html-audio-response","12","88632","0.0-10.0","AA15104FBB3D4B25A0CC341AD2F23419","AA15104FBB3D4B25A0CC341AD2F23419","01a2e87b-d199-4aee-880d-31ddb80d4a0b","e9cc2542-c7dc-4d8f-b94f-d088ad8989d1","{""part"":""2"",""participantId"":""AA15104FBB3D4B25A0CC341AD2F23419"",""assignmentId"":""01a2e87b-d199-4aee-880d-31ddb80d4a0b"",""projectId"":""e9cc2542-c7dc-4d8f-b94f-d088ad8989d1""}","https://test12345.live/?part=2&participantId=AA15104FBB3D4B25A0CC341AD2F23419&assignmentId=01a2e87b-d199-4aee-880d-31ddb80d4a0b&projectId=e9cc2542-c7dc-4d8f-b94f-d088ad8989d1","AA15104FBB3D4B25A0CC341AD2F23419-2025-05-16-18-12-48","","3179","","[""<span style=\""color: red; font-size: 24px\""> NOW RECORDING</span><p>Please say out loud all the images you saw in part 1 of the experiment, as many as you can remember. The images can be said in any order.</p>""]","","14","visiting_cities_semantic"
"","","","","","image-button-response","13","94642","0.0-11.0-0.0","AA15104FBB3D4B25A0CC341AD2F23419","AA15104FBB3D4B25A0CC341AD2F23419","01a2e87b-d199-4aee-880d-31ddb80d4a0b","e9cc2542-c7dc-4d8f-b94f-d088ad8989d1","{""part"":""2"",""participantId"":""AA15104FBB3D4B25A0CC341AD2F23419"",""assignmentId"":""01a2e87b-d199-4aee-880d-31ddb80d4a0b"",""projectId"":""e9cc2542-c7dc-4d8f-b94f-d088ad8989d1""}","https://test12345.live/?part=2&participantId=AA15104FBB3D4B25A0CC341AD2F23419&assignmentId=01a2e87b-d199-4aee-880d-31ddb80d4a0b&projectId=e9cc2542-c7dc-4d8f-b94f-d088ad8989d1","AA15104FBB3D4B25A0CC341AD2F23419-2025-05-16-18-12-48","","null","","images/schematic_sequence/flight_scheme/flight_scheme_0.png","null","",""
"","","","","","html-audio-response","14","109535","0.0-12.0","AA15104FBB3D4B25A0CC341AD2F23419","AA15104FBB3D4B25A0CC341AD2F23419","01a2e87b-d199-4aee-880d-31ddb80d4a0b","e9cc2542-c7dc-4d8f-b94f-d088ad8989d1","{""part"":""2"",""participantId"":""AA15104FBB3D4B25A0CC341AD2F23419"",""assignmentId"":""01a2e87b-d199-4aee-880d-31ddb80d4a0b"",""projectId"":""e9cc2542-c7dc-4d8f-b94f-d088ad8989d1""}","https://test12345.live/?part=2&participantId=AA15104FBB3D4B25A0CC341AD2F23419&assignmentId=01a2e87b-d199-4aee-880d-31ddb80d4a0b&projectId=e9cc2542-c7dc-4d8f-b94f-d088ad8989d1","AA15104FBB3D4B25A0CC341AD2F23419-2025-05-16-18-12-48","","13961","","[""<span style=\""color: red; font-size: 24px\""> NOW RECORDING</span><p>Please say out loud all the images you saw in part 1 of the experiment, as many as you can remember. The images can be said in any order.</p>""]","","3","flight_scheme"
"","","","","","image-button-response","15","115548","0.0-13.0-0.0","AA15104FBB3D4B25A0CC341AD2F23419","AA15104FBB3D4B25A0CC341AD2F23419","01a2e87b-d199-4aee-880d-31ddb80d4a0b","e9cc2542-c7dc-4d8f-b94f-d088ad8989d1","{""part"":""2"",""participantId"":""AA15104FBB3D4B25A0CC341AD2F23419"",""assignmentId"":""01a2e87b-d199-4aee-880d-31ddb80d4a0b"",""projectId"":""e9cc2542-c7dc-4d8f-b94f-d088ad8989d1""}","https://test12345.live/?part=2&participantId=AA15104FBB3D4B25A0CC341AD2F23419&assignmentId=01a2e87b-d199-4aee-880d-31ddb80d4a0b&projectId=e9cc2542-c7dc-4d8f-b94f-d088ad8989d1","AA15104FBB3D4B25A0CC341AD2F23419-2025-05-16-18-12-48","","null","","images/schematic_sequence/interview_scheme/interview_scheme_0.png","null","",""
"","","","","","html-audio-response","16","120390","0.0-14.0","AA15104FBB3D4B25A0CC341AD2F23419","AA15104FBB3D4B25A0CC341AD2F23419","01a2e87b-d199-4aee-880d-31ddb80d4a0b","e9cc2542-c7dc-4d8f-b94f-d088ad8989d1","{""part"":""2"",""participantId"":""AA15104FBB3D4B25A0CC341AD2F23419"",""assignmentId"":""01a2e87b-d199-4aee-880d-31ddb80d4a0b"",""projectId"":""e9cc2542-c7dc-4d8f-b94f-d088ad8989d1""}","https://test12345.live/?part=2&participantId=AA15104FBB3D4B25A0CC341AD2F23419&assignmentId=01a2e87b-d199-4aee-880d-31ddb80d4a0b&projectId=e9cc2542-c7dc-4d8f-b94f-d088ad8989d1","AA15104FBB3D4B25A0CC341AD2F23419-2025-05-16-18-12-48","","2556","","[""<span style=\""color: red; font-size: 24px\""> NOW RECORDING</span><p>Please say out loud all the images you saw in part 1 of the experiment, as many as you can remember. The images can be said in any order.</p>""]","","1","interview_scheme"
"","","","","","image-button-response","17","126403","0.0-15.0-0.0","AA15104FBB3D4B25A0CC341AD2F23419","AA15104FBB3D4B25A0CC341AD2F23419","01a2e87b-d199-4aee-880d-31ddb80d4a0b","e9cc2542-c7dc-4d8f-b94f-d088ad8989d1","{""part"":""2"",""participantId"":""AA15104FBB3D4B25A0CC341AD2F23419"",""assignmentId"":""01a2e87b-d199-4aee-880d-31ddb80d4a0b"",""projectId"":""e9cc2542-c7dc-4d8f-b94f-d088ad8989d1""}","https://test12345.live/?part=2&participantId=AA15104FBB3D4B25A0CC341AD2F23419&assignmentId=01a2e87b-d199-4aee-880d-31ddb80d4a0b&projectId=e9cc2542-c7dc-4d8f-b94f-d088ad8989d1","AA15104FBB3D4B25A0CC341AD2F23419-2025-05-16-18-12-48","","null","","images/semantic_sequence/kitchen_operations_semantic/kitchen_operations_semantic_0.png","null","",""
"","","","","","html-audio-response","18","129110","0.0-16.0","AA15104FBB3D4B25A0CC341AD2F23419","AA15104FBB3D4B25A0CC341AD2F23419","01a2e87b-d199-4aee-880d-31ddb80d4a0b","e9cc2542-c7dc-4d8f-b94f-d088ad8989d1","{""part"":""2"",""participantId"":""AA15104FBB3D4B25A0CC341AD2F23419"",""assignmentId"":""01a2e87b-d199-4aee-880d-31ddb80d4a0b"",""projectId"":""e9cc2542-c7dc-4d8f-b94f-d088ad8989d1""}","https://test12345.live/?part=2&participantId=AA15104FBB3D4B25A0CC341AD2F23419&assignmentId=01a2e87b-d199-4aee-880d-31ddb80d4a0b&projectId=e9cc2542-c7dc-4d8f-b94f-d088ad8989d1","AA15104FBB3D4B25A0CC341AD2F23419-2025-05-16-18-12-48","","1998","","[""<span style=\""color: red; font-size: 24px\""> NOW RECORDING</span><p>Please say out loud all the images you saw in part 1 of the experiment, as many as you can remember. The images can be said in any order.</p>""]","","5","kitchen_operations_semantic"
"","","","","","image-button-response","19","135122","0.0-17.0-0.0","AA15104FBB3D4B25A0CC341AD2F23419","AA15104FBB3D4B25A0CC341AD2F23419","01a2e87b-d199-4aee-880d-31ddb80d4a0b","e9cc2542-c7dc-4d8f-b94f-d088ad8989d1","{""part"":""2"",""participantId"":""AA15104FBB3D4B25A0CC341AD2F23419"",""assignmentId"":""01a2e87b-d199-4aee-880d-31ddb80d4a0b"",""projectId"":""e9cc2542-c7dc-4d8f-b94f-d088ad8989d1""}","https://test12345.live/?part=2&participantId=AA15104FBB3D4B25A0CC341AD2F23419&assignmentId=01a2e87b-d199-4aee-880d-31ddb80d4a0b&projectId=e9cc2542-c7dc-4d8f-b94f-d088ad8989d1","AA15104FBB3D4B25A0CC341AD2F23419-2025-05-16-18-12-48","","null","","images/semantic_sequence/cat_care_semantic/cat_care_semantic_0.png","null","",""
"","","","","","html-audio-response","20","140622","0.0-18.0","AA15104FBB3D4B25A0CC341AD2F23419","AA15104FBB3D4B25A0CC341AD2F23419","01a2e87b-d199-4aee-880d-31ddb80d4a0b","e9cc2542-c7dc-4d8f-b94f-d088ad8989d1","{""part"":""2"",""participantId"":""AA15104FBB3D4B25A0CC341AD2F23419"",""assignmentId"":""01a2e87b-d199-4aee-880d-31ddb80d4a0b"",""projectId"":""e9cc2542-c7dc-4d8f-b94f-d088ad8989d1""}","https://test12345.live/?part=2&participantId=AA15104FBB3D4B25A0CC341AD2F23419&assignmentId=01a2e87b-d199-4aee-880d-31ddb80d4a0b&projectId=e9cc2542-c7dc-4d8f-b94f-d088ad8989d1","AA15104FBB3D4B25A0CC341AD2F23419-2025-05-16-18-12-48","","4070","","[""<span style=\""color: red; font-size: 24px\""> NOW RECORDING</span><p>Please say out loud all the images you saw in part 1 of the experiment, as many as you can remember. The images can be said in any order.</p>""]","","13","cat_care_semantic"
"","","","","","image-button-response","21","146638","0.0-19.0-0.0","AA15104FBB3D4B25A0CC341AD2F23419","AA15104FBB3D4B25A0CC341AD2F23419","01a2e87b-d199-4aee-880d-31ddb80d4a0b","e9cc2542-c7dc-4d8f-b94f-d088ad8989d1","{""part"":""2"",""participantId"":""AA15104FBB3D4B25A0CC341AD2F23419"",""assignmentId"":""01a2e87b-d199-4aee-880d-31ddb80d4a0b"",""projectId"":""e9cc2542-c7dc-4d8f-b94f-d088ad8989d1""}","https://test12345.live/?part=2&participantId=AA15104FBB3D4B25A0CC341AD2F23419&assignmentId=01a2e87b-d199-4aee-880d-31ddb80d4a0b&projectId=e9cc2542-c7dc-4d8f-b94f-d088ad8989d1","AA15104FBB3D4B25A0CC341AD2F23419-2025-05-16-18-12-48","","null","","images/semantic_sequence/redecorating_semantic/redecorating_semantic_0.png","null","",""
"","","","","","html-audio-response","22","149783","0.0-20.0","AA15104FBB3D4B25A0CC341AD2F23419","AA15104FBB3D4B25A0CC341AD2F23419","01a2e87b-d199-4aee-880d-31ddb80d4a0b","e9cc2542-c7dc-4d8f-b94f-d088ad8989d1","{""part"":""2"",""participantId"":""AA15104FBB3D4B25A0CC341AD2F23419"",""assignmentId"":""01a2e87b-d199-4aee-880d-31ddb80d4a0b"",""projectId"":""e9cc2542-c7dc-4d8f-b94f-d088ad8989d1""}","https://test12345.live/?part=2&participantId=AA15104FBB3D4B25A0CC341AD2F23419&assignmentId=01a2e87b-d199-4aee-880d-31ddb80d4a0b&projectId=e9cc2542-c7dc-4d8f-b94f-d088ad8989d1","AA15104FBB3D4B25A0CC341AD2F23419-2025-05-16-18-12-48","","2218","","[""<span style=\""color: red; font-size: 24px\""> NOW RECORDING</span><p>Please say out loud all the images you saw in part 1 of the experiment, as many as you can remember. The images can be said in any order.</p>""]","","2","redecorating_semantic"
"","","","","","image-button-response","23","155802","0.0-21.0-0.0","AA15104FBB3D4B25A0CC341AD2F23419","AA15104FBB3D4B25A0CC341AD2F23419","01a2e87b-d199-4aee-880d-31ddb80d4a0b","e9cc2542-c7dc-4d8f-b94f-d088ad8989d1","{""part"":""2"",""participantId"":""AA15104FBB3D4B25A0CC341AD2F23419"",""assignmentId"":""01a2e87b-d199-4aee-880d-31ddb80d4a0b"",""projectId"":""e9cc2542-c7dc-4d8f-b94f-d088ad8989d1""}","https://test12345.live/?part=2&participantId=AA15104FBB3D4B25A0CC341AD2F23419&assignmentId=01a2e87b-d199-4aee-880d-31ddb80d4a0b&projectId=e9cc2542-c7dc-4d8f-b94f-d088ad8989d1","AA15104FBB3D4B25A0CC341AD2F23419-2025-05-16-18-12-48","","null","","images/causal_sequence/package_causal/package_causal_0.png","null","",""
"","","","","","html-audio-response","24","158469","0.0-22.0","AA15104FBB3D4B25A0CC341AD2F23419","AA15104FBB3D4B25A0CC341AD2F23419","01a2e87b-d199-4aee-880d-31ddb80d4a0b","e9cc2542-c7dc-4d8f-b94f-d088ad8989d1","{""part"":""2"",""participantId"":""AA15104FBB3D4B25A0CC341AD2F23419"",""assignmentId"":""01a2e87b-d199-4aee-880d-31ddb80d4a0b"",""projectId"":""e9cc2542-c7dc-4d8f-b94f-d088ad8989d1""}","https://test12345.live/?part=2&participantId=AA15104FBB3D4B25A0CC341AD2F23419&assignmentId=01a2e87b-d199-4aee-880d-31ddb80d4a0b&projectId=e9cc2542-c7dc-4d8f-b94f-d088ad8989d1","AA15104FBB3D4B25A0CC341AD2F23419-2025-05-16-18-12-48","","1314","","[""<span style=\""color: red; font-size: 24px\""> NOW RECORDING</span><p>Please say out loud all the images you saw in part 1 of the experiment, as many as you can remember. The images can be said in any order.</p>""]","","2","package_causal"
"","","","","","image-button-response","25","164484","0.0-23.0-0.0","AA15104FBB3D4B25A0CC341AD2F23419","AA15104FBB3D4B25A0CC341AD2F23419","01a2e87b-d199-4aee-880d-31ddb80d4a0b","e9cc2542-c7dc-4d8f-b94f-d088ad8989d1","{""part"":""2"",""participantId"":""AA15104FBB3D4B25A0CC341AD2F23419"",""assignmentId"":""01a2e87b-d199-4aee-880d-31ddb80d4a0b"",""projectId"":""e9cc2542-c7dc-4d8f-b94f-d088ad8989d1""}","https://test12345.live/?part=2&participantId=AA15104FBB3D4B25A0CC341AD2F23419&assignmentId=01a2e87b-d199-4aee-880d-31ddb80d4a0b&projectId=e9cc2542-c7dc-4d8f-b94f-d088ad8989d1","AA15104FBB3D4B25A0CC341AD2F23419-2025-05-16-18-12-48","","null","","images/semantic_sequence/physical_activity_semantic/physical_activity_semantic_0.png","null","",""
"","","","","","html-audio-response","26","172764","0.0-24.0","AA15104FBB3D4B25A0CC341AD2F23419","AA15104FBB3D4B25A0CC341AD2F23419","01a2e87b-d199-4aee-880d-31ddb80d4a0b","e9cc2542-c7dc-4d8f-b94f-d088ad8989d1","{""part"":""2"",""participantId"":""AA15104FBB3D4B25A0CC341AD2F23419"",""assignmentId"":""01a2e87b-d199-4aee-880d-31ddb80d4a0b"",""projectId"":""e9cc2542-c7dc-4d8f-b94f-d088ad8989d1""}","https://test12345.live/?part=2&participantId=AA15104FBB3D4B25A0CC341AD2F23419&assignmentId=01a2e87b-d199-4aee-880d-31ddb80d4a0b&projectId=e9cc2542-c7dc-4d8f-b94f-d088ad8989d1","AA15104FBB3D4B25A0CC341AD2F23419-2025-05-16-18-12-48","","7160","","[""<span style=\""color: red; font-size: 24px\""> NOW RECORDING</span><p>Please say out loud all the images you saw in part 1 of the experiment, as many as you can remember. The images can be said in any order.</p>""]","","0","physical_activity_semantic"
"","","","","","image-button-response","27","178781","0.0-25.0-0.0","AA15104FBB3D4B25A0CC341AD2F23419","AA15104FBB3D4B25A0CC341AD2F23419","01a2e87b-d199-4aee-880d-31ddb80d4a0b","e9cc2542-c7dc-4d8f-b94f-d088ad8989d1","{""part"":""2"",""participantId"":""AA15104FBB3D4B25A0CC341AD2F23419"",""assignmentId"":""01a2e87b-d199-4aee-880d-31ddb80d4a0b"",""projectId"":""e9cc2542-c7dc-4d8f-b94f-d088ad8989d1""}","https://test12345.live/?part=2&participantId=AA15104FBB3D4B25A0CC341AD2F23419&assignmentId=01a2e87b-d199-4aee-880d-31ddb80d4a0b&projectId=e9cc2542-c7dc-4d8f-b94f-d088ad8989d1","AA15104FBB3D4B25A0CC341AD2F23419-2025-05-16-18-12-48","","null","","images/schematic_sequence/dinner_party_scheme/dinner_party_scheme_0.png","null","",""
"","","","","","html-audio-response","28","182620","0.0-26.0","AA15104FBB3D4B25A0CC341AD2F23419","AA15104FBB3D4B25A0CC341AD2F23419","01a2e87b-d199-4aee-880d-31ddb80d4a0b","e9cc2542-c7dc-4d8f-b94f-d088ad8989d1","{""part"":""2"",""participantId"":""AA15104FBB3D4B25A0CC341AD2F23419"",""assignmentId"":""01a2e87b-d199-4aee-880d-31ddb80d4a0b"",""projectId"":""e9cc2542-c7dc-4d8f-b94f-d088ad8989d1""}","https://test12345.live/?part=2&participantId=AA15104FBB3D4B25A0CC341AD2F23419&assignmentId=01a2e87b-d199-4aee-880d-31ddb80d4a0b&projectId=e9cc2542-c7dc-4d8f-b94f-d088ad8989d1","AA15104FBB3D4B25A0CC341AD2F23419-2025-05-16-18-12-48","","2865","","[""<span style=\""color: red; font-size: 24px\""> NOW RECORDING</span><p>Please say out loud all the images you saw in part 1 of the experiment, as many as you can remember. The images can be said in any order.</p>""]","","7","dinner_party_scheme"
"","","","","","image-button-response","29","188632","0.0-27.0-0.0","AA15104FBB3D4B25A0CC341AD2F23419","AA15104FBB3D4B25A0CC341AD2F23419","01a2e87b-d199-4aee-880d-31ddb80d4a0b","e9cc2542-c7dc-4d8f-b94f-d088ad8989d1","{""part"":""2"",""participantId"":""AA15104FBB3D4B25A0CC341AD2F23419"",""assignmentId"":""01a2e87b-d199-4aee-880d-31ddb80d4a0b"",""projectId"":""e9cc2542-c7dc-4d8f-b94f-d088ad8989d1""}","https://test12345.live/?part=2&participantId=AA15104FBB3D4B25A0CC341AD2F23419&assignmentId=01a2e87b-d199-4aee-880d-31ddb80d4a0b&projectId=e9cc2542-c7dc-4d8f-b94f-d088ad8989d1","AA15104FBB3D4B25A0CC341AD2F23419-2025-05-16-18-12-48","","null","","images/schematic_sequence/supermarket_scheme/supermarket_scheme_0.png","null","",""
"","","","","","html-audio-response","30","194125","0.0-28.0","AA15104FBB3D4B25A0CC341AD2F23419","AA15104FBB3D4B25A0CC341AD2F23419","01a2e87b-d199-4aee-880d-31ddb80d4a0b","e9cc2542-c7dc-4d8f-b94f-d088ad8989d1","{""part"":""2"",""participantId"":""AA15104FBB3D4B25A0CC341AD2F23419"",""assignmentId"":""01a2e87b-d199-4aee-880d-31ddb80d4a0b"",""projectId"":""e9cc2542-c7dc-4d8f-b94f-d088ad8989d1""}","https://test12345.live/?part=2&participantId=AA15104FBB3D4B25A0CC341AD2F23419&assignmentId=01a2e87b-d199-4aee-880d-31ddb80d4a0b&projectId=e9cc2542-c7dc-4d8f-b94f-d088ad8989d1","AA15104FBB3D4B25A0CC341AD2F23419-2025-05-16-18-12-48","","4659","","[""<span style=\""color: red; font-size: 24px\""> NOW RECORDING</span><p>Please say out loud all the images you saw in part 1 of the experiment, as many as you can remember. The images can be said in any order.</p>""]","","1","supermarket_scheme"
"","","","","","image-button-response","31","200137","0.0-29.0-0.0","AA15104FBB3D4B25A0CC341AD2F23419","AA15104FBB3D4B25A0CC341AD2F23419","01a2e87b-d199-4aee-880d-31ddb80d4a0b","e9cc2542-c7dc-4d8f-b94f-d088ad8989d1","{""part"":""2"",""participantId"":""AA15104FBB3D4B25A0CC341AD2F23419"",""assignmentId"":""01a2e87b-d199-4aee-880d-31ddb80d4a0b"",""projectId"":""e9cc2542-c7dc-4d8f-b94f-d088ad8989d1""}","https://test12345.live/?part=2&participantId=AA15104FBB3D4B25A0CC341AD2F23419&assignmentId=01a2e87b-d199-4aee-880d-31ddb80d4a0b&projectId=e9cc2542-c7dc-4d8f-b94f-d088ad8989d1","AA15104FBB3D4B25A0CC341AD2F23419-2025-05-16-18-12-48","","null","","images/schematic_sequence/hotel_scheme/hotel_scheme_0.png","null","",""
"","","","","","html-audio-response","32","203580","0.0-30.0","AA15104FBB3D4B25A0CC341AD2F23419","AA15104FBB3D4B25A0CC341AD2F23419","01a2e87b-d199-4aee-880d-31ddb80d4a0b","e9cc2542-c7dc-4d8f-b94f-d088ad8989d1","{""part"":""2"",""participantId"":""AA15104FBB3D4B25A0CC341AD2F23419"",""assignmentId"":""01a2e87b-d199-4aee-880d-31ddb80d4a0b"",""projectId"":""e9cc2542-c7dc-4d8f-b94f-d088ad8989d1""}","https://test12345.live/?part=2&participantId=AA15104FBB3D4B25A0CC341AD2F23419&assignmentId=01a2e87b-d199-4aee-880d-31ddb80d4a0b&projectId=e9cc2542-c7dc-4d8f-b94f-d088ad8989d1","AA15104FBB3D4B25A0CC341AD2F23419-2025-05-16-18-12-48","","1006","","[""<span style=\""color: red; font-size: 24px\""> NOW RECORDING</span><p>Please say out loud all the images you saw in part 1 of the experiment, as many as you can remember. The images can be said in any order.</p>""]","","1","hotel_scheme"
"","","","","","image-button-response","33","209594","0.0-31.0-0.0","AA15104FBB3D4B25A0CC341AD2F23419","AA15104FBB3D4B25A0CC341AD2F23419","01a2e87b-d199-4aee-880d-31ddb80d4a0b","e9cc2542-c7dc-4d8f-b94f-d088ad8989d1","{""part"":""2"",""participantId"":""AA15104FBB3D4B25A0CC341AD2F23419"",""assignmentId"":""01a2e87b-d199-4aee-880d-31ddb80d4a0b"",""projectId"":""e9cc2542-c7dc-4d8f-b94f-d088ad8989d1""}","https://test12345.live/?part=2&participantId=AA15104FBB3D4B25A0CC341AD2F23419&assignmentId=01a2e87b-d199-4aee-880d-31ddb80d4a0b&projectId=e9cc2542-c7dc-4d8f-b94f-d088ad8989d1","AA15104FBB3D4B25A0CC341AD2F23419-2025-05-16-18-12-48","","null","","images/schematic_sequence/restaurant_scheme/restaurant_scheme_0.png","null","",""
"","","","","","html-audio-response","34","216228","0.0-32.0","AA15104FBB3D4B25A0CC341AD2F23419","AA15104FBB3D4B25A0CC341AD2F23419","01a2e87b-d199-4aee-880d-31ddb80d4a0b","e9cc2542-c7dc-4d8f-b94f-d088ad8989d1","{""part"":""2"",""participantId"":""AA15104FBB3D4B25A0CC341AD2F23419"",""assignmentId"":""01a2e87b-d199-4aee-880d-31ddb80d4a0b"",""projectId"":""e9cc2542-c7dc-4d8f-b94f-d088ad8989d1""}","https://test12345.live/?part=2&participantId=AA15104FBB3D4B25A0CC341AD2F23419&assignmentId=01a2e87b-d199-4aee-880d-31ddb80d4a0b&projectId=e9cc2542-c7dc-4d8f-b94f-d088ad8989d1","AA15104FBB3D4B25A0CC341AD2F23419-2025-05-16-18-12-48","","2123","","[""<span style=\""color: red; font-size: 24px\""> NOW RECORDING</span><p>Please say out loud all the images you saw in part 1 of the experiment, as many as you can remember. The images can be said in any order.</p>""]","","1","restaurant_scheme"
"","","","","","image-button-response","35","222242","0.0-33.0-0.0","AA15104FBB3D4B25A0CC341AD2F23419","AA15104FBB3D4B25A0CC341AD2F23419","01a2e87b-d199-4aee-880d-31ddb80d4a0b","e9cc2542-c7dc-4d8f-b94f-d088ad8989d1","{""part"":""2"",""participantId"":""AA15104FBB3D4B25A0CC341AD2F23419"",""assignmentId"":""01a2e87b-d199-4aee-880d-31ddb80d4a0b"",""projectId"":""e9cc2542-c7dc-4d8f-b94f-d088ad8989d1""}","https://test12345.live/?part=2&participantId=AA15104FBB3D4B25A0CC341AD2F23419&assignmentId=01a2e87b-d199-4aee-880d-31ddb80d4a0b&projectId=e9cc2542-c7dc-4d8f-b94f-d088ad8989d1","AA15104FBB3D4B25A0CC341AD2F23419-2025-05-16-18-12-48","","null","","images/semantic_sequence/market_semantic/market_semantic_0.png","null","",""
"","","","","","html-audio-response","36","236234","0.0-34.0","AA15104FBB3D4B25A0CC341AD2F23419","AA15104FBB3D4B25A0CC341AD2F23419","01a2e87b-d199-4aee-880d-31ddb80d4a0b","e9cc2542-c7dc-4d8f-b94f-d088ad8989d1","{""part"":""2"",""participantId"":""AA15104FBB3D4B25A0CC341AD2F23419"",""assignmentId"":""01a2e87b-d199-4aee-880d-31ddb80d4a0b"",""projectId"":""e9cc2542-c7dc-4d8f-b94f-d088ad8989d1""}","https://test12345.live/?part=2&participantId=AA15104FBB3D4B25A0CC341AD2F23419&assignmentId=01a2e87b-d199-4aee-880d-31ddb80d4a0b&projectId=e9cc2542-c7dc-4d8f-b94f-d088ad8989d1","AA15104FBB3D4B25A0CC341AD2F23419-2025-05-16-18-12-48","","5314","","[""<span style=\""color: red; font-size: 24px\""> NOW RECORDING</span><p>Please say out loud all the images you saw in part 1 of the experiment, as many as you can remember. The images can be said in any order.</p>""]","","1","market_semantic"
"","","","","","image-button-response","37","242250","0.0-35.0-0.0","AA15104FBB3D4B25A0CC341AD2F23419","AA15104FBB3D4B25A0CC341AD2F23419","01a2e87b-d199-4aee-880d-31ddb80d4a0b","e9cc2542-c7dc-4d8f-b94f-d088ad8989d1","{""part"":""2"",""participantId"":""AA15104FBB3D4B25A0CC341AD2F23419"",""assignmentId"":""01a2e87b-d199-4aee-880d-31ddb80d4a0b"",""projectId"":""e9cc2542-c7dc-4d8f-b94f-d088ad8989d1""}","https://test12345.live/?part=2&participantId=AA15104FBB3D4B25A0CC341AD2F23419&assignmentId=01a2e87b-d199-4aee-880d-31ddb80d4a0b&projectId=e9cc2542-c7dc-4d8f-b94f-d088ad8989d1","AA15104FBB3D4B25A0CC341AD2F23419-2025-05-16-18-12-48","","null","","images/semantic_sequence/maintaining_a_car_semantic/maintaining_a_car_semantic_0.png","null","",""
"","","","","","html-audio-response","38","245849","0.0-36.0","AA15104FBB3D4B25A0CC341AD2F23419","AA15104FBB3D4B25A0CC341AD2F23419","01a2e87b-d199-4aee-880d-31ddb80d4a0b","e9cc2542-c7dc-4d8f-b94f-d088ad8989d1","{""part"":""2"",""participantId"":""AA15104FBB3D4B25A0CC341AD2F23419"",""assignmentId"":""01a2e87b-d199-4aee-880d-31ddb80d4a0b"",""projectId"":""e9cc2542-c7dc-4d8f-b94f-d088ad8989d1""}","https://test12345.live/?part=2&participantId=AA15104FBB3D4B25A0CC341AD2F23419&assignmentId=01a2e87b-d199-4aee-880d-31ddb80d4a0b&projectId=e9cc2542-c7dc-4d8f-b94f-d088ad8989d1","AA15104FBB3D4B25A0CC341AD2F23419-2025-05-16-18-12-48","","1319","","[""<span style=\""color: red; font-size: 24px\""> NOW RECORDING</span><p>Please say out loud all the images you saw in part 1 of the experiment, as many as you can remember. The images can be said in any order.</p>""]","","0","maintaining_a_car_semantic"
"","","","","","image-button-response","39","251862","0.0-37.0-0.0","AA15104FBB3D4B25A0CC341AD2F23419","AA15104FBB3D4B25A0CC341AD2F23419","01a2e87b-d199-4aee-880d-31ddb80d4a0b","e9cc2542-c7dc-4d8f-b94f-d088ad8989d1","{""part"":""2"",""participantId"":""AA15104FBB3D4B25A0CC341AD2F23419"",""assignmentId"":""01a2e87b-d199-4aee-880d-31ddb80d4a0b"",""projectId"":""e9cc2542-c7dc-4d8f-b94f-d088ad8989d1""}","https://test12345.live/?part=2&participantId=AA15104FBB3D4B25A0CC341AD2F23419&assignmentId=01a2e87b-d199-4aee-880d-31ddb80d4a0b&projectId=e9cc2542-c7dc-4d8f-b94f-d088ad8989d1","AA15104FBB3D4B25A0CC341AD2F23419-2025-05-16-18-12-48","","null","","images/causal_sequence/museum_causal/museum_causal_0.png","null","",""
"","","","","","html-audio-response","40","256618","0.0-38.0","AA15104FBB3D4B25A0CC341AD2F23419","AA15104FBB3D4B25A0CC341AD2F23419","01a2e87b-d199-4aee-880d-31ddb80d4a0b","e9cc2542-c7dc-4d8f-b94f-d088ad8989d1","{""part"":""2"",""participantId"":""AA15104FBB3D4B25A0CC341AD2F23419"",""assignmentId"":""01a2e87b-d199-4aee-880d-31ddb80d4a0b"",""projectId"":""e9cc2542-c7dc-4d8f-b94f-d088ad8989d1""}","https://test12345.live/?part=2&participantId=AA15104FBB3D4B25A0CC341AD2F23419&assignmentId=01a2e87b-d199-4aee-880d-31ddb80d4a0b&projectId=e9cc2542-c7dc-4d8f-b94f-d088ad8989d1","AA15104FBB3D4B25A0CC341AD2F23419-2025-05-16-18-12-48","","2483","","[""<span style=\""color: red; font-size: 24px\""> NOW RECORDING</span><p>Please say out loud all the images you saw in part 1 of the experiment, as many as you can remember. The images can be said in any order.</p>""]","","9","museum_causal"
"","","","","","image-button-response","41","262632","0.0-39.0-0.0","AA15104FBB3D4B25A0CC341AD2F23419","AA15104FBB3D4B25A0CC341AD2F23419","01a2e87b-d199-4aee-880d-31ddb80d4a0b","e9cc2542-c7dc-4d8f-b94f-d088ad8989d1","{""part"":""2"",""participantId"":""AA15104FBB3D4B25A0CC341AD2F23419"",""assignmentId"":""01a2e87b-d199-4aee-880d-31ddb80d4a0b"",""projectId"":""e9cc2542-c7dc-4d8f-b94f-d088ad8989d1""}","https://test12345.live/?part=2&participantId=AA15104FBB3D4B25A0CC341AD2F23419&assignmentId=01a2e87b-d199-4aee-880d-31ddb80d4a0b&projectId=e9cc2542-c7dc-4d8f-b94f-d088ad8989d1","AA15104FBB3D4B25A0CC341AD2F23419-2025-05-16-18-12-48","","null","","images/semantic_sequence/creative_activities_semantic/creative_activities_semantic_0.png","null","",""
"","","","","","html-audio-response","42","272777","0.0-40.0","AA15104FBB3D4B25A0CC341AD2F23419","AA15104FBB3D4B25A0CC341AD2F23419","01a2e87b-d199-4aee-880d-31ddb80d4a0b","e9cc2542-c7dc-4d8f-b94f-d088ad8989d1","{""part"":""2"",""participantId"":""AA15104FBB3D4B25A0CC341AD2F23419"",""assignmentId"":""01a2e87b-d199-4aee-880d-31ddb80d4a0b"",""projectId"":""e9cc2542-c7dc-4d8f-b94f-d088ad8989d1""}","https://test12345.live/?part=2&participantId=AA15104FBB3D4B25A0CC341AD2F23419&assignmentId=01a2e87b-d199-4aee-880d-31ddb80d4a0b&projectId=e9cc2542-c7dc-4d8f-b94f-d088ad8989d1","AA15104FBB3D4B25A0CC341AD2F23419-2025-05-16-18-12-48","","5571","","[""<span style=\""color: red; font-size: 24px\""> NOW RECORDING</span><p>Please say out loud all the images you saw in part 1 of the experiment, as many as you can remember. The images can be said in any order.</p>""]","","8","creative_activities_semantic"
"","","","","","image-button-response","43","278790","0.0-41.0-0.0","AA15104FBB3D4B25A0CC341AD2F23419","AA15104FBB3D4B25A0CC341AD2F23419","01a2e87b-d199-4aee-880d-31ddb80d4a0b","e9cc2542-c7dc-4d8f-b94f-d088ad8989d1","{""part"":""2"",""participantId"":""AA15104FBB3D4B25A0CC341AD2F23419"",""assignmentId"":""01a2e87b-d199-4aee-880d-31ddb80d4a0b"",""projectId"":""e9cc2542-c7dc-4d8f-b94f-d088ad8989d1""}","https://test12345.live/?part=2&participantId=AA15104FBB3D4B25A0CC341AD2F23419&assignmentId=01a2e87b-d199-4aee-880d-31ddb80d4a0b&projectId=e9cc2542-c7dc-4d8f-b94f-d088ad8989d1","AA15104FBB3D4B25A0CC341AD2F23419-2025-05-16-18-12-48","","null","","images/semantic_sequence/housework_semantic/housework_semantic_0.png","null","",""
"","","","","","html-audio-response","44","287897","0.0-42.0","AA15104FBB3D4B25A0CC341AD2F23419","AA15104FBB3D4B25A0CC341AD2F23419","01a2e87b-d199-4aee-880d-31ddb80d4a0b","e9cc2542-c7dc-4d8f-b94f-d088ad8989d1","{""part"":""2"",""participantId"":""AA15104FBB3D4B25A0CC341AD2F23419"",""assignmentId"":""01a2e87b-d199-4aee-880d-31ddb80d4a0b"",""projectId"":""e9cc2542-c7dc-4d8f-b94f-d088ad8989d1""}","https://test12345.live/?part=2&participantId=AA15104FBB3D4B25A0CC341AD2F23419&assignmentId=01a2e87b-d199-4aee-880d-31ddb80d4a0b&projectId=e9cc2542-c7dc-4d8f-b94f-d088ad8989d1","AA15104FBB3D4B25A0CC341AD2F23419-2025-05-16-18-12-48","","4735","","[""<span style=\""color: red; font-size: 24px\""> NOW RECORDING</span><p>Please say out loud all the images you saw in part 1 of the experiment, as many as you can remember. The images can be said in any order.</p>""]","","4","housework_semantic"
"","","","","","image-button-response","45","293910","0.0-43.0-0.0","AA15104FBB3D4B25A0CC341AD2F23419","AA15104FBB3D4B25A0CC341AD2F23419","01a2e87b-d199-4aee-880d-31ddb80d4a0b","e9cc2542-c7dc-4d8f-b94f-d088ad8989d1","{""part"":""2"",""participantId"":""AA15104FBB3D4B25A0CC341AD2F23419"",""assignmentId"":""01a2e87b-d199-4aee-880d-31ddb80d4a0b"",""projectId"":""e9cc2542-c7dc-4d8f-b94f-d088ad8989d1""}","https://test12345.live/?part=2&participantId=AA15104FBB3D4B25A0CC341AD2F23419&assignmentId=01a2e87b-d199-4aee-880d-31ddb80d4a0b&projectId=e9cc2542-c7dc-4d8f-b94f-d088ad8989d1","AA15104FBB3D4B25A0CC341AD2F23419-2025-05-16-18-12-48","","null","","images/causal_sequence/saving_a_cat_causal/saving_a_cat_causal_0.png","null","",""
"","","","","","html-audio-response","46","296880","0.0-44.0","AA15104FBB3D4B25A0CC341AD2F23419","AA15104FBB3D4B25A0CC341AD2F23419","01a2e87b-d199-4aee-880d-31ddb80d4a0b","e9cc2542-c7dc-4d8f-b94f-d088ad8989d1","{""part"":""2"",""participantId"":""AA15104FBB3D4B25A0CC341AD2F23419"",""assignmentId"":""01a2e87b-d199-4aee-880d-31ddb80d4a0b"",""projectId"":""e9cc2542-c7dc-4d8f-b94f-d088ad8989d1""}","https://test12345.live/?part=2&participantId=AA15104FBB3D4B25A0CC341AD2F23419&assignmentId=01a2e87b-d199-4aee-880d-31ddb80d4a0b&projectId=e9cc2542-c7dc-4d8f-b94f-d088ad8989d1","AA15104FBB3D4B25A0CC341AD2F23419-2025-05-16-18-12-48","","2253","","[""<span style=\""color: red; font-size: 24px\""> NOW RECORDING</span><p>Please say out loud all the images you saw in part 1 of the experiment, as many as you can remember. The images can be said in any order.</p>""]","","8","saving_a_cat_causal"
"","","","","","image-button-response","47","302890","0.0-45.0-0.0","AA15104FBB3D4B25A0CC341AD2F23419","AA15104FBB3D4B25A0CC341AD2F23419","01a2e87b-d199-4aee-880d-31ddb80d4a0b","e9cc2542-c7dc-4d8f-b94f-d088ad8989d1","{""part"":""2"",""participantId"":""AA15104FBB3D4B25A0CC341AD2F23419"",""assignmentId"":""01a2e87b-d199-4aee-880d-31ddb80d4a0b"",""projectId"":""e9cc2542-c7dc-4d8f-b94f-d088ad8989d1""}","https://test12345.live/?part=2&participantId=AA15104FBB3D4B25A0CC341AD2F23419&assignmentId=01a2e87b-d199-4aee-880d-31ddb80d4a0b&projectId=e9cc2542-c7dc-4d8f-b94f-d088ad8989d1","AA15104FBB3D4B25A0CC341AD2F23419-2025-05-16-18-12-48","","null","","images/semantic_sequence/exploring_nature_semantic/exploring_nature_semantic_0.png","null","",""
"","","","","","html-audio-response","48","306920","0.0-46.0","AA15104FBB3D4B25A0CC341AD2F23419","AA15104FBB3D4B25A0CC341AD2F23419","01a2e87b-d199-4aee-880d-31ddb80d4a0b","e9cc2542-c7dc-4d8f-b94f-d088ad8989d1","{""part"":""2"",""participantId"":""AA15104FBB3D4B25A0CC341AD2F23419"",""assignmentId"":""01a2e87b-d199-4aee-880d-31ddb80d4a0b"",""projectId"":""e9cc2542-c7dc-4d8f-b94f-d088ad8989d1""}","https://test12345.live/?part=2&participantId=AA15104FBB3D4B25A0CC341AD2F23419&assignmentId=01a2e87b-d199-4aee-880d-31ddb80d4a0b&projectId=e9cc2542-c7dc-4d8f-b94f-d088ad8989d1","AA15104FBB3D4B25A0CC341AD2F23419-2025-05-16-18-12-48","","2842","","[""<span style=\""color: red; font-size: 24px\""> NOW RECORDING</span><p>Please say out loud all the images you saw in part 1 of the experiment, as many as you can remember. The images can be said in any order.</p>""]","","5","exploring_nature_semantic"
"","","","","","image-button-response","49","312934","0.0-47.0-0.0","AA15104FBB3D4B25A0CC341AD2F23419","AA15104FBB3D4B25A0CC341AD2F23419","01a2e87b-d199-4aee-880d-31ddb80d4a0b","e9cc2542-c7dc-4d8f-b94f-d088ad8989d1","{""part"":""2"",""participantId"":""AA15104FBB3D4B25A0CC341AD2F23419"",""assignmentId"":""01a2e87b-d199-4aee-880d-31ddb80d4a0b"",""projectId"":""e9cc2542-c7dc-4d8f-b94f-d088ad8989d1""}","https://test12345.live/?part=2&participantId=AA15104FBB3D4B25A0CC341AD2F23419&assignmentId=01a2e87b-d199-4aee-880d-31ddb80d4a0b&projectId=e9cc2542-c7dc-4d8f-b94f-d088ad8989d1","AA15104FBB3D4B25A0CC341AD2F23419-2025-05-16-18-12-48","","null","","images/causal_sequence/the_performance_causal/the_performance_causal_0.png","null","",""
"","","","","","html-audio-response","50","314559","0.0-48.0","AA15104FBB3D4B25A0CC341AD2F23419","AA15104FBB3D4B25A0CC341AD2F23419","01a2e87b-d199-4aee-880d-31ddb80d4a0b","e9cc2542-c7dc-4d8f-b94f-d088ad8989d1","{""part"":""2"",""participantId"":""AA15104FBB3D4B25A0CC341AD2F23419"",""assignmentId"":""01a2e87b-d199-4aee-880d-31ddb80d4a0b"",""projectId"":""e9cc2542-c7dc-4d8f-b94f-d088ad8989d1""}","https://test12345.live/?part=2&participantId=AA15104FBB3D4B25A0CC341AD2F23419&assignmentId=01a2e87b-d199-4aee-880d-31ddb80d4a0b&projectId=e9cc2542-c7dc-4d8f-b94f-d088ad8989d1","AA15104FBB3D4B25A0CC341AD2F23419-2025-05-16-18-12-48","","784","","[""<span style=\""color: red; font-size: 24px\""> NOW RECORDING</span><p>Please say out loud all the images you saw in part 1 of the experiment, as many as you can remember. The images can be said in any order.</p>""]","","8","the_performance_causal"
"","","","","","image-button-response","51","320569","0.0-49.0-0.0","AA15104FBB3D4B25A0CC341AD2F23419","AA15104FBB3D4B25A0CC341AD2F23419","01a2e87b-d199-4aee-880d-31ddb80d4a0b","e9cc2542-c7dc-4d8f-b94f-d088ad8989d1","{""part"":""2"",""participantId"":""AA15104FBB3D4B25A0CC341AD2F23419"",""assignmentId"":""01a2e87b-d199-4aee-880d-31ddb80d4a0b"",""projectId"":""e9cc2542-c7dc-4d8f-b94f-d088ad8989d1""}","https://test12345.live/?part=2&participantId=AA15104FBB3D4B25A0CC341AD2F23419&assignmentId=01a2e87b-d199-4aee-880d-31ddb80d4a0b&projectId=e9cc2542-c7dc-4d8f-b94f-d088ad8989d1","AA15104FBB3D4B25A0CC341AD2F23419-2025-05-16-18-12-48","","null","","images/semantic_sequence/using_technology_semantic/using_technology_semantic_0.png","null","",""
"","","","","","html-audio-response","52","322192","0.0-50.0","AA15104FBB3D4B25A0CC341AD2F23419","AA15104FBB3D4B25A0CC341AD2F23419","01a2e87b-d199-4aee-880d-31ddb80d4a0b","e9cc2542-c7dc-4d8f-b94f-d088ad8989d1","{""part"":""2"",""participantId"":""AA15104FBB3D4B25A0CC341AD2F23419"",""assignmentId"":""01a2e87b-d199-4aee-880d-31ddb80d4a0b"",""projectId"":""e9cc2542-c7dc-4d8f-b94f-d088ad8989d1""}","https://test12345.live/?part=2&participantId=AA15104FBB3D4B25A0CC341AD2F23419&assignmentId=01a2e87b-d199-4aee-880d-31ddb80d4a0b&projectId=e9cc2542-c7dc-4d8f-b94f-d088ad8989d1","AA15104FBB3D4B25A0CC341AD2F23419-2025-05-16-18-12-48","","855","","[""<span style=\""color: red; font-size: 24px\""> NOW RECORDING</span><p>Please say out loud all the images you saw in part 1 of the experiment, as many as you can remember. The images can be said in any order.</p>""]","","1","using_technology_semantic"
"","","","","","image-button-response","53","328206","0.0-51.0-0.0","AA15104FBB3D4B25A0CC341AD2F23419","AA15104FBB3D4B25A0CC341AD2F23419","01a2e87b-d199-4aee-880d-31ddb80d4a0b","e9cc2542-c7dc-4d8f-b94f-d088ad8989d1","{""part"":""2"",""participantId"":""AA15104FBB3D4B25A0CC341AD2F23419"",""assignmentId"":""01a2e87b-d199-4aee-880d-31ddb80d4a0b"",""projectId"":""e9cc2542-c7dc-4d8f-b94f-d088ad8989d1""}","https://test12345.live/?part=2&participantId=AA15104FBB3D4B25A0CC341AD2F23419&assignmentId=01a2e87b-d199-4aee-880d-31ddb80d4a0b&projectId=e9cc2542-c7dc-4d8f-b94f-d088ad8989d1","AA15104FBB3D4B25A0CC341AD2F23419-2025-05-16-18-12-48","","null","","images/causal_sequence/dog_causal/dog_causal_0.png","null","",""
"","","","","","html-audio-response","54","335335","0.0-52.0","AA15104FBB3D4B25A0CC341AD2F23419","AA15104FBB3D4B25A0CC341AD2F23419","01a2e87b-d199-4aee-880d-31ddb80d4a0b","e9cc2542-c7dc-4d8f-b94f-d088ad8989d1","{""part"":""2"",""participantId"":""AA15104FBB3D4B25A0CC341AD2F23419"",""assignmentId"":""01a2e87b-d199-4aee-880d-31ddb80d4a0b"",""projectId"":""e9cc2542-c7dc-4d8f-b94f-d088ad8989d1""}","https://test12345.live/?part=2&participantId=AA15104FBB3D4B25A0CC341AD2F23419&assignmentId=01a2e87b-d199-4aee-880d-31ddb80d4a0b&projectId=e9cc2542-c7dc-4d8f-b94f-d088ad8989d1","AA15104FBB3D4B25A0CC341AD2F23419-2025-05-16-18-12-48","","1351","","[""<span style=\""color: red; font-size: 24px\""> NOW RECORDING</span><p>Please say out loud all the images you saw in part 1 of the experiment, as many as you can remember. The images can be said in any order.</p>""]","","1","dog_causal"
"","","","","","image-button-response","55","341350","0.0-53.0-0.0","AA15104FBB3D4B25A0CC341AD2F23419","AA15104FBB3D4B25A0CC341AD2F23419","01a2e87b-d199-4aee-880d-31ddb80d4a0b","e9cc2542-c7dc-4d8f-b94f-d088ad8989d1","{""part"":""2"",""participantId"":""AA15104FBB3D4B25A0CC341AD2F23419"",""assignmentId"":""01a2e87b-d199-4aee-880d-31ddb80d4a0b"",""projectId"":""e9cc2542-c7dc-4d8f-b94f-d088ad8989d1""}","https://test12345.live/?part=2&participantId=AA15104FBB3D4B25A0CC341AD2F23419&assignmentId=01a2e87b-d199-4aee-880d-31ddb80d4a0b&projectId=e9cc2542-c7dc-4d8f-b94f-d088ad8989d1","AA15104FBB3D4B25A0CC341AD2F23419-2025-05-16-18-12-48","","null","","images/causal_sequence/coin_causal/coin_causal_0.png","null","",""
"","","","","","html-audio-response","56","352926","0.0-54.0","AA15104FBB3D4B25A0CC341AD2F23419","AA15104FBB3D4B25A0CC341AD2F23419","01a2e87b-d199-4aee-880d-31ddb80d4a0b","e9cc2542-c7dc-4d8f-b94f-d088ad8989d1","{""part"":""2"",""participantId"":""AA15104FBB3D4B25A0CC341AD2F23419"",""assignmentId"":""01a2e87b-d199-4aee-880d-31ddb80d4a0b"",""projectId"":""e9cc2542-c7dc-4d8f-b94f-d088ad8989d1""}","https://test12345.live/?part=2&participantId=AA15104FBB3D4B25A0CC341AD2F23419&assignmentId=01a2e87b-d199-4aee-880d-31ddb80d4a0b&projectId=e9cc2542-c7dc-4d8f-b94f-d088ad8989d1","AA15104FBB3D4B25A0CC341AD2F23419-2025-05-16-18-12-48","","1778","","[""<span style=\""color: red; font-size: 24px\""> NOW RECORDING</span><p>Please say out loud all the images you saw in part 1 of the experiment, as many as you can remember. The images can be said in any order.</p>""]","","2","coin_causal"
"","","","","","image-button-response","57","358938","0.0-55.0-0.0","AA15104FBB3D4B25A0CC341AD2F23419","AA15104FBB3D4B25A0CC341AD2F23419","01a2e87b-d199-4aee-880d-31ddb80d4a0b","e9cc2542-c7dc-4d8f-b94f-d088ad8989d1","{""part"":""2"",""participantId"":""AA15104FBB3D4B25A0CC341AD2F23419"",""assignmentId"":""01a2e87b-d199-4aee-880d-31ddb80d4a0b"",""projectId"":""e9cc2542-c7dc-4d8f-b94f-d088ad8989d1""}","https://test12345.live/?part=2&participantId=AA15104FBB3D4B25A0CC341AD2F23419&assignmentId=01a2e87b-d199-4aee-880d-31ddb80d4a0b&projectId=e9cc2542-c7dc-4d8f-b94f-d088ad8989d1","AA15104FBB3D4B25A0CC341AD2F23419-2025-05-16-18-12-48","","null","","images/semantic_sequence/self_care_activities_semantic/self_care_activities_semantic_0.png","null","",""
"","","","","","html-audio-response","58","363478","0.0-56.0","AA15104FBB3D4B25A0CC341AD2F23419","AA15104FBB3D4B25A0CC341AD2F23419","01a2e87b-d199-4aee-880d-31ddb80d4a0b","e9cc2542-c7dc-4d8f-b94f-d088ad8989d1","{""part"":""2"",""participantId"":""AA15104FBB3D4B25A0CC341AD2F23419"",""assignmentId"":""01a2e87b-d199-4aee-880d-31ddb80d4a0b"",""projectId"":""e9cc2542-c7dc-4d8f-b94f-d088ad8989d1""}","https://test12345.live/?part=2&participantId=AA15104FBB3D4B25A0CC341AD2F23419&assignmentId=01a2e87b-d199-4aee-880d-31ddb80d4a0b&projectId=e9cc2542-c7dc-4d8f-b94f-d088ad8989d1","AA15104FBB3D4B25A0CC341AD2F23419-2025-05-16-18-12-48","","2627","","[""<span style=\""color: red; font-size: 24px\""> NOW RECORDING</span><p>Please say out loud all the images you saw in part 1 of the experiment, as many as you can remember. The images can be said in any order.</p>""]","","0","self_care_activities_semantic"
"","","","","","survey-text","59","369391","0.0-57.0","AA15104FBB3D4B25A0CC341AD2F23419","AA15104FBB3D4B25A0CC341AD2F23419","01a2e87b-d199-4aee-880d-31ddb80d4a0b","e9cc2542-c7dc-4d8f-b94f-d088ad8989d1","{""part"":""2"",""participantId"":""AA15104FBB3D4B25A0CC341AD2F23419"",""assignmentId"":""01a2e87b-d199-4aee-880d-31ddb80d4a0b"",""projectId"":""e9cc2542-c7dc-4d8f-b94f-d088ad8989d1""}","https://test12345.live/?part=2&participantId=AA15104FBB3D4B25A0CC341AD2F23419&assignmentId=01a2e87b-d199-4aee-880d-31ddb80d4a0b&projectId=e9cc2542-c7dc-4d8f-b94f-d088ad8989d1","AA15104FBB3D4B25A0CC341AD2F23419-2025-05-16-18-12-48","","5847","","","{""Q0"":""Male"",""Q1"":""34""}","",""
"","","","","","instructions","60","373893","0.0-58.0","AA15104FBB3D4B25A0CC341AD2F23419","AA15104FBB3D4B25A0CC341AD2F23419","01a2e87b-d199-4aee-880d-31ddb80d4a0b","e9cc2542-c7dc-4d8f-b94f-d088ad8989d1","{""part"":""2"",""participantId"":""AA15104FBB3D4B25A0CC341AD2F23419"",""assignmentId"":""01a2e87b-d199-4aee-880d-31ddb80d4a0b"",""projectId"":""e9cc2542-c7dc-4d8f-b94f-d088ad8989d1""}","https://test12345.live/?part=2&participantId=AA15104FBB3D4B25A0CC341AD2F23419&assignmentId=01a2e87b-d199-4aee-880d-31ddb80d4a0b&projectId=e9cc2542-c7dc-4d8f-b94f-d088ad8989d1","AA15104FBB3D4B25A0CC341AD2F23419-2025-05-16-18-12-48","[{""page_index"":0,""viewing_time"":4501}]","4501","","","","",""
"","","","","","survey-text","61","375837","0.0-59.0","AA15104FBB3D4B25A0CC341AD2F23419","AA15104FBB3D4B25A0CC341AD2F23419","01a2e87b-d199-4aee-880d-31ddb80d4a0b","e9cc2542-c7dc-4d8f-b94f-d088ad8989d1","{""part"":""2"",""participantId"":""AA15104FBB3D4B25A0CC341AD2F23419"",""assignmentId"":""01a2e87b-d199-4aee-880d-31ddb80d4a0b"",""projectId"":""e9cc2542-c7dc-4d8f-b94f-d088ad8989d1""}","https://test12345.live/?part=2&participantId=AA15104FBB3D4B25A0CC341AD2F23419&assignmentId=01a2e87b-d199-4aee-880d-31ddb80d4a0b&projectId=e9cc2542-c7dc-4d8f-b94f-d088ad8989d1","AA15104FBB3D4B25A0CC341AD2F23419-2025-05-16-18-12-48","","1940","","","{""Q0"":""AJFHBG896""}","",""
