"success","timeout","failed_images","failed_audio","failed_video","trial_type","trial_index","time_elapsed","internal_node_id","subject","subject_id","study_id","session_id","urlvar","current_url","audio_id","view_history","rt","device_id","stimulus","response","estimated_stimulus_onset","seq_name"
"true","false","[]","[]","[]","preload","0","3902","0.0-0.0","AA9A5D862DC141A2924B93C6DB0E1EE4","AA9A5D862DC141A2924B93C6DB0E1EE4","0198c3a8-f115-7abd-a9aa-31558ae1aebd","0198c320-653a-770c-93e4-41e10e7faa5f","{""num_scrambled_semantic"":""8"",""num_scrambled_causal"":""4"",""num_scrambled_schematic"":""4"",""participantId"":""AA9A5D862DC141A2924B93C6DB0E1EE4"",""assignmentId"":""0198c3a8-f115-7abd-a9aa-31558ae1aebd"",""projectId"":""0198c320-653a-770c-93e4-41e10e7faa5f""}","https://test12345.live/?num_scrambled_semantic=8&num_scrambled_causal=4&num_scrambled_schematic=4&participantId=AA9A5D862DC141A2924B93C6DB0E1EE4&assignmentId=0198c3a8-f115-7abd-a9aa-31558ae1aebd&projectId=0198c320-653a-770c-93e4-41e10e7faa5f","AA9A5D862DC141A2924B93C6DB0E1EE4-2025-08-19-18-59-40","","","","","","",""
"","","","","","instructions","1","13332","0.0-1.0","AA9A5D862DC141A2924B93C6DB0E1EE4","AA9A5D862DC141A2924B93C6DB0E1EE4","0198c3a8-f115-7abd-a9aa-31558ae1aebd","0198c320-653a-770c-93e4-41e10e7faa5f","{""num_scrambled_semantic"":""8"",""num_scrambled_causal"":""4"",""num_scrambled_schematic"":""4"",""participantId"":""AA9A5D862DC141A2924B93C6DB0E1EE4"",""assignmentId"":""0198c3a8-f115-7abd-a9aa-31558ae1aebd"",""projectId"":""0198c320-653a-770c-93e4-41e10e7faa5f""}","https://test12345.live/?num_scrambled_semantic=8&num_scrambled_causal=4&num_scrambled_schematic=4&participantId=AA9A5D862DC141A2924B93C6DB0E1EE4&assignmentId=0198c3a8-f115-7abd-a9aa-31558ae1aebd&projectId=0198c320-653a-770c-93e4-41e10e7faa5f","AA9A5D862DC141A2924B93C6DB0E1EE4-2025-08-19-18-59-40","[{""page_index"":0,""viewing_time"":9429}]","9429","","","","",""
"","","","","","instructions","2","18756","0.0-2.0","AA9A5D862DC141A2924B93C6DB0E1EE4","AA9A5D862DC141A2924B93C6DB0E1EE4","0198c3a8-f115-7abd-a9aa-31558ae1aebd","0198c320-653a-770c-93e4-41e10e7faa5f","{""num_scrambled_semantic"":""8"",""num_scrambled_causal"":""4"",""num_scrambled_schematic"":""4"",""participantId"":""AA9A5D862DC141A2924B93C6DB0E1EE4"",""assignmentId"":""0198c3a8-f115-7abd-a9aa-31558ae1aebd"",""projectId"":""0198c320-653a-770c-93e4-41e10e7faa5f""}","https://test12345.live/?num_scrambled_semantic=8&num_scrambled_causal=4&num_scrambled_schematic=4&participantId=AA9A5D862DC141A2924B93C6DB0E1EE4&assignmentId=0198c3a8-f115-7abd-a9aa-31558ae1aebd&projectId=0198c320-653a-770c-93e4-41e10e7faa5f","AA9A5D862DC141A2924B93C6DB0E1EE4-2025-08-19-18-59-40","[{""page_index"":0,""viewing_time"":5423}]","5423","","","","",""
"true","","","","","fullscreen","3","21373","0.0-3.0","AA9A5D862DC141A2924B93C6DB0E1EE4","AA9A5D862DC141A2924B93C6DB0E1EE4","0198c3a8-f115-7abd-a9aa-31558ae1aebd","0198c320-653a-770c-93e4-41e10e7faa5f","{""num_scrambled_semantic"":""8"",""num_scrambled_causal"":""4"",""num_scrambled_schematic"":""4"",""participantId"":""AA9A5D862DC141A2924B93C6DB0E1EE4"",""assignmentId"":""0198c3a8-f115-7abd-a9aa-31558ae1aebd"",""projectId"":""0198c320-653a-770c-93e4-41e10e7faa5f""}","https://test12345.live/?num_scrambled_semantic=8&num_scrambled_causal=4&num_scrambled_schematic=4&participantId=AA9A5D862DC141A2924B93C6DB0E1EE4&assignmentId=0198c3a8-f115-7abd-a9aa-31558ae1aebd&projectId=0198c320-653a-770c-93e4-41e10e7faa5f","AA9A5D862DC141A2924B93C6DB0E1EE4-2025-08-19-18-59-40","","1605","","","","",""
"","","","","","initialize-microphone","4","28640","0.0-4.0-0.0","AA9A5D862DC141A2924B93C6DB0E1EE4","AA9A5D862DC141A2924B93C6DB0E1EE4","0198c3a8-f115-7abd-a9aa-31558ae1aebd","0198c320-653a-770c-93e4-41e10e7faa5f","{""num_scrambled_semantic"":""8"",""num_scrambled_causal"":""4"",""num_scrambled_schematic"":""4"",""participantId"":""AA9A5D862DC141A2924B93C6DB0E1EE4"",""assignmentId"":""0198c3a8-f115-7abd-a9aa-31558ae1aebd"",""projectId"":""0198c320-653a-770c-93e4-41e10e7faa5f""}","https://test12345.live/?num_scrambled_semantic=8&num_scrambled_causal=4&num_scrambled_schematic=4&participantId=AA9A5D862DC141A2924B93C6DB0E1EE4&assignmentId=0198c3a8-f115-7abd-a9aa-31558ae1aebd&projectId=0198c320-653a-770c-93e4-41e10e7faa5f","AA9A5D862DC141A2924B93C6DB0E1EE4-2025-08-19-18-59-40","","","M5m82EdHm9YH1sfOwFu8S5ZIchdMeTmhXKb1ZrHZaM0=","","","",""
"","","","","","html-audio-response","5","46254","0.0-4.0-1.0","AA9A5D862DC141A2924B93C6DB0E1EE4","AA9A5D862DC141A2924B93C6DB0E1EE4","0198c3a8-f115-7abd-a9aa-31558ae1aebd","0198c320-653a-770c-93e4-41e10e7faa5f","{""num_scrambled_semantic"":""8"",""num_scrambled_causal"":""4"",""num_scrambled_schematic"":""4"",""participantId"":""AA9A5D862DC141A2924B93C6DB0E1EE4"",""assignmentId"":""0198c3a8-f115-7abd-a9aa-31558ae1aebd"",""projectId"":""0198c320-653a-770c-93e4-41e10e7faa5f""}","https://test12345.live/?num_scrambled_semantic=8&num_scrambled_causal=4&num_scrambled_schematic=4&participantId=AA9A5D862DC141A2924B93C6DB0E1EE4&assignmentId=0198c3a8-f115-7abd-a9aa-31558ae1aebd&projectId=0198c320-653a-770c-93e4-41e10e7faa5f","AA9A5D862DC141A2924B93C6DB0E1EE4-2025-08-19-18-59-40","","6001","","<span style=""color: red; font-size: 24px""> NOW RECORDING</span>
        <p>Please test Microphone</p>","","3",""
"","","","","","html-button-response","6","48046","0.0-4.0-2.0","AA9A5D862DC141A2924B93C6DB0E1EE4","AA9A5D862DC141A2924B93C6DB0E1EE4","0198c3a8-f115-7abd-a9aa-31558ae1aebd","0198c320-653a-770c-93e4-41e10e7faa5f","{""num_scrambled_semantic"":""8"",""num_scrambled_causal"":""4"",""num_scrambled_schematic"":""4"",""participantId"":""AA9A5D862DC141A2924B93C6DB0E1EE4"",""assignmentId"":""0198c3a8-f115-7abd-a9aa-31558ae1aebd"",""projectId"":""0198c320-653a-770c-93e4-41e10e7faa5f""}","https://test12345.live/?num_scrambled_semantic=8&num_scrambled_causal=4&num_scrambled_schematic=4&participantId=AA9A5D862DC141A2924B93C6DB0E1EE4&assignmentId=0198c3a8-f115-7abd-a9aa-31558ae1aebd&projectId=0198c320-653a-770c-93e4-41e10e7faa5f","AA9A5D862DC141A2924B93C6DB0E1EE4-2025-08-19-18-59-40","","1789","","<p style=""font-size:48px; color:red;"">Is Microphone OK?</p>","1","",""
"","","","","","instructions","7","58094","0.0-5.0","AA9A5D862DC141A2924B93C6DB0E1EE4","AA9A5D862DC141A2924B93C6DB0E1EE4","0198c3a8-f115-7abd-a9aa-31558ae1aebd","0198c320-653a-770c-93e4-41e10e7faa5f","{""num_scrambled_semantic"":""8"",""num_scrambled_causal"":""4"",""num_scrambled_schematic"":""4"",""participantId"":""AA9A5D862DC141A2924B93C6DB0E1EE4"",""assignmentId"":""0198c3a8-f115-7abd-a9aa-31558ae1aebd"",""projectId"":""0198c320-653a-770c-93e4-41e10e7faa5f""}","https://test12345.live/?num_scrambled_semantic=8&num_scrambled_causal=4&num_scrambled_schematic=4&participantId=AA9A5D862DC141A2924B93C6DB0E1EE4&assignmentId=0198c3a8-f115-7abd-a9aa-31558ae1aebd&projectId=0198c320-653a-770c-93e4-41e10e7faa5f","AA9A5D862DC141A2924B93C6DB0E1EE4-2025-08-19-18-59-40","[{""page_index"":0,""viewing_time"":1044},{""page_index"":1,""viewing_time"":3760},{""page_index"":2,""viewing_time"":5243}]","10047","","","","",""
"","","","","","image-button-response","8","64346","0.0-6.0-0.0","AA9A5D862DC141A2924B93C6DB0E1EE4","AA9A5D862DC141A2924B93C6DB0E1EE4","0198c3a8-f115-7abd-a9aa-31558ae1aebd","0198c320-653a-770c-93e4-41e10e7faa5f","{""num_scrambled_semantic"":""8"",""num_scrambled_causal"":""4"",""num_scrambled_schematic"":""4"",""participantId"":""AA9A5D862DC141A2924B93C6DB0E1EE4"",""assignmentId"":""0198c3a8-f115-7abd-a9aa-31558ae1aebd"",""projectId"":""0198c320-653a-770c-93e4-41e10e7faa5f""}","https://test12345.live/?num_scrambled_semantic=8&num_scrambled_causal=4&num_scrambled_schematic=4&participantId=AA9A5D862DC141A2924B93C6DB0E1EE4&assignmentId=0198c3a8-f115-7abd-a9aa-31558ae1aebd&projectId=0198c320-653a-770c-93e4-41e10e7faa5f","AA9A5D862DC141A2924B93C6DB0E1EE4-2025-08-19-18-59-40","","null","","images/instructions/movie_0.png","null","",""
"","","","","","html-audio-response","9","112307","0.0-7.0","AA9A5D862DC141A2924B93C6DB0E1EE4","AA9A5D862DC141A2924B93C6DB0E1EE4","0198c3a8-f115-7abd-a9aa-31558ae1aebd","0198c320-653a-770c-93e4-41e10e7faa5f","{""num_scrambled_semantic"":""8"",""num_scrambled_causal"":""4"",""num_scrambled_schematic"":""4"",""participantId"":""AA9A5D862DC141A2924B93C6DB0E1EE4"",""assignmentId"":""0198c3a8-f115-7abd-a9aa-31558ae1aebd"",""projectId"":""0198c320-653a-770c-93e4-41e10e7faa5f""}","https://test12345.live/?num_scrambled_semantic=8&num_scrambled_causal=4&num_scrambled_schematic=4&participantId=AA9A5D862DC141A2924B93C6DB0E1EE4&assignmentId=0198c3a8-f115-7abd-a9aa-31558ae1aebd&projectId=0198c320-653a-770c-93e4-41e10e7faa5f","AA9A5D862DC141A2924B93C6DB0E1EE4-2025-08-19-18-59-40","","29513","","[""<span style=\""color: red; font-size: 24px\""> NOW RECORDING</span><p>Please say out loud all the images you saw in part 1 of the experiment, as many as you can remember. The images can be said in any order.</p>""]","","0",""
"","","","","","instructions","10","113431","0.0-8.0","AA9A5D862DC141A2924B93C6DB0E1EE4","AA9A5D862DC141A2924B93C6DB0E1EE4","0198c3a8-f115-7abd-a9aa-31558ae1aebd","0198c320-653a-770c-93e4-41e10e7faa5f","{""num_scrambled_semantic"":""8"",""num_scrambled_causal"":""4"",""num_scrambled_schematic"":""4"",""participantId"":""AA9A5D862DC141A2924B93C6DB0E1EE4"",""assignmentId"":""0198c3a8-f115-7abd-a9aa-31558ae1aebd"",""projectId"":""0198c320-653a-770c-93e4-41e10e7faa5f""}","https://test12345.live/?num_scrambled_semantic=8&num_scrambled_causal=4&num_scrambled_schematic=4&participantId=AA9A5D862DC141A2924B93C6DB0E1EE4&assignmentId=0198c3a8-f115-7abd-a9aa-31558ae1aebd&projectId=0198c320-653a-770c-93e4-41e10e7faa5f","AA9A5D862DC141A2924B93C6DB0E1EE4-2025-08-19-18-59-40","[{""page_index"":0,""viewing_time"":1117}]","1117","","","","",""
"","","","","","image-button-response","11","119469","0.0-9.0-0.0","AA9A5D862DC141A2924B93C6DB0E1EE4","AA9A5D862DC141A2924B93C6DB0E1EE4","0198c3a8-f115-7abd-a9aa-31558ae1aebd","0198c320-653a-770c-93e4-41e10e7faa5f","{""num_scrambled_semantic"":""8"",""num_scrambled_causal"":""4"",""num_scrambled_schematic"":""4"",""participantId"":""AA9A5D862DC141A2924B93C6DB0E1EE4"",""assignmentId"":""0198c3a8-f115-7abd-a9aa-31558ae1aebd"",""projectId"":""0198c320-653a-770c-93e4-41e10e7faa5f""}","https://test12345.live/?num_scrambled_semantic=8&num_scrambled_causal=4&num_scrambled_schematic=4&participantId=AA9A5D862DC141A2924B93C6DB0E1EE4&assignmentId=0198c3a8-f115-7abd-a9aa-31558ae1aebd&projectId=0198c320-653a-770c-93e4-41e10e7faa5f","AA9A5D862DC141A2924B93C6DB0E1EE4-2025-08-19-18-59-40","","null","","images/semantic_sequence/physical_activity_semantic/physical_activity_semantic_0.png","null","",""
"","","","","","html-audio-response","12","168573","0.0-10.0","AA9A5D862DC141A2924B93C6DB0E1EE4","AA9A5D862DC141A2924B93C6DB0E1EE4","0198c3a8-f115-7abd-a9aa-31558ae1aebd","0198c320-653a-770c-93e4-41e10e7faa5f","{""num_scrambled_semantic"":""8"",""num_scrambled_causal"":""4"",""num_scrambled_schematic"":""4"",""participantId"":""AA9A5D862DC141A2924B93C6DB0E1EE4"",""assignmentId"":""0198c3a8-f115-7abd-a9aa-31558ae1aebd"",""projectId"":""0198c320-653a-770c-93e4-41e10e7faa5f""}","https://test12345.live/?num_scrambled_semantic=8&num_scrambled_causal=4&num_scrambled_schematic=4&participantId=AA9A5D862DC141A2924B93C6DB0E1EE4&assignmentId=0198c3a8-f115-7abd-a9aa-31558ae1aebd&projectId=0198c320-653a-770c-93e4-41e10e7faa5f","AA9A5D862DC141A2924B93C6DB0E1EE4-2025-08-19-18-59-40","","47807","","[""<span style=\""color: red; font-size: 24px\""> NOW RECORDING</span><p>Please say out loud all the images you saw in part 1 of the experiment, as many as you can remember. The images can be said in any order.</p>""]","","5","physical_activity_semantic"
"","","","","","image-button-response","13","174726","0.0-11.0-0.0","AA9A5D862DC141A2924B93C6DB0E1EE4","AA9A5D862DC141A2924B93C6DB0E1EE4","0198c3a8-f115-7abd-a9aa-31558ae1aebd","0198c320-653a-770c-93e4-41e10e7faa5f","{""num_scrambled_semantic"":""8"",""num_scrambled_causal"":""4"",""num_scrambled_schematic"":""4"",""participantId"":""AA9A5D862DC141A2924B93C6DB0E1EE4"",""assignmentId"":""0198c3a8-f115-7abd-a9aa-31558ae1aebd"",""projectId"":""0198c320-653a-770c-93e4-41e10e7faa5f""}","https://test12345.live/?num_scrambled_semantic=8&num_scrambled_causal=4&num_scrambled_schematic=4&participantId=AA9A5D862DC141A2924B93C6DB0E1EE4&assignmentId=0198c3a8-f115-7abd-a9aa-31558ae1aebd&projectId=0198c320-653a-770c-93e4-41e10e7faa5f","AA9A5D862DC141A2924B93C6DB0E1EE4-2025-08-19-18-59-40","","null","","images/semantic_sequence/housework_semantic/housework_semantic_0.png","null","",""
"","","","","","html-audio-response","14","248430","0.0-12.0","AA9A5D862DC141A2924B93C6DB0E1EE4","AA9A5D862DC141A2924B93C6DB0E1EE4","0198c3a8-f115-7abd-a9aa-31558ae1aebd","0198c320-653a-770c-93e4-41e10e7faa5f","{""num_scrambled_semantic"":""8"",""num_scrambled_causal"":""4"",""num_scrambled_schematic"":""4"",""participantId"":""AA9A5D862DC141A2924B93C6DB0E1EE4"",""assignmentId"":""0198c3a8-f115-7abd-a9aa-31558ae1aebd"",""projectId"":""0198c320-653a-770c-93e4-41e10e7faa5f""}","https://test12345.live/?num_scrambled_semantic=8&num_scrambled_causal=4&num_scrambled_schematic=4&participantId=AA9A5D862DC141A2924B93C6DB0E1EE4&assignmentId=0198c3a8-f115-7abd-a9aa-31558ae1aebd&projectId=0198c320-653a-770c-93e4-41e10e7faa5f","AA9A5D862DC141A2924B93C6DB0E1EE4-2025-08-19-18-59-40","","12452","","[""<span style=\""color: red; font-size: 24px\""> NOW RECORDING</span><p>Please say out loud all the images you saw in part 1 of the experiment, as many as you can remember. The images can be said in any order.</p>""]","","1","housework_semantic"
"","","","","","image-button-response","15","254733","0.0-13.0-0.0","AA9A5D862DC141A2924B93C6DB0E1EE4","AA9A5D862DC141A2924B93C6DB0E1EE4","0198c3a8-f115-7abd-a9aa-31558ae1aebd","0198c320-653a-770c-93e4-41e10e7faa5f","{""num_scrambled_semantic"":""8"",""num_scrambled_causal"":""4"",""num_scrambled_schematic"":""4"",""participantId"":""AA9A5D862DC141A2924B93C6DB0E1EE4"",""assignmentId"":""0198c3a8-f115-7abd-a9aa-31558ae1aebd"",""projectId"":""0198c320-653a-770c-93e4-41e10e7faa5f""}","https://test12345.live/?num_scrambled_semantic=8&num_scrambled_causal=4&num_scrambled_schematic=4&participantId=AA9A5D862DC141A2924B93C6DB0E1EE4&assignmentId=0198c3a8-f115-7abd-a9aa-31558ae1aebd&projectId=0198c320-653a-770c-93e4-41e10e7faa5f","AA9A5D862DC141A2924B93C6DB0E1EE4-2025-08-19-18-59-40","","null","","images/semantic_sequence/creative_activities_semantic/creative_activities_semantic_0.png","null","",""
"","","","","","html-audio-response","16","280250","0.0-14.0","AA9A5D862DC141A2924B93C6DB0E1EE4","AA9A5D862DC141A2924B93C6DB0E1EE4","0198c3a8-f115-7abd-a9aa-31558ae1aebd","0198c320-653a-770c-93e4-41e10e7faa5f","{""num_scrambled_semantic"":""8"",""num_scrambled_causal"":""4"",""num_scrambled_schematic"":""4"",""participantId"":""AA9A5D862DC141A2924B93C6DB0E1EE4"",""assignmentId"":""0198c3a8-f115-7abd-a9aa-31558ae1aebd"",""projectId"":""0198c320-653a-770c-93e4-41e10e7faa5f""}","https://test12345.live/?num_scrambled_semantic=8&num_scrambled_causal=4&num_scrambled_schematic=4&participantId=AA9A5D862DC141A2924B93C6DB0E1EE4&assignmentId=0198c3a8-f115-7abd-a9aa-31558ae1aebd&projectId=0198c320-653a-770c-93e4-41e10e7faa5f","AA9A5D862DC141A2924B93C6DB0E1EE4-2025-08-19-18-59-40","","24065","","[""<span style=\""color: red; font-size: 24px\""> NOW RECORDING</span><p>Please say out loud all the images you saw in part 1 of the experiment, as many as you can remember. The images can be said in any order.</p>""]","","1","creative_activities_semantic"
"","","","","","image-button-response","17","286478","0.0-15.0-0.0","AA9A5D862DC141A2924B93C6DB0E1EE4","AA9A5D862DC141A2924B93C6DB0E1EE4","0198c3a8-f115-7abd-a9aa-31558ae1aebd","0198c320-653a-770c-93e4-41e10e7faa5f","{""num_scrambled_semantic"":""8"",""num_scrambled_causal"":""4"",""num_scrambled_schematic"":""4"",""participantId"":""AA9A5D862DC141A2924B93C6DB0E1EE4"",""assignmentId"":""0198c3a8-f115-7abd-a9aa-31558ae1aebd"",""projectId"":""0198c320-653a-770c-93e4-41e10e7faa5f""}","https://test12345.live/?num_scrambled_semantic=8&num_scrambled_causal=4&num_scrambled_schematic=4&participantId=AA9A5D862DC141A2924B93C6DB0E1EE4&assignmentId=0198c3a8-f115-7abd-a9aa-31558ae1aebd&projectId=0198c320-653a-770c-93e4-41e10e7faa5f","AA9A5D862DC141A2924B93C6DB0E1EE4-2025-08-19-18-59-40","","null","","images/semantic_sequence/maintaining_a_car_semantic/maintaining_a_car_semantic_0.png","null","",""
"","","","","","html-audio-response","18","297011","0.0-16.0","AA9A5D862DC141A2924B93C6DB0E1EE4","AA9A5D862DC141A2924B93C6DB0E1EE4","0198c3a8-f115-7abd-a9aa-31558ae1aebd","0198c320-653a-770c-93e4-41e10e7faa5f","{""num_scrambled_semantic"":""8"",""num_scrambled_causal"":""4"",""num_scrambled_schematic"":""4"",""participantId"":""AA9A5D862DC141A2924B93C6DB0E1EE4"",""assignmentId"":""0198c3a8-f115-7abd-a9aa-31558ae1aebd"",""projectId"":""0198c320-653a-770c-93e4-41e10e7faa5f""}","https://test12345.live/?num_scrambled_semantic=8&num_scrambled_causal=4&num_scrambled_schematic=4&participantId=AA9A5D862DC141A2924B93C6DB0E1EE4&assignmentId=0198c3a8-f115-7abd-a9aa-31558ae1aebd&projectId=0198c320-653a-770c-93e4-41e10e7faa5f","AA9A5D862DC141A2924B93C6DB0E1EE4-2025-08-19-18-59-40","","9484","","[""<span style=\""color: red; font-size: 24px\""> NOW RECORDING</span><p>Please say out loud all the images you saw in part 1 of the experiment, as many as you can remember. The images can be said in any order.</p>""]","","4","maintaining_a_car_semantic"
"","","","","","image-button-response","19","303109","0.0-17.0-0.0","AA9A5D862DC141A2924B93C6DB0E1EE4","AA9A5D862DC141A2924B93C6DB0E1EE4","0198c3a8-f115-7abd-a9aa-31558ae1aebd","0198c320-653a-770c-93e4-41e10e7faa5f","{""num_scrambled_semantic"":""8"",""num_scrambled_causal"":""4"",""num_scrambled_schematic"":""4"",""participantId"":""AA9A5D862DC141A2924B93C6DB0E1EE4"",""assignmentId"":""0198c3a8-f115-7abd-a9aa-31558ae1aebd"",""projectId"":""0198c320-653a-770c-93e4-41e10e7faa5f""}","https://test12345.live/?num_scrambled_semantic=8&num_scrambled_causal=4&num_scrambled_schematic=4&participantId=AA9A5D862DC141A2924B93C6DB0E1EE4&assignmentId=0198c3a8-f115-7abd-a9aa-31558ae1aebd&projectId=0198c320-653a-770c-93e4-41e10e7faa5f","AA9A5D862DC141A2924B93C6DB0E1EE4-2025-08-19-18-59-40","","null","","images/semantic_sequence/redecorating_semantic/redecorating_semantic_0.png","null","",""
"","","","","","html-audio-response","20","352618","0.0-18.0","AA9A5D862DC141A2924B93C6DB0E1EE4","AA9A5D862DC141A2924B93C6DB0E1EE4","0198c3a8-f115-7abd-a9aa-31558ae1aebd","0198c320-653a-770c-93e4-41e10e7faa5f","{""num_scrambled_semantic"":""8"",""num_scrambled_causal"":""4"",""num_scrambled_schematic"":""4"",""participantId"":""AA9A5D862DC141A2924B93C6DB0E1EE4"",""assignmentId"":""0198c3a8-f115-7abd-a9aa-31558ae1aebd"",""projectId"":""0198c320-653a-770c-93e4-41e10e7faa5f""}","https://test12345.live/?num_scrambled_semantic=8&num_scrambled_causal=4&num_scrambled_schematic=4&participantId=AA9A5D862DC141A2924B93C6DB0E1EE4&assignmentId=0198c3a8-f115-7abd-a9aa-31558ae1aebd&projectId=0198c320-653a-770c-93e4-41e10e7faa5f","AA9A5D862DC141A2924B93C6DB0E1EE4-2025-08-19-18-59-40","","48851","","[""<span style=\""color: red; font-size: 24px\""> NOW RECORDING</span><p>Please say out loud all the images you saw in part 1 of the experiment, as many as you can remember. The images can be said in any order.</p>""]","","9","redecorating_semantic"
"","","","","","image-button-response","21","358953","0.0-19.0-0.0","AA9A5D862DC141A2924B93C6DB0E1EE4","AA9A5D862DC141A2924B93C6DB0E1EE4","0198c3a8-f115-7abd-a9aa-31558ae1aebd","0198c320-653a-770c-93e4-41e10e7faa5f","{""num_scrambled_semantic"":""8"",""num_scrambled_causal"":""4"",""num_scrambled_schematic"":""4"",""participantId"":""AA9A5D862DC141A2924B93C6DB0E1EE4"",""assignmentId"":""0198c3a8-f115-7abd-a9aa-31558ae1aebd"",""projectId"":""0198c320-653a-770c-93e4-41e10e7faa5f""}","https://test12345.live/?num_scrambled_semantic=8&num_scrambled_causal=4&num_scrambled_schematic=4&participantId=AA9A5D862DC141A2924B93C6DB0E1EE4&assignmentId=0198c3a8-f115-7abd-a9aa-31558ae1aebd&projectId=0198c320-653a-770c-93e4-41e10e7faa5f","AA9A5D862DC141A2924B93C6DB0E1EE4-2025-08-19-18-59-40","","null","","images/semantic_sequence/using_technology_semantic/using_technology_semantic_0.png","null","",""
"","","","","","html-audio-response","22","370269","0.0-20.0","AA9A5D862DC141A2924B93C6DB0E1EE4","AA9A5D862DC141A2924B93C6DB0E1EE4","0198c3a8-f115-7abd-a9aa-31558ae1aebd","0198c320-653a-770c-93e4-41e10e7faa5f","{""num_scrambled_semantic"":""8"",""num_scrambled_causal"":""4"",""num_scrambled_schematic"":""4"",""participantId"":""AA9A5D862DC141A2924B93C6DB0E1EE4"",""assignmentId"":""0198c3a8-f115-7abd-a9aa-31558ae1aebd"",""projectId"":""0198c320-653a-770c-93e4-41e10e7faa5f""}","https://test12345.live/?num_scrambled_semantic=8&num_scrambled_causal=4&num_scrambled_schematic=4&participantId=AA9A5D862DC141A2924B93C6DB0E1EE4&assignmentId=0198c3a8-f115-7abd-a9aa-31558ae1aebd&projectId=0198c320-653a-770c-93e4-41e10e7faa5f","AA9A5D862DC141A2924B93C6DB0E1EE4-2025-08-19-18-59-40","","10308","","[""<span style=\""color: red; font-size: 24px\""> NOW RECORDING</span><p>Please say out loud all the images you saw in part 1 of the experiment, as many as you can remember. The images can be said in any order.</p>""]","","0","using_technology_semantic"
"","","","","","image-button-response","23","376319","0.0-21.0-0.0","AA9A5D862DC141A2924B93C6DB0E1EE4","AA9A5D862DC141A2924B93C6DB0E1EE4","0198c3a8-f115-7abd-a9aa-31558ae1aebd","0198c320-653a-770c-93e4-41e10e7faa5f","{""num_scrambled_semantic"":""8"",""num_scrambled_causal"":""4"",""num_scrambled_schematic"":""4"",""participantId"":""AA9A5D862DC141A2924B93C6DB0E1EE4"",""assignmentId"":""0198c3a8-f115-7abd-a9aa-31558ae1aebd"",""projectId"":""0198c320-653a-770c-93e4-41e10e7faa5f""}","https://test12345.live/?num_scrambled_semantic=8&num_scrambled_causal=4&num_scrambled_schematic=4&participantId=AA9A5D862DC141A2924B93C6DB0E1EE4&assignmentId=0198c3a8-f115-7abd-a9aa-31558ae1aebd&projectId=0198c320-653a-770c-93e4-41e10e7faa5f","AA9A5D862DC141A2924B93C6DB0E1EE4-2025-08-19-18-59-40","","null","","images/causal_sequence/package_causal/package_causal_0.png","null","",""
"","","","","","html-audio-response","24","421876","0.0-22.0","AA9A5D862DC141A2924B93C6DB0E1EE4","AA9A5D862DC141A2924B93C6DB0E1EE4","0198c3a8-f115-7abd-a9aa-31558ae1aebd","0198c320-653a-770c-93e4-41e10e7faa5f","{""num_scrambled_semantic"":""8"",""num_scrambled_causal"":""4"",""num_scrambled_schematic"":""4"",""participantId"":""AA9A5D862DC141A2924B93C6DB0E1EE4"",""assignmentId"":""0198c3a8-f115-7abd-a9aa-31558ae1aebd"",""projectId"":""0198c320-653a-770c-93e4-41e10e7faa5f""}","https://test12345.live/?num_scrambled_semantic=8&num_scrambled_causal=4&num_scrambled_schematic=4&participantId=AA9A5D862DC141A2924B93C6DB0E1EE4&assignmentId=0198c3a8-f115-7abd-a9aa-31558ae1aebd&projectId=0198c320-653a-770c-93e4-41e10e7faa5f","AA9A5D862DC141A2924B93C6DB0E1EE4-2025-08-19-18-59-40","","44890","","[""<span style=\""color: red; font-size: 24px\""> NOW RECORDING</span><p>Please say out loud all the images you saw in part 1 of the experiment, as many as you can remember. The images can be said in any order.</p>""]","","11","package_causal"
"","","","","","image-button-response","25","428039","0.0-23.0-0.0","AA9A5D862DC141A2924B93C6DB0E1EE4","AA9A5D862DC141A2924B93C6DB0E1EE4","0198c3a8-f115-7abd-a9aa-31558ae1aebd","0198c320-653a-770c-93e4-41e10e7faa5f","{""num_scrambled_semantic"":""8"",""num_scrambled_causal"":""4"",""num_scrambled_schematic"":""4"",""participantId"":""AA9A5D862DC141A2924B93C6DB0E1EE4"",""assignmentId"":""0198c3a8-f115-7abd-a9aa-31558ae1aebd"",""projectId"":""0198c320-653a-770c-93e4-41e10e7faa5f""}","https://test12345.live/?num_scrambled_semantic=8&num_scrambled_causal=4&num_scrambled_schematic=4&participantId=AA9A5D862DC141A2924B93C6DB0E1EE4&assignmentId=0198c3a8-f115-7abd-a9aa-31558ae1aebd&projectId=0198c320-653a-770c-93e4-41e10e7faa5f","AA9A5D862DC141A2924B93C6DB0E1EE4-2025-08-19-18-59-40","","null","","images/semantic_sequence/cat_care_semantic/cat_care_semantic_0.png","null","",""
"","","","","","html-audio-response","26","479735","0.0-24.0","AA9A5D862DC141A2924B93C6DB0E1EE4","AA9A5D862DC141A2924B93C6DB0E1EE4","0198c3a8-f115-7abd-a9aa-31558ae1aebd","0198c320-653a-770c-93e4-41e10e7faa5f","{""num_scrambled_semantic"":""8"",""num_scrambled_causal"":""4"",""num_scrambled_schematic"":""4"",""participantId"":""AA9A5D862DC141A2924B93C6DB0E1EE4"",""assignmentId"":""0198c3a8-f115-7abd-a9aa-31558ae1aebd"",""projectId"":""0198c320-653a-770c-93e4-41e10e7faa5f""}","https://test12345.live/?num_scrambled_semantic=8&num_scrambled_causal=4&num_scrambled_schematic=4&participantId=AA9A5D862DC141A2924B93C6DB0E1EE4&assignmentId=0198c3a8-f115-7abd-a9aa-31558ae1aebd&projectId=0198c320-653a-770c-93e4-41e10e7faa5f","AA9A5D862DC141A2924B93C6DB0E1EE4-2025-08-19-18-59-40","","51041","","[""<span style=\""color: red; font-size: 24px\""> NOW RECORDING</span><p>Please say out loud all the images you saw in part 1 of the experiment, as many as you can remember. The images can be said in any order.</p>""]","","16","cat_care_semantic"
"","","","","","image-button-response","27","486246","0.0-25.0-0.0","AA9A5D862DC141A2924B93C6DB0E1EE4","AA9A5D862DC141A2924B93C6DB0E1EE4","0198c3a8-f115-7abd-a9aa-31558ae1aebd","0198c320-653a-770c-93e4-41e10e7faa5f","{""num_scrambled_semantic"":""8"",""num_scrambled_causal"":""4"",""num_scrambled_schematic"":""4"",""participantId"":""AA9A5D862DC141A2924B93C6DB0E1EE4"",""assignmentId"":""0198c3a8-f115-7abd-a9aa-31558ae1aebd"",""projectId"":""0198c320-653a-770c-93e4-41e10e7faa5f""}","https://test12345.live/?num_scrambled_semantic=8&num_scrambled_causal=4&num_scrambled_schematic=4&participantId=AA9A5D862DC141A2924B93C6DB0E1EE4&assignmentId=0198c3a8-f115-7abd-a9aa-31558ae1aebd&projectId=0198c320-653a-770c-93e4-41e10e7faa5f","AA9A5D862DC141A2924B93C6DB0E1EE4-2025-08-19-18-59-40","","null","","images/causal_sequence/saving_a_cat_causal/saving_a_cat_causal_0.png","null","",""
"","","","","","html-audio-response","28","491050","0.0-26.0","AA9A5D862DC141A2924B93C6DB0E1EE4","AA9A5D862DC141A2924B93C6DB0E1EE4","0198c3a8-f115-7abd-a9aa-31558ae1aebd","0198c320-653a-770c-93e4-41e10e7faa5f","{""num_scrambled_semantic"":""8"",""num_scrambled_causal"":""4"",""num_scrambled_schematic"":""4"",""participantId"":""AA9A5D862DC141A2924B93C6DB0E1EE4"",""assignmentId"":""0198c3a8-f115-7abd-a9aa-31558ae1aebd"",""projectId"":""0198c320-653a-770c-93e4-41e10e7faa5f""}","https://test12345.live/?num_scrambled_semantic=8&num_scrambled_causal=4&num_scrambled_schematic=4&participantId=AA9A5D862DC141A2924B93C6DB0E1EE4&assignmentId=0198c3a8-f115-7abd-a9aa-31558ae1aebd&projectId=0198c320-653a-770c-93e4-41e10e7faa5f","AA9A5D862DC141A2924B93C6DB0E1EE4-2025-08-19-18-59-40","","4182","","[""<span style=\""color: red; font-size: 24px\""> NOW RECORDING</span><p>Please say out loud all the images you saw in part 1 of the experiment, as many as you can remember. The images can be said in any order.</p>""]","","1","saving_a_cat_causal"
"","","","","","image-button-response","29","497145","0.0-27.0-0.0","AA9A5D862DC141A2924B93C6DB0E1EE4","AA9A5D862DC141A2924B93C6DB0E1EE4","0198c3a8-f115-7abd-a9aa-31558ae1aebd","0198c320-653a-770c-93e4-41e10e7faa5f","{""num_scrambled_semantic"":""8"",""num_scrambled_causal"":""4"",""num_scrambled_schematic"":""4"",""participantId"":""AA9A5D862DC141A2924B93C6DB0E1EE4"",""assignmentId"":""0198c3a8-f115-7abd-a9aa-31558ae1aebd"",""projectId"":""0198c320-653a-770c-93e4-41e10e7faa5f""}","https://test12345.live/?num_scrambled_semantic=8&num_scrambled_causal=4&num_scrambled_schematic=4&participantId=AA9A5D862DC141A2924B93C6DB0E1EE4&assignmentId=0198c3a8-f115-7abd-a9aa-31558ae1aebd&projectId=0198c320-653a-770c-93e4-41e10e7faa5f","AA9A5D862DC141A2924B93C6DB0E1EE4-2025-08-19-18-59-40","","null","","images/causal_sequence/coin_causal/coin_causal_0.png","null","",""
"","","","","","html-audio-response","30","565830","0.0-28.0","AA9A5D862DC141A2924B93C6DB0E1EE4","AA9A5D862DC141A2924B93C6DB0E1EE4","0198c3a8-f115-7abd-a9aa-31558ae1aebd","0198c320-653a-770c-93e4-41e10e7faa5f","{""num_scrambled_semantic"":""8"",""num_scrambled_causal"":""4"",""num_scrambled_schematic"":""4"",""participantId"":""AA9A5D862DC141A2924B93C6DB0E1EE4"",""assignmentId"":""0198c3a8-f115-7abd-a9aa-31558ae1aebd"",""projectId"":""0198c320-653a-770c-93e4-41e10e7faa5f""}","https://test12345.live/?num_scrambled_semantic=8&num_scrambled_causal=4&num_scrambled_schematic=4&participantId=AA9A5D862DC141A2924B93C6DB0E1EE4&assignmentId=0198c3a8-f115-7abd-a9aa-31558ae1aebd&projectId=0198c320-653a-770c-93e4-41e10e7faa5f","AA9A5D862DC141A2924B93C6DB0E1EE4-2025-08-19-18-59-40","","null","","[""<span style=\""color: red; font-size: 24px\""> NOW RECORDING</span><p>Please say out loud all the images you saw in part 1 of the experiment, as many as you can remember. The images can be said in any order.</p>""]","","1","coin_causal"
"","","","","","image-button-response","31","572494","0.0-29.0-0.0","AA9A5D862DC141A2924B93C6DB0E1EE4","AA9A5D862DC141A2924B93C6DB0E1EE4","0198c3a8-f115-7abd-a9aa-31558ae1aebd","0198c320-653a-770c-93e4-41e10e7faa5f","{""num_scrambled_semantic"":""8"",""num_scrambled_causal"":""4"",""num_scrambled_schematic"":""4"",""participantId"":""AA9A5D862DC141A2924B93C6DB0E1EE4"",""assignmentId"":""0198c3a8-f115-7abd-a9aa-31558ae1aebd"",""projectId"":""0198c320-653a-770c-93e4-41e10e7faa5f""}","https://test12345.live/?num_scrambled_semantic=8&num_scrambled_causal=4&num_scrambled_schematic=4&participantId=AA9A5D862DC141A2924B93C6DB0E1EE4&assignmentId=0198c3a8-f115-7abd-a9aa-31558ae1aebd&projectId=0198c320-653a-770c-93e4-41e10e7faa5f","AA9A5D862DC141A2924B93C6DB0E1EE4-2025-08-19-18-59-40","","null","","images/causal_sequence/dog_causal/dog_causal_0.png","null","",""
"","","","","","html-audio-response","32","620169","0.0-30.0","AA9A5D862DC141A2924B93C6DB0E1EE4","AA9A5D862DC141A2924B93C6DB0E1EE4","0198c3a8-f115-7abd-a9aa-31558ae1aebd","0198c320-653a-770c-93e4-41e10e7faa5f","{""num_scrambled_semantic"":""8"",""num_scrambled_causal"":""4"",""num_scrambled_schematic"":""4"",""participantId"":""AA9A5D862DC141A2924B93C6DB0E1EE4"",""assignmentId"":""0198c3a8-f115-7abd-a9aa-31558ae1aebd"",""projectId"":""0198c320-653a-770c-93e4-41e10e7faa5f""}","https://test12345.live/?num_scrambled_semantic=8&num_scrambled_causal=4&num_scrambled_schematic=4&participantId=AA9A5D862DC141A2924B93C6DB0E1EE4&assignmentId=0198c3a8-f115-7abd-a9aa-31558ae1aebd&projectId=0198c320-653a-770c-93e4-41e10e7faa5f","AA9A5D862DC141A2924B93C6DB0E1EE4-2025-08-19-18-59-40","","46488","","[""<span style=\""color: red; font-size: 24px\""> NOW RECORDING</span><p>Please say out loud all the images you saw in part 1 of the experiment, as many as you can remember. The images can be said in any order.</p>""]","","1","dog_causal"
"","","","","","image-button-response","33","626230","0.0-31.0-0.0","AA9A5D862DC141A2924B93C6DB0E1EE4","AA9A5D862DC141A2924B93C6DB0E1EE4","0198c3a8-f115-7abd-a9aa-31558ae1aebd","0198c320-653a-770c-93e4-41e10e7faa5f","{""num_scrambled_semantic"":""8"",""num_scrambled_causal"":""4"",""num_scrambled_schematic"":""4"",""participantId"":""AA9A5D862DC141A2924B93C6DB0E1EE4"",""assignmentId"":""0198c3a8-f115-7abd-a9aa-31558ae1aebd"",""projectId"":""0198c320-653a-770c-93e4-41e10e7faa5f""}","https://test12345.live/?num_scrambled_semantic=8&num_scrambled_causal=4&num_scrambled_schematic=4&participantId=AA9A5D862DC141A2924B93C6DB0E1EE4&assignmentId=0198c3a8-f115-7abd-a9aa-31558ae1aebd&projectId=0198c320-653a-770c-93e4-41e10e7faa5f","AA9A5D862DC141A2924B93C6DB0E1EE4-2025-08-19-18-59-40","","null","","images/causal_sequence/the_performance_causal/the_performance_causal_0.png","null","",""
"","","","","","html-audio-response","34","664233","0.0-32.0","AA9A5D862DC141A2924B93C6DB0E1EE4","AA9A5D862DC141A2924B93C6DB0E1EE4","0198c3a8-f115-7abd-a9aa-31558ae1aebd","0198c320-653a-770c-93e4-41e10e7faa5f","{""num_scrambled_semantic"":""8"",""num_scrambled_causal"":""4"",""num_scrambled_schematic"":""4"",""participantId"":""AA9A5D862DC141A2924B93C6DB0E1EE4"",""assignmentId"":""0198c3a8-f115-7abd-a9aa-31558ae1aebd"",""projectId"":""0198c320-653a-770c-93e4-41e10e7faa5f""}","https://test12345.live/?num_scrambled_semantic=8&num_scrambled_causal=4&num_scrambled_schematic=4&participantId=AA9A5D862DC141A2924B93C6DB0E1EE4&assignmentId=0198c3a8-f115-7abd-a9aa-31558ae1aebd&projectId=0198c320-653a-770c-93e4-41e10e7faa5f","AA9A5D862DC141A2924B93C6DB0E1EE4-2025-08-19-18-59-40","","37361","","[""<span style=\""color: red; font-size: 24px\""> NOW RECORDING</span><p>Please say out loud all the images you saw in part 1 of the experiment, as many as you can remember. The images can be said in any order.</p>""]","","7","the_performance_causal"
"","","","","","image-button-response","35","670705","0.0-33.0-0.0","AA9A5D862DC141A2924B93C6DB0E1EE4","AA9A5D862DC141A2924B93C6DB0E1EE4","0198c3a8-f115-7abd-a9aa-31558ae1aebd","0198c320-653a-770c-93e4-41e10e7faa5f","{""num_scrambled_semantic"":""8"",""num_scrambled_causal"":""4"",""num_scrambled_schematic"":""4"",""participantId"":""AA9A5D862DC141A2924B93C6DB0E1EE4"",""assignmentId"":""0198c3a8-f115-7abd-a9aa-31558ae1aebd"",""projectId"":""0198c320-653a-770c-93e4-41e10e7faa5f""}","https://test12345.live/?num_scrambled_semantic=8&num_scrambled_causal=4&num_scrambled_schematic=4&participantId=AA9A5D862DC141A2924B93C6DB0E1EE4&assignmentId=0198c3a8-f115-7abd-a9aa-31558ae1aebd&projectId=0198c320-653a-770c-93e4-41e10e7faa5f","AA9A5D862DC141A2924B93C6DB0E1EE4-2025-08-19-18-59-40","","null","","images/causal_sequence/museum_causal/museum_causal_0.png","null","",""
"","","","","","html-audio-response","36","690989","0.0-34.0","AA9A5D862DC141A2924B93C6DB0E1EE4","AA9A5D862DC141A2924B93C6DB0E1EE4","0198c3a8-f115-7abd-a9aa-31558ae1aebd","0198c320-653a-770c-93e4-41e10e7faa5f","{""num_scrambled_semantic"":""8"",""num_scrambled_causal"":""4"",""num_scrambled_schematic"":""4"",""participantId"":""AA9A5D862DC141A2924B93C6DB0E1EE4"",""assignmentId"":""0198c3a8-f115-7abd-a9aa-31558ae1aebd"",""projectId"":""0198c320-653a-770c-93e4-41e10e7faa5f""}","https://test12345.live/?num_scrambled_semantic=8&num_scrambled_causal=4&num_scrambled_schematic=4&participantId=AA9A5D862DC141A2924B93C6DB0E1EE4&assignmentId=0198c3a8-f115-7abd-a9aa-31558ae1aebd&projectId=0198c320-653a-770c-93e4-41e10e7faa5f","AA9A5D862DC141A2924B93C6DB0E1EE4-2025-08-19-18-59-40","","19449","","[""<span style=\""color: red; font-size: 24px\""> NOW RECORDING</span><p>Please say out loud all the images you saw in part 1 of the experiment, as many as you can remember. The images can be said in any order.</p>""]","","0","museum_causal"
"","","","","","survey-text","37","695648","0.0-35.0","AA9A5D862DC141A2924B93C6DB0E1EE4","AA9A5D862DC141A2924B93C6DB0E1EE4","0198c3a8-f115-7abd-a9aa-31558ae1aebd","0198c320-653a-770c-93e4-41e10e7faa5f","{""num_scrambled_semantic"":""8"",""num_scrambled_causal"":""4"",""num_scrambled_schematic"":""4"",""participantId"":""AA9A5D862DC141A2924B93C6DB0E1EE4"",""assignmentId"":""0198c3a8-f115-7abd-a9aa-31558ae1aebd"",""projectId"":""0198c320-653a-770c-93e4-41e10e7faa5f""}","https://test12345.live/?num_scrambled_semantic=8&num_scrambled_causal=4&num_scrambled_schematic=4&participantId=AA9A5D862DC141A2924B93C6DB0E1EE4&assignmentId=0198c3a8-f115-7abd-a9aa-31558ae1aebd&projectId=0198c320-653a-770c-93e4-41e10e7faa5f","AA9A5D862DC141A2924B93C6DB0E1EE4-2025-08-19-18-59-40","","4545","","","{""Q0"":""Male"",""Q1"":""35""}","",""
"","","","","","instructions","38","702877","0.0-36.0","AA9A5D862DC141A2924B93C6DB0E1EE4","AA9A5D862DC141A2924B93C6DB0E1EE4","0198c3a8-f115-7abd-a9aa-31558ae1aebd","0198c320-653a-770c-93e4-41e10e7faa5f","{""num_scrambled_semantic"":""8"",""num_scrambled_causal"":""4"",""num_scrambled_schematic"":""4"",""participantId"":""AA9A5D862DC141A2924B93C6DB0E1EE4"",""assignmentId"":""0198c3a8-f115-7abd-a9aa-31558ae1aebd"",""projectId"":""0198c320-653a-770c-93e4-41e10e7faa5f""}","https://test12345.live/?num_scrambled_semantic=8&num_scrambled_causal=4&num_scrambled_schematic=4&participantId=AA9A5D862DC141A2924B93C6DB0E1EE4&assignmentId=0198c3a8-f115-7abd-a9aa-31558ae1aebd&projectId=0198c320-653a-770c-93e4-41e10e7faa5f","AA9A5D862DC141A2924B93C6DB0E1EE4-2025-08-19-18-59-40","[{""page_index"":0,""viewing_time"":7228}]","7228","","","","",""
"","","","","","survey-text","39","707053","0.0-37.0","AA9A5D862DC141A2924B93C6DB0E1EE4","AA9A5D862DC141A2924B93C6DB0E1EE4","0198c3a8-f115-7abd-a9aa-31558ae1aebd","0198c320-653a-770c-93e4-41e10e7faa5f","{""num_scrambled_semantic"":""8"",""num_scrambled_causal"":""4"",""num_scrambled_schematic"":""4"",""participantId"":""AA9A5D862DC141A2924B93C6DB0E1EE4"",""assignmentId"":""0198c3a8-f115-7abd-a9aa-31558ae1aebd"",""projectId"":""0198c320-653a-770c-93e4-41e10e7faa5f""}","https://test12345.live/?num_scrambled_semantic=8&num_scrambled_causal=4&num_scrambled_schematic=4&participantId=AA9A5D862DC141A2924B93C6DB0E1EE4&assignmentId=0198c3a8-f115-7abd-a9aa-31558ae1aebd&projectId=0198c320-653a-770c-93e4-41e10e7faa5f","AA9A5D862DC141A2924B93C6DB0E1EE4-2025-08-19-18-59-40","","4172","","","{""Q0"":""AJFHBG896""}","",""
