"success","timeout","failed_images","failed_audio","failed_video","trial_type","trial_index","time_elapsed","internal_node_id","subject","subject_id","study_id","session_id","urlvar","current_url","audio_id","view_history","rt","device_id","stimulus","response","estimated_stimulus_onset","seq_name"
"true","false","[]","[]","[]","preload","0","80996","0.0-0.0","AD0BA86A52324FC4B7A61CC9394BB56B","AD0BA86A52324FC4B7A61CC9394BB56B","0198c357-4846-7840-9c8d-d271e56a1fed","0198c320-653a-770c-93e4-41e10e7faa5f","{""num_scrambled_semantic"":""8"",""num_scrambled_causal"":""4"",""num_scrambled_schematic"":""4"",""participantId"":""AD0BA86A52324FC4B7A61CC9394BB56B"",""assignmentId"":""0198c357-4846-7840-9c8d-d271e56a1fed"",""projectId"":""0198c320-653a-770c-93e4-41e10e7faa5f""}","https://test12345.live/?num_scrambled_semantic=8&num_scrambled_causal=4&num_scrambled_schematic=4&participantId=AD0BA86A52324FC4B7A61CC9394BB56B&assignmentId=0198c357-4846-7840-9c8d-d271e56a1fed&projectId=0198c320-653a-770c-93e4-41e10e7faa5f","AD0BA86A52324FC4B7A61CC9394BB56B-2025-08-19-17-38-45","","","","","","",""
"","","","","","instructions","1","98322","0.0-1.0","AD0BA86A52324FC4B7A61CC9394BB56B","AD0BA86A52324FC4B7A61CC9394BB56B","0198c357-4846-7840-9c8d-d271e56a1fed","0198c320-653a-770c-93e4-41e10e7faa5f","{""num_scrambled_semantic"":""8"",""num_scrambled_causal"":""4"",""num_scrambled_schematic"":""4"",""participantId"":""AD0BA86A52324FC4B7A61CC9394BB56B"",""assignmentId"":""0198c357-4846-7840-9c8d-d271e56a1fed"",""projectId"":""0198c320-653a-770c-93e4-41e10e7faa5f""}","https://test12345.live/?num_scrambled_semantic=8&num_scrambled_causal=4&num_scrambled_schematic=4&participantId=AD0BA86A52324FC4B7A61CC9394BB56B&assignmentId=0198c357-4846-7840-9c8d-d271e56a1fed&projectId=0198c320-653a-770c-93e4-41e10e7faa5f","AD0BA86A52324FC4B7A61CC9394BB56B-2025-08-19-17-38-45","[{""page_index"":0,""viewing_time"":17324}]","17324","","","","",""
"","","","","","instructions","2","120669","0.0-2.0","AD0BA86A52324FC4B7A61CC9394BB56B","AD0BA86A52324FC4B7A61CC9394BB56B","0198c357-4846-7840-9c8d-d271e56a1fed","0198c320-653a-770c-93e4-41e10e7faa5f","{""num_scrambled_semantic"":""8"",""num_scrambled_causal"":""4"",""num_scrambled_schematic"":""4"",""participantId"":""AD0BA86A52324FC4B7A61CC9394BB56B"",""assignmentId"":""0198c357-4846-7840-9c8d-d271e56a1fed"",""projectId"":""0198c320-653a-770c-93e4-41e10e7faa5f""}","https://test12345.live/?num_scrambled_semantic=8&num_scrambled_causal=4&num_scrambled_schematic=4&participantId=AD0BA86A52324FC4B7A61CC9394BB56B&assignmentId=0198c357-4846-7840-9c8d-d271e56a1fed&projectId=0198c320-653a-770c-93e4-41e10e7faa5f","AD0BA86A52324FC4B7A61CC9394BB56B-2025-08-19-17-38-45","[{""page_index"":0,""viewing_time"":22346}]","22347","","","","",""
"true","","","","","fullscreen","3","123323","0.0-3.0","AD0BA86A52324FC4B7A61CC9394BB56B","AD0BA86A52324FC4B7A61CC9394BB56B","0198c357-4846-7840-9c8d-d271e56a1fed","0198c320-653a-770c-93e4-41e10e7faa5f","{""num_scrambled_semantic"":""8"",""num_scrambled_causal"":""4"",""num_scrambled_schematic"":""4"",""participantId"":""AD0BA86A52324FC4B7A61CC9394BB56B"",""assignmentId"":""0198c357-4846-7840-9c8d-d271e56a1fed"",""projectId"":""0198c320-653a-770c-93e4-41e10e7faa5f""}","https://test12345.live/?num_scrambled_semantic=8&num_scrambled_causal=4&num_scrambled_schematic=4&participantId=AD0BA86A52324FC4B7A61CC9394BB56B&assignmentId=0198c357-4846-7840-9c8d-d271e56a1fed&projectId=0198c320-653a-770c-93e4-41e10e7faa5f","AD0BA86A52324FC4B7A61CC9394BB56B-2025-08-19-17-38-45","","1634","","","","",""
"","","","","","initialize-microphone","4","127976","0.0-4.0-0.0","AD0BA86A52324FC4B7A61CC9394BB56B","AD0BA86A52324FC4B7A61CC9394BB56B","0198c357-4846-7840-9c8d-d271e56a1fed","0198c320-653a-770c-93e4-41e10e7faa5f","{""num_scrambled_semantic"":""8"",""num_scrambled_causal"":""4"",""num_scrambled_schematic"":""4"",""participantId"":""AD0BA86A52324FC4B7A61CC9394BB56B"",""assignmentId"":""0198c357-4846-7840-9c8d-d271e56a1fed"",""projectId"":""0198c320-653a-770c-93e4-41e10e7faa5f""}","https://test12345.live/?num_scrambled_semantic=8&num_scrambled_causal=4&num_scrambled_schematic=4&participantId=AD0BA86A52324FC4B7A61CC9394BB56B&assignmentId=0198c357-4846-7840-9c8d-d271e56a1fed&projectId=0198c320-653a-770c-93e4-41e10e7faa5f","AD0BA86A52324FC4B7A61CC9394BB56B-2025-08-19-17-38-45","","","31de6e4e25856c87a318e196fdf5155fa47ea2d30a55c9da9a5a52958489f9e5","","","",""
"","","","","","html-audio-response","5","143830","0.0-4.0-1.0","AD0BA86A52324FC4B7A61CC9394BB56B","AD0BA86A52324FC4B7A61CC9394BB56B","0198c357-4846-7840-9c8d-d271e56a1fed","0198c320-653a-770c-93e4-41e10e7faa5f","{""num_scrambled_semantic"":""8"",""num_scrambled_causal"":""4"",""num_scrambled_schematic"":""4"",""participantId"":""AD0BA86A52324FC4B7A61CC9394BB56B"",""assignmentId"":""0198c357-4846-7840-9c8d-d271e56a1fed"",""projectId"":""0198c320-653a-770c-93e4-41e10e7faa5f""}","https://test12345.live/?num_scrambled_semantic=8&num_scrambled_causal=4&num_scrambled_schematic=4&participantId=AD0BA86A52324FC4B7A61CC9394BB56B&assignmentId=0198c357-4846-7840-9c8d-d271e56a1fed&projectId=0198c320-653a-770c-93e4-41e10e7faa5f","AD0BA86A52324FC4B7A61CC9394BB56B-2025-08-19-17-38-45","","3741","","<span style=""color: red; font-size: 24px""> NOW RECORDING</span>
        <p>Please test Microphone</p>","","10",""
"","","","","","html-button-response","6","145659","0.0-4.0-2.0","AD0BA86A52324FC4B7A61CC9394BB56B","AD0BA86A52324FC4B7A61CC9394BB56B","0198c357-4846-7840-9c8d-d271e56a1fed","0198c320-653a-770c-93e4-41e10e7faa5f","{""num_scrambled_semantic"":""8"",""num_scrambled_causal"":""4"",""num_scrambled_schematic"":""4"",""participantId"":""AD0BA86A52324FC4B7A61CC9394BB56B"",""assignmentId"":""0198c357-4846-7840-9c8d-d271e56a1fed"",""projectId"":""0198c320-653a-770c-93e4-41e10e7faa5f""}","https://test12345.live/?num_scrambled_semantic=8&num_scrambled_causal=4&num_scrambled_schematic=4&participantId=AD0BA86A52324FC4B7A61CC9394BB56B&assignmentId=0198c357-4846-7840-9c8d-d271e56a1fed&projectId=0198c320-653a-770c-93e4-41e10e7faa5f","AD0BA86A52324FC4B7A61CC9394BB56B-2025-08-19-17-38-45","","1827","","<p style=""font-size:48px; color:red;"">Is Microphone OK?</p>","1","",""
"","","","","","instructions","7","161267","0.0-5.0","AD0BA86A52324FC4B7A61CC9394BB56B","AD0BA86A52324FC4B7A61CC9394BB56B","0198c357-4846-7840-9c8d-d271e56a1fed","0198c320-653a-770c-93e4-41e10e7faa5f","{""num_scrambled_semantic"":""8"",""num_scrambled_causal"":""4"",""num_scrambled_schematic"":""4"",""participantId"":""AD0BA86A52324FC4B7A61CC9394BB56B"",""assignmentId"":""0198c357-4846-7840-9c8d-d271e56a1fed"",""projectId"":""0198c320-653a-770c-93e4-41e10e7faa5f""}","https://test12345.live/?num_scrambled_semantic=8&num_scrambled_causal=4&num_scrambled_schematic=4&participantId=AD0BA86A52324FC4B7A61CC9394BB56B&assignmentId=0198c357-4846-7840-9c8d-d271e56a1fed&projectId=0198c320-653a-770c-93e4-41e10e7faa5f","AD0BA86A52324FC4B7A61CC9394BB56B-2025-08-19-17-38-45","[{""page_index"":0,""viewing_time"":1328},{""page_index"":1,""viewing_time"":4640},{""page_index"":2,""viewing_time"":9639}]","15606","","","","",""
"","","","","","image-button-response","8","167300","0.0-6.0-0.0","AD0BA86A52324FC4B7A61CC9394BB56B","AD0BA86A52324FC4B7A61CC9394BB56B","0198c357-4846-7840-9c8d-d271e56a1fed","0198c320-653a-770c-93e4-41e10e7faa5f","{""num_scrambled_semantic"":""8"",""num_scrambled_causal"":""4"",""num_scrambled_schematic"":""4"",""participantId"":""AD0BA86A52324FC4B7A61CC9394BB56B"",""assignmentId"":""0198c357-4846-7840-9c8d-d271e56a1fed"",""projectId"":""0198c320-653a-770c-93e4-41e10e7faa5f""}","https://test12345.live/?num_scrambled_semantic=8&num_scrambled_causal=4&num_scrambled_schematic=4&participantId=AD0BA86A52324FC4B7A61CC9394BB56B&assignmentId=0198c357-4846-7840-9c8d-d271e56a1fed&projectId=0198c320-653a-770c-93e4-41e10e7faa5f","AD0BA86A52324FC4B7A61CC9394BB56B-2025-08-19-17-38-45","","null","","images/instructions/movie_0.png","null","",""
"","","","","","html-audio-response","9","248468","0.0-7.0","AD0BA86A52324FC4B7A61CC9394BB56B","AD0BA86A52324FC4B7A61CC9394BB56B","0198c357-4846-7840-9c8d-d271e56a1fed","0198c320-653a-770c-93e4-41e10e7faa5f","{""num_scrambled_semantic"":""8"",""num_scrambled_causal"":""4"",""num_scrambled_schematic"":""4"",""participantId"":""AD0BA86A52324FC4B7A61CC9394BB56B"",""assignmentId"":""0198c357-4846-7840-9c8d-d271e56a1fed"",""projectId"":""0198c320-653a-770c-93e4-41e10e7faa5f""}","https://test12345.live/?num_scrambled_semantic=8&num_scrambled_causal=4&num_scrambled_schematic=4&participantId=AD0BA86A52324FC4B7A61CC9394BB56B&assignmentId=0198c357-4846-7840-9c8d-d271e56a1fed&projectId=0198c320-653a-770c-93e4-41e10e7faa5f","AD0BA86A52324FC4B7A61CC9394BB56B-2025-08-19-17-38-45","","31151","","[""<span style=\""color: red; font-size: 24px\""> NOW RECORDING</span><p>Please say out loud all the images you saw in part 1 of the experiment, as many as you can remember. The images can be said in any order.</p>""]","","2",""
"","","","","","instructions","10","249942","0.0-8.0","AD0BA86A52324FC4B7A61CC9394BB56B","AD0BA86A52324FC4B7A61CC9394BB56B","0198c357-4846-7840-9c8d-d271e56a1fed","0198c320-653a-770c-93e4-41e10e7faa5f","{""num_scrambled_semantic"":""8"",""num_scrambled_causal"":""4"",""num_scrambled_schematic"":""4"",""participantId"":""AD0BA86A52324FC4B7A61CC9394BB56B"",""assignmentId"":""0198c357-4846-7840-9c8d-d271e56a1fed"",""projectId"":""0198c320-653a-770c-93e4-41e10e7faa5f""}","https://test12345.live/?num_scrambled_semantic=8&num_scrambled_causal=4&num_scrambled_schematic=4&participantId=AD0BA86A52324FC4B7A61CC9394BB56B&assignmentId=0198c357-4846-7840-9c8d-d271e56a1fed&projectId=0198c320-653a-770c-93e4-41e10e7faa5f","AD0BA86A52324FC4B7A61CC9394BB56B-2025-08-19-17-38-45","[{""page_index"":0,""viewing_time"":1465}]","1466","","","","",""
"","","","","","image-button-response","11","255945","0.0-9.0-0.0","AD0BA86A52324FC4B7A61CC9394BB56B","AD0BA86A52324FC4B7A61CC9394BB56B","0198c357-4846-7840-9c8d-d271e56a1fed","0198c320-653a-770c-93e4-41e10e7faa5f","{""num_scrambled_semantic"":""8"",""num_scrambled_causal"":""4"",""num_scrambled_schematic"":""4"",""participantId"":""AD0BA86A52324FC4B7A61CC9394BB56B"",""assignmentId"":""0198c357-4846-7840-9c8d-d271e56a1fed"",""projectId"":""0198c320-653a-770c-93e4-41e10e7faa5f""}","https://test12345.live/?num_scrambled_semantic=8&num_scrambled_causal=4&num_scrambled_schematic=4&participantId=AD0BA86A52324FC4B7A61CC9394BB56B&assignmentId=0198c357-4846-7840-9c8d-d271e56a1fed&projectId=0198c320-653a-770c-93e4-41e10e7faa5f","AD0BA86A52324FC4B7A61CC9394BB56B-2025-08-19-17-38-45","","null","","images/causal_sequence/the_performance_causal/the_performance_causal_0.png","null","",""
"","","","","","html-audio-response","12","330970","0.0-10.0","AD0BA86A52324FC4B7A61CC9394BB56B","AD0BA86A52324FC4B7A61CC9394BB56B","0198c357-4846-7840-9c8d-d271e56a1fed","0198c320-653a-770c-93e4-41e10e7faa5f","{""num_scrambled_semantic"":""8"",""num_scrambled_causal"":""4"",""num_scrambled_schematic"":""4"",""participantId"":""AD0BA86A52324FC4B7A61CC9394BB56B"",""assignmentId"":""0198c357-4846-7840-9c8d-d271e56a1fed"",""projectId"":""0198c320-653a-770c-93e4-41e10e7faa5f""}","https://test12345.live/?num_scrambled_semantic=8&num_scrambled_causal=4&num_scrambled_schematic=4&participantId=AD0BA86A52324FC4B7A61CC9394BB56B&assignmentId=0198c357-4846-7840-9c8d-d271e56a1fed&projectId=0198c320-653a-770c-93e4-41e10e7faa5f","AD0BA86A52324FC4B7A61CC9394BB56B-2025-08-19-17-38-45","","35733","","[""<span style=\""color: red; font-size: 24px\""> NOW RECORDING</span><p>Please say out loud all the images you saw in part 1 of the experiment, as many as you can remember. The images can be said in any order.</p>""]","","2","the_performance_causal"
"","","","","","image-button-response","13","336995","0.0-11.0-0.0","AD0BA86A52324FC4B7A61CC9394BB56B","AD0BA86A52324FC4B7A61CC9394BB56B","0198c357-4846-7840-9c8d-d271e56a1fed","0198c320-653a-770c-93e4-41e10e7faa5f","{""num_scrambled_semantic"":""8"",""num_scrambled_causal"":""4"",""num_scrambled_schematic"":""4"",""participantId"":""AD0BA86A52324FC4B7A61CC9394BB56B"",""assignmentId"":""0198c357-4846-7840-9c8d-d271e56a1fed"",""projectId"":""0198c320-653a-770c-93e4-41e10e7faa5f""}","https://test12345.live/?num_scrambled_semantic=8&num_scrambled_causal=4&num_scrambled_schematic=4&participantId=AD0BA86A52324FC4B7A61CC9394BB56B&assignmentId=0198c357-4846-7840-9c8d-d271e56a1fed&projectId=0198c320-653a-770c-93e4-41e10e7faa5f","AD0BA86A52324FC4B7A61CC9394BB56B-2025-08-19-17-38-45","","null","","images/semantic_sequence/cat_care_semantic/cat_care_semantic_0.png","null","",""
"","","","","","html-audio-response","14","410250","0.0-12.0","AD0BA86A52324FC4B7A61CC9394BB56B","AD0BA86A52324FC4B7A61CC9394BB56B","0198c357-4846-7840-9c8d-d271e56a1fed","0198c320-653a-770c-93e4-41e10e7faa5f","{""num_scrambled_semantic"":""8"",""num_scrambled_causal"":""4"",""num_scrambled_schematic"":""4"",""participantId"":""AD0BA86A52324FC4B7A61CC9394BB56B"",""assignmentId"":""0198c357-4846-7840-9c8d-d271e56a1fed"",""projectId"":""0198c320-653a-770c-93e4-41e10e7faa5f""}","https://test12345.live/?num_scrambled_semantic=8&num_scrambled_causal=4&num_scrambled_schematic=4&participantId=AD0BA86A52324FC4B7A61CC9394BB56B&assignmentId=0198c357-4846-7840-9c8d-d271e56a1fed&projectId=0198c320-653a-770c-93e4-41e10e7faa5f","AD0BA86A52324FC4B7A61CC9394BB56B-2025-08-19-17-38-45","","34082","","[""<span style=\""color: red; font-size: 24px\""> NOW RECORDING</span><p>Please say out loud all the images you saw in part 1 of the experiment, as many as you can remember. The images can be said in any order.</p>""]","","1","cat_care_semantic"
"","","","","","image-button-response","15","416265","0.0-13.0-0.0","AD0BA86A52324FC4B7A61CC9394BB56B","AD0BA86A52324FC4B7A61CC9394BB56B","0198c357-4846-7840-9c8d-d271e56a1fed","0198c320-653a-770c-93e4-41e10e7faa5f","{""num_scrambled_semantic"":""8"",""num_scrambled_causal"":""4"",""num_scrambled_schematic"":""4"",""participantId"":""AD0BA86A52324FC4B7A61CC9394BB56B"",""assignmentId"":""0198c357-4846-7840-9c8d-d271e56a1fed"",""projectId"":""0198c320-653a-770c-93e4-41e10e7faa5f""}","https://test12345.live/?num_scrambled_semantic=8&num_scrambled_causal=4&num_scrambled_schematic=4&participantId=AD0BA86A52324FC4B7A61CC9394BB56B&assignmentId=0198c357-4846-7840-9c8d-d271e56a1fed&projectId=0198c320-653a-770c-93e4-41e10e7faa5f","AD0BA86A52324FC4B7A61CC9394BB56B-2025-08-19-17-38-45","","null","","images/semantic_sequence/redecorating_semantic/redecorating_semantic_0.png","null","",""
"","","","","","html-audio-response","16","481375","0.0-14.0","AD0BA86A52324FC4B7A61CC9394BB56B","AD0BA86A52324FC4B7A61CC9394BB56B","0198c357-4846-7840-9c8d-d271e56a1fed","0198c320-653a-770c-93e4-41e10e7faa5f","{""num_scrambled_semantic"":""8"",""num_scrambled_causal"":""4"",""num_scrambled_schematic"":""4"",""participantId"":""AD0BA86A52324FC4B7A61CC9394BB56B"",""assignmentId"":""0198c357-4846-7840-9c8d-d271e56a1fed"",""projectId"":""0198c320-653a-770c-93e4-41e10e7faa5f""}","https://test12345.live/?num_scrambled_semantic=8&num_scrambled_causal=4&num_scrambled_schematic=4&participantId=AD0BA86A52324FC4B7A61CC9394BB56B&assignmentId=0198c357-4846-7840-9c8d-d271e56a1fed&projectId=0198c320-653a-770c-93e4-41e10e7faa5f","AD0BA86A52324FC4B7A61CC9394BB56B-2025-08-19-17-38-45","","30534","","[""<span style=\""color: red; font-size: 24px\""> NOW RECORDING</span><p>Please say out loud all the images you saw in part 1 of the experiment, as many as you can remember. The images can be said in any order.</p>""]","","2","redecorating_semantic"
"","","","","","image-button-response","17","487389","0.0-15.0-0.0","AD0BA86A52324FC4B7A61CC9394BB56B","AD0BA86A52324FC4B7A61CC9394BB56B","0198c357-4846-7840-9c8d-d271e56a1fed","0198c320-653a-770c-93e4-41e10e7faa5f","{""num_scrambled_semantic"":""8"",""num_scrambled_causal"":""4"",""num_scrambled_schematic"":""4"",""participantId"":""AD0BA86A52324FC4B7A61CC9394BB56B"",""assignmentId"":""0198c357-4846-7840-9c8d-d271e56a1fed"",""projectId"":""0198c320-653a-770c-93e4-41e10e7faa5f""}","https://test12345.live/?num_scrambled_semantic=8&num_scrambled_causal=4&num_scrambled_schematic=4&participantId=AD0BA86A52324FC4B7A61CC9394BB56B&assignmentId=0198c357-4846-7840-9c8d-d271e56a1fed&projectId=0198c320-653a-770c-93e4-41e10e7faa5f","AD0BA86A52324FC4B7A61CC9394BB56B-2025-08-19-17-38-45","","null","","images/semantic_sequence/housework_semantic/housework_semantic_0.png","null","",""
"","","","","","html-audio-response","18","536093","0.0-16.0","AD0BA86A52324FC4B7A61CC9394BB56B","AD0BA86A52324FC4B7A61CC9394BB56B","0198c357-4846-7840-9c8d-d271e56a1fed","0198c320-653a-770c-93e4-41e10e7faa5f","{""num_scrambled_semantic"":""8"",""num_scrambled_causal"":""4"",""num_scrambled_schematic"":""4"",""participantId"":""AD0BA86A52324FC4B7A61CC9394BB56B"",""assignmentId"":""0198c357-4846-7840-9c8d-d271e56a1fed"",""projectId"":""0198c320-653a-770c-93e4-41e10e7faa5f""}","https://test12345.live/?num_scrambled_semantic=8&num_scrambled_causal=4&num_scrambled_schematic=4&participantId=AD0BA86A52324FC4B7A61CC9394BB56B&assignmentId=0198c357-4846-7840-9c8d-d271e56a1fed&projectId=0198c320-653a-770c-93e4-41e10e7faa5f","AD0BA86A52324FC4B7A61CC9394BB56B-2025-08-19-17-38-45","","22687","","[""<span style=\""color: red; font-size: 24px\""> NOW RECORDING</span><p>Please say out loud all the images you saw in part 1 of the experiment, as many as you can remember. The images can be said in any order.</p>""]","","1","housework_semantic"
"","","","","","image-button-response","19","542114","0.0-17.0-0.0","AD0BA86A52324FC4B7A61CC9394BB56B","AD0BA86A52324FC4B7A61CC9394BB56B","0198c357-4846-7840-9c8d-d271e56a1fed","0198c320-653a-770c-93e4-41e10e7faa5f","{""num_scrambled_semantic"":""8"",""num_scrambled_causal"":""4"",""num_scrambled_schematic"":""4"",""participantId"":""AD0BA86A52324FC4B7A61CC9394BB56B"",""assignmentId"":""0198c357-4846-7840-9c8d-d271e56a1fed"",""projectId"":""0198c320-653a-770c-93e4-41e10e7faa5f""}","https://test12345.live/?num_scrambled_semantic=8&num_scrambled_causal=4&num_scrambled_schematic=4&participantId=AD0BA86A52324FC4B7A61CC9394BB56B&assignmentId=0198c357-4846-7840-9c8d-d271e56a1fed&projectId=0198c320-653a-770c-93e4-41e10e7faa5f","AD0BA86A52324FC4B7A61CC9394BB56B-2025-08-19-17-38-45","","null","","images/semantic_sequence/creative_activities_semantic/creative_activities_semantic_0.png","null","",""
"","","","","","html-audio-response","20","624730","0.0-18.0","AD0BA86A52324FC4B7A61CC9394BB56B","AD0BA86A52324FC4B7A61CC9394BB56B","0198c357-4846-7840-9c8d-d271e56a1fed","0198c320-653a-770c-93e4-41e10e7faa5f","{""num_scrambled_semantic"":""8"",""num_scrambled_causal"":""4"",""num_scrambled_schematic"":""4"",""participantId"":""AD0BA86A52324FC4B7A61CC9394BB56B"",""assignmentId"":""0198c357-4846-7840-9c8d-d271e56a1fed"",""projectId"":""0198c320-653a-770c-93e4-41e10e7faa5f""}","https://test12345.live/?num_scrambled_semantic=8&num_scrambled_causal=4&num_scrambled_schematic=4&participantId=AD0BA86A52324FC4B7A61CC9394BB56B&assignmentId=0198c357-4846-7840-9c8d-d271e56a1fed&projectId=0198c320-653a-770c-93e4-41e10e7faa5f","AD0BA86A52324FC4B7A61CC9394BB56B-2025-08-19-17-38-45","","38962","","[""<span style=\""color: red; font-size: 24px\""> NOW RECORDING</span><p>Please say out loud all the images you saw in part 1 of the experiment, as many as you can remember. The images can be said in any order.</p>""]","","1","creative_activities_semantic"
"","","","","","image-button-response","21","630750","0.0-19.0-0.0","AD0BA86A52324FC4B7A61CC9394BB56B","AD0BA86A52324FC4B7A61CC9394BB56B","0198c357-4846-7840-9c8d-d271e56a1fed","0198c320-653a-770c-93e4-41e10e7faa5f","{""num_scrambled_semantic"":""8"",""num_scrambled_causal"":""4"",""num_scrambled_schematic"":""4"",""participantId"":""AD0BA86A52324FC4B7A61CC9394BB56B"",""assignmentId"":""0198c357-4846-7840-9c8d-d271e56a1fed"",""projectId"":""0198c320-653a-770c-93e4-41e10e7faa5f""}","https://test12345.live/?num_scrambled_semantic=8&num_scrambled_causal=4&num_scrambled_schematic=4&participantId=AD0BA86A52324FC4B7A61CC9394BB56B&assignmentId=0198c357-4846-7840-9c8d-d271e56a1fed&projectId=0198c320-653a-770c-93e4-41e10e7faa5f","AD0BA86A52324FC4B7A61CC9394BB56B-2025-08-19-17-38-45","","null","","images/causal_sequence/coin_causal/coin_causal_0.png","null","",""
"","","","","","html-audio-response","22","682480","0.0-20.0","AD0BA86A52324FC4B7A61CC9394BB56B","AD0BA86A52324FC4B7A61CC9394BB56B","0198c357-4846-7840-9c8d-d271e56a1fed","0198c320-653a-770c-93e4-41e10e7faa5f","{""num_scrambled_semantic"":""8"",""num_scrambled_causal"":""4"",""num_scrambled_schematic"":""4"",""participantId"":""AD0BA86A52324FC4B7A61CC9394BB56B"",""assignmentId"":""0198c357-4846-7840-9c8d-d271e56a1fed"",""projectId"":""0198c320-653a-770c-93e4-41e10e7faa5f""}","https://test12345.live/?num_scrambled_semantic=8&num_scrambled_causal=4&num_scrambled_schematic=4&participantId=AD0BA86A52324FC4B7A61CC9394BB56B&assignmentId=0198c357-4846-7840-9c8d-d271e56a1fed&projectId=0198c320-653a-770c-93e4-41e10e7faa5f","AD0BA86A52324FC4B7A61CC9394BB56B-2025-08-19-17-38-45","","25270","","[""<span style=\""color: red; font-size: 24px\""> NOW RECORDING</span><p>Please say out loud all the images you saw in part 1 of the experiment, as many as you can remember. The images can be said in any order.</p>""]","","1","coin_causal"
"","","","","","image-button-response","23","688495","0.0-21.0-0.0","AD0BA86A52324FC4B7A61CC9394BB56B","AD0BA86A52324FC4B7A61CC9394BB56B","0198c357-4846-7840-9c8d-d271e56a1fed","0198c320-653a-770c-93e4-41e10e7faa5f","{""num_scrambled_semantic"":""8"",""num_scrambled_causal"":""4"",""num_scrambled_schematic"":""4"",""participantId"":""AD0BA86A52324FC4B7A61CC9394BB56B"",""assignmentId"":""0198c357-4846-7840-9c8d-d271e56a1fed"",""projectId"":""0198c320-653a-770c-93e4-41e10e7faa5f""}","https://test12345.live/?num_scrambled_semantic=8&num_scrambled_causal=4&num_scrambled_schematic=4&participantId=AD0BA86A52324FC4B7A61CC9394BB56B&assignmentId=0198c357-4846-7840-9c8d-d271e56a1fed&projectId=0198c320-653a-770c-93e4-41e10e7faa5f","AD0BA86A52324FC4B7A61CC9394BB56B-2025-08-19-17-38-45","","null","","images/semantic_sequence/maintaining_a_car_semantic/maintaining_a_car_semantic_0.png","null","",""
"","","","","","html-audio-response","24","726471","0.0-22.0","AD0BA86A52324FC4B7A61CC9394BB56B","AD0BA86A52324FC4B7A61CC9394BB56B","0198c357-4846-7840-9c8d-d271e56a1fed","0198c320-653a-770c-93e4-41e10e7faa5f","{""num_scrambled_semantic"":""8"",""num_scrambled_causal"":""4"",""num_scrambled_schematic"":""4"",""participantId"":""AD0BA86A52324FC4B7A61CC9394BB56B"",""assignmentId"":""0198c357-4846-7840-9c8d-d271e56a1fed"",""projectId"":""0198c320-653a-770c-93e4-41e10e7faa5f""}","https://test12345.live/?num_scrambled_semantic=8&num_scrambled_causal=4&num_scrambled_schematic=4&participantId=AD0BA86A52324FC4B7A61CC9394BB56B&assignmentId=0198c357-4846-7840-9c8d-d271e56a1fed&projectId=0198c320-653a-770c-93e4-41e10e7faa5f","AD0BA86A52324FC4B7A61CC9394BB56B-2025-08-19-17-38-45","","17373","","[""<span style=\""color: red; font-size: 24px\""> NOW RECORDING</span><p>Please say out loud all the images you saw in part 1 of the experiment, as many as you can remember. The images can be said in any order.</p>""]","","2","maintaining_a_car_semantic"
"","","","","","image-button-response","25","732480","0.0-23.0-0.0","AD0BA86A52324FC4B7A61CC9394BB56B","AD0BA86A52324FC4B7A61CC9394BB56B","0198c357-4846-7840-9c8d-d271e56a1fed","0198c320-653a-770c-93e4-41e10e7faa5f","{""num_scrambled_semantic"":""8"",""num_scrambled_causal"":""4"",""num_scrambled_schematic"":""4"",""participantId"":""AD0BA86A52324FC4B7A61CC9394BB56B"",""assignmentId"":""0198c357-4846-7840-9c8d-d271e56a1fed"",""projectId"":""0198c320-653a-770c-93e4-41e10e7faa5f""}","https://test12345.live/?num_scrambled_semantic=8&num_scrambled_causal=4&num_scrambled_schematic=4&participantId=AD0BA86A52324FC4B7A61CC9394BB56B&assignmentId=0198c357-4846-7840-9c8d-d271e56a1fed&projectId=0198c320-653a-770c-93e4-41e10e7faa5f","AD0BA86A52324FC4B7A61CC9394BB56B-2025-08-19-17-38-45","","null","","images/causal_sequence/dog_causal/dog_causal_0.png","null","",""
"","","","","","html-audio-response","26","834797","0.0-24.0","AD0BA86A52324FC4B7A61CC9394BB56B","AD0BA86A52324FC4B7A61CC9394BB56B","0198c357-4846-7840-9c8d-d271e56a1fed","0198c320-653a-770c-93e4-41e10e7faa5f","{""num_scrambled_semantic"":""8"",""num_scrambled_causal"":""4"",""num_scrambled_schematic"":""4"",""participantId"":""AD0BA86A52324FC4B7A61CC9394BB56B"",""assignmentId"":""0198c357-4846-7840-9c8d-d271e56a1fed"",""projectId"":""0198c320-653a-770c-93e4-41e10e7faa5f""}","https://test12345.live/?num_scrambled_semantic=8&num_scrambled_causal=4&num_scrambled_schematic=4&participantId=AD0BA86A52324FC4B7A61CC9394BB56B&assignmentId=0198c357-4846-7840-9c8d-d271e56a1fed&projectId=0198c320-653a-770c-93e4-41e10e7faa5f","AD0BA86A52324FC4B7A61CC9394BB56B-2025-08-19-17-38-45","","48519","","[""<span style=\""color: red; font-size: 24px\""> NOW RECORDING</span><p>Please say out loud all the images you saw in part 1 of the experiment, as many as you can remember. The images can be said in any order.</p>""]","","2","dog_causal"
"","","","","","image-button-response","27","840819","0.0-25.0-0.0","AD0BA86A52324FC4B7A61CC9394BB56B","AD0BA86A52324FC4B7A61CC9394BB56B","0198c357-4846-7840-9c8d-d271e56a1fed","0198c320-653a-770c-93e4-41e10e7faa5f","{""num_scrambled_semantic"":""8"",""num_scrambled_causal"":""4"",""num_scrambled_schematic"":""4"",""participantId"":""AD0BA86A52324FC4B7A61CC9394BB56B"",""assignmentId"":""0198c357-4846-7840-9c8d-d271e56a1fed"",""projectId"":""0198c320-653a-770c-93e4-41e10e7faa5f""}","https://test12345.live/?num_scrambled_semantic=8&num_scrambled_causal=4&num_scrambled_schematic=4&participantId=AD0BA86A52324FC4B7A61CC9394BB56B&assignmentId=0198c357-4846-7840-9c8d-d271e56a1fed&projectId=0198c320-653a-770c-93e4-41e10e7faa5f","AD0BA86A52324FC4B7A61CC9394BB56B-2025-08-19-17-38-45","","null","","images/causal_sequence/museum_causal/museum_causal_0.png","null","",""
"","","","","","html-audio-response","28","891251","0.0-26.0","AD0BA86A52324FC4B7A61CC9394BB56B","AD0BA86A52324FC4B7A61CC9394BB56B","0198c357-4846-7840-9c8d-d271e56a1fed","0198c320-653a-770c-93e4-41e10e7faa5f","{""num_scrambled_semantic"":""8"",""num_scrambled_causal"":""4"",""num_scrambled_schematic"":""4"",""participantId"":""AD0BA86A52324FC4B7A61CC9394BB56B"",""assignmentId"":""0198c357-4846-7840-9c8d-d271e56a1fed"",""projectId"":""0198c320-653a-770c-93e4-41e10e7faa5f""}","https://test12345.live/?num_scrambled_semantic=8&num_scrambled_causal=4&num_scrambled_schematic=4&participantId=AD0BA86A52324FC4B7A61CC9394BB56B&assignmentId=0198c357-4846-7840-9c8d-d271e56a1fed&projectId=0198c320-653a-770c-93e4-41e10e7faa5f","AD0BA86A52324FC4B7A61CC9394BB56B-2025-08-19-17-38-45","","23120","","[""<span style=\""color: red; font-size: 24px\""> NOW RECORDING</span><p>Please say out loud all the images you saw in part 1 of the experiment, as many as you can remember. The images can be said in any order.</p>""]","","1","museum_causal"
"","","","","","image-button-response","29","897265","0.0-27.0-0.0","AD0BA86A52324FC4B7A61CC9394BB56B","AD0BA86A52324FC4B7A61CC9394BB56B","0198c357-4846-7840-9c8d-d271e56a1fed","0198c320-653a-770c-93e4-41e10e7faa5f","{""num_scrambled_semantic"":""8"",""num_scrambled_causal"":""4"",""num_scrambled_schematic"":""4"",""participantId"":""AD0BA86A52324FC4B7A61CC9394BB56B"",""assignmentId"":""0198c357-4846-7840-9c8d-d271e56a1fed"",""projectId"":""0198c320-653a-770c-93e4-41e10e7faa5f""}","https://test12345.live/?num_scrambled_semantic=8&num_scrambled_causal=4&num_scrambled_schematic=4&participantId=AD0BA86A52324FC4B7A61CC9394BB56B&assignmentId=0198c357-4846-7840-9c8d-d271e56a1fed&projectId=0198c320-653a-770c-93e4-41e10e7faa5f","AD0BA86A52324FC4B7A61CC9394BB56B-2025-08-19-17-38-45","","null","","images/semantic_sequence/using_technology_semantic/using_technology_semantic_0.png","null","",""
"","","","","","html-audio-response","30","952853","0.0-28.0","AD0BA86A52324FC4B7A61CC9394BB56B","AD0BA86A52324FC4B7A61CC9394BB56B","0198c357-4846-7840-9c8d-d271e56a1fed","0198c320-653a-770c-93e4-41e10e7faa5f","{""num_scrambled_semantic"":""8"",""num_scrambled_causal"":""4"",""num_scrambled_schematic"":""4"",""participantId"":""AD0BA86A52324FC4B7A61CC9394BB56B"",""assignmentId"":""0198c357-4846-7840-9c8d-d271e56a1fed"",""projectId"":""0198c320-653a-770c-93e4-41e10e7faa5f""}","https://test12345.live/?num_scrambled_semantic=8&num_scrambled_causal=4&num_scrambled_schematic=4&participantId=AD0BA86A52324FC4B7A61CC9394BB56B&assignmentId=0198c357-4846-7840-9c8d-d271e56a1fed&projectId=0198c320-653a-770c-93e4-41e10e7faa5f","AD0BA86A52324FC4B7A61CC9394BB56B-2025-08-19-17-38-45","","26192","","[""<span style=\""color: red; font-size: 24px\""> NOW RECORDING</span><p>Please say out loud all the images you saw in part 1 of the experiment, as many as you can remember. The images can be said in any order.</p>""]","","1","using_technology_semantic"
"","","","","","image-button-response","31","958864","0.0-29.0-0.0","AD0BA86A52324FC4B7A61CC9394BB56B","AD0BA86A52324FC4B7A61CC9394BB56B","0198c357-4846-7840-9c8d-d271e56a1fed","0198c320-653a-770c-93e4-41e10e7faa5f","{""num_scrambled_semantic"":""8"",""num_scrambled_causal"":""4"",""num_scrambled_schematic"":""4"",""participantId"":""AD0BA86A52324FC4B7A61CC9394BB56B"",""assignmentId"":""0198c357-4846-7840-9c8d-d271e56a1fed"",""projectId"":""0198c320-653a-770c-93e4-41e10e7faa5f""}","https://test12345.live/?num_scrambled_semantic=8&num_scrambled_causal=4&num_scrambled_schematic=4&participantId=AD0BA86A52324FC4B7A61CC9394BB56B&assignmentId=0198c357-4846-7840-9c8d-d271e56a1fed&projectId=0198c320-653a-770c-93e4-41e10e7faa5f","AD0BA86A52324FC4B7A61CC9394BB56B-2025-08-19-17-38-45","","null","","images/causal_sequence/saving_a_cat_causal/saving_a_cat_causal_0.png","null","",""
"","","","","","html-audio-response","32","1037641","0.0-30.0","AD0BA86A52324FC4B7A61CC9394BB56B","AD0BA86A52324FC4B7A61CC9394BB56B","0198c357-4846-7840-9c8d-d271e56a1fed","0198c320-653a-770c-93e4-41e10e7faa5f","{""num_scrambled_semantic"":""8"",""num_scrambled_causal"":""4"",""num_scrambled_schematic"":""4"",""participantId"":""AD0BA86A52324FC4B7A61CC9394BB56B"",""assignmentId"":""0198c357-4846-7840-9c8d-d271e56a1fed"",""projectId"":""0198c320-653a-770c-93e4-41e10e7faa5f""}","https://test12345.live/?num_scrambled_semantic=8&num_scrambled_causal=4&num_scrambled_schematic=4&participantId=AD0BA86A52324FC4B7A61CC9394BB56B&assignmentId=0198c357-4846-7840-9c8d-d271e56a1fed&projectId=0198c320-653a-770c-93e4-41e10e7faa5f","AD0BA86A52324FC4B7A61CC9394BB56B-2025-08-19-17-38-45","","36666","","[""<span style=\""color: red; font-size: 24px\""> NOW RECORDING</span><p>Please say out loud all the images you saw in part 1 of the experiment, as many as you can remember. The images can be said in any order.</p>""]","","3","saving_a_cat_causal"
"","","","","","image-button-response","33","1043663","0.0-31.0-0.0","AD0BA86A52324FC4B7A61CC9394BB56B","AD0BA86A52324FC4B7A61CC9394BB56B","0198c357-4846-7840-9c8d-d271e56a1fed","0198c320-653a-770c-93e4-41e10e7faa5f","{""num_scrambled_semantic"":""8"",""num_scrambled_causal"":""4"",""num_scrambled_schematic"":""4"",""participantId"":""AD0BA86A52324FC4B7A61CC9394BB56B"",""assignmentId"":""0198c357-4846-7840-9c8d-d271e56a1fed"",""projectId"":""0198c320-653a-770c-93e4-41e10e7faa5f""}","https://test12345.live/?num_scrambled_semantic=8&num_scrambled_causal=4&num_scrambled_schematic=4&participantId=AD0BA86A52324FC4B7A61CC9394BB56B&assignmentId=0198c357-4846-7840-9c8d-d271e56a1fed&projectId=0198c320-653a-770c-93e4-41e10e7faa5f","AD0BA86A52324FC4B7A61CC9394BB56B-2025-08-19-17-38-45","","null","","images/semantic_sequence/physical_activity_semantic/physical_activity_semantic_0.png","null","",""
"","","","","","html-audio-response","34","1103849","0.0-32.0","AD0BA86A52324FC4B7A61CC9394BB56B","AD0BA86A52324FC4B7A61CC9394BB56B","0198c357-4846-7840-9c8d-d271e56a1fed","0198c320-653a-770c-93e4-41e10e7faa5f","{""num_scrambled_semantic"":""8"",""num_scrambled_causal"":""4"",""num_scrambled_schematic"":""4"",""participantId"":""AD0BA86A52324FC4B7A61CC9394BB56B"",""assignmentId"":""0198c357-4846-7840-9c8d-d271e56a1fed"",""projectId"":""0198c320-653a-770c-93e4-41e10e7faa5f""}","https://test12345.live/?num_scrambled_semantic=8&num_scrambled_causal=4&num_scrambled_schematic=4&participantId=AD0BA86A52324FC4B7A61CC9394BB56B&assignmentId=0198c357-4846-7840-9c8d-d271e56a1fed&projectId=0198c320-653a-770c-93e4-41e10e7faa5f","AD0BA86A52324FC4B7A61CC9394BB56B-2025-08-19-17-38-45","","28371","","[""<span style=\""color: red; font-size: 24px\""> NOW RECORDING</span><p>Please say out loud all the images you saw in part 1 of the experiment, as many as you can remember. The images can be said in any order.</p>""]","","1","physical_activity_semantic"
"","","","","","image-button-response","35","1109869","0.0-33.0-0.0","AD0BA86A52324FC4B7A61CC9394BB56B","AD0BA86A52324FC4B7A61CC9394BB56B","0198c357-4846-7840-9c8d-d271e56a1fed","0198c320-653a-770c-93e4-41e10e7faa5f","{""num_scrambled_semantic"":""8"",""num_scrambled_causal"":""4"",""num_scrambled_schematic"":""4"",""participantId"":""AD0BA86A52324FC4B7A61CC9394BB56B"",""assignmentId"":""0198c357-4846-7840-9c8d-d271e56a1fed"",""projectId"":""0198c320-653a-770c-93e4-41e10e7faa5f""}","https://test12345.live/?num_scrambled_semantic=8&num_scrambled_causal=4&num_scrambled_schematic=4&participantId=AD0BA86A52324FC4B7A61CC9394BB56B&assignmentId=0198c357-4846-7840-9c8d-d271e56a1fed&projectId=0198c320-653a-770c-93e4-41e10e7faa5f","AD0BA86A52324FC4B7A61CC9394BB56B-2025-08-19-17-38-45","","null","","images/causal_sequence/package_causal/package_causal_0.png","null","",""
"","","","","","html-audio-response","36","1186148","0.0-34.0","AD0BA86A52324FC4B7A61CC9394BB56B","AD0BA86A52324FC4B7A61CC9394BB56B","0198c357-4846-7840-9c8d-d271e56a1fed","0198c320-653a-770c-93e4-41e10e7faa5f","{""num_scrambled_semantic"":""8"",""num_scrambled_causal"":""4"",""num_scrambled_schematic"":""4"",""participantId"":""AD0BA86A52324FC4B7A61CC9394BB56B"",""assignmentId"":""0198c357-4846-7840-9c8d-d271e56a1fed"",""projectId"":""0198c320-653a-770c-93e4-41e10e7faa5f""}","https://test12345.live/?num_scrambled_semantic=8&num_scrambled_causal=4&num_scrambled_schematic=4&participantId=AD0BA86A52324FC4B7A61CC9394BB56B&assignmentId=0198c357-4846-7840-9c8d-d271e56a1fed&projectId=0198c320-653a-770c-93e4-41e10e7faa5f","AD0BA86A52324FC4B7A61CC9394BB56B-2025-08-19-17-38-45","","36593","","[""<span style=\""color: red; font-size: 24px\""> NOW RECORDING</span><p>Please say out loud all the images you saw in part 1 of the experiment, as many as you can remember. The images can be said in any order.</p>""]","","2","package_causal"
"","","","","","survey-text","37","1194689","0.0-35.0","AD0BA86A52324FC4B7A61CC9394BB56B","AD0BA86A52324FC4B7A61CC9394BB56B","0198c357-4846-7840-9c8d-d271e56a1fed","0198c320-653a-770c-93e4-41e10e7faa5f","{""num_scrambled_semantic"":""8"",""num_scrambled_causal"":""4"",""num_scrambled_schematic"":""4"",""participantId"":""AD0BA86A52324FC4B7A61CC9394BB56B"",""assignmentId"":""0198c357-4846-7840-9c8d-d271e56a1fed"",""projectId"":""0198c320-653a-770c-93e4-41e10e7faa5f""}","https://test12345.live/?num_scrambled_semantic=8&num_scrambled_causal=4&num_scrambled_schematic=4&participantId=AD0BA86A52324FC4B7A61CC9394BB56B&assignmentId=0198c357-4846-7840-9c8d-d271e56a1fed&projectId=0198c320-653a-770c-93e4-41e10e7faa5f","AD0BA86A52324FC4B7A61CC9394BB56B-2025-08-19-17-38-45","","8493","","","{""Q0"":""FEMALE"",""Q1"":""35""}","",""
"","","","","","instructions","38","1241809","0.0-36.0","AD0BA86A52324FC4B7A61CC9394BB56B","AD0BA86A52324FC4B7A61CC9394BB56B","0198c357-4846-7840-9c8d-d271e56a1fed","0198c320-653a-770c-93e4-41e10e7faa5f","{""num_scrambled_semantic"":""8"",""num_scrambled_causal"":""4"",""num_scrambled_schematic"":""4"",""participantId"":""AD0BA86A52324FC4B7A61CC9394BB56B"",""assignmentId"":""0198c357-4846-7840-9c8d-d271e56a1fed"",""projectId"":""0198c320-653a-770c-93e4-41e10e7faa5f""}","https://test12345.live/?num_scrambled_semantic=8&num_scrambled_causal=4&num_scrambled_schematic=4&participantId=AD0BA86A52324FC4B7A61CC9394BB56B&assignmentId=0198c357-4846-7840-9c8d-d271e56a1fed&projectId=0198c320-653a-770c-93e4-41e10e7faa5f","AD0BA86A52324FC4B7A61CC9394BB56B-2025-08-19-17-38-45","[{""page_index"":0,""viewing_time"":47118}]","47119","","","","",""
"","","","","","survey-text","39","1255960","0.0-37.0","AD0BA86A52324FC4B7A61CC9394BB56B","AD0BA86A52324FC4B7A61CC9394BB56B","0198c357-4846-7840-9c8d-d271e56a1fed","0198c320-653a-770c-93e4-41e10e7faa5f","{""num_scrambled_semantic"":""8"",""num_scrambled_causal"":""4"",""num_scrambled_schematic"":""4"",""participantId"":""AD0BA86A52324FC4B7A61CC9394BB56B"",""assignmentId"":""0198c357-4846-7840-9c8d-d271e56a1fed"",""projectId"":""0198c320-653a-770c-93e4-41e10e7faa5f""}","https://test12345.live/?num_scrambled_semantic=8&num_scrambled_causal=4&num_scrambled_schematic=4&participantId=AD0BA86A52324FC4B7A61CC9394BB56B&assignmentId=0198c357-4846-7840-9c8d-d271e56a1fed&projectId=0198c320-653a-770c-93e4-41e10e7faa5f","AD0BA86A52324FC4B7A61CC9394BB56B-2025-08-19-17-38-45","","14147","","","{""Q0"":""AJFHBG896""}","",""
