"success","timeout","failed_images","failed_audio","failed_video","trial_type","trial_index","time_elapsed","internal_node_id","subject","subject_id","study_id","session_id","urlvar","current_url","audio_id","view_history","rt","device_id","stimulus","response","estimated_stimulus_onset","seq_name"
"true","false","[]","[]","[]","preload","0","10835","0.0-0.0","AD2BBCCD2AC04C0CB427B3CF5C913134","AD2BBCCD2AC04C0CB427B3CF5C913134","0198c3f5-b887-742e-85d1-51d58403f3bf","0198c3e5-90db-7030-b026-3fe33584d632","{""num_scrambled_semantic"":""8"",""num_scrambled_causal"":""4"",""num_scrambled_schematic"":""4"",""participantId"":""AD2BBCCD2AC04C0CB427B3CF5C913134"",""assignmentId"":""0198c3f5-b887-742e-85d1-51d58403f3bf"",""projectId"":""0198c3e5-90db-7030-b026-3fe33584d632""}","https://test12345.live/?num_scrambled_semantic=8&num_scrambled_causal=4&num_scrambled_schematic=4&participantId=AD2BBCCD2AC04C0CB427B3CF5C913134&assignmentId=0198c3f5-b887-742e-85d1-51d58403f3bf&projectId=0198c3e5-90db-7030-b026-3fe33584d632","AD2BBCCD2AC04C0CB427B3CF5C913134-2025-08-19-20-20-03","","","","","","",""
"","","","","","instructions","1","30034","0.0-1.0","AD2BBCCD2AC04C0CB427B3CF5C913134","AD2BBCCD2AC04C0CB427B3CF5C913134","0198c3f5-b887-742e-85d1-51d58403f3bf","0198c3e5-90db-7030-b026-3fe33584d632","{""num_scrambled_semantic"":""8"",""num_scrambled_causal"":""4"",""num_scrambled_schematic"":""4"",""participantId"":""AD2BBCCD2AC04C0CB427B3CF5C913134"",""assignmentId"":""0198c3f5-b887-742e-85d1-51d58403f3bf"",""projectId"":""0198c3e5-90db-7030-b026-3fe33584d632""}","https://test12345.live/?num_scrambled_semantic=8&num_scrambled_causal=4&num_scrambled_schematic=4&participantId=AD2BBCCD2AC04C0CB427B3CF5C913134&assignmentId=0198c3f5-b887-742e-85d1-51d58403f3bf&projectId=0198c3e5-90db-7030-b026-3fe33584d632","AD2BBCCD2AC04C0CB427B3CF5C913134-2025-08-19-20-20-03","[{""page_index"":0,""viewing_time"":19198}]","19198","","","","",""
"","","","","","instructions","2","33349","0.0-2.0","AD2BBCCD2AC04C0CB427B3CF5C913134","AD2BBCCD2AC04C0CB427B3CF5C913134","0198c3f5-b887-742e-85d1-51d58403f3bf","0198c3e5-90db-7030-b026-3fe33584d632","{""num_scrambled_semantic"":""8"",""num_scrambled_causal"":""4"",""num_scrambled_schematic"":""4"",""participantId"":""AD2BBCCD2AC04C0CB427B3CF5C913134"",""assignmentId"":""0198c3f5-b887-742e-85d1-51d58403f3bf"",""projectId"":""0198c3e5-90db-7030-b026-3fe33584d632""}","https://test12345.live/?num_scrambled_semantic=8&num_scrambled_causal=4&num_scrambled_schematic=4&participantId=AD2BBCCD2AC04C0CB427B3CF5C913134&assignmentId=0198c3f5-b887-742e-85d1-51d58403f3bf&projectId=0198c3e5-90db-7030-b026-3fe33584d632","AD2BBCCD2AC04C0CB427B3CF5C913134-2025-08-19-20-20-03","[{""page_index"":0,""viewing_time"":3314}]","3314","","","","",""
"true","","","","","fullscreen","3","35998","0.0-3.0","AD2BBCCD2AC04C0CB427B3CF5C913134","AD2BBCCD2AC04C0CB427B3CF5C913134","0198c3f5-b887-742e-85d1-51d58403f3bf","0198c3e5-90db-7030-b026-3fe33584d632","{""num_scrambled_semantic"":""8"",""num_scrambled_causal"":""4"",""num_scrambled_schematic"":""4"",""participantId"":""AD2BBCCD2AC04C0CB427B3CF5C913134"",""assignmentId"":""0198c3f5-b887-742e-85d1-51d58403f3bf"",""projectId"":""0198c3e5-90db-7030-b026-3fe33584d632""}","https://test12345.live/?num_scrambled_semantic=8&num_scrambled_causal=4&num_scrambled_schematic=4&participantId=AD2BBCCD2AC04C0CB427B3CF5C913134&assignmentId=0198c3f5-b887-742e-85d1-51d58403f3bf&projectId=0198c3e5-90db-7030-b026-3fe33584d632","AD2BBCCD2AC04C0CB427B3CF5C913134-2025-08-19-20-20-03","","1633","","","","",""
"","","","","","initialize-microphone","4","37872","0.0-4.0-0.0","AD2BBCCD2AC04C0CB427B3CF5C913134","AD2BBCCD2AC04C0CB427B3CF5C913134","0198c3f5-b887-742e-85d1-51d58403f3bf","0198c3e5-90db-7030-b026-3fe33584d632","{""num_scrambled_semantic"":""8"",""num_scrambled_causal"":""4"",""num_scrambled_schematic"":""4"",""participantId"":""AD2BBCCD2AC04C0CB427B3CF5C913134"",""assignmentId"":""0198c3f5-b887-742e-85d1-51d58403f3bf"",""projectId"":""0198c3e5-90db-7030-b026-3fe33584d632""}","https://test12345.live/?num_scrambled_semantic=8&num_scrambled_causal=4&num_scrambled_schematic=4&participantId=AD2BBCCD2AC04C0CB427B3CF5C913134&assignmentId=0198c3f5-b887-742e-85d1-51d58403f3bf&projectId=0198c3e5-90db-7030-b026-3fe33584d632","AD2BBCCD2AC04C0CB427B3CF5C913134-2025-08-19-20-20-03","","","9c467d7afc88fafdd88e1cbdb3b1b9073b5cb96b8a03275d588c81c9371564ff","","","",""
"","","","","","html-audio-response","5","44735","0.0-4.0-1.0","AD2BBCCD2AC04C0CB427B3CF5C913134","AD2BBCCD2AC04C0CB427B3CF5C913134","0198c3f5-b887-742e-85d1-51d58403f3bf","0198c3e5-90db-7030-b026-3fe33584d632","{""num_scrambled_semantic"":""8"",""num_scrambled_causal"":""4"",""num_scrambled_schematic"":""4"",""participantId"":""AD2BBCCD2AC04C0CB427B3CF5C913134"",""assignmentId"":""0198c3f5-b887-742e-85d1-51d58403f3bf"",""projectId"":""0198c3e5-90db-7030-b026-3fe33584d632""}","https://test12345.live/?num_scrambled_semantic=8&num_scrambled_causal=4&num_scrambled_schematic=4&participantId=AD2BBCCD2AC04C0CB427B3CF5C913134&assignmentId=0198c3f5-b887-742e-85d1-51d58403f3bf&projectId=0198c3e5-90db-7030-b026-3fe33584d632","AD2BBCCD2AC04C0CB427B3CF5C913134-2025-08-19-20-20-03","","2634","","<span style=""color: red; font-size: 24px""> NOW RECORDING</span>
        <p>Please test Microphone</p>","","10",""
"","","","","","html-button-response","6","46071","0.0-4.0-2.0","AD2BBCCD2AC04C0CB427B3CF5C913134","AD2BBCCD2AC04C0CB427B3CF5C913134","0198c3f5-b887-742e-85d1-51d58403f3bf","0198c3e5-90db-7030-b026-3fe33584d632","{""num_scrambled_semantic"":""8"",""num_scrambled_causal"":""4"",""num_scrambled_schematic"":""4"",""participantId"":""AD2BBCCD2AC04C0CB427B3CF5C913134"",""assignmentId"":""0198c3f5-b887-742e-85d1-51d58403f3bf"",""projectId"":""0198c3e5-90db-7030-b026-3fe33584d632""}","https://test12345.live/?num_scrambled_semantic=8&num_scrambled_causal=4&num_scrambled_schematic=4&participantId=AD2BBCCD2AC04C0CB427B3CF5C913134&assignmentId=0198c3f5-b887-742e-85d1-51d58403f3bf&projectId=0198c3e5-90db-7030-b026-3fe33584d632","AD2BBCCD2AC04C0CB427B3CF5C913134-2025-08-19-20-20-03","","1335","","<p style=""font-size:48px; color:red;"">Is Microphone OK?</p>","1","",""
"","","","","","instructions","7","78485","0.0-5.0","AD2BBCCD2AC04C0CB427B3CF5C913134","AD2BBCCD2AC04C0CB427B3CF5C913134","0198c3f5-b887-742e-85d1-51d58403f3bf","0198c3e5-90db-7030-b026-3fe33584d632","{""num_scrambled_semantic"":""8"",""num_scrambled_causal"":""4"",""num_scrambled_schematic"":""4"",""participantId"":""AD2BBCCD2AC04C0CB427B3CF5C913134"",""assignmentId"":""0198c3f5-b887-742e-85d1-51d58403f3bf"",""projectId"":""0198c3e5-90db-7030-b026-3fe33584d632""}","https://test12345.live/?num_scrambled_semantic=8&num_scrambled_causal=4&num_scrambled_schematic=4&participantId=AD2BBCCD2AC04C0CB427B3CF5C913134&assignmentId=0198c3f5-b887-742e-85d1-51d58403f3bf&projectId=0198c3e5-90db-7030-b026-3fe33584d632","AD2BBCCD2AC04C0CB427B3CF5C913134-2025-08-19-20-20-03","[{""page_index"":0,""viewing_time"":1154},{""page_index"":1,""viewing_time"":26002},{""page_index"":2,""viewing_time"":5257}]","32413","","","","",""
"","","","","","image-button-response","8","84488","0.0-6.0-0.0","AD2BBCCD2AC04C0CB427B3CF5C913134","AD2BBCCD2AC04C0CB427B3CF5C913134","0198c3f5-b887-742e-85d1-51d58403f3bf","0198c3e5-90db-7030-b026-3fe33584d632","{""num_scrambled_semantic"":""8"",""num_scrambled_causal"":""4"",""num_scrambled_schematic"":""4"",""participantId"":""AD2BBCCD2AC04C0CB427B3CF5C913134"",""assignmentId"":""0198c3f5-b887-742e-85d1-51d58403f3bf"",""projectId"":""0198c3e5-90db-7030-b026-3fe33584d632""}","https://test12345.live/?num_scrambled_semantic=8&num_scrambled_causal=4&num_scrambled_schematic=4&participantId=AD2BBCCD2AC04C0CB427B3CF5C913134&assignmentId=0198c3f5-b887-742e-85d1-51d58403f3bf&projectId=0198c3e5-90db-7030-b026-3fe33584d632","AD2BBCCD2AC04C0CB427B3CF5C913134-2025-08-19-20-20-03","","null","","images/instructions/movie_0.png","null","",""
"","","","","","html-audio-response","9","110097","0.0-7.0","AD2BBCCD2AC04C0CB427B3CF5C913134","AD2BBCCD2AC04C0CB427B3CF5C913134","0198c3f5-b887-742e-85d1-51d58403f3bf","0198c3e5-90db-7030-b026-3fe33584d632","{""num_scrambled_semantic"":""8"",""num_scrambled_causal"":""4"",""num_scrambled_schematic"":""4"",""participantId"":""AD2BBCCD2AC04C0CB427B3CF5C913134"",""assignmentId"":""0198c3f5-b887-742e-85d1-51d58403f3bf"",""projectId"":""0198c3e5-90db-7030-b026-3fe33584d632""}","https://test12345.live/?num_scrambled_semantic=8&num_scrambled_causal=4&num_scrambled_schematic=4&participantId=AD2BBCCD2AC04C0CB427B3CF5C913134&assignmentId=0198c3f5-b887-742e-85d1-51d58403f3bf&projectId=0198c3e5-90db-7030-b026-3fe33584d632","AD2BBCCD2AC04C0CB427B3CF5C913134-2025-08-19-20-20-03","","24790","","[""<span style=\""color: red; font-size: 24px\""> NOW RECORDING</span><p>Please say out loud all the images you saw in part 1 of the experiment, as many as you can remember. The images can be said in any order.</p>""]","","1",""
"","","","","","instructions","10","111748","0.0-8.0","AD2BBCCD2AC04C0CB427B3CF5C913134","AD2BBCCD2AC04C0CB427B3CF5C913134","0198c3f5-b887-742e-85d1-51d58403f3bf","0198c3e5-90db-7030-b026-3fe33584d632","{""num_scrambled_semantic"":""8"",""num_scrambled_causal"":""4"",""num_scrambled_schematic"":""4"",""participantId"":""AD2BBCCD2AC04C0CB427B3CF5C913134"",""assignmentId"":""0198c3f5-b887-742e-85d1-51d58403f3bf"",""projectId"":""0198c3e5-90db-7030-b026-3fe33584d632""}","https://test12345.live/?num_scrambled_semantic=8&num_scrambled_causal=4&num_scrambled_schematic=4&participantId=AD2BBCCD2AC04C0CB427B3CF5C913134&assignmentId=0198c3f5-b887-742e-85d1-51d58403f3bf&projectId=0198c3e5-90db-7030-b026-3fe33584d632","AD2BBCCD2AC04C0CB427B3CF5C913134-2025-08-19-20-20-03","[{""page_index"":0,""viewing_time"":1643}]","1644","","","","",""
"","","","","","image-button-response","11","117752","0.0-9.0-0.0","AD2BBCCD2AC04C0CB427B3CF5C913134","AD2BBCCD2AC04C0CB427B3CF5C913134","0198c3f5-b887-742e-85d1-51d58403f3bf","0198c3e5-90db-7030-b026-3fe33584d632","{""num_scrambled_semantic"":""8"",""num_scrambled_causal"":""4"",""num_scrambled_schematic"":""4"",""participantId"":""AD2BBCCD2AC04C0CB427B3CF5C913134"",""assignmentId"":""0198c3f5-b887-742e-85d1-51d58403f3bf"",""projectId"":""0198c3e5-90db-7030-b026-3fe33584d632""}","https://test12345.live/?num_scrambled_semantic=8&num_scrambled_causal=4&num_scrambled_schematic=4&participantId=AD2BBCCD2AC04C0CB427B3CF5C913134&assignmentId=0198c3f5-b887-742e-85d1-51d58403f3bf&projectId=0198c3e5-90db-7030-b026-3fe33584d632","AD2BBCCD2AC04C0CB427B3CF5C913134-2025-08-19-20-20-03","","null","","images/semantic_sequence/redecorating_semantic/redecorating_semantic_0.png","null","",""
"","","","","","html-audio-response","12","137974","0.0-10.0","AD2BBCCD2AC04C0CB427B3CF5C913134","AD2BBCCD2AC04C0CB427B3CF5C913134","0198c3f5-b887-742e-85d1-51d58403f3bf","0198c3e5-90db-7030-b026-3fe33584d632","{""num_scrambled_semantic"":""8"",""num_scrambled_causal"":""4"",""num_scrambled_schematic"":""4"",""participantId"":""AD2BBCCD2AC04C0CB427B3CF5C913134"",""assignmentId"":""0198c3f5-b887-742e-85d1-51d58403f3bf"",""projectId"":""0198c3e5-90db-7030-b026-3fe33584d632""}","https://test12345.live/?num_scrambled_semantic=8&num_scrambled_causal=4&num_scrambled_schematic=4&participantId=AD2BBCCD2AC04C0CB427B3CF5C913134&assignmentId=0198c3f5-b887-742e-85d1-51d58403f3bf&projectId=0198c3e5-90db-7030-b026-3fe33584d632","AD2BBCCD2AC04C0CB427B3CF5C913134-2025-08-19-20-20-03","","19550","","[""<span style=\""color: red; font-size: 24px\""> NOW RECORDING</span><p>Please say out loud all the images you saw, following the storyline they create. Try to recall the sequence of events as they unfolded in the story, rather than the order in which they appeared on the screen.</p>""]","","1","redecorating_semantic"
"","","","","","image-button-response","13","143989","0.0-11.0-0.0","AD2BBCCD2AC04C0CB427B3CF5C913134","AD2BBCCD2AC04C0CB427B3CF5C913134","0198c3f5-b887-742e-85d1-51d58403f3bf","0198c3e5-90db-7030-b026-3fe33584d632","{""num_scrambled_semantic"":""8"",""num_scrambled_causal"":""4"",""num_scrambled_schematic"":""4"",""participantId"":""AD2BBCCD2AC04C0CB427B3CF5C913134"",""assignmentId"":""0198c3f5-b887-742e-85d1-51d58403f3bf"",""projectId"":""0198c3e5-90db-7030-b026-3fe33584d632""}","https://test12345.live/?num_scrambled_semantic=8&num_scrambled_causal=4&num_scrambled_schematic=4&participantId=AD2BBCCD2AC04C0CB427B3CF5C913134&assignmentId=0198c3f5-b887-742e-85d1-51d58403f3bf&projectId=0198c3e5-90db-7030-b026-3fe33584d632","AD2BBCCD2AC04C0CB427B3CF5C913134-2025-08-19-20-20-03","","null","","images/semantic_sequence/creative_activities_semantic/creative_activities_semantic_0.png","null","",""
"","","","","","html-audio-response","14","166039","0.0-12.0","AD2BBCCD2AC04C0CB427B3CF5C913134","AD2BBCCD2AC04C0CB427B3CF5C913134","0198c3f5-b887-742e-85d1-51d58403f3bf","0198c3e5-90db-7030-b026-3fe33584d632","{""num_scrambled_semantic"":""8"",""num_scrambled_causal"":""4"",""num_scrambled_schematic"":""4"",""participantId"":""AD2BBCCD2AC04C0CB427B3CF5C913134"",""assignmentId"":""0198c3f5-b887-742e-85d1-51d58403f3bf"",""projectId"":""0198c3e5-90db-7030-b026-3fe33584d632""}","https://test12345.live/?num_scrambled_semantic=8&num_scrambled_causal=4&num_scrambled_schematic=4&participantId=AD2BBCCD2AC04C0CB427B3CF5C913134&assignmentId=0198c3f5-b887-742e-85d1-51d58403f3bf&projectId=0198c3e5-90db-7030-b026-3fe33584d632","AD2BBCCD2AC04C0CB427B3CF5C913134-2025-08-19-20-20-03","","21368","","[""<span style=\""color: red; font-size: 24px\""> NOW RECORDING</span><p>Please say out loud all the images you saw, following the storyline they create. Try to recall the sequence of events as they unfolded in the story, rather than the order in which they appeared on the screen.</p>""]","","7","creative_activities_semantic"
"","","","","","image-button-response","15","172052","0.0-13.0-0.0","AD2BBCCD2AC04C0CB427B3CF5C913134","AD2BBCCD2AC04C0CB427B3CF5C913134","0198c3f5-b887-742e-85d1-51d58403f3bf","0198c3e5-90db-7030-b026-3fe33584d632","{""num_scrambled_semantic"":""8"",""num_scrambled_causal"":""4"",""num_scrambled_schematic"":""4"",""participantId"":""AD2BBCCD2AC04C0CB427B3CF5C913134"",""assignmentId"":""0198c3f5-b887-742e-85d1-51d58403f3bf"",""projectId"":""0198c3e5-90db-7030-b026-3fe33584d632""}","https://test12345.live/?num_scrambled_semantic=8&num_scrambled_causal=4&num_scrambled_schematic=4&participantId=AD2BBCCD2AC04C0CB427B3CF5C913134&assignmentId=0198c3f5-b887-742e-85d1-51d58403f3bf&projectId=0198c3e5-90db-7030-b026-3fe33584d632","AD2BBCCD2AC04C0CB427B3CF5C913134-2025-08-19-20-20-03","","null","","images/semantic_sequence/using_technology_semantic/using_technology_semantic_0.png","null","",""
"","","","","","html-audio-response","16","185276","0.0-14.0","AD2BBCCD2AC04C0CB427B3CF5C913134","AD2BBCCD2AC04C0CB427B3CF5C913134","0198c3f5-b887-742e-85d1-51d58403f3bf","0198c3e5-90db-7030-b026-3fe33584d632","{""num_scrambled_semantic"":""8"",""num_scrambled_causal"":""4"",""num_scrambled_schematic"":""4"",""participantId"":""AD2BBCCD2AC04C0CB427B3CF5C913134"",""assignmentId"":""0198c3f5-b887-742e-85d1-51d58403f3bf"",""projectId"":""0198c3e5-90db-7030-b026-3fe33584d632""}","https://test12345.live/?num_scrambled_semantic=8&num_scrambled_causal=4&num_scrambled_schematic=4&participantId=AD2BBCCD2AC04C0CB427B3CF5C913134&assignmentId=0198c3f5-b887-742e-85d1-51d58403f3bf&projectId=0198c3e5-90db-7030-b026-3fe33584d632","AD2BBCCD2AC04C0CB427B3CF5C913134-2025-08-19-20-20-03","","12173","","[""<span style=\""color: red; font-size: 24px\""> NOW RECORDING</span><p>Please say out loud all the images you saw, following the storyline they create. Try to recall the sequence of events as they unfolded in the story, rather than the order in which they appeared on the screen.</p>""]","","5","using_technology_semantic"
"","","","","","image-button-response","17","191286","0.0-15.0-0.0","AD2BBCCD2AC04C0CB427B3CF5C913134","AD2BBCCD2AC04C0CB427B3CF5C913134","0198c3f5-b887-742e-85d1-51d58403f3bf","0198c3e5-90db-7030-b026-3fe33584d632","{""num_scrambled_semantic"":""8"",""num_scrambled_causal"":""4"",""num_scrambled_schematic"":""4"",""participantId"":""AD2BBCCD2AC04C0CB427B3CF5C913134"",""assignmentId"":""0198c3f5-b887-742e-85d1-51d58403f3bf"",""projectId"":""0198c3e5-90db-7030-b026-3fe33584d632""}","https://test12345.live/?num_scrambled_semantic=8&num_scrambled_causal=4&num_scrambled_schematic=4&participantId=AD2BBCCD2AC04C0CB427B3CF5C913134&assignmentId=0198c3f5-b887-742e-85d1-51d58403f3bf&projectId=0198c3e5-90db-7030-b026-3fe33584d632","AD2BBCCD2AC04C0CB427B3CF5C913134-2025-08-19-20-20-03","","null","","images/causal_sequence/coin_causal/coin_causal_0.png","null","",""
"","","","","","html-audio-response","18","216873","0.0-16.0","AD2BBCCD2AC04C0CB427B3CF5C913134","AD2BBCCD2AC04C0CB427B3CF5C913134","0198c3f5-b887-742e-85d1-51d58403f3bf","0198c3e5-90db-7030-b026-3fe33584d632","{""num_scrambled_semantic"":""8"",""num_scrambled_causal"":""4"",""num_scrambled_schematic"":""4"",""participantId"":""AD2BBCCD2AC04C0CB427B3CF5C913134"",""assignmentId"":""0198c3f5-b887-742e-85d1-51d58403f3bf"",""projectId"":""0198c3e5-90db-7030-b026-3fe33584d632""}","https://test12345.live/?num_scrambled_semantic=8&num_scrambled_causal=4&num_scrambled_schematic=4&participantId=AD2BBCCD2AC04C0CB427B3CF5C913134&assignmentId=0198c3f5-b887-742e-85d1-51d58403f3bf&projectId=0198c3e5-90db-7030-b026-3fe33584d632","AD2BBCCD2AC04C0CB427B3CF5C913134-2025-08-19-20-20-03","","24806","","[""<span style=\""color: red; font-size: 24px\""> NOW RECORDING</span><p>Please say out loud all the images you saw, following the storyline they create. Try to recall the sequence of events as they unfolded in the story, rather than the order in which they appeared on the screen.</p>""]","","7","coin_causal"
"","","","","","image-button-response","19","222883","0.0-17.0-0.0","AD2BBCCD2AC04C0CB427B3CF5C913134","AD2BBCCD2AC04C0CB427B3CF5C913134","0198c3f5-b887-742e-85d1-51d58403f3bf","0198c3e5-90db-7030-b026-3fe33584d632","{""num_scrambled_semantic"":""8"",""num_scrambled_causal"":""4"",""num_scrambled_schematic"":""4"",""participantId"":""AD2BBCCD2AC04C0CB427B3CF5C913134"",""assignmentId"":""0198c3f5-b887-742e-85d1-51d58403f3bf"",""projectId"":""0198c3e5-90db-7030-b026-3fe33584d632""}","https://test12345.live/?num_scrambled_semantic=8&num_scrambled_causal=4&num_scrambled_schematic=4&participantId=AD2BBCCD2AC04C0CB427B3CF5C913134&assignmentId=0198c3f5-b887-742e-85d1-51d58403f3bf&projectId=0198c3e5-90db-7030-b026-3fe33584d632","AD2BBCCD2AC04C0CB427B3CF5C913134-2025-08-19-20-20-03","","null","","images/causal_sequence/dog_causal/dog_causal_0.png","null","",""
"","","","","","html-audio-response","20","246191","0.0-18.0","AD2BBCCD2AC04C0CB427B3CF5C913134","AD2BBCCD2AC04C0CB427B3CF5C913134","0198c3f5-b887-742e-85d1-51d58403f3bf","0198c3e5-90db-7030-b026-3fe33584d632","{""num_scrambled_semantic"":""8"",""num_scrambled_causal"":""4"",""num_scrambled_schematic"":""4"",""participantId"":""AD2BBCCD2AC04C0CB427B3CF5C913134"",""assignmentId"":""0198c3f5-b887-742e-85d1-51d58403f3bf"",""projectId"":""0198c3e5-90db-7030-b026-3fe33584d632""}","https://test12345.live/?num_scrambled_semantic=8&num_scrambled_causal=4&num_scrambled_schematic=4&participantId=AD2BBCCD2AC04C0CB427B3CF5C913134&assignmentId=0198c3f5-b887-742e-85d1-51d58403f3bf&projectId=0198c3e5-90db-7030-b026-3fe33584d632","AD2BBCCD2AC04C0CB427B3CF5C913134-2025-08-19-20-20-03","","22710","","[""<span style=\""color: red; font-size: 24px\""> NOW RECORDING</span><p>Please say out loud all the images you saw, following the storyline they create. Try to recall the sequence of events as they unfolded in the story, rather than the order in which they appeared on the screen.</p>""]","","10","dog_causal"
"","","","","","image-button-response","21","252204","0.0-19.0-0.0","AD2BBCCD2AC04C0CB427B3CF5C913134","AD2BBCCD2AC04C0CB427B3CF5C913134","0198c3f5-b887-742e-85d1-51d58403f3bf","0198c3e5-90db-7030-b026-3fe33584d632","{""num_scrambled_semantic"":""8"",""num_scrambled_causal"":""4"",""num_scrambled_schematic"":""4"",""participantId"":""AD2BBCCD2AC04C0CB427B3CF5C913134"",""assignmentId"":""0198c3f5-b887-742e-85d1-51d58403f3bf"",""projectId"":""0198c3e5-90db-7030-b026-3fe33584d632""}","https://test12345.live/?num_scrambled_semantic=8&num_scrambled_causal=4&num_scrambled_schematic=4&participantId=AD2BBCCD2AC04C0CB427B3CF5C913134&assignmentId=0198c3f5-b887-742e-85d1-51d58403f3bf&projectId=0198c3e5-90db-7030-b026-3fe33584d632","AD2BBCCD2AC04C0CB427B3CF5C913134-2025-08-19-20-20-03","","null","","images/causal_sequence/package_causal/package_causal_0.png","null","",""
"","","","","","html-audio-response","22","280445","0.0-20.0","AD2BBCCD2AC04C0CB427B3CF5C913134","AD2BBCCD2AC04C0CB427B3CF5C913134","0198c3f5-b887-742e-85d1-51d58403f3bf","0198c3e5-90db-7030-b026-3fe33584d632","{""num_scrambled_semantic"":""8"",""num_scrambled_causal"":""4"",""num_scrambled_schematic"":""4"",""participantId"":""AD2BBCCD2AC04C0CB427B3CF5C913134"",""assignmentId"":""0198c3f5-b887-742e-85d1-51d58403f3bf"",""projectId"":""0198c3e5-90db-7030-b026-3fe33584d632""}","https://test12345.live/?num_scrambled_semantic=8&num_scrambled_causal=4&num_scrambled_schematic=4&participantId=AD2BBCCD2AC04C0CB427B3CF5C913134&assignmentId=0198c3f5-b887-742e-85d1-51d58403f3bf&projectId=0198c3e5-90db-7030-b026-3fe33584d632","AD2BBCCD2AC04C0CB427B3CF5C913134-2025-08-19-20-20-03","","27541","","[""<span style=\""color: red; font-size: 24px\""> NOW RECORDING</span><p>Please say out loud all the images you saw, following the storyline they create. Try to recall the sequence of events as they unfolded in the story, rather than the order in which they appeared on the screen.</p>""]","","12","package_causal"
"","","","","","image-button-response","23","286456","0.0-21.0-0.0","AD2BBCCD2AC04C0CB427B3CF5C913134","AD2BBCCD2AC04C0CB427B3CF5C913134","0198c3f5-b887-742e-85d1-51d58403f3bf","0198c3e5-90db-7030-b026-3fe33584d632","{""num_scrambled_semantic"":""8"",""num_scrambled_causal"":""4"",""num_scrambled_schematic"":""4"",""participantId"":""AD2BBCCD2AC04C0CB427B3CF5C913134"",""assignmentId"":""0198c3f5-b887-742e-85d1-51d58403f3bf"",""projectId"":""0198c3e5-90db-7030-b026-3fe33584d632""}","https://test12345.live/?num_scrambled_semantic=8&num_scrambled_causal=4&num_scrambled_schematic=4&participantId=AD2BBCCD2AC04C0CB427B3CF5C913134&assignmentId=0198c3f5-b887-742e-85d1-51d58403f3bf&projectId=0198c3e5-90db-7030-b026-3fe33584d632","AD2BBCCD2AC04C0CB427B3CF5C913134-2025-08-19-20-20-03","","null","","images/semantic_sequence/physical_activity_semantic/physical_activity_semantic_0.png","null","",""
"","","","","","html-audio-response","24","304046","0.0-22.0","AD2BBCCD2AC04C0CB427B3CF5C913134","AD2BBCCD2AC04C0CB427B3CF5C913134","0198c3f5-b887-742e-85d1-51d58403f3bf","0198c3e5-90db-7030-b026-3fe33584d632","{""num_scrambled_semantic"":""8"",""num_scrambled_causal"":""4"",""num_scrambled_schematic"":""4"",""participantId"":""AD2BBCCD2AC04C0CB427B3CF5C913134"",""assignmentId"":""0198c3f5-b887-742e-85d1-51d58403f3bf"",""projectId"":""0198c3e5-90db-7030-b026-3fe33584d632""}","https://test12345.live/?num_scrambled_semantic=8&num_scrambled_causal=4&num_scrambled_schematic=4&participantId=AD2BBCCD2AC04C0CB427B3CF5C913134&assignmentId=0198c3f5-b887-742e-85d1-51d58403f3bf&projectId=0198c3e5-90db-7030-b026-3fe33584d632","AD2BBCCD2AC04C0CB427B3CF5C913134-2025-08-19-20-20-03","","17005","","[""<span style=\""color: red; font-size: 24px\""> NOW RECORDING</span><p>Please say out loud all the images you saw, following the storyline they create. Try to recall the sequence of events as they unfolded in the story, rather than the order in which they appeared on the screen.</p>""]","","14","physical_activity_semantic"
"","","","","","image-button-response","25","310054","0.0-23.0-0.0","AD2BBCCD2AC04C0CB427B3CF5C913134","AD2BBCCD2AC04C0CB427B3CF5C913134","0198c3f5-b887-742e-85d1-51d58403f3bf","0198c3e5-90db-7030-b026-3fe33584d632","{""num_scrambled_semantic"":""8"",""num_scrambled_causal"":""4"",""num_scrambled_schematic"":""4"",""participantId"":""AD2BBCCD2AC04C0CB427B3CF5C913134"",""assignmentId"":""0198c3f5-b887-742e-85d1-51d58403f3bf"",""projectId"":""0198c3e5-90db-7030-b026-3fe33584d632""}","https://test12345.live/?num_scrambled_semantic=8&num_scrambled_causal=4&num_scrambled_schematic=4&participantId=AD2BBCCD2AC04C0CB427B3CF5C913134&assignmentId=0198c3f5-b887-742e-85d1-51d58403f3bf&projectId=0198c3e5-90db-7030-b026-3fe33584d632","AD2BBCCD2AC04C0CB427B3CF5C913134-2025-08-19-20-20-03","","null","","images/semantic_sequence/cat_care_semantic/cat_care_semantic_0.png","null","",""
"","","","","","html-audio-response","26","355228","0.0-24.0","AD2BBCCD2AC04C0CB427B3CF5C913134","AD2BBCCD2AC04C0CB427B3CF5C913134","0198c3f5-b887-742e-85d1-51d58403f3bf","0198c3e5-90db-7030-b026-3fe33584d632","{""num_scrambled_semantic"":""8"",""num_scrambled_causal"":""4"",""num_scrambled_schematic"":""4"",""participantId"":""AD2BBCCD2AC04C0CB427B3CF5C913134"",""assignmentId"":""0198c3f5-b887-742e-85d1-51d58403f3bf"",""projectId"":""0198c3e5-90db-7030-b026-3fe33584d632""}","https://test12345.live/?num_scrambled_semantic=8&num_scrambled_causal=4&num_scrambled_schematic=4&participantId=AD2BBCCD2AC04C0CB427B3CF5C913134&assignmentId=0198c3f5-b887-742e-85d1-51d58403f3bf&projectId=0198c3e5-90db-7030-b026-3fe33584d632","AD2BBCCD2AC04C0CB427B3CF5C913134-2025-08-19-20-20-03","","16744","","[""<span style=\""color: red; font-size: 24px\""> NOW RECORDING</span><p>Please say out loud all the images you saw, following the storyline they create. Try to recall the sequence of events as they unfolded in the story, rather than the order in which they appeared on the screen.</p>""]","","2","cat_care_semantic"
"","","","","","image-button-response","27","361239","0.0-25.0-0.0","AD2BBCCD2AC04C0CB427B3CF5C913134","AD2BBCCD2AC04C0CB427B3CF5C913134","0198c3f5-b887-742e-85d1-51d58403f3bf","0198c3e5-90db-7030-b026-3fe33584d632","{""num_scrambled_semantic"":""8"",""num_scrambled_causal"":""4"",""num_scrambled_schematic"":""4"",""participantId"":""AD2BBCCD2AC04C0CB427B3CF5C913134"",""assignmentId"":""0198c3f5-b887-742e-85d1-51d58403f3bf"",""projectId"":""0198c3e5-90db-7030-b026-3fe33584d632""}","https://test12345.live/?num_scrambled_semantic=8&num_scrambled_causal=4&num_scrambled_schematic=4&participantId=AD2BBCCD2AC04C0CB427B3CF5C913134&assignmentId=0198c3f5-b887-742e-85d1-51d58403f3bf&projectId=0198c3e5-90db-7030-b026-3fe33584d632","AD2BBCCD2AC04C0CB427B3CF5C913134-2025-08-19-20-20-03","","null","","images/semantic_sequence/housework_semantic/housework_semantic_0.png","null","",""
"","","","","","html-audio-response","28","372919","0.0-26.0","AD2BBCCD2AC04C0CB427B3CF5C913134","AD2BBCCD2AC04C0CB427B3CF5C913134","0198c3f5-b887-742e-85d1-51d58403f3bf","0198c3e5-90db-7030-b026-3fe33584d632","{""num_scrambled_semantic"":""8"",""num_scrambled_causal"":""4"",""num_scrambled_schematic"":""4"",""participantId"":""AD2BBCCD2AC04C0CB427B3CF5C913134"",""assignmentId"":""0198c3f5-b887-742e-85d1-51d58403f3bf"",""projectId"":""0198c3e5-90db-7030-b026-3fe33584d632""}","https://test12345.live/?num_scrambled_semantic=8&num_scrambled_causal=4&num_scrambled_schematic=4&participantId=AD2BBCCD2AC04C0CB427B3CF5C913134&assignmentId=0198c3f5-b887-742e-85d1-51d58403f3bf&projectId=0198c3e5-90db-7030-b026-3fe33584d632","AD2BBCCD2AC04C0CB427B3CF5C913134-2025-08-19-20-20-03","","11098","","[""<span style=\""color: red; font-size: 24px\""> NOW RECORDING</span><p>Please say out loud all the images you saw, following the storyline they create. Try to recall the sequence of events as they unfolded in the story, rather than the order in which they appeared on the screen.</p>""]","","4","housework_semantic"
"","","","","","image-button-response","29","378926","0.0-27.0-0.0","AD2BBCCD2AC04C0CB427B3CF5C913134","AD2BBCCD2AC04C0CB427B3CF5C913134","0198c3f5-b887-742e-85d1-51d58403f3bf","0198c3e5-90db-7030-b026-3fe33584d632","{""num_scrambled_semantic"":""8"",""num_scrambled_causal"":""4"",""num_scrambled_schematic"":""4"",""participantId"":""AD2BBCCD2AC04C0CB427B3CF5C913134"",""assignmentId"":""0198c3f5-b887-742e-85d1-51d58403f3bf"",""projectId"":""0198c3e5-90db-7030-b026-3fe33584d632""}","https://test12345.live/?num_scrambled_semantic=8&num_scrambled_causal=4&num_scrambled_schematic=4&participantId=AD2BBCCD2AC04C0CB427B3CF5C913134&assignmentId=0198c3f5-b887-742e-85d1-51d58403f3bf&projectId=0198c3e5-90db-7030-b026-3fe33584d632","AD2BBCCD2AC04C0CB427B3CF5C913134-2025-08-19-20-20-03","","null","","images/semantic_sequence/maintaining_a_car_semantic/maintaining_a_car_semantic_0.png","null","",""
"","","","","","html-audio-response","30","397429","0.0-28.0","AD2BBCCD2AC04C0CB427B3CF5C913134","AD2BBCCD2AC04C0CB427B3CF5C913134","0198c3f5-b887-742e-85d1-51d58403f3bf","0198c3e5-90db-7030-b026-3fe33584d632","{""num_scrambled_semantic"":""8"",""num_scrambled_causal"":""4"",""num_scrambled_schematic"":""4"",""participantId"":""AD2BBCCD2AC04C0CB427B3CF5C913134"",""assignmentId"":""0198c3f5-b887-742e-85d1-51d58403f3bf"",""projectId"":""0198c3e5-90db-7030-b026-3fe33584d632""}","https://test12345.live/?num_scrambled_semantic=8&num_scrambled_causal=4&num_scrambled_schematic=4&participantId=AD2BBCCD2AC04C0CB427B3CF5C913134&assignmentId=0198c3f5-b887-742e-85d1-51d58403f3bf&projectId=0198c3e5-90db-7030-b026-3fe33584d632","AD2BBCCD2AC04C0CB427B3CF5C913134-2025-08-19-20-20-03","","17879","","[""<span style=\""color: red; font-size: 24px\""> NOW RECORDING</span><p>Please say out loud all the images you saw, following the storyline they create. Try to recall the sequence of events as they unfolded in the story, rather than the order in which they appeared on the screen.</p>""]","","8","maintaining_a_car_semantic"
"","","","","","image-button-response","31","403439","0.0-29.0-0.0","AD2BBCCD2AC04C0CB427B3CF5C913134","AD2BBCCD2AC04C0CB427B3CF5C913134","0198c3f5-b887-742e-85d1-51d58403f3bf","0198c3e5-90db-7030-b026-3fe33584d632","{""num_scrambled_semantic"":""8"",""num_scrambled_causal"":""4"",""num_scrambled_schematic"":""4"",""participantId"":""AD2BBCCD2AC04C0CB427B3CF5C913134"",""assignmentId"":""0198c3f5-b887-742e-85d1-51d58403f3bf"",""projectId"":""0198c3e5-90db-7030-b026-3fe33584d632""}","https://test12345.live/?num_scrambled_semantic=8&num_scrambled_causal=4&num_scrambled_schematic=4&participantId=AD2BBCCD2AC04C0CB427B3CF5C913134&assignmentId=0198c3f5-b887-742e-85d1-51d58403f3bf&projectId=0198c3e5-90db-7030-b026-3fe33584d632","AD2BBCCD2AC04C0CB427B3CF5C913134-2025-08-19-20-20-03","","null","","images/causal_sequence/the_performance_causal/the_performance_causal_0.png","null","",""
"","","","","","html-audio-response","32","435341","0.0-30.0","AD2BBCCD2AC04C0CB427B3CF5C913134","AD2BBCCD2AC04C0CB427B3CF5C913134","0198c3f5-b887-742e-85d1-51d58403f3bf","0198c3e5-90db-7030-b026-3fe33584d632","{""num_scrambled_semantic"":""8"",""num_scrambled_causal"":""4"",""num_scrambled_schematic"":""4"",""participantId"":""AD2BBCCD2AC04C0CB427B3CF5C913134"",""assignmentId"":""0198c3f5-b887-742e-85d1-51d58403f3bf"",""projectId"":""0198c3e5-90db-7030-b026-3fe33584d632""}","https://test12345.live/?num_scrambled_semantic=8&num_scrambled_causal=4&num_scrambled_schematic=4&participantId=AD2BBCCD2AC04C0CB427B3CF5C913134&assignmentId=0198c3f5-b887-742e-85d1-51d58403f3bf&projectId=0198c3e5-90db-7030-b026-3fe33584d632","AD2BBCCD2AC04C0CB427B3CF5C913134-2025-08-19-20-20-03","","31338","","[""<span style=\""color: red; font-size: 24px\""> NOW RECORDING</span><p>Please say out loud all the images you saw, following the storyline they create. Try to recall the sequence of events as they unfolded in the story, rather than the order in which they appeared on the screen.</p>""]","","1","the_performance_causal"
"","","","","","image-button-response","33","441355","0.0-31.0-0.0","AD2BBCCD2AC04C0CB427B3CF5C913134","AD2BBCCD2AC04C0CB427B3CF5C913134","0198c3f5-b887-742e-85d1-51d58403f3bf","0198c3e5-90db-7030-b026-3fe33584d632","{""num_scrambled_semantic"":""8"",""num_scrambled_causal"":""4"",""num_scrambled_schematic"":""4"",""participantId"":""AD2BBCCD2AC04C0CB427B3CF5C913134"",""assignmentId"":""0198c3f5-b887-742e-85d1-51d58403f3bf"",""projectId"":""0198c3e5-90db-7030-b026-3fe33584d632""}","https://test12345.live/?num_scrambled_semantic=8&num_scrambled_causal=4&num_scrambled_schematic=4&participantId=AD2BBCCD2AC04C0CB427B3CF5C913134&assignmentId=0198c3f5-b887-742e-85d1-51d58403f3bf&projectId=0198c3e5-90db-7030-b026-3fe33584d632","AD2BBCCD2AC04C0CB427B3CF5C913134-2025-08-19-20-20-03","","null","","images/causal_sequence/saving_a_cat_causal/saving_a_cat_causal_0.png","null","",""
"","","","","","html-audio-response","34","469923","0.0-32.0","AD2BBCCD2AC04C0CB427B3CF5C913134","AD2BBCCD2AC04C0CB427B3CF5C913134","0198c3f5-b887-742e-85d1-51d58403f3bf","0198c3e5-90db-7030-b026-3fe33584d632","{""num_scrambled_semantic"":""8"",""num_scrambled_causal"":""4"",""num_scrambled_schematic"":""4"",""participantId"":""AD2BBCCD2AC04C0CB427B3CF5C913134"",""assignmentId"":""0198c3f5-b887-742e-85d1-51d58403f3bf"",""projectId"":""0198c3e5-90db-7030-b026-3fe33584d632""}","https://test12345.live/?num_scrambled_semantic=8&num_scrambled_causal=4&num_scrambled_schematic=4&participantId=AD2BBCCD2AC04C0CB427B3CF5C913134&assignmentId=0198c3f5-b887-742e-85d1-51d58403f3bf&projectId=0198c3e5-90db-7030-b026-3fe33584d632","AD2BBCCD2AC04C0CB427B3CF5C913134-2025-08-19-20-20-03","","27776","","[""<span style=\""color: red; font-size: 24px\""> NOW RECORDING</span><p>Please say out loud all the images you saw, following the storyline they create. Try to recall the sequence of events as they unfolded in the story, rather than the order in which they appeared on the screen.</p>""]","","3","saving_a_cat_causal"
"","","","","","image-button-response","35","475932","0.0-33.0-0.0","AD2BBCCD2AC04C0CB427B3CF5C913134","AD2BBCCD2AC04C0CB427B3CF5C913134","0198c3f5-b887-742e-85d1-51d58403f3bf","0198c3e5-90db-7030-b026-3fe33584d632","{""num_scrambled_semantic"":""8"",""num_scrambled_causal"":""4"",""num_scrambled_schematic"":""4"",""participantId"":""AD2BBCCD2AC04C0CB427B3CF5C913134"",""assignmentId"":""0198c3f5-b887-742e-85d1-51d58403f3bf"",""projectId"":""0198c3e5-90db-7030-b026-3fe33584d632""}","https://test12345.live/?num_scrambled_semantic=8&num_scrambled_causal=4&num_scrambled_schematic=4&participantId=AD2BBCCD2AC04C0CB427B3CF5C913134&assignmentId=0198c3f5-b887-742e-85d1-51d58403f3bf&projectId=0198c3e5-90db-7030-b026-3fe33584d632","AD2BBCCD2AC04C0CB427B3CF5C913134-2025-08-19-20-20-03","","null","","images/causal_sequence/museum_causal/museum_causal_0.png","null","",""
"","","","","","html-audio-response","36","483514","0.0-34.0","AD2BBCCD2AC04C0CB427B3CF5C913134","AD2BBCCD2AC04C0CB427B3CF5C913134","0198c3f5-b887-742e-85d1-51d58403f3bf","0198c3e5-90db-7030-b026-3fe33584d632","{""num_scrambled_semantic"":""8"",""num_scrambled_causal"":""4"",""num_scrambled_schematic"":""4"",""participantId"":""AD2BBCCD2AC04C0CB427B3CF5C913134"",""assignmentId"":""0198c3f5-b887-742e-85d1-51d58403f3bf"",""projectId"":""0198c3e5-90db-7030-b026-3fe33584d632""}","https://test12345.live/?num_scrambled_semantic=8&num_scrambled_causal=4&num_scrambled_schematic=4&participantId=AD2BBCCD2AC04C0CB427B3CF5C913134&assignmentId=0198c3f5-b887-742e-85d1-51d58403f3bf&projectId=0198c3e5-90db-7030-b026-3fe33584d632","AD2BBCCD2AC04C0CB427B3CF5C913134-2025-08-19-20-20-03","","6451","","[""<span style=\""color: red; font-size: 24px\""> NOW RECORDING</span><p>Please say out loud all the images you saw, following the storyline they create. Try to recall the sequence of events as they unfolded in the story, rather than the order in which they appeared on the screen.</p>""]","","3","museum_causal"
"","","","","","survey-text","37","489208","0.0-35.0","AD2BBCCD2AC04C0CB427B3CF5C913134","AD2BBCCD2AC04C0CB427B3CF5C913134","0198c3f5-b887-742e-85d1-51d58403f3bf","0198c3e5-90db-7030-b026-3fe33584d632","{""num_scrambled_semantic"":""8"",""num_scrambled_causal"":""4"",""num_scrambled_schematic"":""4"",""participantId"":""AD2BBCCD2AC04C0CB427B3CF5C913134"",""assignmentId"":""0198c3f5-b887-742e-85d1-51d58403f3bf"",""projectId"":""0198c3e5-90db-7030-b026-3fe33584d632""}","https://test12345.live/?num_scrambled_semantic=8&num_scrambled_causal=4&num_scrambled_schematic=4&participantId=AD2BBCCD2AC04C0CB427B3CF5C913134&assignmentId=0198c3f5-b887-742e-85d1-51d58403f3bf&projectId=0198c3e5-90db-7030-b026-3fe33584d632","AD2BBCCD2AC04C0CB427B3CF5C913134-2025-08-19-20-20-03","","5685","","","{""Q0"":""female"",""Q1"":""27""}","",""
"","","","","","instructions","38","493189","0.0-36.0","AD2BBCCD2AC04C0CB427B3CF5C913134","AD2BBCCD2AC04C0CB427B3CF5C913134","0198c3f5-b887-742e-85d1-51d58403f3bf","0198c3e5-90db-7030-b026-3fe33584d632","{""num_scrambled_semantic"":""8"",""num_scrambled_causal"":""4"",""num_scrambled_schematic"":""4"",""participantId"":""AD2BBCCD2AC04C0CB427B3CF5C913134"",""assignmentId"":""0198c3f5-b887-742e-85d1-51d58403f3bf"",""projectId"":""0198c3e5-90db-7030-b026-3fe33584d632""}","https://test12345.live/?num_scrambled_semantic=8&num_scrambled_causal=4&num_scrambled_schematic=4&participantId=AD2BBCCD2AC04C0CB427B3CF5C913134&assignmentId=0198c3f5-b887-742e-85d1-51d58403f3bf&projectId=0198c3e5-90db-7030-b026-3fe33584d632","AD2BBCCD2AC04C0CB427B3CF5C913134-2025-08-19-20-20-03","[{""page_index"":0,""viewing_time"":3980}]","3980","","","","",""
"","","","","","survey-text","39","494921","0.0-37.0","AD2BBCCD2AC04C0CB427B3CF5C913134","AD2BBCCD2AC04C0CB427B3CF5C913134","0198c3f5-b887-742e-85d1-51d58403f3bf","0198c3e5-90db-7030-b026-3fe33584d632","{""num_scrambled_semantic"":""8"",""num_scrambled_causal"":""4"",""num_scrambled_schematic"":""4"",""participantId"":""AD2BBCCD2AC04C0CB427B3CF5C913134"",""assignmentId"":""0198c3f5-b887-742e-85d1-51d58403f3bf"",""projectId"":""0198c3e5-90db-7030-b026-3fe33584d632""}","https://test12345.live/?num_scrambled_semantic=8&num_scrambled_causal=4&num_scrambled_schematic=4&participantId=AD2BBCCD2AC04C0CB427B3CF5C913134&assignmentId=0198c3f5-b887-742e-85d1-51d58403f3bf&projectId=0198c3e5-90db-7030-b026-3fe33584d632","AD2BBCCD2AC04C0CB427B3CF5C913134-2025-08-19-20-20-03","","1731","","","{""Q0"":""AJFHBG896""}","",""
