"success","timeout","failed_images","failed_audio","failed_video","trial_type","trial_index","time_elapsed","internal_node_id","subject","subject_id","study_id","session_id","urlvar","current_url","audio_id","view_history","rt","device_id","stimulus","response","estimated_stimulus_onset","seq_name"
"true","false","[]","[]","[]","preload","0","14826","0.0-0.0","B2BE3CC91CF44DBE8A61406D34E9CDC8","B2BE3CC91CF44DBE8A61406D34E9CDC8","95ef7de1-2cb0-4b21-9f8a-f8d21165df6d","2dd913a0-fd4c-43f1-b4f3-f0d48537bce8","{""part"":""2"",""participantId"":""B2BE3CC91CF44DBE8A61406D34E9CDC8"",""assignmentId"":""95ef7de1-2cb0-4b21-9f8a-f8d21165df6d"",""projectId"":""2dd913a0-fd4c-43f1-b4f3-f0d48537bce8""}","https://test12345.live/?part=2&participantId=B2BE3CC91CF44DBE8A61406D34E9CDC8&assignmentId=95ef7de1-2cb0-4b21-9f8a-f8d21165df6d&projectId=2dd913a0-fd4c-43f1-b4f3-f0d48537bce8","B2BE3CC91CF44DBE8A61406D34E9CDC8-2025-05-16-01-10-50","","","","","","",""
"","","","","","instructions","1","30147","0.0-1.0","B2BE3CC91CF44DBE8A61406D34E9CDC8","B2BE3CC91CF44DBE8A61406D34E9CDC8","95ef7de1-2cb0-4b21-9f8a-f8d21165df6d","2dd913a0-fd4c-43f1-b4f3-f0d48537bce8","{""part"":""2"",""participantId"":""B2BE3CC91CF44DBE8A61406D34E9CDC8"",""assignmentId"":""95ef7de1-2cb0-4b21-9f8a-f8d21165df6d"",""projectId"":""2dd913a0-fd4c-43f1-b4f3-f0d48537bce8""}","https://test12345.live/?part=2&participantId=B2BE3CC91CF44DBE8A61406D34E9CDC8&assignmentId=95ef7de1-2cb0-4b21-9f8a-f8d21165df6d&projectId=2dd913a0-fd4c-43f1-b4f3-f0d48537bce8","B2BE3CC91CF44DBE8A61406D34E9CDC8-2025-05-16-01-10-50","[{""page_index"":0,""viewing_time"":15320}]","15320","","","","",""
"","","","","","instructions","2","37001","0.0-2.0","B2BE3CC91CF44DBE8A61406D34E9CDC8","B2BE3CC91CF44DBE8A61406D34E9CDC8","95ef7de1-2cb0-4b21-9f8a-f8d21165df6d","2dd913a0-fd4c-43f1-b4f3-f0d48537bce8","{""part"":""2"",""participantId"":""B2BE3CC91CF44DBE8A61406D34E9CDC8"",""assignmentId"":""95ef7de1-2cb0-4b21-9f8a-f8d21165df6d"",""projectId"":""2dd913a0-fd4c-43f1-b4f3-f0d48537bce8""}","https://test12345.live/?part=2&participantId=B2BE3CC91CF44DBE8A61406D34E9CDC8&assignmentId=95ef7de1-2cb0-4b21-9f8a-f8d21165df6d&projectId=2dd913a0-fd4c-43f1-b4f3-f0d48537bce8","B2BE3CC91CF44DBE8A61406D34E9CDC8-2025-05-16-01-10-50","[{""page_index"":0,""viewing_time"":6853}]","6853","","","","",""
"true","","","","","fullscreen","3","61256","0.0-3.0","B2BE3CC91CF44DBE8A61406D34E9CDC8","B2BE3CC91CF44DBE8A61406D34E9CDC8","95ef7de1-2cb0-4b21-9f8a-f8d21165df6d","2dd913a0-fd4c-43f1-b4f3-f0d48537bce8","{""part"":""2"",""participantId"":""B2BE3CC91CF44DBE8A61406D34E9CDC8"",""assignmentId"":""95ef7de1-2cb0-4b21-9f8a-f8d21165df6d"",""projectId"":""2dd913a0-fd4c-43f1-b4f3-f0d48537bce8""}","https://test12345.live/?part=2&participantId=B2BE3CC91CF44DBE8A61406D34E9CDC8&assignmentId=95ef7de1-2cb0-4b21-9f8a-f8d21165df6d&projectId=2dd913a0-fd4c-43f1-b4f3-f0d48537bce8","B2BE3CC91CF44DBE8A61406D34E9CDC8-2025-05-16-01-10-50","","23252","","","","",""
"","","","","","initialize-microphone","4","67558","0.0-4.0-0.0","B2BE3CC91CF44DBE8A61406D34E9CDC8","B2BE3CC91CF44DBE8A61406D34E9CDC8","95ef7de1-2cb0-4b21-9f8a-f8d21165df6d","2dd913a0-fd4c-43f1-b4f3-f0d48537bce8","{""part"":""2"",""participantId"":""B2BE3CC91CF44DBE8A61406D34E9CDC8"",""assignmentId"":""95ef7de1-2cb0-4b21-9f8a-f8d21165df6d"",""projectId"":""2dd913a0-fd4c-43f1-b4f3-f0d48537bce8""}","https://test12345.live/?part=2&participantId=B2BE3CC91CF44DBE8A61406D34E9CDC8&assignmentId=95ef7de1-2cb0-4b21-9f8a-f8d21165df6d&projectId=2dd913a0-fd4c-43f1-b4f3-f0d48537bce8","B2BE3CC91CF44DBE8A61406D34E9CDC8-2025-05-16-01-10-50","","","6ade1d2ec42a476449c66cb50a48e06b4e7c6c4d6399f6a6edaf9c5b986b894b","","","",""
"","","","","","html-audio-response","5","85676","0.0-4.0-1.0","B2BE3CC91CF44DBE8A61406D34E9CDC8","B2BE3CC91CF44DBE8A61406D34E9CDC8","95ef7de1-2cb0-4b21-9f8a-f8d21165df6d","2dd913a0-fd4c-43f1-b4f3-f0d48537bce8","{""part"":""2"",""participantId"":""B2BE3CC91CF44DBE8A61406D34E9CDC8"",""assignmentId"":""95ef7de1-2cb0-4b21-9f8a-f8d21165df6d"",""projectId"":""2dd913a0-fd4c-43f1-b4f3-f0d48537bce8""}","https://test12345.live/?part=2&participantId=B2BE3CC91CF44DBE8A61406D34E9CDC8&assignmentId=95ef7de1-2cb0-4b21-9f8a-f8d21165df6d&projectId=2dd913a0-fd4c-43f1-b4f3-f0d48537bce8","B2BE3CC91CF44DBE8A61406D34E9CDC8-2025-05-16-01-10-50","","8156","","<span style=""color: red; font-size: 24px""> NOW RECORDING</span>
        <p>Please test Microphone</p>","","18",""
"","","","","","html-button-response","6","88457","0.0-4.0-2.0","B2BE3CC91CF44DBE8A61406D34E9CDC8","B2BE3CC91CF44DBE8A61406D34E9CDC8","95ef7de1-2cb0-4b21-9f8a-f8d21165df6d","2dd913a0-fd4c-43f1-b4f3-f0d48537bce8","{""part"":""2"",""participantId"":""B2BE3CC91CF44DBE8A61406D34E9CDC8"",""assignmentId"":""95ef7de1-2cb0-4b21-9f8a-f8d21165df6d"",""projectId"":""2dd913a0-fd4c-43f1-b4f3-f0d48537bce8""}","https://test12345.live/?part=2&participantId=B2BE3CC91CF44DBE8A61406D34E9CDC8&assignmentId=95ef7de1-2cb0-4b21-9f8a-f8d21165df6d&projectId=2dd913a0-fd4c-43f1-b4f3-f0d48537bce8","B2BE3CC91CF44DBE8A61406D34E9CDC8-2025-05-16-01-10-50","","2779","","<p style=""font-size:48px; color:red;"">Is Microphone OK?</p>","1","",""
"","","","","","instructions","7","119856","0.0-5.0","B2BE3CC91CF44DBE8A61406D34E9CDC8","B2BE3CC91CF44DBE8A61406D34E9CDC8","95ef7de1-2cb0-4b21-9f8a-f8d21165df6d","2dd913a0-fd4c-43f1-b4f3-f0d48537bce8","{""part"":""2"",""participantId"":""B2BE3CC91CF44DBE8A61406D34E9CDC8"",""assignmentId"":""95ef7de1-2cb0-4b21-9f8a-f8d21165df6d"",""projectId"":""2dd913a0-fd4c-43f1-b4f3-f0d48537bce8""}","https://test12345.live/?part=2&participantId=B2BE3CC91CF44DBE8A61406D34E9CDC8&assignmentId=95ef7de1-2cb0-4b21-9f8a-f8d21165df6d&projectId=2dd913a0-fd4c-43f1-b4f3-f0d48537bce8","B2BE3CC91CF44DBE8A61406D34E9CDC8-2025-05-16-01-10-50","[{""page_index"":0,""viewing_time"":2139},{""page_index"":1,""viewing_time"":17593},{""page_index"":2,""viewing_time"":11666}]","31398","","","","",""
"","","","","","image-button-response","8","125858","0.0-6.0-0.0","B2BE3CC91CF44DBE8A61406D34E9CDC8","B2BE3CC91CF44DBE8A61406D34E9CDC8","95ef7de1-2cb0-4b21-9f8a-f8d21165df6d","2dd913a0-fd4c-43f1-b4f3-f0d48537bce8","{""part"":""2"",""participantId"":""B2BE3CC91CF44DBE8A61406D34E9CDC8"",""assignmentId"":""95ef7de1-2cb0-4b21-9f8a-f8d21165df6d"",""projectId"":""2dd913a0-fd4c-43f1-b4f3-f0d48537bce8""}","https://test12345.live/?part=2&participantId=B2BE3CC91CF44DBE8A61406D34E9CDC8&assignmentId=95ef7de1-2cb0-4b21-9f8a-f8d21165df6d&projectId=2dd913a0-fd4c-43f1-b4f3-f0d48537bce8","B2BE3CC91CF44DBE8A61406D34E9CDC8-2025-05-16-01-10-50","","null","","images/instructions/movie_0.png","null","",""
"","","","","","html-audio-response","9","220393","0.0-7.0","B2BE3CC91CF44DBE8A61406D34E9CDC8","B2BE3CC91CF44DBE8A61406D34E9CDC8","95ef7de1-2cb0-4b21-9f8a-f8d21165df6d","2dd913a0-fd4c-43f1-b4f3-f0d48537bce8","{""part"":""2"",""participantId"":""B2BE3CC91CF44DBE8A61406D34E9CDC8"",""assignmentId"":""95ef7de1-2cb0-4b21-9f8a-f8d21165df6d"",""projectId"":""2dd913a0-fd4c-43f1-b4f3-f0d48537bce8""}","https://test12345.live/?part=2&participantId=B2BE3CC91CF44DBE8A61406D34E9CDC8&assignmentId=95ef7de1-2cb0-4b21-9f8a-f8d21165df6d&projectId=2dd913a0-fd4c-43f1-b4f3-f0d48537bce8","B2BE3CC91CF44DBE8A61406D34E9CDC8-2025-05-16-01-10-50","","null","","[""<span style=\""color: red; font-size: 24px\""> NOW RECORDING</span><p>Please say out loud all the images you saw in part 1 of the experiment, as many as you can remember. The images can be said in any order.</p>""]","","4",""
"","","","","","instructions","10","226033","0.0-8.0","B2BE3CC91CF44DBE8A61406D34E9CDC8","B2BE3CC91CF44DBE8A61406D34E9CDC8","95ef7de1-2cb0-4b21-9f8a-f8d21165df6d","2dd913a0-fd4c-43f1-b4f3-f0d48537bce8","{""part"":""2"",""participantId"":""B2BE3CC91CF44DBE8A61406D34E9CDC8"",""assignmentId"":""95ef7de1-2cb0-4b21-9f8a-f8d21165df6d"",""projectId"":""2dd913a0-fd4c-43f1-b4f3-f0d48537bce8""}","https://test12345.live/?part=2&participantId=B2BE3CC91CF44DBE8A61406D34E9CDC8&assignmentId=95ef7de1-2cb0-4b21-9f8a-f8d21165df6d&projectId=2dd913a0-fd4c-43f1-b4f3-f0d48537bce8","B2BE3CC91CF44DBE8A61406D34E9CDC8-2025-05-16-01-10-50","[{""page_index"":0,""viewing_time"":5622}]","5622","","","","",""
"","","","","","image-button-response","11","232035","0.0-9.0-0.0","B2BE3CC91CF44DBE8A61406D34E9CDC8","B2BE3CC91CF44DBE8A61406D34E9CDC8","95ef7de1-2cb0-4b21-9f8a-f8d21165df6d","2dd913a0-fd4c-43f1-b4f3-f0d48537bce8","{""part"":""2"",""participantId"":""B2BE3CC91CF44DBE8A61406D34E9CDC8"",""assignmentId"":""95ef7de1-2cb0-4b21-9f8a-f8d21165df6d"",""projectId"":""2dd913a0-fd4c-43f1-b4f3-f0d48537bce8""}","https://test12345.live/?part=2&participantId=B2BE3CC91CF44DBE8A61406D34E9CDC8&assignmentId=95ef7de1-2cb0-4b21-9f8a-f8d21165df6d&projectId=2dd913a0-fd4c-43f1-b4f3-f0d48537bce8","B2BE3CC91CF44DBE8A61406D34E9CDC8-2025-05-16-01-10-50","","null","","images/semantic_sequence/cat_care_semantic/cat_care_semantic_0.png","null","",""
"","","","","","html-audio-response","12","267427","0.0-10.0","B2BE3CC91CF44DBE8A61406D34E9CDC8","B2BE3CC91CF44DBE8A61406D34E9CDC8","95ef7de1-2cb0-4b21-9f8a-f8d21165df6d","2dd913a0-fd4c-43f1-b4f3-f0d48537bce8","{""part"":""2"",""participantId"":""B2BE3CC91CF44DBE8A61406D34E9CDC8"",""assignmentId"":""95ef7de1-2cb0-4b21-9f8a-f8d21165df6d"",""projectId"":""2dd913a0-fd4c-43f1-b4f3-f0d48537bce8""}","https://test12345.live/?part=2&participantId=B2BE3CC91CF44DBE8A61406D34E9CDC8&assignmentId=95ef7de1-2cb0-4b21-9f8a-f8d21165df6d&projectId=2dd913a0-fd4c-43f1-b4f3-f0d48537bce8","B2BE3CC91CF44DBE8A61406D34E9CDC8-2025-05-16-01-10-50","","6741","","[""<span style=\""color: red; font-size: 24px\""> NOW RECORDING</span><p>Please say out loud all the images you saw in part 1 of the experiment, as many as you can remember. The images can be said in any order.</p>""]","","2","cat_care_semantic"
"","","","","","image-button-response","13","273432","0.0-11.0-0.0","B2BE3CC91CF44DBE8A61406D34E9CDC8","B2BE3CC91CF44DBE8A61406D34E9CDC8","95ef7de1-2cb0-4b21-9f8a-f8d21165df6d","2dd913a0-fd4c-43f1-b4f3-f0d48537bce8","{""part"":""2"",""participantId"":""B2BE3CC91CF44DBE8A61406D34E9CDC8"",""assignmentId"":""95ef7de1-2cb0-4b21-9f8a-f8d21165df6d"",""projectId"":""2dd913a0-fd4c-43f1-b4f3-f0d48537bce8""}","https://test12345.live/?part=2&participantId=B2BE3CC91CF44DBE8A61406D34E9CDC8&assignmentId=95ef7de1-2cb0-4b21-9f8a-f8d21165df6d&projectId=2dd913a0-fd4c-43f1-b4f3-f0d48537bce8","B2BE3CC91CF44DBE8A61406D34E9CDC8-2025-05-16-01-10-50","","null","","images/causal_sequence/dog_causal/dog_causal_0.png","null","",""
"","","","","","html-audio-response","14","308187","0.0-12.0","B2BE3CC91CF44DBE8A61406D34E9CDC8","B2BE3CC91CF44DBE8A61406D34E9CDC8","95ef7de1-2cb0-4b21-9f8a-f8d21165df6d","2dd913a0-fd4c-43f1-b4f3-f0d48537bce8","{""part"":""2"",""participantId"":""B2BE3CC91CF44DBE8A61406D34E9CDC8"",""assignmentId"":""95ef7de1-2cb0-4b21-9f8a-f8d21165df6d"",""projectId"":""2dd913a0-fd4c-43f1-b4f3-f0d48537bce8""}","https://test12345.live/?part=2&participantId=B2BE3CC91CF44DBE8A61406D34E9CDC8&assignmentId=95ef7de1-2cb0-4b21-9f8a-f8d21165df6d&projectId=2dd913a0-fd4c-43f1-b4f3-f0d48537bce8","B2BE3CC91CF44DBE8A61406D34E9CDC8-2025-05-16-01-10-50","","3244","","[""<span style=\""color: red; font-size: 24px\""> NOW RECORDING</span><p>Please say out loud all the images you saw in part 1 of the experiment, as many as you can remember. The images can be said in any order.</p>""]","","2","dog_causal"
"","","","","","image-button-response","15","314192","0.0-13.0-0.0","B2BE3CC91CF44DBE8A61406D34E9CDC8","B2BE3CC91CF44DBE8A61406D34E9CDC8","95ef7de1-2cb0-4b21-9f8a-f8d21165df6d","2dd913a0-fd4c-43f1-b4f3-f0d48537bce8","{""part"":""2"",""participantId"":""B2BE3CC91CF44DBE8A61406D34E9CDC8"",""assignmentId"":""95ef7de1-2cb0-4b21-9f8a-f8d21165df6d"",""projectId"":""2dd913a0-fd4c-43f1-b4f3-f0d48537bce8""}","https://test12345.live/?part=2&participantId=B2BE3CC91CF44DBE8A61406D34E9CDC8&assignmentId=95ef7de1-2cb0-4b21-9f8a-f8d21165df6d&projectId=2dd913a0-fd4c-43f1-b4f3-f0d48537bce8","B2BE3CC91CF44DBE8A61406D34E9CDC8-2025-05-16-01-10-50","","null","","images/semantic_sequence/market_semantic/market_semantic_0.png","null","",""
"","","","","","html-audio-response","16","343365","0.0-14.0","B2BE3CC91CF44DBE8A61406D34E9CDC8","B2BE3CC91CF44DBE8A61406D34E9CDC8","95ef7de1-2cb0-4b21-9f8a-f8d21165df6d","2dd913a0-fd4c-43f1-b4f3-f0d48537bce8","{""part"":""2"",""participantId"":""B2BE3CC91CF44DBE8A61406D34E9CDC8"",""assignmentId"":""95ef7de1-2cb0-4b21-9f8a-f8d21165df6d"",""projectId"":""2dd913a0-fd4c-43f1-b4f3-f0d48537bce8""}","https://test12345.live/?part=2&participantId=B2BE3CC91CF44DBE8A61406D34E9CDC8&assignmentId=95ef7de1-2cb0-4b21-9f8a-f8d21165df6d&projectId=2dd913a0-fd4c-43f1-b4f3-f0d48537bce8","B2BE3CC91CF44DBE8A61406D34E9CDC8-2025-05-16-01-10-50","","4340","","[""<span style=\""color: red; font-size: 24px\""> NOW RECORDING</span><p>Please say out loud all the images you saw in part 1 of the experiment, as many as you can remember. The images can be said in any order.</p>""]","","1","market_semantic"
"","","","","","image-button-response","17","349369","0.0-15.0-0.0","B2BE3CC91CF44DBE8A61406D34E9CDC8","B2BE3CC91CF44DBE8A61406D34E9CDC8","95ef7de1-2cb0-4b21-9f8a-f8d21165df6d","2dd913a0-fd4c-43f1-b4f3-f0d48537bce8","{""part"":""2"",""participantId"":""B2BE3CC91CF44DBE8A61406D34E9CDC8"",""assignmentId"":""95ef7de1-2cb0-4b21-9f8a-f8d21165df6d"",""projectId"":""2dd913a0-fd4c-43f1-b4f3-f0d48537bce8""}","https://test12345.live/?part=2&participantId=B2BE3CC91CF44DBE8A61406D34E9CDC8&assignmentId=95ef7de1-2cb0-4b21-9f8a-f8d21165df6d&projectId=2dd913a0-fd4c-43f1-b4f3-f0d48537bce8","B2BE3CC91CF44DBE8A61406D34E9CDC8-2025-05-16-01-10-50","","null","","images/semantic_sequence/exploring_nature_semantic/exploring_nature_semantic_0.png","null","",""
"","","","","","html-audio-response","18","380460","0.0-16.0","B2BE3CC91CF44DBE8A61406D34E9CDC8","B2BE3CC91CF44DBE8A61406D34E9CDC8","95ef7de1-2cb0-4b21-9f8a-f8d21165df6d","2dd913a0-fd4c-43f1-b4f3-f0d48537bce8","{""part"":""2"",""participantId"":""B2BE3CC91CF44DBE8A61406D34E9CDC8"",""assignmentId"":""95ef7de1-2cb0-4b21-9f8a-f8d21165df6d"",""projectId"":""2dd913a0-fd4c-43f1-b4f3-f0d48537bce8""}","https://test12345.live/?part=2&participantId=B2BE3CC91CF44DBE8A61406D34E9CDC8&assignmentId=95ef7de1-2cb0-4b21-9f8a-f8d21165df6d&projectId=2dd913a0-fd4c-43f1-b4f3-f0d48537bce8","B2BE3CC91CF44DBE8A61406D34E9CDC8-2025-05-16-01-10-50","","1676","","[""<span style=\""color: red; font-size: 24px\""> NOW RECORDING</span><p>Please say out loud all the images you saw in part 1 of the experiment, as many as you can remember. The images can be said in any order.</p>""]","","3","exploring_nature_semantic"
"","","","","","image-button-response","19","386465","0.0-17.0-0.0","B2BE3CC91CF44DBE8A61406D34E9CDC8","B2BE3CC91CF44DBE8A61406D34E9CDC8","95ef7de1-2cb0-4b21-9f8a-f8d21165df6d","2dd913a0-fd4c-43f1-b4f3-f0d48537bce8","{""part"":""2"",""participantId"":""B2BE3CC91CF44DBE8A61406D34E9CDC8"",""assignmentId"":""95ef7de1-2cb0-4b21-9f8a-f8d21165df6d"",""projectId"":""2dd913a0-fd4c-43f1-b4f3-f0d48537bce8""}","https://test12345.live/?part=2&participantId=B2BE3CC91CF44DBE8A61406D34E9CDC8&assignmentId=95ef7de1-2cb0-4b21-9f8a-f8d21165df6d&projectId=2dd913a0-fd4c-43f1-b4f3-f0d48537bce8","B2BE3CC91CF44DBE8A61406D34E9CDC8-2025-05-16-01-10-50","","null","","images/semantic_sequence/using_technology_semantic/using_technology_semantic_0.png","null","",""
"","","","","","html-audio-response","20","421888","0.0-18.0","B2BE3CC91CF44DBE8A61406D34E9CDC8","B2BE3CC91CF44DBE8A61406D34E9CDC8","95ef7de1-2cb0-4b21-9f8a-f8d21165df6d","2dd913a0-fd4c-43f1-b4f3-f0d48537bce8","{""part"":""2"",""participantId"":""B2BE3CC91CF44DBE8A61406D34E9CDC8"",""assignmentId"":""95ef7de1-2cb0-4b21-9f8a-f8d21165df6d"",""projectId"":""2dd913a0-fd4c-43f1-b4f3-f0d48537bce8""}","https://test12345.live/?part=2&participantId=B2BE3CC91CF44DBE8A61406D34E9CDC8&assignmentId=95ef7de1-2cb0-4b21-9f8a-f8d21165df6d&projectId=2dd913a0-fd4c-43f1-b4f3-f0d48537bce8","B2BE3CC91CF44DBE8A61406D34E9CDC8-2025-05-16-01-10-50","","1247","","[""<span style=\""color: red; font-size: 24px\""> NOW RECORDING</span><p>Please say out loud all the images you saw in part 1 of the experiment, as many as you can remember. The images can be said in any order.</p>""]","","8","using_technology_semantic"
"","","","","","image-button-response","21","427892","0.0-19.0-0.0","B2BE3CC91CF44DBE8A61406D34E9CDC8","B2BE3CC91CF44DBE8A61406D34E9CDC8","95ef7de1-2cb0-4b21-9f8a-f8d21165df6d","2dd913a0-fd4c-43f1-b4f3-f0d48537bce8","{""part"":""2"",""participantId"":""B2BE3CC91CF44DBE8A61406D34E9CDC8"",""assignmentId"":""95ef7de1-2cb0-4b21-9f8a-f8d21165df6d"",""projectId"":""2dd913a0-fd4c-43f1-b4f3-f0d48537bce8""}","https://test12345.live/?part=2&participantId=B2BE3CC91CF44DBE8A61406D34E9CDC8&assignmentId=95ef7de1-2cb0-4b21-9f8a-f8d21165df6d&projectId=2dd913a0-fd4c-43f1-b4f3-f0d48537bce8","B2BE3CC91CF44DBE8A61406D34E9CDC8-2025-05-16-01-10-50","","null","","images/schematic_sequence/flight_scheme/flight_scheme_0.png","null","",""
"","","","","","html-audio-response","22","453793","0.0-20.0","B2BE3CC91CF44DBE8A61406D34E9CDC8","B2BE3CC91CF44DBE8A61406D34E9CDC8","95ef7de1-2cb0-4b21-9f8a-f8d21165df6d","2dd913a0-fd4c-43f1-b4f3-f0d48537bce8","{""part"":""2"",""participantId"":""B2BE3CC91CF44DBE8A61406D34E9CDC8"",""assignmentId"":""95ef7de1-2cb0-4b21-9f8a-f8d21165df6d"",""projectId"":""2dd913a0-fd4c-43f1-b4f3-f0d48537bce8""}","https://test12345.live/?part=2&participantId=B2BE3CC91CF44DBE8A61406D34E9CDC8&assignmentId=95ef7de1-2cb0-4b21-9f8a-f8d21165df6d&projectId=2dd913a0-fd4c-43f1-b4f3-f0d48537bce8","B2BE3CC91CF44DBE8A61406D34E9CDC8-2025-05-16-01-10-50","","938","","[""<span style=\""color: red; font-size: 24px\""> NOW RECORDING</span><p>Please say out loud all the images you saw in part 1 of the experiment, as many as you can remember. The images can be said in any order.</p>""]","","1","flight_scheme"
"","","","","","image-button-response","23","459797","0.0-21.0-0.0","B2BE3CC91CF44DBE8A61406D34E9CDC8","B2BE3CC91CF44DBE8A61406D34E9CDC8","95ef7de1-2cb0-4b21-9f8a-f8d21165df6d","2dd913a0-fd4c-43f1-b4f3-f0d48537bce8","{""part"":""2"",""participantId"":""B2BE3CC91CF44DBE8A61406D34E9CDC8"",""assignmentId"":""95ef7de1-2cb0-4b21-9f8a-f8d21165df6d"",""projectId"":""2dd913a0-fd4c-43f1-b4f3-f0d48537bce8""}","https://test12345.live/?part=2&participantId=B2BE3CC91CF44DBE8A61406D34E9CDC8&assignmentId=95ef7de1-2cb0-4b21-9f8a-f8d21165df6d&projectId=2dd913a0-fd4c-43f1-b4f3-f0d48537bce8","B2BE3CC91CF44DBE8A61406D34E9CDC8-2025-05-16-01-10-50","","null","","images/causal_sequence/museum_causal/museum_causal_0.png","null","",""
"","","","","","html-audio-response","24","491228","0.0-22.0","B2BE3CC91CF44DBE8A61406D34E9CDC8","B2BE3CC91CF44DBE8A61406D34E9CDC8","95ef7de1-2cb0-4b21-9f8a-f8d21165df6d","2dd913a0-fd4c-43f1-b4f3-f0d48537bce8","{""part"":""2"",""participantId"":""B2BE3CC91CF44DBE8A61406D34E9CDC8"",""assignmentId"":""95ef7de1-2cb0-4b21-9f8a-f8d21165df6d"",""projectId"":""2dd913a0-fd4c-43f1-b4f3-f0d48537bce8""}","https://test12345.live/?part=2&participantId=B2BE3CC91CF44DBE8A61406D34E9CDC8&assignmentId=95ef7de1-2cb0-4b21-9f8a-f8d21165df6d&projectId=2dd913a0-fd4c-43f1-b4f3-f0d48537bce8","B2BE3CC91CF44DBE8A61406D34E9CDC8-2025-05-16-01-10-50","","1565","","[""<span style=\""color: red; font-size: 24px\""> NOW RECORDING</span><p>Please say out loud all the images you saw in part 1 of the experiment, as many as you can remember. The images can be said in any order.</p>""]","","12","museum_causal"
"","","","","","image-button-response","25","497230","0.0-23.0-0.0","B2BE3CC91CF44DBE8A61406D34E9CDC8","B2BE3CC91CF44DBE8A61406D34E9CDC8","95ef7de1-2cb0-4b21-9f8a-f8d21165df6d","2dd913a0-fd4c-43f1-b4f3-f0d48537bce8","{""part"":""2"",""participantId"":""B2BE3CC91CF44DBE8A61406D34E9CDC8"",""assignmentId"":""95ef7de1-2cb0-4b21-9f8a-f8d21165df6d"",""projectId"":""2dd913a0-fd4c-43f1-b4f3-f0d48537bce8""}","https://test12345.live/?part=2&participantId=B2BE3CC91CF44DBE8A61406D34E9CDC8&assignmentId=95ef7de1-2cb0-4b21-9f8a-f8d21165df6d&projectId=2dd913a0-fd4c-43f1-b4f3-f0d48537bce8","B2BE3CC91CF44DBE8A61406D34E9CDC8-2025-05-16-01-10-50","","null","","images/causal_sequence/coin_causal/coin_causal_0.png","null","",""
"","","","","","html-audio-response","26","536862","0.0-24.0","B2BE3CC91CF44DBE8A61406D34E9CDC8","B2BE3CC91CF44DBE8A61406D34E9CDC8","95ef7de1-2cb0-4b21-9f8a-f8d21165df6d","2dd913a0-fd4c-43f1-b4f3-f0d48537bce8","{""part"":""2"",""participantId"":""B2BE3CC91CF44DBE8A61406D34E9CDC8"",""assignmentId"":""95ef7de1-2cb0-4b21-9f8a-f8d21165df6d"",""projectId"":""2dd913a0-fd4c-43f1-b4f3-f0d48537bce8""}","https://test12345.live/?part=2&participantId=B2BE3CC91CF44DBE8A61406D34E9CDC8&assignmentId=95ef7de1-2cb0-4b21-9f8a-f8d21165df6d&projectId=2dd913a0-fd4c-43f1-b4f3-f0d48537bce8","B2BE3CC91CF44DBE8A61406D34E9CDC8-2025-05-16-01-10-50","","1167","","[""<span style=\""color: red; font-size: 24px\""> NOW RECORDING</span><p>Please say out loud all the images you saw in part 1 of the experiment, as many as you can remember. The images can be said in any order.</p>""]","","8","coin_causal"
"","","","","","image-button-response","27","542866","0.0-25.0-0.0","B2BE3CC91CF44DBE8A61406D34E9CDC8","B2BE3CC91CF44DBE8A61406D34E9CDC8","95ef7de1-2cb0-4b21-9f8a-f8d21165df6d","2dd913a0-fd4c-43f1-b4f3-f0d48537bce8","{""part"":""2"",""participantId"":""B2BE3CC91CF44DBE8A61406D34E9CDC8"",""assignmentId"":""95ef7de1-2cb0-4b21-9f8a-f8d21165df6d"",""projectId"":""2dd913a0-fd4c-43f1-b4f3-f0d48537bce8""}","https://test12345.live/?part=2&participantId=B2BE3CC91CF44DBE8A61406D34E9CDC8&assignmentId=95ef7de1-2cb0-4b21-9f8a-f8d21165df6d&projectId=2dd913a0-fd4c-43f1-b4f3-f0d48537bce8","B2BE3CC91CF44DBE8A61406D34E9CDC8-2025-05-16-01-10-50","","null","","images/semantic_sequence/maintaining_a_car_semantic/maintaining_a_car_semantic_0.png","null","",""
"","","","","","html-audio-response","28","582703","0.0-26.0","B2BE3CC91CF44DBE8A61406D34E9CDC8","B2BE3CC91CF44DBE8A61406D34E9CDC8","95ef7de1-2cb0-4b21-9f8a-f8d21165df6d","2dd913a0-fd4c-43f1-b4f3-f0d48537bce8","{""part"":""2"",""participantId"":""B2BE3CC91CF44DBE8A61406D34E9CDC8"",""assignmentId"":""95ef7de1-2cb0-4b21-9f8a-f8d21165df6d"",""projectId"":""2dd913a0-fd4c-43f1-b4f3-f0d48537bce8""}","https://test12345.live/?part=2&participantId=B2BE3CC91CF44DBE8A61406D34E9CDC8&assignmentId=95ef7de1-2cb0-4b21-9f8a-f8d21165df6d&projectId=2dd913a0-fd4c-43f1-b4f3-f0d48537bce8","B2BE3CC91CF44DBE8A61406D34E9CDC8-2025-05-16-01-10-50","","2178","","[""<span style=\""color: red; font-size: 24px\""> NOW RECORDING</span><p>Please say out loud all the images you saw in part 1 of the experiment, as many as you can remember. The images can be said in any order.</p>""]","","6","maintaining_a_car_semantic"
"","","","","","image-button-response","29","588706","0.0-27.0-0.0","B2BE3CC91CF44DBE8A61406D34E9CDC8","B2BE3CC91CF44DBE8A61406D34E9CDC8","95ef7de1-2cb0-4b21-9f8a-f8d21165df6d","2dd913a0-fd4c-43f1-b4f3-f0d48537bce8","{""part"":""2"",""participantId"":""B2BE3CC91CF44DBE8A61406D34E9CDC8"",""assignmentId"":""95ef7de1-2cb0-4b21-9f8a-f8d21165df6d"",""projectId"":""2dd913a0-fd4c-43f1-b4f3-f0d48537bce8""}","https://test12345.live/?part=2&participantId=B2BE3CC91CF44DBE8A61406D34E9CDC8&assignmentId=95ef7de1-2cb0-4b21-9f8a-f8d21165df6d&projectId=2dd913a0-fd4c-43f1-b4f3-f0d48537bce8","B2BE3CC91CF44DBE8A61406D34E9CDC8-2025-05-16-01-10-50","","null","","images/causal_sequence/the_performance_causal/the_performance_causal_0.png","null","",""
"","","","","","html-audio-response","30","627942","0.0-28.0","B2BE3CC91CF44DBE8A61406D34E9CDC8","B2BE3CC91CF44DBE8A61406D34E9CDC8","95ef7de1-2cb0-4b21-9f8a-f8d21165df6d","2dd913a0-fd4c-43f1-b4f3-f0d48537bce8","{""part"":""2"",""participantId"":""B2BE3CC91CF44DBE8A61406D34E9CDC8"",""assignmentId"":""95ef7de1-2cb0-4b21-9f8a-f8d21165df6d"",""projectId"":""2dd913a0-fd4c-43f1-b4f3-f0d48537bce8""}","https://test12345.live/?part=2&participantId=B2BE3CC91CF44DBE8A61406D34E9CDC8&assignmentId=95ef7de1-2cb0-4b21-9f8a-f8d21165df6d&projectId=2dd913a0-fd4c-43f1-b4f3-f0d48537bce8","B2BE3CC91CF44DBE8A61406D34E9CDC8-2025-05-16-01-10-50","","1177","","[""<span style=\""color: red; font-size: 24px\""> NOW RECORDING</span><p>Please say out loud all the images you saw in part 1 of the experiment, as many as you can remember. The images can be said in any order.</p>""]","","2","the_performance_causal"
"","","","","","image-button-response","31","633946","0.0-29.0-0.0","B2BE3CC91CF44DBE8A61406D34E9CDC8","B2BE3CC91CF44DBE8A61406D34E9CDC8","95ef7de1-2cb0-4b21-9f8a-f8d21165df6d","2dd913a0-fd4c-43f1-b4f3-f0d48537bce8","{""part"":""2"",""participantId"":""B2BE3CC91CF44DBE8A61406D34E9CDC8"",""assignmentId"":""95ef7de1-2cb0-4b21-9f8a-f8d21165df6d"",""projectId"":""2dd913a0-fd4c-43f1-b4f3-f0d48537bce8""}","https://test12345.live/?part=2&participantId=B2BE3CC91CF44DBE8A61406D34E9CDC8&assignmentId=95ef7de1-2cb0-4b21-9f8a-f8d21165df6d&projectId=2dd913a0-fd4c-43f1-b4f3-f0d48537bce8","B2BE3CC91CF44DBE8A61406D34E9CDC8-2025-05-16-01-10-50","","null","","images/schematic_sequence/restaurant_scheme/restaurant_scheme_0.png","null","",""
"","","","","","html-audio-response","32","666711","0.0-30.0","B2BE3CC91CF44DBE8A61406D34E9CDC8","B2BE3CC91CF44DBE8A61406D34E9CDC8","95ef7de1-2cb0-4b21-9f8a-f8d21165df6d","2dd913a0-fd4c-43f1-b4f3-f0d48537bce8","{""part"":""2"",""participantId"":""B2BE3CC91CF44DBE8A61406D34E9CDC8"",""assignmentId"":""95ef7de1-2cb0-4b21-9f8a-f8d21165df6d"",""projectId"":""2dd913a0-fd4c-43f1-b4f3-f0d48537bce8""}","https://test12345.live/?part=2&participantId=B2BE3CC91CF44DBE8A61406D34E9CDC8&assignmentId=95ef7de1-2cb0-4b21-9f8a-f8d21165df6d&projectId=2dd913a0-fd4c-43f1-b4f3-f0d48537bce8","B2BE3CC91CF44DBE8A61406D34E9CDC8-2025-05-16-01-10-50","","3637","","[""<span style=\""color: red; font-size: 24px\""> NOW RECORDING</span><p>Please say out loud all the images you saw in part 1 of the experiment, as many as you can remember. The images can be said in any order.</p>""]","","2","restaurant_scheme"
"","","","","","image-button-response","33","672714","0.0-31.0-0.0","B2BE3CC91CF44DBE8A61406D34E9CDC8","B2BE3CC91CF44DBE8A61406D34E9CDC8","95ef7de1-2cb0-4b21-9f8a-f8d21165df6d","2dd913a0-fd4c-43f1-b4f3-f0d48537bce8","{""part"":""2"",""participantId"":""B2BE3CC91CF44DBE8A61406D34E9CDC8"",""assignmentId"":""95ef7de1-2cb0-4b21-9f8a-f8d21165df6d"",""projectId"":""2dd913a0-fd4c-43f1-b4f3-f0d48537bce8""}","https://test12345.live/?part=2&participantId=B2BE3CC91CF44DBE8A61406D34E9CDC8&assignmentId=95ef7de1-2cb0-4b21-9f8a-f8d21165df6d&projectId=2dd913a0-fd4c-43f1-b4f3-f0d48537bce8","B2BE3CC91CF44DBE8A61406D34E9CDC8-2025-05-16-01-10-50","","null","","images/semantic_sequence/redecorating_semantic/redecorating_semantic_0.png","null","",""
"","","","","","html-audio-response","34","692326","0.0-32.0","B2BE3CC91CF44DBE8A61406D34E9CDC8","B2BE3CC91CF44DBE8A61406D34E9CDC8","95ef7de1-2cb0-4b21-9f8a-f8d21165df6d","2dd913a0-fd4c-43f1-b4f3-f0d48537bce8","{""part"":""2"",""participantId"":""B2BE3CC91CF44DBE8A61406D34E9CDC8"",""assignmentId"":""95ef7de1-2cb0-4b21-9f8a-f8d21165df6d"",""projectId"":""2dd913a0-fd4c-43f1-b4f3-f0d48537bce8""}","https://test12345.live/?part=2&participantId=B2BE3CC91CF44DBE8A61406D34E9CDC8&assignmentId=95ef7de1-2cb0-4b21-9f8a-f8d21165df6d&projectId=2dd913a0-fd4c-43f1-b4f3-f0d48537bce8","B2BE3CC91CF44DBE8A61406D34E9CDC8-2025-05-16-01-10-50","","1077","","[""<span style=\""color: red; font-size: 24px\""> NOW RECORDING</span><p>Please say out loud all the images you saw in part 1 of the experiment, as many as you can remember. The images can be said in any order.</p>""]","","2","redecorating_semantic"
"","","","","","image-button-response","35","698331","0.0-33.0-0.0","B2BE3CC91CF44DBE8A61406D34E9CDC8","B2BE3CC91CF44DBE8A61406D34E9CDC8","95ef7de1-2cb0-4b21-9f8a-f8d21165df6d","2dd913a0-fd4c-43f1-b4f3-f0d48537bce8","{""part"":""2"",""participantId"":""B2BE3CC91CF44DBE8A61406D34E9CDC8"",""assignmentId"":""95ef7de1-2cb0-4b21-9f8a-f8d21165df6d"",""projectId"":""2dd913a0-fd4c-43f1-b4f3-f0d48537bce8""}","https://test12345.live/?part=2&participantId=B2BE3CC91CF44DBE8A61406D34E9CDC8&assignmentId=95ef7de1-2cb0-4b21-9f8a-f8d21165df6d&projectId=2dd913a0-fd4c-43f1-b4f3-f0d48537bce8","B2BE3CC91CF44DBE8A61406D34E9CDC8-2025-05-16-01-10-50","","null","","images/semantic_sequence/creative_activities_semantic/creative_activities_semantic_0.png","null","",""
"","","","","","html-audio-response","36","719426","0.0-34.0","B2BE3CC91CF44DBE8A61406D34E9CDC8","B2BE3CC91CF44DBE8A61406D34E9CDC8","95ef7de1-2cb0-4b21-9f8a-f8d21165df6d","2dd913a0-fd4c-43f1-b4f3-f0d48537bce8","{""part"":""2"",""participantId"":""B2BE3CC91CF44DBE8A61406D34E9CDC8"",""assignmentId"":""95ef7de1-2cb0-4b21-9f8a-f8d21165df6d"",""projectId"":""2dd913a0-fd4c-43f1-b4f3-f0d48537bce8""}","https://test12345.live/?part=2&participantId=B2BE3CC91CF44DBE8A61406D34E9CDC8&assignmentId=95ef7de1-2cb0-4b21-9f8a-f8d21165df6d&projectId=2dd913a0-fd4c-43f1-b4f3-f0d48537bce8","B2BE3CC91CF44DBE8A61406D34E9CDC8-2025-05-16-01-10-50","","1704","","[""<span style=\""color: red; font-size: 24px\""> NOW RECORDING</span><p>Please say out loud all the images you saw in part 1 of the experiment, as many as you can remember. The images can be said in any order.</p>""]","","2","creative_activities_semantic"
"","","","","","image-button-response","37","725433","0.0-35.0-0.0","B2BE3CC91CF44DBE8A61406D34E9CDC8","B2BE3CC91CF44DBE8A61406D34E9CDC8","95ef7de1-2cb0-4b21-9f8a-f8d21165df6d","2dd913a0-fd4c-43f1-b4f3-f0d48537bce8","{""part"":""2"",""participantId"":""B2BE3CC91CF44DBE8A61406D34E9CDC8"",""assignmentId"":""95ef7de1-2cb0-4b21-9f8a-f8d21165df6d"",""projectId"":""2dd913a0-fd4c-43f1-b4f3-f0d48537bce8""}","https://test12345.live/?part=2&participantId=B2BE3CC91CF44DBE8A61406D34E9CDC8&assignmentId=95ef7de1-2cb0-4b21-9f8a-f8d21165df6d&projectId=2dd913a0-fd4c-43f1-b4f3-f0d48537bce8","B2BE3CC91CF44DBE8A61406D34E9CDC8-2025-05-16-01-10-50","","null","","images/semantic_sequence/kitchen_operations_semantic/kitchen_operations_semantic_0.png","null","",""
"","","","","","html-audio-response","38","750787","0.0-36.0","B2BE3CC91CF44DBE8A61406D34E9CDC8","B2BE3CC91CF44DBE8A61406D34E9CDC8","95ef7de1-2cb0-4b21-9f8a-f8d21165df6d","2dd913a0-fd4c-43f1-b4f3-f0d48537bce8","{""part"":""2"",""participantId"":""B2BE3CC91CF44DBE8A61406D34E9CDC8"",""assignmentId"":""95ef7de1-2cb0-4b21-9f8a-f8d21165df6d"",""projectId"":""2dd913a0-fd4c-43f1-b4f3-f0d48537bce8""}","https://test12345.live/?part=2&participantId=B2BE3CC91CF44DBE8A61406D34E9CDC8&assignmentId=95ef7de1-2cb0-4b21-9f8a-f8d21165df6d&projectId=2dd913a0-fd4c-43f1-b4f3-f0d48537bce8","B2BE3CC91CF44DBE8A61406D34E9CDC8-2025-05-16-01-10-50","","931","","[""<span style=\""color: red; font-size: 24px\""> NOW RECORDING</span><p>Please say out loud all the images you saw in part 1 of the experiment, as many as you can remember. The images can be said in any order.</p>""]","","13","kitchen_operations_semantic"
"","","","","","image-button-response","39","756790","0.0-37.0-0.0","B2BE3CC91CF44DBE8A61406D34E9CDC8","B2BE3CC91CF44DBE8A61406D34E9CDC8","95ef7de1-2cb0-4b21-9f8a-f8d21165df6d","2dd913a0-fd4c-43f1-b4f3-f0d48537bce8","{""part"":""2"",""participantId"":""B2BE3CC91CF44DBE8A61406D34E9CDC8"",""assignmentId"":""95ef7de1-2cb0-4b21-9f8a-f8d21165df6d"",""projectId"":""2dd913a0-fd4c-43f1-b4f3-f0d48537bce8""}","https://test12345.live/?part=2&participantId=B2BE3CC91CF44DBE8A61406D34E9CDC8&assignmentId=95ef7de1-2cb0-4b21-9f8a-f8d21165df6d&projectId=2dd913a0-fd4c-43f1-b4f3-f0d48537bce8","B2BE3CC91CF44DBE8A61406D34E9CDC8-2025-05-16-01-10-50","","null","","images/semantic_sequence/self_care_activities_semantic/self_care_activities_semantic_0.png","null","",""
"","","","","","html-audio-response","40","781534","0.0-38.0","B2BE3CC91CF44DBE8A61406D34E9CDC8","B2BE3CC91CF44DBE8A61406D34E9CDC8","95ef7de1-2cb0-4b21-9f8a-f8d21165df6d","2dd913a0-fd4c-43f1-b4f3-f0d48537bce8","{""part"":""2"",""participantId"":""B2BE3CC91CF44DBE8A61406D34E9CDC8"",""assignmentId"":""95ef7de1-2cb0-4b21-9f8a-f8d21165df6d"",""projectId"":""2dd913a0-fd4c-43f1-b4f3-f0d48537bce8""}","https://test12345.live/?part=2&participantId=B2BE3CC91CF44DBE8A61406D34E9CDC8&assignmentId=95ef7de1-2cb0-4b21-9f8a-f8d21165df6d&projectId=2dd913a0-fd4c-43f1-b4f3-f0d48537bce8","B2BE3CC91CF44DBE8A61406D34E9CDC8-2025-05-16-01-10-50","","1271","","[""<span style=\""color: red; font-size: 24px\""> NOW RECORDING</span><p>Please say out loud all the images you saw in part 1 of the experiment, as many as you can remember. The images can be said in any order.</p>""]","","2","self_care_activities_semantic"
"","","","","","image-button-response","41","787537","0.0-39.0-0.0","B2BE3CC91CF44DBE8A61406D34E9CDC8","B2BE3CC91CF44DBE8A61406D34E9CDC8","95ef7de1-2cb0-4b21-9f8a-f8d21165df6d","2dd913a0-fd4c-43f1-b4f3-f0d48537bce8","{""part"":""2"",""participantId"":""B2BE3CC91CF44DBE8A61406D34E9CDC8"",""assignmentId"":""95ef7de1-2cb0-4b21-9f8a-f8d21165df6d"",""projectId"":""2dd913a0-fd4c-43f1-b4f3-f0d48537bce8""}","https://test12345.live/?part=2&participantId=B2BE3CC91CF44DBE8A61406D34E9CDC8&assignmentId=95ef7de1-2cb0-4b21-9f8a-f8d21165df6d&projectId=2dd913a0-fd4c-43f1-b4f3-f0d48537bce8","B2BE3CC91CF44DBE8A61406D34E9CDC8-2025-05-16-01-10-50","","null","","images/semantic_sequence/visiting_cities_semantic/visiting_cities_semantic_0.png","null","",""
"","","","","","html-audio-response","42","813002","0.0-40.0","B2BE3CC91CF44DBE8A61406D34E9CDC8","B2BE3CC91CF44DBE8A61406D34E9CDC8","95ef7de1-2cb0-4b21-9f8a-f8d21165df6d","2dd913a0-fd4c-43f1-b4f3-f0d48537bce8","{""part"":""2"",""participantId"":""B2BE3CC91CF44DBE8A61406D34E9CDC8"",""assignmentId"":""95ef7de1-2cb0-4b21-9f8a-f8d21165df6d"",""projectId"":""2dd913a0-fd4c-43f1-b4f3-f0d48537bce8""}","https://test12345.live/?part=2&participantId=B2BE3CC91CF44DBE8A61406D34E9CDC8&assignmentId=95ef7de1-2cb0-4b21-9f8a-f8d21165df6d&projectId=2dd913a0-fd4c-43f1-b4f3-f0d48537bce8","B2BE3CC91CF44DBE8A61406D34E9CDC8-2025-05-16-01-10-50","","992","","[""<span style=\""color: red; font-size: 24px\""> NOW RECORDING</span><p>Please say out loud all the images you saw in part 1 of the experiment, as many as you can remember. The images can be said in any order.</p>""]","","1","visiting_cities_semantic"
"","","","","","image-button-response","43","819006","0.0-41.0-0.0","B2BE3CC91CF44DBE8A61406D34E9CDC8","B2BE3CC91CF44DBE8A61406D34E9CDC8","95ef7de1-2cb0-4b21-9f8a-f8d21165df6d","2dd913a0-fd4c-43f1-b4f3-f0d48537bce8","{""part"":""2"",""participantId"":""B2BE3CC91CF44DBE8A61406D34E9CDC8"",""assignmentId"":""95ef7de1-2cb0-4b21-9f8a-f8d21165df6d"",""projectId"":""2dd913a0-fd4c-43f1-b4f3-f0d48537bce8""}","https://test12345.live/?part=2&participantId=B2BE3CC91CF44DBE8A61406D34E9CDC8&assignmentId=95ef7de1-2cb0-4b21-9f8a-f8d21165df6d&projectId=2dd913a0-fd4c-43f1-b4f3-f0d48537bce8","B2BE3CC91CF44DBE8A61406D34E9CDC8-2025-05-16-01-10-50","","null","","images/causal_sequence/package_causal/package_causal_0.png","null","",""
"","","","","","html-audio-response","44","852639","0.0-42.0","B2BE3CC91CF44DBE8A61406D34E9CDC8","B2BE3CC91CF44DBE8A61406D34E9CDC8","95ef7de1-2cb0-4b21-9f8a-f8d21165df6d","2dd913a0-fd4c-43f1-b4f3-f0d48537bce8","{""part"":""2"",""participantId"":""B2BE3CC91CF44DBE8A61406D34E9CDC8"",""assignmentId"":""95ef7de1-2cb0-4b21-9f8a-f8d21165df6d"",""projectId"":""2dd913a0-fd4c-43f1-b4f3-f0d48537bce8""}","https://test12345.live/?part=2&participantId=B2BE3CC91CF44DBE8A61406D34E9CDC8&assignmentId=95ef7de1-2cb0-4b21-9f8a-f8d21165df6d&projectId=2dd913a0-fd4c-43f1-b4f3-f0d48537bce8","B2BE3CC91CF44DBE8A61406D34E9CDC8-2025-05-16-01-10-50","","1666","","[""<span style=\""color: red; font-size: 24px\""> NOW RECORDING</span><p>Please say out loud all the images you saw in part 1 of the experiment, as many as you can remember. The images can be said in any order.</p>""]","","2","package_causal"
"","","","","","image-button-response","45","858642","0.0-43.0-0.0","B2BE3CC91CF44DBE8A61406D34E9CDC8","B2BE3CC91CF44DBE8A61406D34E9CDC8","95ef7de1-2cb0-4b21-9f8a-f8d21165df6d","2dd913a0-fd4c-43f1-b4f3-f0d48537bce8","{""part"":""2"",""participantId"":""B2BE3CC91CF44DBE8A61406D34E9CDC8"",""assignmentId"":""95ef7de1-2cb0-4b21-9f8a-f8d21165df6d"",""projectId"":""2dd913a0-fd4c-43f1-b4f3-f0d48537bce8""}","https://test12345.live/?part=2&participantId=B2BE3CC91CF44DBE8A61406D34E9CDC8&assignmentId=95ef7de1-2cb0-4b21-9f8a-f8d21165df6d&projectId=2dd913a0-fd4c-43f1-b4f3-f0d48537bce8","B2BE3CC91CF44DBE8A61406D34E9CDC8-2025-05-16-01-10-50","","null","","images/schematic_sequence/interview_scheme/interview_scheme_0.png","null","",""
"","","","","","html-audio-response","46","886606","0.0-44.0","B2BE3CC91CF44DBE8A61406D34E9CDC8","B2BE3CC91CF44DBE8A61406D34E9CDC8","95ef7de1-2cb0-4b21-9f8a-f8d21165df6d","2dd913a0-fd4c-43f1-b4f3-f0d48537bce8","{""part"":""2"",""participantId"":""B2BE3CC91CF44DBE8A61406D34E9CDC8"",""assignmentId"":""95ef7de1-2cb0-4b21-9f8a-f8d21165df6d"",""projectId"":""2dd913a0-fd4c-43f1-b4f3-f0d48537bce8""}","https://test12345.live/?part=2&participantId=B2BE3CC91CF44DBE8A61406D34E9CDC8&assignmentId=95ef7de1-2cb0-4b21-9f8a-f8d21165df6d&projectId=2dd913a0-fd4c-43f1-b4f3-f0d48537bce8","B2BE3CC91CF44DBE8A61406D34E9CDC8-2025-05-16-01-10-50","","1260","","[""<span style=\""color: red; font-size: 24px\""> NOW RECORDING</span><p>Please say out loud all the images you saw in part 1 of the experiment, as many as you can remember. The images can be said in any order.</p>""]","","1","interview_scheme"
"","","","","","image-button-response","47","892609","0.0-45.0-0.0","B2BE3CC91CF44DBE8A61406D34E9CDC8","B2BE3CC91CF44DBE8A61406D34E9CDC8","95ef7de1-2cb0-4b21-9f8a-f8d21165df6d","2dd913a0-fd4c-43f1-b4f3-f0d48537bce8","{""part"":""2"",""participantId"":""B2BE3CC91CF44DBE8A61406D34E9CDC8"",""assignmentId"":""95ef7de1-2cb0-4b21-9f8a-f8d21165df6d"",""projectId"":""2dd913a0-fd4c-43f1-b4f3-f0d48537bce8""}","https://test12345.live/?part=2&participantId=B2BE3CC91CF44DBE8A61406D34E9CDC8&assignmentId=95ef7de1-2cb0-4b21-9f8a-f8d21165df6d&projectId=2dd913a0-fd4c-43f1-b4f3-f0d48537bce8","B2BE3CC91CF44DBE8A61406D34E9CDC8-2025-05-16-01-10-50","","null","","images/schematic_sequence/supermarket_scheme/supermarket_scheme_0.png","null","",""
"","","","","","html-audio-response","48","921824","0.0-46.0","B2BE3CC91CF44DBE8A61406D34E9CDC8","B2BE3CC91CF44DBE8A61406D34E9CDC8","95ef7de1-2cb0-4b21-9f8a-f8d21165df6d","2dd913a0-fd4c-43f1-b4f3-f0d48537bce8","{""part"":""2"",""participantId"":""B2BE3CC91CF44DBE8A61406D34E9CDC8"",""assignmentId"":""95ef7de1-2cb0-4b21-9f8a-f8d21165df6d"",""projectId"":""2dd913a0-fd4c-43f1-b4f3-f0d48537bce8""}","https://test12345.live/?part=2&participantId=B2BE3CC91CF44DBE8A61406D34E9CDC8&assignmentId=95ef7de1-2cb0-4b21-9f8a-f8d21165df6d&projectId=2dd913a0-fd4c-43f1-b4f3-f0d48537bce8","B2BE3CC91CF44DBE8A61406D34E9CDC8-2025-05-16-01-10-50","","1650","","[""<span style=\""color: red; font-size: 24px\""> NOW RECORDING</span><p>Please say out loud all the images you saw in part 1 of the experiment, as many as you can remember. The images can be said in any order.</p>""]","","2","supermarket_scheme"
"","","","","","image-button-response","49","927827","0.0-47.0-0.0","B2BE3CC91CF44DBE8A61406D34E9CDC8","B2BE3CC91CF44DBE8A61406D34E9CDC8","95ef7de1-2cb0-4b21-9f8a-f8d21165df6d","2dd913a0-fd4c-43f1-b4f3-f0d48537bce8","{""part"":""2"",""participantId"":""B2BE3CC91CF44DBE8A61406D34E9CDC8"",""assignmentId"":""95ef7de1-2cb0-4b21-9f8a-f8d21165df6d"",""projectId"":""2dd913a0-fd4c-43f1-b4f3-f0d48537bce8""}","https://test12345.live/?part=2&participantId=B2BE3CC91CF44DBE8A61406D34E9CDC8&assignmentId=95ef7de1-2cb0-4b21-9f8a-f8d21165df6d&projectId=2dd913a0-fd4c-43f1-b4f3-f0d48537bce8","B2BE3CC91CF44DBE8A61406D34E9CDC8-2025-05-16-01-10-50","","null","","images/causal_sequence/saving_a_cat_causal/saving_a_cat_causal_0.png","null","",""
"","","","","","html-audio-response","50","958345","0.0-48.0","B2BE3CC91CF44DBE8A61406D34E9CDC8","B2BE3CC91CF44DBE8A61406D34E9CDC8","95ef7de1-2cb0-4b21-9f8a-f8d21165df6d","2dd913a0-fd4c-43f1-b4f3-f0d48537bce8","{""part"":""2"",""participantId"":""B2BE3CC91CF44DBE8A61406D34E9CDC8"",""assignmentId"":""95ef7de1-2cb0-4b21-9f8a-f8d21165df6d"",""projectId"":""2dd913a0-fd4c-43f1-b4f3-f0d48537bce8""}","https://test12345.live/?part=2&participantId=B2BE3CC91CF44DBE8A61406D34E9CDC8&assignmentId=95ef7de1-2cb0-4b21-9f8a-f8d21165df6d&projectId=2dd913a0-fd4c-43f1-b4f3-f0d48537bce8","B2BE3CC91CF44DBE8A61406D34E9CDC8-2025-05-16-01-10-50","","2161","","[""<span style=\""color: red; font-size: 24px\""> NOW RECORDING</span><p>Please say out loud all the images you saw in part 1 of the experiment, as many as you can remember. The images can be said in any order.</p>""]","","2","saving_a_cat_causal"
"","","","","","image-button-response","51","964348","0.0-49.0-0.0","B2BE3CC91CF44DBE8A61406D34E9CDC8","B2BE3CC91CF44DBE8A61406D34E9CDC8","95ef7de1-2cb0-4b21-9f8a-f8d21165df6d","2dd913a0-fd4c-43f1-b4f3-f0d48537bce8","{""part"":""2"",""participantId"":""B2BE3CC91CF44DBE8A61406D34E9CDC8"",""assignmentId"":""95ef7de1-2cb0-4b21-9f8a-f8d21165df6d"",""projectId"":""2dd913a0-fd4c-43f1-b4f3-f0d48537bce8""}","https://test12345.live/?part=2&participantId=B2BE3CC91CF44DBE8A61406D34E9CDC8&assignmentId=95ef7de1-2cb0-4b21-9f8a-f8d21165df6d&projectId=2dd913a0-fd4c-43f1-b4f3-f0d48537bce8","B2BE3CC91CF44DBE8A61406D34E9CDC8-2025-05-16-01-10-50","","null","","images/semantic_sequence/housework_semantic/housework_semantic_0.png","null","",""
"","","","","","html-audio-response","52","986110","0.0-50.0","B2BE3CC91CF44DBE8A61406D34E9CDC8","B2BE3CC91CF44DBE8A61406D34E9CDC8","95ef7de1-2cb0-4b21-9f8a-f8d21165df6d","2dd913a0-fd4c-43f1-b4f3-f0d48537bce8","{""part"":""2"",""participantId"":""B2BE3CC91CF44DBE8A61406D34E9CDC8"",""assignmentId"":""95ef7de1-2cb0-4b21-9f8a-f8d21165df6d"",""projectId"":""2dd913a0-fd4c-43f1-b4f3-f0d48537bce8""}","https://test12345.live/?part=2&participantId=B2BE3CC91CF44DBE8A61406D34E9CDC8&assignmentId=95ef7de1-2cb0-4b21-9f8a-f8d21165df6d&projectId=2dd913a0-fd4c-43f1-b4f3-f0d48537bce8","B2BE3CC91CF44DBE8A61406D34E9CDC8-2025-05-16-01-10-50","","1620","","[""<span style=\""color: red; font-size: 24px\""> NOW RECORDING</span><p>Please say out loud all the images you saw in part 1 of the experiment, as many as you can remember. The images can be said in any order.</p>""]","","4","housework_semantic"
"","","","","","image-button-response","53","992120","0.0-51.0-0.0","B2BE3CC91CF44DBE8A61406D34E9CDC8","B2BE3CC91CF44DBE8A61406D34E9CDC8","95ef7de1-2cb0-4b21-9f8a-f8d21165df6d","2dd913a0-fd4c-43f1-b4f3-f0d48537bce8","{""part"":""2"",""participantId"":""B2BE3CC91CF44DBE8A61406D34E9CDC8"",""assignmentId"":""95ef7de1-2cb0-4b21-9f8a-f8d21165df6d"",""projectId"":""2dd913a0-fd4c-43f1-b4f3-f0d48537bce8""}","https://test12345.live/?part=2&participantId=B2BE3CC91CF44DBE8A61406D34E9CDC8&assignmentId=95ef7de1-2cb0-4b21-9f8a-f8d21165df6d&projectId=2dd913a0-fd4c-43f1-b4f3-f0d48537bce8","B2BE3CC91CF44DBE8A61406D34E9CDC8-2025-05-16-01-10-50","","null","","images/schematic_sequence/hotel_scheme/hotel_scheme_0.png","null","",""
"","","","","","html-audio-response","54","1013152","0.0-52.0","B2BE3CC91CF44DBE8A61406D34E9CDC8","B2BE3CC91CF44DBE8A61406D34E9CDC8","95ef7de1-2cb0-4b21-9f8a-f8d21165df6d","2dd913a0-fd4c-43f1-b4f3-f0d48537bce8","{""part"":""2"",""participantId"":""B2BE3CC91CF44DBE8A61406D34E9CDC8"",""assignmentId"":""95ef7de1-2cb0-4b21-9f8a-f8d21165df6d"",""projectId"":""2dd913a0-fd4c-43f1-b4f3-f0d48537bce8""}","https://test12345.live/?part=2&participantId=B2BE3CC91CF44DBE8A61406D34E9CDC8&assignmentId=95ef7de1-2cb0-4b21-9f8a-f8d21165df6d&projectId=2dd913a0-fd4c-43f1-b4f3-f0d48537bce8","B2BE3CC91CF44DBE8A61406D34E9CDC8-2025-05-16-01-10-50","","3858","","[""<span style=\""color: red; font-size: 24px\""> NOW RECORDING</span><p>Please say out loud all the images you saw in part 1 of the experiment, as many as you can remember. The images can be said in any order.</p>""]","","2","hotel_scheme"
"","","","","","image-button-response","55","1019156","0.0-53.0-0.0","B2BE3CC91CF44DBE8A61406D34E9CDC8","B2BE3CC91CF44DBE8A61406D34E9CDC8","95ef7de1-2cb0-4b21-9f8a-f8d21165df6d","2dd913a0-fd4c-43f1-b4f3-f0d48537bce8","{""part"":""2"",""participantId"":""B2BE3CC91CF44DBE8A61406D34E9CDC8"",""assignmentId"":""95ef7de1-2cb0-4b21-9f8a-f8d21165df6d"",""projectId"":""2dd913a0-fd4c-43f1-b4f3-f0d48537bce8""}","https://test12345.live/?part=2&participantId=B2BE3CC91CF44DBE8A61406D34E9CDC8&assignmentId=95ef7de1-2cb0-4b21-9f8a-f8d21165df6d&projectId=2dd913a0-fd4c-43f1-b4f3-f0d48537bce8","B2BE3CC91CF44DBE8A61406D34E9CDC8-2025-05-16-01-10-50","","null","","images/semantic_sequence/physical_activity_semantic/physical_activity_semantic_0.png","null","",""
"","","","","","html-audio-response","56","1039602","0.0-54.0","B2BE3CC91CF44DBE8A61406D34E9CDC8","B2BE3CC91CF44DBE8A61406D34E9CDC8","95ef7de1-2cb0-4b21-9f8a-f8d21165df6d","2dd913a0-fd4c-43f1-b4f3-f0d48537bce8","{""part"":""2"",""participantId"":""B2BE3CC91CF44DBE8A61406D34E9CDC8"",""assignmentId"":""95ef7de1-2cb0-4b21-9f8a-f8d21165df6d"",""projectId"":""2dd913a0-fd4c-43f1-b4f3-f0d48537bce8""}","https://test12345.live/?part=2&participantId=B2BE3CC91CF44DBE8A61406D34E9CDC8&assignmentId=95ef7de1-2cb0-4b21-9f8a-f8d21165df6d&projectId=2dd913a0-fd4c-43f1-b4f3-f0d48537bce8","B2BE3CC91CF44DBE8A61406D34E9CDC8-2025-05-16-01-10-50","","688","","[""<span style=\""color: red; font-size: 24px\""> NOW RECORDING</span><p>Please say out loud all the images you saw in part 1 of the experiment, as many as you can remember. The images can be said in any order.</p>""]","","9","physical_activity_semantic"
"","","","","","image-button-response","57","1045606","0.0-55.0-0.0","B2BE3CC91CF44DBE8A61406D34E9CDC8","B2BE3CC91CF44DBE8A61406D34E9CDC8","95ef7de1-2cb0-4b21-9f8a-f8d21165df6d","2dd913a0-fd4c-43f1-b4f3-f0d48537bce8","{""part"":""2"",""participantId"":""B2BE3CC91CF44DBE8A61406D34E9CDC8"",""assignmentId"":""95ef7de1-2cb0-4b21-9f8a-f8d21165df6d"",""projectId"":""2dd913a0-fd4c-43f1-b4f3-f0d48537bce8""}","https://test12345.live/?part=2&participantId=B2BE3CC91CF44DBE8A61406D34E9CDC8&assignmentId=95ef7de1-2cb0-4b21-9f8a-f8d21165df6d&projectId=2dd913a0-fd4c-43f1-b4f3-f0d48537bce8","B2BE3CC91CF44DBE8A61406D34E9CDC8-2025-05-16-01-10-50","","null","","images/schematic_sequence/dinner_party_scheme/dinner_party_scheme_0.png","null","",""
"","","","","","html-audio-response","58","1071159","0.0-56.0","B2BE3CC91CF44DBE8A61406D34E9CDC8","B2BE3CC91CF44DBE8A61406D34E9CDC8","95ef7de1-2cb0-4b21-9f8a-f8d21165df6d","2dd913a0-fd4c-43f1-b4f3-f0d48537bce8","{""part"":""2"",""participantId"":""B2BE3CC91CF44DBE8A61406D34E9CDC8"",""assignmentId"":""95ef7de1-2cb0-4b21-9f8a-f8d21165df6d"",""projectId"":""2dd913a0-fd4c-43f1-b4f3-f0d48537bce8""}","https://test12345.live/?part=2&participantId=B2BE3CC91CF44DBE8A61406D34E9CDC8&assignmentId=95ef7de1-2cb0-4b21-9f8a-f8d21165df6d&projectId=2dd913a0-fd4c-43f1-b4f3-f0d48537bce8","B2BE3CC91CF44DBE8A61406D34E9CDC8-2025-05-16-01-10-50","","1865","","[""<span style=\""color: red; font-size: 24px\""> NOW RECORDING</span><p>Please say out loud all the images you saw in part 1 of the experiment, as many as you can remember. The images can be said in any order.</p>""]","","1","dinner_party_scheme"
"","","","","","survey-text","59","1085240","0.0-57.0","B2BE3CC91CF44DBE8A61406D34E9CDC8","B2BE3CC91CF44DBE8A61406D34E9CDC8","95ef7de1-2cb0-4b21-9f8a-f8d21165df6d","2dd913a0-fd4c-43f1-b4f3-f0d48537bce8","{""part"":""2"",""participantId"":""B2BE3CC91CF44DBE8A61406D34E9CDC8"",""assignmentId"":""95ef7de1-2cb0-4b21-9f8a-f8d21165df6d"",""projectId"":""2dd913a0-fd4c-43f1-b4f3-f0d48537bce8""}","https://test12345.live/?part=2&participantId=B2BE3CC91CF44DBE8A61406D34E9CDC8&assignmentId=95ef7de1-2cb0-4b21-9f8a-f8d21165df6d&projectId=2dd913a0-fd4c-43f1-b4f3-f0d48537bce8","B2BE3CC91CF44DBE8A61406D34E9CDC8-2025-05-16-01-10-50","","14067","","","{""Q0"":""MALE"",""Q1"":""30""}","",""
"","","","","","instructions","60","1091637","0.0-58.0","B2BE3CC91CF44DBE8A61406D34E9CDC8","B2BE3CC91CF44DBE8A61406D34E9CDC8","95ef7de1-2cb0-4b21-9f8a-f8d21165df6d","2dd913a0-fd4c-43f1-b4f3-f0d48537bce8","{""part"":""2"",""participantId"":""B2BE3CC91CF44DBE8A61406D34E9CDC8"",""assignmentId"":""95ef7de1-2cb0-4b21-9f8a-f8d21165df6d"",""projectId"":""2dd913a0-fd4c-43f1-b4f3-f0d48537bce8""}","https://test12345.live/?part=2&participantId=B2BE3CC91CF44DBE8A61406D34E9CDC8&assignmentId=95ef7de1-2cb0-4b21-9f8a-f8d21165df6d&projectId=2dd913a0-fd4c-43f1-b4f3-f0d48537bce8","B2BE3CC91CF44DBE8A61406D34E9CDC8-2025-05-16-01-10-50","[{""page_index"":0,""viewing_time"":6397}]","6397","","","","",""
"","","","","","survey-text","61","1095712","0.0-59.0","B2BE3CC91CF44DBE8A61406D34E9CDC8","B2BE3CC91CF44DBE8A61406D34E9CDC8","95ef7de1-2cb0-4b21-9f8a-f8d21165df6d","2dd913a0-fd4c-43f1-b4f3-f0d48537bce8","{""part"":""2"",""participantId"":""B2BE3CC91CF44DBE8A61406D34E9CDC8"",""assignmentId"":""95ef7de1-2cb0-4b21-9f8a-f8d21165df6d"",""projectId"":""2dd913a0-fd4c-43f1-b4f3-f0d48537bce8""}","https://test12345.live/?part=2&participantId=B2BE3CC91CF44DBE8A61406D34E9CDC8&assignmentId=95ef7de1-2cb0-4b21-9f8a-f8d21165df6d&projectId=2dd913a0-fd4c-43f1-b4f3-f0d48537bce8","B2BE3CC91CF44DBE8A61406D34E9CDC8-2025-05-16-01-10-50","","4072","","","{""Q0"":""AJFHBG896""}","",""
