"success","timeout","failed_images","failed_audio","failed_video","trial_type","trial_index","time_elapsed","internal_node_id","subject","subject_id","study_id","session_id","urlvar","current_url","audio_id","view_history","rt","device_id","stimulus","response","estimated_stimulus_onset","seq_name"
"true","false","[]","[]","[]","preload","0","1566","0.0-0.0","B3438ED0E2FF474C932749E7CA9F423D","B3438ED0E2FF474C932749E7CA9F423D","93360cfd-c2e8-4d86-8088-cfa35165a782","e9cc2542-c7dc-4d8f-b94f-d088ad8989d1","{""part"":""2"",""participantId"":""B3438ED0E2FF474C932749E7CA9F423D"",""assignmentId"":""93360cfd-c2e8-4d86-8088-cfa35165a782"",""projectId"":""e9cc2542-c7dc-4d8f-b94f-d088ad8989d1""}","https://test12345.live/?part=2&participantId=B3438ED0E2FF474C932749E7CA9F423D&assignmentId=93360cfd-c2e8-4d86-8088-cfa35165a782&projectId=e9cc2542-c7dc-4d8f-b94f-d088ad8989d1","B3438ED0E2FF474C932749E7CA9F423D-2025-05-16-19-39-04","","","","","","",""
"","","","","","instructions","1","15902","0.0-1.0","B3438ED0E2FF474C932749E7CA9F423D","B3438ED0E2FF474C932749E7CA9F423D","93360cfd-c2e8-4d86-8088-cfa35165a782","e9cc2542-c7dc-4d8f-b94f-d088ad8989d1","{""part"":""2"",""participantId"":""B3438ED0E2FF474C932749E7CA9F423D"",""assignmentId"":""93360cfd-c2e8-4d86-8088-cfa35165a782"",""projectId"":""e9cc2542-c7dc-4d8f-b94f-d088ad8989d1""}","https://test12345.live/?part=2&participantId=B3438ED0E2FF474C932749E7CA9F423D&assignmentId=93360cfd-c2e8-4d86-8088-cfa35165a782&projectId=e9cc2542-c7dc-4d8f-b94f-d088ad8989d1","B3438ED0E2FF474C932749E7CA9F423D-2025-05-16-19-39-04","[{""page_index"":0,""viewing_time"":14335}]","14335","","","","",""
"","","","","","instructions","2","19894","0.0-2.0","B3438ED0E2FF474C932749E7CA9F423D","B3438ED0E2FF474C932749E7CA9F423D","93360cfd-c2e8-4d86-8088-cfa35165a782","e9cc2542-c7dc-4d8f-b94f-d088ad8989d1","{""part"":""2"",""participantId"":""B3438ED0E2FF474C932749E7CA9F423D"",""assignmentId"":""93360cfd-c2e8-4d86-8088-cfa35165a782"",""projectId"":""e9cc2542-c7dc-4d8f-b94f-d088ad8989d1""}","https://test12345.live/?part=2&participantId=B3438ED0E2FF474C932749E7CA9F423D&assignmentId=93360cfd-c2e8-4d86-8088-cfa35165a782&projectId=e9cc2542-c7dc-4d8f-b94f-d088ad8989d1","B3438ED0E2FF474C932749E7CA9F423D-2025-05-16-19-39-04","[{""page_index"":0,""viewing_time"":3992}]","3992","","","","",""
"true","","","","","fullscreen","3","22724","0.0-3.0","B3438ED0E2FF474C932749E7CA9F423D","B3438ED0E2FF474C932749E7CA9F423D","93360cfd-c2e8-4d86-8088-cfa35165a782","e9cc2542-c7dc-4d8f-b94f-d088ad8989d1","{""part"":""2"",""participantId"":""B3438ED0E2FF474C932749E7CA9F423D"",""assignmentId"":""93360cfd-c2e8-4d86-8088-cfa35165a782"",""projectId"":""e9cc2542-c7dc-4d8f-b94f-d088ad8989d1""}","https://test12345.live/?part=2&participantId=B3438ED0E2FF474C932749E7CA9F423D&assignmentId=93360cfd-c2e8-4d86-8088-cfa35165a782&projectId=e9cc2542-c7dc-4d8f-b94f-d088ad8989d1","B3438ED0E2FF474C932749E7CA9F423D-2025-05-16-19-39-04","","1815","","","","",""
"","","","","","initialize-microphone","4","29277","0.0-4.0-0.0","B3438ED0E2FF474C932749E7CA9F423D","B3438ED0E2FF474C932749E7CA9F423D","93360cfd-c2e8-4d86-8088-cfa35165a782","e9cc2542-c7dc-4d8f-b94f-d088ad8989d1","{""part"":""2"",""participantId"":""B3438ED0E2FF474C932749E7CA9F423D"",""assignmentId"":""93360cfd-c2e8-4d86-8088-cfa35165a782"",""projectId"":""e9cc2542-c7dc-4d8f-b94f-d088ad8989d1""}","https://test12345.live/?part=2&participantId=B3438ED0E2FF474C932749E7CA9F423D&assignmentId=93360cfd-c2e8-4d86-8088-cfa35165a782&projectId=e9cc2542-c7dc-4d8f-b94f-d088ad8989d1","B3438ED0E2FF474C932749E7CA9F423D-2025-05-16-19-39-04","","","26103d73861bfff75f4f53ef43c8a82b326840e0140264b117cb43d61b16d415","","","",""
"","","","","","html-audio-response","5","62254","0.0-4.0-1.0","B3438ED0E2FF474C932749E7CA9F423D","B3438ED0E2FF474C932749E7CA9F423D","93360cfd-c2e8-4d86-8088-cfa35165a782","e9cc2542-c7dc-4d8f-b94f-d088ad8989d1","{""part"":""2"",""participantId"":""B3438ED0E2FF474C932749E7CA9F423D"",""assignmentId"":""93360cfd-c2e8-4d86-8088-cfa35165a782"",""projectId"":""e9cc2542-c7dc-4d8f-b94f-d088ad8989d1""}","https://test12345.live/?part=2&participantId=B3438ED0E2FF474C932749E7CA9F423D&assignmentId=93360cfd-c2e8-4d86-8088-cfa35165a782&projectId=e9cc2542-c7dc-4d8f-b94f-d088ad8989d1","B3438ED0E2FF474C932749E7CA9F423D-2025-05-16-19-39-04","","1753","","<span style=""color: red; font-size: 24px""> NOW RECORDING</span>
        <p>Please test Microphone</p>","","4",""
"","","","","","html-button-response","6","64414","0.0-4.0-2.0","B3438ED0E2FF474C932749E7CA9F423D","B3438ED0E2FF474C932749E7CA9F423D","93360cfd-c2e8-4d86-8088-cfa35165a782","e9cc2542-c7dc-4d8f-b94f-d088ad8989d1","{""part"":""2"",""participantId"":""B3438ED0E2FF474C932749E7CA9F423D"",""assignmentId"":""93360cfd-c2e8-4d86-8088-cfa35165a782"",""projectId"":""e9cc2542-c7dc-4d8f-b94f-d088ad8989d1""}","https://test12345.live/?part=2&participantId=B3438ED0E2FF474C932749E7CA9F423D&assignmentId=93360cfd-c2e8-4d86-8088-cfa35165a782&projectId=e9cc2542-c7dc-4d8f-b94f-d088ad8989d1","B3438ED0E2FF474C932749E7CA9F423D-2025-05-16-19-39-04","","2159","","<p style=""font-size:48px; color:red;"">Is Microphone OK?</p>","1","",""
"","","","","","instructions","7","81046","0.0-5.0","B3438ED0E2FF474C932749E7CA9F423D","B3438ED0E2FF474C932749E7CA9F423D","93360cfd-c2e8-4d86-8088-cfa35165a782","e9cc2542-c7dc-4d8f-b94f-d088ad8989d1","{""part"":""2"",""participantId"":""B3438ED0E2FF474C932749E7CA9F423D"",""assignmentId"":""93360cfd-c2e8-4d86-8088-cfa35165a782"",""projectId"":""e9cc2542-c7dc-4d8f-b94f-d088ad8989d1""}","https://test12345.live/?part=2&participantId=B3438ED0E2FF474C932749E7CA9F423D&assignmentId=93360cfd-c2e8-4d86-8088-cfa35165a782&projectId=e9cc2542-c7dc-4d8f-b94f-d088ad8989d1","B3438ED0E2FF474C932749E7CA9F423D-2025-05-16-19-39-04","[{""page_index"":0,""viewing_time"":1887},{""page_index"":1,""viewing_time"":7465},{""page_index"":2,""viewing_time"":7280}]","16632","","","","",""
"","","","","","image-button-response","8","87049","0.0-6.0-0.0","B3438ED0E2FF474C932749E7CA9F423D","B3438ED0E2FF474C932749E7CA9F423D","93360cfd-c2e8-4d86-8088-cfa35165a782","e9cc2542-c7dc-4d8f-b94f-d088ad8989d1","{""part"":""2"",""participantId"":""B3438ED0E2FF474C932749E7CA9F423D"",""assignmentId"":""93360cfd-c2e8-4d86-8088-cfa35165a782"",""projectId"":""e9cc2542-c7dc-4d8f-b94f-d088ad8989d1""}","https://test12345.live/?part=2&participantId=B3438ED0E2FF474C932749E7CA9F423D&assignmentId=93360cfd-c2e8-4d86-8088-cfa35165a782&projectId=e9cc2542-c7dc-4d8f-b94f-d088ad8989d1","B3438ED0E2FF474C932749E7CA9F423D-2025-05-16-19-39-04","","null","","images/instructions/movie_0.png","null","",""
"","","","","","html-audio-response","9","102071","0.0-7.0","B3438ED0E2FF474C932749E7CA9F423D","B3438ED0E2FF474C932749E7CA9F423D","93360cfd-c2e8-4d86-8088-cfa35165a782","e9cc2542-c7dc-4d8f-b94f-d088ad8989d1","{""part"":""2"",""participantId"":""B3438ED0E2FF474C932749E7CA9F423D"",""assignmentId"":""93360cfd-c2e8-4d86-8088-cfa35165a782"",""projectId"":""e9cc2542-c7dc-4d8f-b94f-d088ad8989d1""}","https://test12345.live/?part=2&participantId=B3438ED0E2FF474C932749E7CA9F423D&assignmentId=93360cfd-c2e8-4d86-8088-cfa35165a782&projectId=e9cc2542-c7dc-4d8f-b94f-d088ad8989d1","B3438ED0E2FF474C932749E7CA9F423D-2025-05-16-19-39-04","","13660","","[""<span style=\""color: red; font-size: 24px\""> NOW RECORDING</span><p>Please say out loud all the images you saw in part 1 of the experiment, as many as you can remember. The images can be said in any order.</p>""]","","1",""
"","","","","","instructions","10","104678","0.0-8.0","B3438ED0E2FF474C932749E7CA9F423D","B3438ED0E2FF474C932749E7CA9F423D","93360cfd-c2e8-4d86-8088-cfa35165a782","e9cc2542-c7dc-4d8f-b94f-d088ad8989d1","{""part"":""2"",""participantId"":""B3438ED0E2FF474C932749E7CA9F423D"",""assignmentId"":""93360cfd-c2e8-4d86-8088-cfa35165a782"",""projectId"":""e9cc2542-c7dc-4d8f-b94f-d088ad8989d1""}","https://test12345.live/?part=2&participantId=B3438ED0E2FF474C932749E7CA9F423D&assignmentId=93360cfd-c2e8-4d86-8088-cfa35165a782&projectId=e9cc2542-c7dc-4d8f-b94f-d088ad8989d1","B3438ED0E2FF474C932749E7CA9F423D-2025-05-16-19-39-04","[{""page_index"":0,""viewing_time"":2605}]","2605","","","","",""
"","","","","","image-button-response","11","110693","0.0-9.0-0.0","B3438ED0E2FF474C932749E7CA9F423D","B3438ED0E2FF474C932749E7CA9F423D","93360cfd-c2e8-4d86-8088-cfa35165a782","e9cc2542-c7dc-4d8f-b94f-d088ad8989d1","{""part"":""2"",""participantId"":""B3438ED0E2FF474C932749E7CA9F423D"",""assignmentId"":""93360cfd-c2e8-4d86-8088-cfa35165a782"",""projectId"":""e9cc2542-c7dc-4d8f-b94f-d088ad8989d1""}","https://test12345.live/?part=2&participantId=B3438ED0E2FF474C932749E7CA9F423D&assignmentId=93360cfd-c2e8-4d86-8088-cfa35165a782&projectId=e9cc2542-c7dc-4d8f-b94f-d088ad8989d1","B3438ED0E2FF474C932749E7CA9F423D-2025-05-16-19-39-04","","null","","images/semantic_sequence/cat_care_semantic/cat_care_semantic_0.png","null","",""
"","","","","","html-audio-response","12","135102","0.0-10.0","B3438ED0E2FF474C932749E7CA9F423D","B3438ED0E2FF474C932749E7CA9F423D","93360cfd-c2e8-4d86-8088-cfa35165a782","e9cc2542-c7dc-4d8f-b94f-d088ad8989d1","{""part"":""2"",""participantId"":""B3438ED0E2FF474C932749E7CA9F423D"",""assignmentId"":""93360cfd-c2e8-4d86-8088-cfa35165a782"",""projectId"":""e9cc2542-c7dc-4d8f-b94f-d088ad8989d1""}","https://test12345.live/?part=2&participantId=B3438ED0E2FF474C932749E7CA9F423D&assignmentId=93360cfd-c2e8-4d86-8088-cfa35165a782&projectId=e9cc2542-c7dc-4d8f-b94f-d088ad8989d1","B3438ED0E2FF474C932749E7CA9F423D-2025-05-16-19-39-04","","23540","","[""<span style=\""color: red; font-size: 24px\""> NOW RECORDING</span><p>Please say out loud all the images you saw in part 1 of the experiment, as many as you can remember. The images can be said in any order.</p>""]","","1","cat_care_semantic"
"","","","","","image-button-response","13","141111","0.0-11.0-0.0","B3438ED0E2FF474C932749E7CA9F423D","B3438ED0E2FF474C932749E7CA9F423D","93360cfd-c2e8-4d86-8088-cfa35165a782","e9cc2542-c7dc-4d8f-b94f-d088ad8989d1","{""part"":""2"",""participantId"":""B3438ED0E2FF474C932749E7CA9F423D"",""assignmentId"":""93360cfd-c2e8-4d86-8088-cfa35165a782"",""projectId"":""e9cc2542-c7dc-4d8f-b94f-d088ad8989d1""}","https://test12345.live/?part=2&participantId=B3438ED0E2FF474C932749E7CA9F423D&assignmentId=93360cfd-c2e8-4d86-8088-cfa35165a782&projectId=e9cc2542-c7dc-4d8f-b94f-d088ad8989d1","B3438ED0E2FF474C932749E7CA9F423D-2025-05-16-19-39-04","","null","","images/semantic_sequence/creative_activities_semantic/creative_activities_semantic_0.png","null","",""
"","","","","","html-audio-response","14","153854","0.0-12.0","B3438ED0E2FF474C932749E7CA9F423D","B3438ED0E2FF474C932749E7CA9F423D","93360cfd-c2e8-4d86-8088-cfa35165a782","e9cc2542-c7dc-4d8f-b94f-d088ad8989d1","{""part"":""2"",""participantId"":""B3438ED0E2FF474C932749E7CA9F423D"",""assignmentId"":""93360cfd-c2e8-4d86-8088-cfa35165a782"",""projectId"":""e9cc2542-c7dc-4d8f-b94f-d088ad8989d1""}","https://test12345.live/?part=2&participantId=B3438ED0E2FF474C932749E7CA9F423D&assignmentId=93360cfd-c2e8-4d86-8088-cfa35165a782&projectId=e9cc2542-c7dc-4d8f-b94f-d088ad8989d1","B3438ED0E2FF474C932749E7CA9F423D-2025-05-16-19-39-04","","11567","","[""<span style=\""color: red; font-size: 24px\""> NOW RECORDING</span><p>Please say out loud all the images you saw in part 1 of the experiment, as many as you can remember. The images can be said in any order.</p>""]","","1","creative_activities_semantic"
"","","","","","image-button-response","15","159861","0.0-13.0-0.0","B3438ED0E2FF474C932749E7CA9F423D","B3438ED0E2FF474C932749E7CA9F423D","93360cfd-c2e8-4d86-8088-cfa35165a782","e9cc2542-c7dc-4d8f-b94f-d088ad8989d1","{""part"":""2"",""participantId"":""B3438ED0E2FF474C932749E7CA9F423D"",""assignmentId"":""93360cfd-c2e8-4d86-8088-cfa35165a782"",""projectId"":""e9cc2542-c7dc-4d8f-b94f-d088ad8989d1""}","https://test12345.live/?part=2&participantId=B3438ED0E2FF474C932749E7CA9F423D&assignmentId=93360cfd-c2e8-4d86-8088-cfa35165a782&projectId=e9cc2542-c7dc-4d8f-b94f-d088ad8989d1","B3438ED0E2FF474C932749E7CA9F423D-2025-05-16-19-39-04","","null","","images/semantic_sequence/self_care_activities_semantic/self_care_activities_semantic_0.png","null","",""
"","","","","","html-audio-response","16","177544","0.0-14.0","B3438ED0E2FF474C932749E7CA9F423D","B3438ED0E2FF474C932749E7CA9F423D","93360cfd-c2e8-4d86-8088-cfa35165a782","e9cc2542-c7dc-4d8f-b94f-d088ad8989d1","{""part"":""2"",""participantId"":""B3438ED0E2FF474C932749E7CA9F423D"",""assignmentId"":""93360cfd-c2e8-4d86-8088-cfa35165a782"",""projectId"":""e9cc2542-c7dc-4d8f-b94f-d088ad8989d1""}","https://test12345.live/?part=2&participantId=B3438ED0E2FF474C932749E7CA9F423D&assignmentId=93360cfd-c2e8-4d86-8088-cfa35165a782&projectId=e9cc2542-c7dc-4d8f-b94f-d088ad8989d1","B3438ED0E2FF474C932749E7CA9F423D-2025-05-16-19-39-04","","16330","","[""<span style=\""color: red; font-size: 24px\""> NOW RECORDING</span><p>Please say out loud all the images you saw in part 1 of the experiment, as many as you can remember. The images can be said in any order.</p>""]","","1","self_care_activities_semantic"
"","","","","","image-button-response","17","183552","0.0-15.0-0.0","B3438ED0E2FF474C932749E7CA9F423D","B3438ED0E2FF474C932749E7CA9F423D","93360cfd-c2e8-4d86-8088-cfa35165a782","e9cc2542-c7dc-4d8f-b94f-d088ad8989d1","{""part"":""2"",""participantId"":""B3438ED0E2FF474C932749E7CA9F423D"",""assignmentId"":""93360cfd-c2e8-4d86-8088-cfa35165a782"",""projectId"":""e9cc2542-c7dc-4d8f-b94f-d088ad8989d1""}","https://test12345.live/?part=2&participantId=B3438ED0E2FF474C932749E7CA9F423D&assignmentId=93360cfd-c2e8-4d86-8088-cfa35165a782&projectId=e9cc2542-c7dc-4d8f-b94f-d088ad8989d1","B3438ED0E2FF474C932749E7CA9F423D-2025-05-16-19-39-04","","null","","images/causal_sequence/package_causal/package_causal_0.png","null","",""
"","","","","","html-audio-response","18","205175","0.0-16.0","B3438ED0E2FF474C932749E7CA9F423D","B3438ED0E2FF474C932749E7CA9F423D","93360cfd-c2e8-4d86-8088-cfa35165a782","e9cc2542-c7dc-4d8f-b94f-d088ad8989d1","{""part"":""2"",""participantId"":""B3438ED0E2FF474C932749E7CA9F423D"",""assignmentId"":""93360cfd-c2e8-4d86-8088-cfa35165a782"",""projectId"":""e9cc2542-c7dc-4d8f-b94f-d088ad8989d1""}","https://test12345.live/?part=2&participantId=B3438ED0E2FF474C932749E7CA9F423D&assignmentId=93360cfd-c2e8-4d86-8088-cfa35165a782&projectId=e9cc2542-c7dc-4d8f-b94f-d088ad8989d1","B3438ED0E2FF474C932749E7CA9F423D-2025-05-16-19-39-04","","20575","","[""<span style=\""color: red; font-size: 24px\""> NOW RECORDING</span><p>Please say out loud all the images you saw in part 1 of the experiment, as many as you can remember. The images can be said in any order.</p>""]","","1","package_causal"
"","","","","","image-button-response","19","211189","0.0-17.0-0.0","B3438ED0E2FF474C932749E7CA9F423D","B3438ED0E2FF474C932749E7CA9F423D","93360cfd-c2e8-4d86-8088-cfa35165a782","e9cc2542-c7dc-4d8f-b94f-d088ad8989d1","{""part"":""2"",""participantId"":""B3438ED0E2FF474C932749E7CA9F423D"",""assignmentId"":""93360cfd-c2e8-4d86-8088-cfa35165a782"",""projectId"":""e9cc2542-c7dc-4d8f-b94f-d088ad8989d1""}","https://test12345.live/?part=2&participantId=B3438ED0E2FF474C932749E7CA9F423D&assignmentId=93360cfd-c2e8-4d86-8088-cfa35165a782&projectId=e9cc2542-c7dc-4d8f-b94f-d088ad8989d1","B3438ED0E2FF474C932749E7CA9F423D-2025-05-16-19-39-04","","null","","images/semantic_sequence/using_technology_semantic/using_technology_semantic_0.png","null","",""
"","","","","","html-audio-response","20","236807","0.0-18.0","B3438ED0E2FF474C932749E7CA9F423D","B3438ED0E2FF474C932749E7CA9F423D","93360cfd-c2e8-4d86-8088-cfa35165a782","e9cc2542-c7dc-4d8f-b94f-d088ad8989d1","{""part"":""2"",""participantId"":""B3438ED0E2FF474C932749E7CA9F423D"",""assignmentId"":""93360cfd-c2e8-4d86-8088-cfa35165a782"",""projectId"":""e9cc2542-c7dc-4d8f-b94f-d088ad8989d1""}","https://test12345.live/?part=2&participantId=B3438ED0E2FF474C932749E7CA9F423D&assignmentId=93360cfd-c2e8-4d86-8088-cfa35165a782&projectId=e9cc2542-c7dc-4d8f-b94f-d088ad8989d1","B3438ED0E2FF474C932749E7CA9F423D-2025-05-16-19-39-04","","24351","","[""<span style=\""color: red; font-size: 24px\""> NOW RECORDING</span><p>Please say out loud all the images you saw in part 1 of the experiment, as many as you can remember. The images can be said in any order.</p>""]","","2","using_technology_semantic"
"","","","","","image-button-response","21","242811","0.0-19.0-0.0","B3438ED0E2FF474C932749E7CA9F423D","B3438ED0E2FF474C932749E7CA9F423D","93360cfd-c2e8-4d86-8088-cfa35165a782","e9cc2542-c7dc-4d8f-b94f-d088ad8989d1","{""part"":""2"",""participantId"":""B3438ED0E2FF474C932749E7CA9F423D"",""assignmentId"":""93360cfd-c2e8-4d86-8088-cfa35165a782"",""projectId"":""e9cc2542-c7dc-4d8f-b94f-d088ad8989d1""}","https://test12345.live/?part=2&participantId=B3438ED0E2FF474C932749E7CA9F423D&assignmentId=93360cfd-c2e8-4d86-8088-cfa35165a782&projectId=e9cc2542-c7dc-4d8f-b94f-d088ad8989d1","B3438ED0E2FF474C932749E7CA9F423D-2025-05-16-19-39-04","","null","","images/schematic_sequence/flight_scheme/flight_scheme_0.png","null","",""
"","","","","","html-audio-response","22","266398","0.0-20.0","B3438ED0E2FF474C932749E7CA9F423D","B3438ED0E2FF474C932749E7CA9F423D","93360cfd-c2e8-4d86-8088-cfa35165a782","e9cc2542-c7dc-4d8f-b94f-d088ad8989d1","{""part"":""2"",""participantId"":""B3438ED0E2FF474C932749E7CA9F423D"",""assignmentId"":""93360cfd-c2e8-4d86-8088-cfa35165a782"",""projectId"":""e9cc2542-c7dc-4d8f-b94f-d088ad8989d1""}","https://test12345.live/?part=2&participantId=B3438ED0E2FF474C932749E7CA9F423D&assignmentId=93360cfd-c2e8-4d86-8088-cfa35165a782&projectId=e9cc2542-c7dc-4d8f-b94f-d088ad8989d1","B3438ED0E2FF474C932749E7CA9F423D-2025-05-16-19-39-04","","20541","","[""<span style=\""color: red; font-size: 24px\""> NOW RECORDING</span><p>Please say out loud all the images you saw in part 1 of the experiment, as many as you can remember. The images can be said in any order.</p>""]","","1","flight_scheme"
"","","","","","image-button-response","23","272411","0.0-21.0-0.0","B3438ED0E2FF474C932749E7CA9F423D","B3438ED0E2FF474C932749E7CA9F423D","93360cfd-c2e8-4d86-8088-cfa35165a782","e9cc2542-c7dc-4d8f-b94f-d088ad8989d1","{""part"":""2"",""participantId"":""B3438ED0E2FF474C932749E7CA9F423D"",""assignmentId"":""93360cfd-c2e8-4d86-8088-cfa35165a782"",""projectId"":""e9cc2542-c7dc-4d8f-b94f-d088ad8989d1""}","https://test12345.live/?part=2&participantId=B3438ED0E2FF474C932749E7CA9F423D&assignmentId=93360cfd-c2e8-4d86-8088-cfa35165a782&projectId=e9cc2542-c7dc-4d8f-b94f-d088ad8989d1","B3438ED0E2FF474C932749E7CA9F423D-2025-05-16-19-39-04","","null","","images/schematic_sequence/supermarket_scheme/supermarket_scheme_0.png","null","",""
"","","","","","html-audio-response","24","296494","0.0-22.0","B3438ED0E2FF474C932749E7CA9F423D","B3438ED0E2FF474C932749E7CA9F423D","93360cfd-c2e8-4d86-8088-cfa35165a782","e9cc2542-c7dc-4d8f-b94f-d088ad8989d1","{""part"":""2"",""participantId"":""B3438ED0E2FF474C932749E7CA9F423D"",""assignmentId"":""93360cfd-c2e8-4d86-8088-cfa35165a782"",""projectId"":""e9cc2542-c7dc-4d8f-b94f-d088ad8989d1""}","https://test12345.live/?part=2&participantId=B3438ED0E2FF474C932749E7CA9F423D&assignmentId=93360cfd-c2e8-4d86-8088-cfa35165a782&projectId=e9cc2542-c7dc-4d8f-b94f-d088ad8989d1","B3438ED0E2FF474C932749E7CA9F423D-2025-05-16-19-39-04","","22883","","[""<span style=\""color: red; font-size: 24px\""> NOW RECORDING</span><p>Please say out loud all the images you saw in part 1 of the experiment, as many as you can remember. The images can be said in any order.</p>""]","","1","supermarket_scheme"
"","","","","","image-button-response","25","302505","0.0-23.0-0.0","B3438ED0E2FF474C932749E7CA9F423D","B3438ED0E2FF474C932749E7CA9F423D","93360cfd-c2e8-4d86-8088-cfa35165a782","e9cc2542-c7dc-4d8f-b94f-d088ad8989d1","{""part"":""2"",""participantId"":""B3438ED0E2FF474C932749E7CA9F423D"",""assignmentId"":""93360cfd-c2e8-4d86-8088-cfa35165a782"",""projectId"":""e9cc2542-c7dc-4d8f-b94f-d088ad8989d1""}","https://test12345.live/?part=2&participantId=B3438ED0E2FF474C932749E7CA9F423D&assignmentId=93360cfd-c2e8-4d86-8088-cfa35165a782&projectId=e9cc2542-c7dc-4d8f-b94f-d088ad8989d1","B3438ED0E2FF474C932749E7CA9F423D-2025-05-16-19-39-04","","null","","images/schematic_sequence/hotel_scheme/hotel_scheme_0.png","null","",""
"","","","","","html-audio-response","26","320837","0.0-24.0","B3438ED0E2FF474C932749E7CA9F423D","B3438ED0E2FF474C932749E7CA9F423D","93360cfd-c2e8-4d86-8088-cfa35165a782","e9cc2542-c7dc-4d8f-b94f-d088ad8989d1","{""part"":""2"",""participantId"":""B3438ED0E2FF474C932749E7CA9F423D"",""assignmentId"":""93360cfd-c2e8-4d86-8088-cfa35165a782"",""projectId"":""e9cc2542-c7dc-4d8f-b94f-d088ad8989d1""}","https://test12345.live/?part=2&participantId=B3438ED0E2FF474C932749E7CA9F423D&assignmentId=93360cfd-c2e8-4d86-8088-cfa35165a782&projectId=e9cc2542-c7dc-4d8f-b94f-d088ad8989d1","B3438ED0E2FF474C932749E7CA9F423D-2025-05-16-19-39-04","","17488","","[""<span style=\""color: red; font-size: 24px\""> NOW RECORDING</span><p>Please say out loud all the images you saw in part 1 of the experiment, as many as you can remember. The images can be said in any order.</p>""]","","2","hotel_scheme"
"","","","","","image-button-response","27","326846","0.0-25.0-0.0","B3438ED0E2FF474C932749E7CA9F423D","B3438ED0E2FF474C932749E7CA9F423D","93360cfd-c2e8-4d86-8088-cfa35165a782","e9cc2542-c7dc-4d8f-b94f-d088ad8989d1","{""part"":""2"",""participantId"":""B3438ED0E2FF474C932749E7CA9F423D"",""assignmentId"":""93360cfd-c2e8-4d86-8088-cfa35165a782"",""projectId"":""e9cc2542-c7dc-4d8f-b94f-d088ad8989d1""}","https://test12345.live/?part=2&participantId=B3438ED0E2FF474C932749E7CA9F423D&assignmentId=93360cfd-c2e8-4d86-8088-cfa35165a782&projectId=e9cc2542-c7dc-4d8f-b94f-d088ad8989d1","B3438ED0E2FF474C932749E7CA9F423D-2025-05-16-19-39-04","","null","","images/semantic_sequence/market_semantic/market_semantic_0.png","null","",""
"","","","","","html-audio-response","28","345062","0.0-26.0","B3438ED0E2FF474C932749E7CA9F423D","B3438ED0E2FF474C932749E7CA9F423D","93360cfd-c2e8-4d86-8088-cfa35165a782","e9cc2542-c7dc-4d8f-b94f-d088ad8989d1","{""part"":""2"",""participantId"":""B3438ED0E2FF474C932749E7CA9F423D"",""assignmentId"":""93360cfd-c2e8-4d86-8088-cfa35165a782"",""projectId"":""e9cc2542-c7dc-4d8f-b94f-d088ad8989d1""}","https://test12345.live/?part=2&participantId=B3438ED0E2FF474C932749E7CA9F423D&assignmentId=93360cfd-c2e8-4d86-8088-cfa35165a782&projectId=e9cc2542-c7dc-4d8f-b94f-d088ad8989d1","B3438ED0E2FF474C932749E7CA9F423D-2025-05-16-19-39-04","","16476","","[""<span style=\""color: red; font-size: 24px\""> NOW RECORDING</span><p>Please say out loud all the images you saw in part 1 of the experiment, as many as you can remember. The images can be said in any order.</p>""]","","1","market_semantic"
"","","","","","image-button-response","29","351066","0.0-27.0-0.0","B3438ED0E2FF474C932749E7CA9F423D","B3438ED0E2FF474C932749E7CA9F423D","93360cfd-c2e8-4d86-8088-cfa35165a782","e9cc2542-c7dc-4d8f-b94f-d088ad8989d1","{""part"":""2"",""participantId"":""B3438ED0E2FF474C932749E7CA9F423D"",""assignmentId"":""93360cfd-c2e8-4d86-8088-cfa35165a782"",""projectId"":""e9cc2542-c7dc-4d8f-b94f-d088ad8989d1""}","https://test12345.live/?part=2&participantId=B3438ED0E2FF474C932749E7CA9F423D&assignmentId=93360cfd-c2e8-4d86-8088-cfa35165a782&projectId=e9cc2542-c7dc-4d8f-b94f-d088ad8989d1","B3438ED0E2FF474C932749E7CA9F423D-2025-05-16-19-39-04","","null","","images/causal_sequence/saving_a_cat_causal/saving_a_cat_causal_0.png","null","",""
"","","","","","html-audio-response","30","371758","0.0-28.0","B3438ED0E2FF474C932749E7CA9F423D","B3438ED0E2FF474C932749E7CA9F423D","93360cfd-c2e8-4d86-8088-cfa35165a782","e9cc2542-c7dc-4d8f-b94f-d088ad8989d1","{""part"":""2"",""participantId"":""B3438ED0E2FF474C932749E7CA9F423D"",""assignmentId"":""93360cfd-c2e8-4d86-8088-cfa35165a782"",""projectId"":""e9cc2542-c7dc-4d8f-b94f-d088ad8989d1""}","https://test12345.live/?part=2&participantId=B3438ED0E2FF474C932749E7CA9F423D&assignmentId=93360cfd-c2e8-4d86-8088-cfa35165a782&projectId=e9cc2542-c7dc-4d8f-b94f-d088ad8989d1","B3438ED0E2FF474C932749E7CA9F423D-2025-05-16-19-39-04","","19783","","[""<span style=\""color: red; font-size: 24px\""> NOW RECORDING</span><p>Please say out loud all the images you saw in part 1 of the experiment, as many as you can remember. The images can be said in any order.</p>""]","","1","saving_a_cat_causal"
"","","","","","image-button-response","31","377764","0.0-29.0-0.0","B3438ED0E2FF474C932749E7CA9F423D","B3438ED0E2FF474C932749E7CA9F423D","93360cfd-c2e8-4d86-8088-cfa35165a782","e9cc2542-c7dc-4d8f-b94f-d088ad8989d1","{""part"":""2"",""participantId"":""B3438ED0E2FF474C932749E7CA9F423D"",""assignmentId"":""93360cfd-c2e8-4d86-8088-cfa35165a782"",""projectId"":""e9cc2542-c7dc-4d8f-b94f-d088ad8989d1""}","https://test12345.live/?part=2&participantId=B3438ED0E2FF474C932749E7CA9F423D&assignmentId=93360cfd-c2e8-4d86-8088-cfa35165a782&projectId=e9cc2542-c7dc-4d8f-b94f-d088ad8989d1","B3438ED0E2FF474C932749E7CA9F423D-2025-05-16-19-39-04","","null","","images/semantic_sequence/redecorating_semantic/redecorating_semantic_0.png","null","",""
"","","","","","html-audio-response","32","393263","0.0-30.0","B3438ED0E2FF474C932749E7CA9F423D","B3438ED0E2FF474C932749E7CA9F423D","93360cfd-c2e8-4d86-8088-cfa35165a782","e9cc2542-c7dc-4d8f-b94f-d088ad8989d1","{""part"":""2"",""participantId"":""B3438ED0E2FF474C932749E7CA9F423D"",""assignmentId"":""93360cfd-c2e8-4d86-8088-cfa35165a782"",""projectId"":""e9cc2542-c7dc-4d8f-b94f-d088ad8989d1""}","https://test12345.live/?part=2&participantId=B3438ED0E2FF474C932749E7CA9F423D&assignmentId=93360cfd-c2e8-4d86-8088-cfa35165a782&projectId=e9cc2542-c7dc-4d8f-b94f-d088ad8989d1","B3438ED0E2FF474C932749E7CA9F423D-2025-05-16-19-39-04","","14534","","[""<span style=\""color: red; font-size: 24px\""> NOW RECORDING</span><p>Please say out loud all the images you saw in part 1 of the experiment, as many as you can remember. The images can be said in any order.</p>""]","","8","redecorating_semantic"
"","","","","","image-button-response","33","399278","0.0-31.0-0.0","B3438ED0E2FF474C932749E7CA9F423D","B3438ED0E2FF474C932749E7CA9F423D","93360cfd-c2e8-4d86-8088-cfa35165a782","e9cc2542-c7dc-4d8f-b94f-d088ad8989d1","{""part"":""2"",""participantId"":""B3438ED0E2FF474C932749E7CA9F423D"",""assignmentId"":""93360cfd-c2e8-4d86-8088-cfa35165a782"",""projectId"":""e9cc2542-c7dc-4d8f-b94f-d088ad8989d1""}","https://test12345.live/?part=2&participantId=B3438ED0E2FF474C932749E7CA9F423D&assignmentId=93360cfd-c2e8-4d86-8088-cfa35165a782&projectId=e9cc2542-c7dc-4d8f-b94f-d088ad8989d1","B3438ED0E2FF474C932749E7CA9F423D-2025-05-16-19-39-04","","null","","images/semantic_sequence/exploring_nature_semantic/exploring_nature_semantic_0.png","null","",""
"","","","","","html-audio-response","34","423087","0.0-32.0","B3438ED0E2FF474C932749E7CA9F423D","B3438ED0E2FF474C932749E7CA9F423D","93360cfd-c2e8-4d86-8088-cfa35165a782","e9cc2542-c7dc-4d8f-b94f-d088ad8989d1","{""part"":""2"",""participantId"":""B3438ED0E2FF474C932749E7CA9F423D"",""assignmentId"":""93360cfd-c2e8-4d86-8088-cfa35165a782"",""projectId"":""e9cc2542-c7dc-4d8f-b94f-d088ad8989d1""}","https://test12345.live/?part=2&participantId=B3438ED0E2FF474C932749E7CA9F423D&assignmentId=93360cfd-c2e8-4d86-8088-cfa35165a782&projectId=e9cc2542-c7dc-4d8f-b94f-d088ad8989d1","B3438ED0E2FF474C932749E7CA9F423D-2025-05-16-19-39-04","","18100","","[""<span style=\""color: red; font-size: 24px\""> NOW RECORDING</span><p>Please say out loud all the images you saw in part 1 of the experiment, as many as you can remember. The images can be said in any order.</p>""]","","1","exploring_nature_semantic"
"","","","","","image-button-response","35","429097","0.0-33.0-0.0","B3438ED0E2FF474C932749E7CA9F423D","B3438ED0E2FF474C932749E7CA9F423D","93360cfd-c2e8-4d86-8088-cfa35165a782","e9cc2542-c7dc-4d8f-b94f-d088ad8989d1","{""part"":""2"",""participantId"":""B3438ED0E2FF474C932749E7CA9F423D"",""assignmentId"":""93360cfd-c2e8-4d86-8088-cfa35165a782"",""projectId"":""e9cc2542-c7dc-4d8f-b94f-d088ad8989d1""}","https://test12345.live/?part=2&participantId=B3438ED0E2FF474C932749E7CA9F423D&assignmentId=93360cfd-c2e8-4d86-8088-cfa35165a782&projectId=e9cc2542-c7dc-4d8f-b94f-d088ad8989d1","B3438ED0E2FF474C932749E7CA9F423D-2025-05-16-19-39-04","","null","","images/causal_sequence/museum_causal/museum_causal_0.png","null","",""
"","","","","","html-audio-response","36","455102","0.0-34.0","B3438ED0E2FF474C932749E7CA9F423D","B3438ED0E2FF474C932749E7CA9F423D","93360cfd-c2e8-4d86-8088-cfa35165a782","e9cc2542-c7dc-4d8f-b94f-d088ad8989d1","{""part"":""2"",""participantId"":""B3438ED0E2FF474C932749E7CA9F423D"",""assignmentId"":""93360cfd-c2e8-4d86-8088-cfa35165a782"",""projectId"":""e9cc2542-c7dc-4d8f-b94f-d088ad8989d1""}","https://test12345.live/?part=2&participantId=B3438ED0E2FF474C932749E7CA9F423D&assignmentId=93360cfd-c2e8-4d86-8088-cfa35165a782&projectId=e9cc2542-c7dc-4d8f-b94f-d088ad8989d1","B3438ED0E2FF474C932749E7CA9F423D-2025-05-16-19-39-04","","25241","","[""<span style=\""color: red; font-size: 24px\""> NOW RECORDING</span><p>Please say out loud all the images you saw in part 1 of the experiment, as many as you can remember. The images can be said in any order.</p>""]","","1","museum_causal"
"","","","","","image-button-response","37","461118","0.0-35.0-0.0","B3438ED0E2FF474C932749E7CA9F423D","B3438ED0E2FF474C932749E7CA9F423D","93360cfd-c2e8-4d86-8088-cfa35165a782","e9cc2542-c7dc-4d8f-b94f-d088ad8989d1","{""part"":""2"",""participantId"":""B3438ED0E2FF474C932749E7CA9F423D"",""assignmentId"":""93360cfd-c2e8-4d86-8088-cfa35165a782"",""projectId"":""e9cc2542-c7dc-4d8f-b94f-d088ad8989d1""}","https://test12345.live/?part=2&participantId=B3438ED0E2FF474C932749E7CA9F423D&assignmentId=93360cfd-c2e8-4d86-8088-cfa35165a782&projectId=e9cc2542-c7dc-4d8f-b94f-d088ad8989d1","B3438ED0E2FF474C932749E7CA9F423D-2025-05-16-19-39-04","","null","","images/schematic_sequence/restaurant_scheme/restaurant_scheme_0.png","null","",""
"","","","","","html-audio-response","38","477917","0.0-36.0","B3438ED0E2FF474C932749E7CA9F423D","B3438ED0E2FF474C932749E7CA9F423D","93360cfd-c2e8-4d86-8088-cfa35165a782","e9cc2542-c7dc-4d8f-b94f-d088ad8989d1","{""part"":""2"",""participantId"":""B3438ED0E2FF474C932749E7CA9F423D"",""assignmentId"":""93360cfd-c2e8-4d86-8088-cfa35165a782"",""projectId"":""e9cc2542-c7dc-4d8f-b94f-d088ad8989d1""}","https://test12345.live/?part=2&participantId=B3438ED0E2FF474C932749E7CA9F423D&assignmentId=93360cfd-c2e8-4d86-8088-cfa35165a782&projectId=e9cc2542-c7dc-4d8f-b94f-d088ad8989d1","B3438ED0E2FF474C932749E7CA9F423D-2025-05-16-19-39-04","","16124","","[""<span style=\""color: red; font-size: 24px\""> NOW RECORDING</span><p>Please say out loud all the images you saw in part 1 of the experiment, as many as you can remember. The images can be said in any order.</p>""]","","1","restaurant_scheme"
"","","","","","image-button-response","39","483932","0.0-37.0-0.0","B3438ED0E2FF474C932749E7CA9F423D","B3438ED0E2FF474C932749E7CA9F423D","93360cfd-c2e8-4d86-8088-cfa35165a782","e9cc2542-c7dc-4d8f-b94f-d088ad8989d1","{""part"":""2"",""participantId"":""B3438ED0E2FF474C932749E7CA9F423D"",""assignmentId"":""93360cfd-c2e8-4d86-8088-cfa35165a782"",""projectId"":""e9cc2542-c7dc-4d8f-b94f-d088ad8989d1""}","https://test12345.live/?part=2&participantId=B3438ED0E2FF474C932749E7CA9F423D&assignmentId=93360cfd-c2e8-4d86-8088-cfa35165a782&projectId=e9cc2542-c7dc-4d8f-b94f-d088ad8989d1","B3438ED0E2FF474C932749E7CA9F423D-2025-05-16-19-39-04","","null","","images/schematic_sequence/dinner_party_scheme/dinner_party_scheme_0.png","null","",""
"","","","","","html-audio-response","40","502134","0.0-38.0","B3438ED0E2FF474C932749E7CA9F423D","B3438ED0E2FF474C932749E7CA9F423D","93360cfd-c2e8-4d86-8088-cfa35165a782","e9cc2542-c7dc-4d8f-b94f-d088ad8989d1","{""part"":""2"",""participantId"":""B3438ED0E2FF474C932749E7CA9F423D"",""assignmentId"":""93360cfd-c2e8-4d86-8088-cfa35165a782"",""projectId"":""e9cc2542-c7dc-4d8f-b94f-d088ad8989d1""}","https://test12345.live/?part=2&participantId=B3438ED0E2FF474C932749E7CA9F423D&assignmentId=93360cfd-c2e8-4d86-8088-cfa35165a782&projectId=e9cc2542-c7dc-4d8f-b94f-d088ad8989d1","B3438ED0E2FF474C932749E7CA9F423D-2025-05-16-19-39-04","","15732","","[""<span style=\""color: red; font-size: 24px\""> NOW RECORDING</span><p>Please say out loud all the images you saw in part 1 of the experiment, as many as you can remember. The images can be said in any order.</p>""]","","2","dinner_party_scheme"
"","","","","","image-button-response","41","508142","0.0-39.0-0.0","B3438ED0E2FF474C932749E7CA9F423D","B3438ED0E2FF474C932749E7CA9F423D","93360cfd-c2e8-4d86-8088-cfa35165a782","e9cc2542-c7dc-4d8f-b94f-d088ad8989d1","{""part"":""2"",""participantId"":""B3438ED0E2FF474C932749E7CA9F423D"",""assignmentId"":""93360cfd-c2e8-4d86-8088-cfa35165a782"",""projectId"":""e9cc2542-c7dc-4d8f-b94f-d088ad8989d1""}","https://test12345.live/?part=2&participantId=B3438ED0E2FF474C932749E7CA9F423D&assignmentId=93360cfd-c2e8-4d86-8088-cfa35165a782&projectId=e9cc2542-c7dc-4d8f-b94f-d088ad8989d1","B3438ED0E2FF474C932749E7CA9F423D-2025-05-16-19-39-04","","null","","images/semantic_sequence/physical_activity_semantic/physical_activity_semantic_0.png","null","",""
"","","","","","html-audio-response","42","526654","0.0-40.0","B3438ED0E2FF474C932749E7CA9F423D","B3438ED0E2FF474C932749E7CA9F423D","93360cfd-c2e8-4d86-8088-cfa35165a782","e9cc2542-c7dc-4d8f-b94f-d088ad8989d1","{""part"":""2"",""participantId"":""B3438ED0E2FF474C932749E7CA9F423D"",""assignmentId"":""93360cfd-c2e8-4d86-8088-cfa35165a782"",""projectId"":""e9cc2542-c7dc-4d8f-b94f-d088ad8989d1""}","https://test12345.live/?part=2&participantId=B3438ED0E2FF474C932749E7CA9F423D&assignmentId=93360cfd-c2e8-4d86-8088-cfa35165a782&projectId=e9cc2542-c7dc-4d8f-b94f-d088ad8989d1","B3438ED0E2FF474C932749E7CA9F423D-2025-05-16-19-39-04","","17544","","[""<span style=\""color: red; font-size: 24px\""> NOW RECORDING</span><p>Please say out loud all the images you saw in part 1 of the experiment, as many as you can remember. The images can be said in any order.</p>""]","","2","physical_activity_semantic"
"","","","","","image-button-response","43","532671","0.0-41.0-0.0","B3438ED0E2FF474C932749E7CA9F423D","B3438ED0E2FF474C932749E7CA9F423D","93360cfd-c2e8-4d86-8088-cfa35165a782","e9cc2542-c7dc-4d8f-b94f-d088ad8989d1","{""part"":""2"",""participantId"":""B3438ED0E2FF474C932749E7CA9F423D"",""assignmentId"":""93360cfd-c2e8-4d86-8088-cfa35165a782"",""projectId"":""e9cc2542-c7dc-4d8f-b94f-d088ad8989d1""}","https://test12345.live/?part=2&participantId=B3438ED0E2FF474C932749E7CA9F423D&assignmentId=93360cfd-c2e8-4d86-8088-cfa35165a782&projectId=e9cc2542-c7dc-4d8f-b94f-d088ad8989d1","B3438ED0E2FF474C932749E7CA9F423D-2025-05-16-19-39-04","","null","","images/causal_sequence/dog_causal/dog_causal_0.png","null","",""
"","","","","","html-audio-response","44","558086","0.0-42.0","B3438ED0E2FF474C932749E7CA9F423D","B3438ED0E2FF474C932749E7CA9F423D","93360cfd-c2e8-4d86-8088-cfa35165a782","e9cc2542-c7dc-4d8f-b94f-d088ad8989d1","{""part"":""2"",""participantId"":""B3438ED0E2FF474C932749E7CA9F423D"",""assignmentId"":""93360cfd-c2e8-4d86-8088-cfa35165a782"",""projectId"":""e9cc2542-c7dc-4d8f-b94f-d088ad8989d1""}","https://test12345.live/?part=2&participantId=B3438ED0E2FF474C932749E7CA9F423D&assignmentId=93360cfd-c2e8-4d86-8088-cfa35165a782&projectId=e9cc2542-c7dc-4d8f-b94f-d088ad8989d1","B3438ED0E2FF474C932749E7CA9F423D-2025-05-16-19-39-04","","23896","","[""<span style=\""color: red; font-size: 24px\""> NOW RECORDING</span><p>Please say out loud all the images you saw in part 1 of the experiment, as many as you can remember. The images can be said in any order.</p>""]","","9","dog_causal"
"","","","","","image-button-response","45","564093","0.0-43.0-0.0","B3438ED0E2FF474C932749E7CA9F423D","B3438ED0E2FF474C932749E7CA9F423D","93360cfd-c2e8-4d86-8088-cfa35165a782","e9cc2542-c7dc-4d8f-b94f-d088ad8989d1","{""part"":""2"",""participantId"":""B3438ED0E2FF474C932749E7CA9F423D"",""assignmentId"":""93360cfd-c2e8-4d86-8088-cfa35165a782"",""projectId"":""e9cc2542-c7dc-4d8f-b94f-d088ad8989d1""}","https://test12345.live/?part=2&participantId=B3438ED0E2FF474C932749E7CA9F423D&assignmentId=93360cfd-c2e8-4d86-8088-cfa35165a782&projectId=e9cc2542-c7dc-4d8f-b94f-d088ad8989d1","B3438ED0E2FF474C932749E7CA9F423D-2025-05-16-19-39-04","","null","","images/schematic_sequence/interview_scheme/interview_scheme_0.png","null","",""
"","","","","","html-audio-response","46","581111","0.0-44.0","B3438ED0E2FF474C932749E7CA9F423D","B3438ED0E2FF474C932749E7CA9F423D","93360cfd-c2e8-4d86-8088-cfa35165a782","e9cc2542-c7dc-4d8f-b94f-d088ad8989d1","{""part"":""2"",""participantId"":""B3438ED0E2FF474C932749E7CA9F423D"",""assignmentId"":""93360cfd-c2e8-4d86-8088-cfa35165a782"",""projectId"":""e9cc2542-c7dc-4d8f-b94f-d088ad8989d1""}","https://test12345.live/?part=2&participantId=B3438ED0E2FF474C932749E7CA9F423D&assignmentId=93360cfd-c2e8-4d86-8088-cfa35165a782&projectId=e9cc2542-c7dc-4d8f-b94f-d088ad8989d1","B3438ED0E2FF474C932749E7CA9F423D-2025-05-16-19-39-04","","15939","","[""<span style=\""color: red; font-size: 24px\""> NOW RECORDING</span><p>Please say out loud all the images you saw in part 1 of the experiment, as many as you can remember. The images can be said in any order.</p>""]","","1","interview_scheme"
"","","","","","image-button-response","47","587120","0.0-45.0-0.0","B3438ED0E2FF474C932749E7CA9F423D","B3438ED0E2FF474C932749E7CA9F423D","93360cfd-c2e8-4d86-8088-cfa35165a782","e9cc2542-c7dc-4d8f-b94f-d088ad8989d1","{""part"":""2"",""participantId"":""B3438ED0E2FF474C932749E7CA9F423D"",""assignmentId"":""93360cfd-c2e8-4d86-8088-cfa35165a782"",""projectId"":""e9cc2542-c7dc-4d8f-b94f-d088ad8989d1""}","https://test12345.live/?part=2&participantId=B3438ED0E2FF474C932749E7CA9F423D&assignmentId=93360cfd-c2e8-4d86-8088-cfa35165a782&projectId=e9cc2542-c7dc-4d8f-b94f-d088ad8989d1","B3438ED0E2FF474C932749E7CA9F423D-2025-05-16-19-39-04","","null","","images/semantic_sequence/visiting_cities_semantic/visiting_cities_semantic_0.png","null","",""
"","","","","","html-audio-response","48","605030","0.0-46.0","B3438ED0E2FF474C932749E7CA9F423D","B3438ED0E2FF474C932749E7CA9F423D","93360cfd-c2e8-4d86-8088-cfa35165a782","e9cc2542-c7dc-4d8f-b94f-d088ad8989d1","{""part"":""2"",""participantId"":""B3438ED0E2FF474C932749E7CA9F423D"",""assignmentId"":""93360cfd-c2e8-4d86-8088-cfa35165a782"",""projectId"":""e9cc2542-c7dc-4d8f-b94f-d088ad8989d1""}","https://test12345.live/?part=2&participantId=B3438ED0E2FF474C932749E7CA9F423D&assignmentId=93360cfd-c2e8-4d86-8088-cfa35165a782&projectId=e9cc2542-c7dc-4d8f-b94f-d088ad8989d1","B3438ED0E2FF474C932749E7CA9F423D-2025-05-16-19-39-04","","16837","","[""<span style=\""color: red; font-size: 24px\""> NOW RECORDING</span><p>Please say out loud all the images you saw in part 1 of the experiment, as many as you can remember. The images can be said in any order.</p>""]","","9","visiting_cities_semantic"
"","","","","","image-button-response","49","611039","0.0-47.0-0.0","B3438ED0E2FF474C932749E7CA9F423D","B3438ED0E2FF474C932749E7CA9F423D","93360cfd-c2e8-4d86-8088-cfa35165a782","e9cc2542-c7dc-4d8f-b94f-d088ad8989d1","{""part"":""2"",""participantId"":""B3438ED0E2FF474C932749E7CA9F423D"",""assignmentId"":""93360cfd-c2e8-4d86-8088-cfa35165a782"",""projectId"":""e9cc2542-c7dc-4d8f-b94f-d088ad8989d1""}","https://test12345.live/?part=2&participantId=B3438ED0E2FF474C932749E7CA9F423D&assignmentId=93360cfd-c2e8-4d86-8088-cfa35165a782&projectId=e9cc2542-c7dc-4d8f-b94f-d088ad8989d1","B3438ED0E2FF474C932749E7CA9F423D-2025-05-16-19-39-04","","null","","images/semantic_sequence/housework_semantic/housework_semantic_0.png","null","",""
"","","","","","html-audio-response","50","632070","0.0-48.0","B3438ED0E2FF474C932749E7CA9F423D","B3438ED0E2FF474C932749E7CA9F423D","93360cfd-c2e8-4d86-8088-cfa35165a782","e9cc2542-c7dc-4d8f-b94f-d088ad8989d1","{""part"":""2"",""participantId"":""B3438ED0E2FF474C932749E7CA9F423D"",""assignmentId"":""93360cfd-c2e8-4d86-8088-cfa35165a782"",""projectId"":""e9cc2542-c7dc-4d8f-b94f-d088ad8989d1""}","https://test12345.live/?part=2&participantId=B3438ED0E2FF474C932749E7CA9F423D&assignmentId=93360cfd-c2e8-4d86-8088-cfa35165a782&projectId=e9cc2542-c7dc-4d8f-b94f-d088ad8989d1","B3438ED0E2FF474C932749E7CA9F423D-2025-05-16-19-39-04","","20100","","[""<span style=\""color: red; font-size: 24px\""> NOW RECORDING</span><p>Please say out loud all the images you saw in part 1 of the experiment, as many as you can remember. The images can be said in any order.</p>""]","","1","housework_semantic"
"","","","","","image-button-response","51","638087","0.0-49.0-0.0","B3438ED0E2FF474C932749E7CA9F423D","B3438ED0E2FF474C932749E7CA9F423D","93360cfd-c2e8-4d86-8088-cfa35165a782","e9cc2542-c7dc-4d8f-b94f-d088ad8989d1","{""part"":""2"",""participantId"":""B3438ED0E2FF474C932749E7CA9F423D"",""assignmentId"":""93360cfd-c2e8-4d86-8088-cfa35165a782"",""projectId"":""e9cc2542-c7dc-4d8f-b94f-d088ad8989d1""}","https://test12345.live/?part=2&participantId=B3438ED0E2FF474C932749E7CA9F423D&assignmentId=93360cfd-c2e8-4d86-8088-cfa35165a782&projectId=e9cc2542-c7dc-4d8f-b94f-d088ad8989d1","B3438ED0E2FF474C932749E7CA9F423D-2025-05-16-19-39-04","","null","","images/causal_sequence/coin_causal/coin_causal_0.png","null","",""
"","","","","","html-audio-response","52","662374","0.0-50.0","B3438ED0E2FF474C932749E7CA9F423D","B3438ED0E2FF474C932749E7CA9F423D","93360cfd-c2e8-4d86-8088-cfa35165a782","e9cc2542-c7dc-4d8f-b94f-d088ad8989d1","{""part"":""2"",""participantId"":""B3438ED0E2FF474C932749E7CA9F423D"",""assignmentId"":""93360cfd-c2e8-4d86-8088-cfa35165a782"",""projectId"":""e9cc2542-c7dc-4d8f-b94f-d088ad8989d1""}","https://test12345.live/?part=2&participantId=B3438ED0E2FF474C932749E7CA9F423D&assignmentId=93360cfd-c2e8-4d86-8088-cfa35165a782&projectId=e9cc2542-c7dc-4d8f-b94f-d088ad8989d1","B3438ED0E2FF474C932749E7CA9F423D-2025-05-16-19-39-04","","23442","","[""<span style=\""color: red; font-size: 24px\""> NOW RECORDING</span><p>Please say out loud all the images you saw in part 1 of the experiment, as many as you can remember. The images can be said in any order.</p>""]","","2","coin_causal"
"","","","","","image-button-response","53","668377","0.0-51.0-0.0","B3438ED0E2FF474C932749E7CA9F423D","B3438ED0E2FF474C932749E7CA9F423D","93360cfd-c2e8-4d86-8088-cfa35165a782","e9cc2542-c7dc-4d8f-b94f-d088ad8989d1","{""part"":""2"",""participantId"":""B3438ED0E2FF474C932749E7CA9F423D"",""assignmentId"":""93360cfd-c2e8-4d86-8088-cfa35165a782"",""projectId"":""e9cc2542-c7dc-4d8f-b94f-d088ad8989d1""}","https://test12345.live/?part=2&participantId=B3438ED0E2FF474C932749E7CA9F423D&assignmentId=93360cfd-c2e8-4d86-8088-cfa35165a782&projectId=e9cc2542-c7dc-4d8f-b94f-d088ad8989d1","B3438ED0E2FF474C932749E7CA9F423D-2025-05-16-19-39-04","","null","","images/semantic_sequence/maintaining_a_car_semantic/maintaining_a_car_semantic_0.png","null","",""
"","","","","","html-audio-response","54","684118","0.0-52.0","B3438ED0E2FF474C932749E7CA9F423D","B3438ED0E2FF474C932749E7CA9F423D","93360cfd-c2e8-4d86-8088-cfa35165a782","e9cc2542-c7dc-4d8f-b94f-d088ad8989d1","{""part"":""2"",""participantId"":""B3438ED0E2FF474C932749E7CA9F423D"",""assignmentId"":""93360cfd-c2e8-4d86-8088-cfa35165a782"",""projectId"":""e9cc2542-c7dc-4d8f-b94f-d088ad8989d1""}","https://test12345.live/?part=2&participantId=B3438ED0E2FF474C932749E7CA9F423D&assignmentId=93360cfd-c2e8-4d86-8088-cfa35165a782&projectId=e9cc2542-c7dc-4d8f-b94f-d088ad8989d1","B3438ED0E2FF474C932749E7CA9F423D-2025-05-16-19-39-04","","14842","","[""<span style=\""color: red; font-size: 24px\""> NOW RECORDING</span><p>Please say out loud all the images you saw in part 1 of the experiment, as many as you can remember. The images can be said in any order.</p>""]","","0","maintaining_a_car_semantic"
"","","","","","image-button-response","55","690130","0.0-53.0-0.0","B3438ED0E2FF474C932749E7CA9F423D","B3438ED0E2FF474C932749E7CA9F423D","93360cfd-c2e8-4d86-8088-cfa35165a782","e9cc2542-c7dc-4d8f-b94f-d088ad8989d1","{""part"":""2"",""participantId"":""B3438ED0E2FF474C932749E7CA9F423D"",""assignmentId"":""93360cfd-c2e8-4d86-8088-cfa35165a782"",""projectId"":""e9cc2542-c7dc-4d8f-b94f-d088ad8989d1""}","https://test12345.live/?part=2&participantId=B3438ED0E2FF474C932749E7CA9F423D&assignmentId=93360cfd-c2e8-4d86-8088-cfa35165a782&projectId=e9cc2542-c7dc-4d8f-b94f-d088ad8989d1","B3438ED0E2FF474C932749E7CA9F423D-2025-05-16-19-39-04","","null","","images/semantic_sequence/kitchen_operations_semantic/kitchen_operations_semantic_0.png","null","",""
"","","","","","html-audio-response","56","702511","0.0-54.0","B3438ED0E2FF474C932749E7CA9F423D","B3438ED0E2FF474C932749E7CA9F423D","93360cfd-c2e8-4d86-8088-cfa35165a782","e9cc2542-c7dc-4d8f-b94f-d088ad8989d1","{""part"":""2"",""participantId"":""B3438ED0E2FF474C932749E7CA9F423D"",""assignmentId"":""93360cfd-c2e8-4d86-8088-cfa35165a782"",""projectId"":""e9cc2542-c7dc-4d8f-b94f-d088ad8989d1""}","https://test12345.live/?part=2&participantId=B3438ED0E2FF474C932749E7CA9F423D&assignmentId=93360cfd-c2e8-4d86-8088-cfa35165a782&projectId=e9cc2542-c7dc-4d8f-b94f-d088ad8989d1","B3438ED0E2FF474C932749E7CA9F423D-2025-05-16-19-39-04","","11458","","[""<span style=\""color: red; font-size: 24px\""> NOW RECORDING</span><p>Please say out loud all the images you saw in part 1 of the experiment, as many as you can remember. The images can be said in any order.</p>""]","","3","kitchen_operations_semantic"
"","","","","","image-button-response","57","708514","0.0-55.0-0.0","B3438ED0E2FF474C932749E7CA9F423D","B3438ED0E2FF474C932749E7CA9F423D","93360cfd-c2e8-4d86-8088-cfa35165a782","e9cc2542-c7dc-4d8f-b94f-d088ad8989d1","{""part"":""2"",""participantId"":""B3438ED0E2FF474C932749E7CA9F423D"",""assignmentId"":""93360cfd-c2e8-4d86-8088-cfa35165a782"",""projectId"":""e9cc2542-c7dc-4d8f-b94f-d088ad8989d1""}","https://test12345.live/?part=2&participantId=B3438ED0E2FF474C932749E7CA9F423D&assignmentId=93360cfd-c2e8-4d86-8088-cfa35165a782&projectId=e9cc2542-c7dc-4d8f-b94f-d088ad8989d1","B3438ED0E2FF474C932749E7CA9F423D-2025-05-16-19-39-04","","null","","images/causal_sequence/the_performance_causal/the_performance_causal_0.png","null","",""
"","","","","","html-audio-response","58","733766","0.0-56.0","B3438ED0E2FF474C932749E7CA9F423D","B3438ED0E2FF474C932749E7CA9F423D","93360cfd-c2e8-4d86-8088-cfa35165a782","e9cc2542-c7dc-4d8f-b94f-d088ad8989d1","{""part"":""2"",""participantId"":""B3438ED0E2FF474C932749E7CA9F423D"",""assignmentId"":""93360cfd-c2e8-4d86-8088-cfa35165a782"",""projectId"":""e9cc2542-c7dc-4d8f-b94f-d088ad8989d1""}","https://test12345.live/?part=2&participantId=B3438ED0E2FF474C932749E7CA9F423D&assignmentId=93360cfd-c2e8-4d86-8088-cfa35165a782&projectId=e9cc2542-c7dc-4d8f-b94f-d088ad8989d1","B3438ED0E2FF474C932749E7CA9F423D-2025-05-16-19-39-04","","24623","","[""<span style=\""color: red; font-size: 24px\""> NOW RECORDING</span><p>Please say out loud all the images you saw in part 1 of the experiment, as many as you can remember. The images can be said in any order.</p>""]","","1","the_performance_causal"
"","","","","","survey-text","59","738910","0.0-57.0","B3438ED0E2FF474C932749E7CA9F423D","B3438ED0E2FF474C932749E7CA9F423D","93360cfd-c2e8-4d86-8088-cfa35165a782","e9cc2542-c7dc-4d8f-b94f-d088ad8989d1","{""part"":""2"",""participantId"":""B3438ED0E2FF474C932749E7CA9F423D"",""assignmentId"":""93360cfd-c2e8-4d86-8088-cfa35165a782"",""projectId"":""e9cc2542-c7dc-4d8f-b94f-d088ad8989d1""}","https://test12345.live/?part=2&participantId=B3438ED0E2FF474C932749E7CA9F423D&assignmentId=93360cfd-c2e8-4d86-8088-cfa35165a782&projectId=e9cc2542-c7dc-4d8f-b94f-d088ad8989d1","B3438ED0E2FF474C932749E7CA9F423D-2025-05-16-19-39-04","","5139","","","{""Q0"":""Male"",""Q1"":""32""}","",""
"","","","","","instructions","60","743574","0.0-58.0","B3438ED0E2FF474C932749E7CA9F423D","B3438ED0E2FF474C932749E7CA9F423D","93360cfd-c2e8-4d86-8088-cfa35165a782","e9cc2542-c7dc-4d8f-b94f-d088ad8989d1","{""part"":""2"",""participantId"":""B3438ED0E2FF474C932749E7CA9F423D"",""assignmentId"":""93360cfd-c2e8-4d86-8088-cfa35165a782"",""projectId"":""e9cc2542-c7dc-4d8f-b94f-d088ad8989d1""}","https://test12345.live/?part=2&participantId=B3438ED0E2FF474C932749E7CA9F423D&assignmentId=93360cfd-c2e8-4d86-8088-cfa35165a782&projectId=e9cc2542-c7dc-4d8f-b94f-d088ad8989d1","B3438ED0E2FF474C932749E7CA9F423D-2025-05-16-19-39-04","[{""page_index"":0,""viewing_time"":4664}]","4664","","","","",""
"","","","","","survey-text","61","745919","0.0-59.0","B3438ED0E2FF474C932749E7CA9F423D","B3438ED0E2FF474C932749E7CA9F423D","93360cfd-c2e8-4d86-8088-cfa35165a782","e9cc2542-c7dc-4d8f-b94f-d088ad8989d1","{""part"":""2"",""participantId"":""B3438ED0E2FF474C932749E7CA9F423D"",""assignmentId"":""93360cfd-c2e8-4d86-8088-cfa35165a782"",""projectId"":""e9cc2542-c7dc-4d8f-b94f-d088ad8989d1""}","https://test12345.live/?part=2&participantId=B3438ED0E2FF474C932749E7CA9F423D&assignmentId=93360cfd-c2e8-4d86-8088-cfa35165a782&projectId=e9cc2542-c7dc-4d8f-b94f-d088ad8989d1","B3438ED0E2FF474C932749E7CA9F423D-2025-05-16-19-39-04","","2344","","","{""Q0"":""AJFHBG896""}","",""
