"success","timeout","failed_images","failed_audio","failed_video","trial_type","trial_index","time_elapsed","internal_node_id","subject","subject_id","study_id","session_id","urlvar","current_url","audio_id","view_history","rt","device_id","stimulus","response","estimated_stimulus_onset","seq_name"
"true","false","[]","[]","[]","preload","0","3439","0.0-0.0","B434DE310DA445DB95EDFFA7A132E066","B434DE310DA445DB95EDFFA7A132E066","0198bf10-5e37-7dda-95f0-9b963acf828c","0198beef-981a-7243-9790-051e10551090","{""num_scrambled_semantic"":""8"",""num_scrambled_causal"":""4"",""num_scrambled_schematic"":""4"",""participantId"":""B434DE310DA445DB95EDFFA7A132E066"",""assignmentId"":""0198bf10-5e37-7dda-95f0-9b963acf828c"",""projectId"":""0198beef-981a-7243-9790-051e10551090""}","https://test12345.live/?num_scrambled_semantic=8&num_scrambled_causal=4&num_scrambled_schematic=4&participantId=B434DE310DA445DB95EDFFA7A132E066&assignmentId=0198bf10-5e37-7dda-95f0-9b963acf828c&projectId=0198beef-981a-7243-9790-051e10551090","B434DE310DA445DB95EDFFA7A132E066-2025-08-18-21-29-07","","","","","","",""
"","","","","","instructions","1","27655","0.0-1.0","B434DE310DA445DB95EDFFA7A132E066","B434DE310DA445DB95EDFFA7A132E066","0198bf10-5e37-7dda-95f0-9b963acf828c","0198beef-981a-7243-9790-051e10551090","{""num_scrambled_semantic"":""8"",""num_scrambled_causal"":""4"",""num_scrambled_schematic"":""4"",""participantId"":""B434DE310DA445DB95EDFFA7A132E066"",""assignmentId"":""0198bf10-5e37-7dda-95f0-9b963acf828c"",""projectId"":""0198beef-981a-7243-9790-051e10551090""}","https://test12345.live/?num_scrambled_semantic=8&num_scrambled_causal=4&num_scrambled_schematic=4&participantId=B434DE310DA445DB95EDFFA7A132E066&assignmentId=0198bf10-5e37-7dda-95f0-9b963acf828c&projectId=0198beef-981a-7243-9790-051e10551090","B434DE310DA445DB95EDFFA7A132E066-2025-08-18-21-29-07","[{""page_index"":0,""viewing_time"":24213}]","24214","","","","",""
"","","","","","instructions","2","32500","0.0-2.0","B434DE310DA445DB95EDFFA7A132E066","B434DE310DA445DB95EDFFA7A132E066","0198bf10-5e37-7dda-95f0-9b963acf828c","0198beef-981a-7243-9790-051e10551090","{""num_scrambled_semantic"":""8"",""num_scrambled_causal"":""4"",""num_scrambled_schematic"":""4"",""participantId"":""B434DE310DA445DB95EDFFA7A132E066"",""assignmentId"":""0198bf10-5e37-7dda-95f0-9b963acf828c"",""projectId"":""0198beef-981a-7243-9790-051e10551090""}","https://test12345.live/?num_scrambled_semantic=8&num_scrambled_causal=4&num_scrambled_schematic=4&participantId=B434DE310DA445DB95EDFFA7A132E066&assignmentId=0198bf10-5e37-7dda-95f0-9b963acf828c&projectId=0198beef-981a-7243-9790-051e10551090","B434DE310DA445DB95EDFFA7A132E066-2025-08-18-21-29-07","[{""page_index"":0,""viewing_time"":4844}]","4845","","","","",""
"true","","","","","fullscreen","3","35026","0.0-3.0","B434DE310DA445DB95EDFFA7A132E066","B434DE310DA445DB95EDFFA7A132E066","0198bf10-5e37-7dda-95f0-9b963acf828c","0198beef-981a-7243-9790-051e10551090","{""num_scrambled_semantic"":""8"",""num_scrambled_causal"":""4"",""num_scrambled_schematic"":""4"",""participantId"":""B434DE310DA445DB95EDFFA7A132E066"",""assignmentId"":""0198bf10-5e37-7dda-95f0-9b963acf828c"",""projectId"":""0198beef-981a-7243-9790-051e10551090""}","https://test12345.live/?num_scrambled_semantic=8&num_scrambled_causal=4&num_scrambled_schematic=4&participantId=B434DE310DA445DB95EDFFA7A132E066&assignmentId=0198bf10-5e37-7dda-95f0-9b963acf828c&projectId=0198beef-981a-7243-9790-051e10551090","B434DE310DA445DB95EDFFA7A132E066-2025-08-18-21-29-07","","1490","","","","",""
"","","","","","initialize-microphone","4","43652","0.0-4.0-0.0","B434DE310DA445DB95EDFFA7A132E066","B434DE310DA445DB95EDFFA7A132E066","0198bf10-5e37-7dda-95f0-9b963acf828c","0198beef-981a-7243-9790-051e10551090","{""num_scrambled_semantic"":""8"",""num_scrambled_causal"":""4"",""num_scrambled_schematic"":""4"",""participantId"":""B434DE310DA445DB95EDFFA7A132E066"",""assignmentId"":""0198bf10-5e37-7dda-95f0-9b963acf828c"",""projectId"":""0198beef-981a-7243-9790-051e10551090""}","https://test12345.live/?num_scrambled_semantic=8&num_scrambled_causal=4&num_scrambled_schematic=4&participantId=B434DE310DA445DB95EDFFA7A132E066&assignmentId=0198bf10-5e37-7dda-95f0-9b963acf828c&projectId=0198beef-981a-7243-9790-051e10551090","B434DE310DA445DB95EDFFA7A132E066-2025-08-18-21-29-07","","","cd8f4739eb5a49d9c732603659eacabbd209b6d19e40733c201870afdec460c9","","","",""
"","","","","","html-audio-response","5","52293","0.0-4.0-1.0","B434DE310DA445DB95EDFFA7A132E066","B434DE310DA445DB95EDFFA7A132E066","0198bf10-5e37-7dda-95f0-9b963acf828c","0198beef-981a-7243-9790-051e10551090","{""num_scrambled_semantic"":""8"",""num_scrambled_causal"":""4"",""num_scrambled_schematic"":""4"",""participantId"":""B434DE310DA445DB95EDFFA7A132E066"",""assignmentId"":""0198bf10-5e37-7dda-95f0-9b963acf828c"",""projectId"":""0198beef-981a-7243-9790-051e10551090""}","https://test12345.live/?num_scrambled_semantic=8&num_scrambled_causal=4&num_scrambled_schematic=4&participantId=B434DE310DA445DB95EDFFA7A132E066&assignmentId=0198bf10-5e37-7dda-95f0-9b963acf828c&projectId=0198beef-981a-7243-9790-051e10551090","B434DE310DA445DB95EDFFA7A132E066-2025-08-18-21-29-07","","3098","","<span style=""color: red; font-size: 24px""> NOW RECORDING</span>
        <p>Please test Microphone</p>","","11",""
"","","","","","html-button-response","6","53449","0.0-4.0-2.0","B434DE310DA445DB95EDFFA7A132E066","B434DE310DA445DB95EDFFA7A132E066","0198bf10-5e37-7dda-95f0-9b963acf828c","0198beef-981a-7243-9790-051e10551090","{""num_scrambled_semantic"":""8"",""num_scrambled_causal"":""4"",""num_scrambled_schematic"":""4"",""participantId"":""B434DE310DA445DB95EDFFA7A132E066"",""assignmentId"":""0198bf10-5e37-7dda-95f0-9b963acf828c"",""projectId"":""0198beef-981a-7243-9790-051e10551090""}","https://test12345.live/?num_scrambled_semantic=8&num_scrambled_causal=4&num_scrambled_schematic=4&participantId=B434DE310DA445DB95EDFFA7A132E066&assignmentId=0198bf10-5e37-7dda-95f0-9b963acf828c&projectId=0198beef-981a-7243-9790-051e10551090","B434DE310DA445DB95EDFFA7A132E066-2025-08-18-21-29-07","","1154","","<p style=""font-size:48px; color:red;"">Is Microphone OK?</p>","1","",""
"","","","","","instructions","7","63776","0.0-5.0","B434DE310DA445DB95EDFFA7A132E066","B434DE310DA445DB95EDFFA7A132E066","0198bf10-5e37-7dda-95f0-9b963acf828c","0198beef-981a-7243-9790-051e10551090","{""num_scrambled_semantic"":""8"",""num_scrambled_causal"":""4"",""num_scrambled_schematic"":""4"",""participantId"":""B434DE310DA445DB95EDFFA7A132E066"",""assignmentId"":""0198bf10-5e37-7dda-95f0-9b963acf828c"",""projectId"":""0198beef-981a-7243-9790-051e10551090""}","https://test12345.live/?num_scrambled_semantic=8&num_scrambled_causal=4&num_scrambled_schematic=4&participantId=B434DE310DA445DB95EDFFA7A132E066&assignmentId=0198bf10-5e37-7dda-95f0-9b963acf828c&projectId=0198beef-981a-7243-9790-051e10551090","B434DE310DA445DB95EDFFA7A132E066-2025-08-18-21-29-07","[{""page_index"":0,""viewing_time"":1256},{""page_index"":1,""viewing_time"":4825},{""page_index"":2,""viewing_time"":4244}]","10325","","","","",""
"","","","","","image-button-response","8","69795","0.0-6.0-0.0","B434DE310DA445DB95EDFFA7A132E066","B434DE310DA445DB95EDFFA7A132E066","0198bf10-5e37-7dda-95f0-9b963acf828c","0198beef-981a-7243-9790-051e10551090","{""num_scrambled_semantic"":""8"",""num_scrambled_causal"":""4"",""num_scrambled_schematic"":""4"",""participantId"":""B434DE310DA445DB95EDFFA7A132E066"",""assignmentId"":""0198bf10-5e37-7dda-95f0-9b963acf828c"",""projectId"":""0198beef-981a-7243-9790-051e10551090""}","https://test12345.live/?num_scrambled_semantic=8&num_scrambled_causal=4&num_scrambled_schematic=4&participantId=B434DE310DA445DB95EDFFA7A132E066&assignmentId=0198bf10-5e37-7dda-95f0-9b963acf828c&projectId=0198beef-981a-7243-9790-051e10551090","B434DE310DA445DB95EDFFA7A132E066-2025-08-18-21-29-07","","null","","images/instructions/movie_0.png","null","",""
"","","","","","html-audio-response","9","80429","0.0-7.0","B434DE310DA445DB95EDFFA7A132E066","B434DE310DA445DB95EDFFA7A132E066","0198bf10-5e37-7dda-95f0-9b963acf828c","0198beef-981a-7243-9790-051e10551090","{""num_scrambled_semantic"":""8"",""num_scrambled_causal"":""4"",""num_scrambled_schematic"":""4"",""participantId"":""B434DE310DA445DB95EDFFA7A132E066"",""assignmentId"":""0198bf10-5e37-7dda-95f0-9b963acf828c"",""projectId"":""0198beef-981a-7243-9790-051e10551090""}","https://test12345.live/?num_scrambled_semantic=8&num_scrambled_causal=4&num_scrambled_schematic=4&participantId=B434DE310DA445DB95EDFFA7A132E066&assignmentId=0198bf10-5e37-7dda-95f0-9b963acf828c&projectId=0198beef-981a-7243-9790-051e10551090","B434DE310DA445DB95EDFFA7A132E066-2025-08-18-21-29-07","","8168","","[""<span style=\""color: red; font-size: 24px\""> NOW RECORDING</span><p>Please say out loud all the images you saw in part 1 of the experiment, as many as you can remember. The images can be said in any order.</p>""]","","4",""
"","","","","","instructions","10","84386","0.0-8.0","B434DE310DA445DB95EDFFA7A132E066","B434DE310DA445DB95EDFFA7A132E066","0198bf10-5e37-7dda-95f0-9b963acf828c","0198beef-981a-7243-9790-051e10551090","{""num_scrambled_semantic"":""8"",""num_scrambled_causal"":""4"",""num_scrambled_schematic"":""4"",""participantId"":""B434DE310DA445DB95EDFFA7A132E066"",""assignmentId"":""0198bf10-5e37-7dda-95f0-9b963acf828c"",""projectId"":""0198beef-981a-7243-9790-051e10551090""}","https://test12345.live/?num_scrambled_semantic=8&num_scrambled_causal=4&num_scrambled_schematic=4&participantId=B434DE310DA445DB95EDFFA7A132E066&assignmentId=0198bf10-5e37-7dda-95f0-9b963acf828c&projectId=0198beef-981a-7243-9790-051e10551090","B434DE310DA445DB95EDFFA7A132E066-2025-08-18-21-29-07","[{""page_index"":0,""viewing_time"":3950}]","3952","","","","",""
"","","","","","image-button-response","11","90393","0.0-9.0-0.0","B434DE310DA445DB95EDFFA7A132E066","B434DE310DA445DB95EDFFA7A132E066","0198bf10-5e37-7dda-95f0-9b963acf828c","0198beef-981a-7243-9790-051e10551090","{""num_scrambled_semantic"":""8"",""num_scrambled_causal"":""4"",""num_scrambled_schematic"":""4"",""participantId"":""B434DE310DA445DB95EDFFA7A132E066"",""assignmentId"":""0198bf10-5e37-7dda-95f0-9b963acf828c"",""projectId"":""0198beef-981a-7243-9790-051e10551090""}","https://test12345.live/?num_scrambled_semantic=8&num_scrambled_causal=4&num_scrambled_schematic=4&participantId=B434DE310DA445DB95EDFFA7A132E066&assignmentId=0198bf10-5e37-7dda-95f0-9b963acf828c&projectId=0198beef-981a-7243-9790-051e10551090","B434DE310DA445DB95EDFFA7A132E066-2025-08-18-21-29-07","","null","","images/causal_sequence/dog_causal/dog_causal_0.png","null","",""
"","","","","","html-audio-response","12","95923","0.0-10.0","B434DE310DA445DB95EDFFA7A132E066","B434DE310DA445DB95EDFFA7A132E066","0198bf10-5e37-7dda-95f0-9b963acf828c","0198beef-981a-7243-9790-051e10551090","{""num_scrambled_semantic"":""8"",""num_scrambled_causal"":""4"",""num_scrambled_schematic"":""4"",""participantId"":""B434DE310DA445DB95EDFFA7A132E066"",""assignmentId"":""0198bf10-5e37-7dda-95f0-9b963acf828c"",""projectId"":""0198beef-981a-7243-9790-051e10551090""}","https://test12345.live/?num_scrambled_semantic=8&num_scrambled_causal=4&num_scrambled_schematic=4&participantId=B434DE310DA445DB95EDFFA7A132E066&assignmentId=0198bf10-5e37-7dda-95f0-9b963acf828c&projectId=0198beef-981a-7243-9790-051e10551090","B434DE310DA445DB95EDFFA7A132E066-2025-08-18-21-29-07","","4396","","[""<span style=\""color: red; font-size: 24px\""> NOW RECORDING</span><p>Please say out loud all the images you saw in part 1 of the experiment, as many as you can remember. The images can be said in any order.</p>""]","","4","dog_causal"
"","","","","","image-button-response","13","101936","0.0-11.0-0.0","B434DE310DA445DB95EDFFA7A132E066","B434DE310DA445DB95EDFFA7A132E066","0198bf10-5e37-7dda-95f0-9b963acf828c","0198beef-981a-7243-9790-051e10551090","{""num_scrambled_semantic"":""8"",""num_scrambled_causal"":""4"",""num_scrambled_schematic"":""4"",""participantId"":""B434DE310DA445DB95EDFFA7A132E066"",""assignmentId"":""0198bf10-5e37-7dda-95f0-9b963acf828c"",""projectId"":""0198beef-981a-7243-9790-051e10551090""}","https://test12345.live/?num_scrambled_semantic=8&num_scrambled_causal=4&num_scrambled_schematic=4&participantId=B434DE310DA445DB95EDFFA7A132E066&assignmentId=0198bf10-5e37-7dda-95f0-9b963acf828c&projectId=0198beef-981a-7243-9790-051e10551090","B434DE310DA445DB95EDFFA7A132E066-2025-08-18-21-29-07","","null","","images/semantic_sequence/redecorating_semantic/redecorating_semantic_0.png","null","",""
"","","","","","html-audio-response","14","114127","0.0-12.0","B434DE310DA445DB95EDFFA7A132E066","B434DE310DA445DB95EDFFA7A132E066","0198bf10-5e37-7dda-95f0-9b963acf828c","0198beef-981a-7243-9790-051e10551090","{""num_scrambled_semantic"":""8"",""num_scrambled_causal"":""4"",""num_scrambled_schematic"":""4"",""participantId"":""B434DE310DA445DB95EDFFA7A132E066"",""assignmentId"":""0198bf10-5e37-7dda-95f0-9b963acf828c"",""projectId"":""0198beef-981a-7243-9790-051e10551090""}","https://test12345.live/?num_scrambled_semantic=8&num_scrambled_causal=4&num_scrambled_schematic=4&participantId=B434DE310DA445DB95EDFFA7A132E066&assignmentId=0198bf10-5e37-7dda-95f0-9b963acf828c&projectId=0198beef-981a-7243-9790-051e10551090","B434DE310DA445DB95EDFFA7A132E066-2025-08-18-21-29-07","","2431","","[""<span style=\""color: red; font-size: 24px\""> NOW RECORDING</span><p>Please say out loud all the images you saw in part 1 of the experiment, as many as you can remember. The images can be said in any order.</p>""]","","3","redecorating_semantic"
"","","","","","image-button-response","15","120133","0.0-13.0-0.0","B434DE310DA445DB95EDFFA7A132E066","B434DE310DA445DB95EDFFA7A132E066","0198bf10-5e37-7dda-95f0-9b963acf828c","0198beef-981a-7243-9790-051e10551090","{""num_scrambled_semantic"":""8"",""num_scrambled_causal"":""4"",""num_scrambled_schematic"":""4"",""participantId"":""B434DE310DA445DB95EDFFA7A132E066"",""assignmentId"":""0198bf10-5e37-7dda-95f0-9b963acf828c"",""projectId"":""0198beef-981a-7243-9790-051e10551090""}","https://test12345.live/?num_scrambled_semantic=8&num_scrambled_causal=4&num_scrambled_schematic=4&participantId=B434DE310DA445DB95EDFFA7A132E066&assignmentId=0198bf10-5e37-7dda-95f0-9b963acf828c&projectId=0198beef-981a-7243-9790-051e10551090","B434DE310DA445DB95EDFFA7A132E066-2025-08-18-21-29-07","","null","","images/semantic_sequence/physical_activity_semantic/physical_activity_semantic_0.png","null","",""
"","","","","","html-audio-response","16","154717","0.0-14.0","B434DE310DA445DB95EDFFA7A132E066","B434DE310DA445DB95EDFFA7A132E066","0198bf10-5e37-7dda-95f0-9b963acf828c","0198beef-981a-7243-9790-051e10551090","{""num_scrambled_semantic"":""8"",""num_scrambled_causal"":""4"",""num_scrambled_schematic"":""4"",""participantId"":""B434DE310DA445DB95EDFFA7A132E066"",""assignmentId"":""0198bf10-5e37-7dda-95f0-9b963acf828c"",""projectId"":""0198beef-981a-7243-9790-051e10551090""}","https://test12345.live/?num_scrambled_semantic=8&num_scrambled_causal=4&num_scrambled_schematic=4&participantId=B434DE310DA445DB95EDFFA7A132E066&assignmentId=0198bf10-5e37-7dda-95f0-9b963acf828c&projectId=0198beef-981a-7243-9790-051e10551090","B434DE310DA445DB95EDFFA7A132E066-2025-08-18-21-29-07","","5667","","[""<span style=\""color: red; font-size: 24px\""> NOW RECORDING</span><p>Please say out loud all the images you saw in part 1 of the experiment, as many as you can remember. The images can be said in any order.</p>""]","","3","physical_activity_semantic"
"","","","","","image-button-response","17","160724","0.0-15.0-0.0","B434DE310DA445DB95EDFFA7A132E066","B434DE310DA445DB95EDFFA7A132E066","0198bf10-5e37-7dda-95f0-9b963acf828c","0198beef-981a-7243-9790-051e10551090","{""num_scrambled_semantic"":""8"",""num_scrambled_causal"":""4"",""num_scrambled_schematic"":""4"",""participantId"":""B434DE310DA445DB95EDFFA7A132E066"",""assignmentId"":""0198bf10-5e37-7dda-95f0-9b963acf828c"",""projectId"":""0198beef-981a-7243-9790-051e10551090""}","https://test12345.live/?num_scrambled_semantic=8&num_scrambled_causal=4&num_scrambled_schematic=4&participantId=B434DE310DA445DB95EDFFA7A132E066&assignmentId=0198bf10-5e37-7dda-95f0-9b963acf828c&projectId=0198beef-981a-7243-9790-051e10551090","B434DE310DA445DB95EDFFA7A132E066-2025-08-18-21-29-07","","null","","images/semantic_sequence/creative_activities_semantic/creative_activities_semantic_0.png","null","",""
"","","","","","html-audio-response","18","177000","0.0-16.0","B434DE310DA445DB95EDFFA7A132E066","B434DE310DA445DB95EDFFA7A132E066","0198bf10-5e37-7dda-95f0-9b963acf828c","0198beef-981a-7243-9790-051e10551090","{""num_scrambled_semantic"":""8"",""num_scrambled_causal"":""4"",""num_scrambled_schematic"":""4"",""participantId"":""B434DE310DA445DB95EDFFA7A132E066"",""assignmentId"":""0198bf10-5e37-7dda-95f0-9b963acf828c"",""projectId"":""0198beef-981a-7243-9790-051e10551090""}","https://test12345.live/?num_scrambled_semantic=8&num_scrambled_causal=4&num_scrambled_schematic=4&participantId=B434DE310DA445DB95EDFFA7A132E066&assignmentId=0198bf10-5e37-7dda-95f0-9b963acf828c&projectId=0198beef-981a-7243-9790-051e10551090","B434DE310DA445DB95EDFFA7A132E066-2025-08-18-21-29-07","","11683","","[""<span style=\""color: red; font-size: 24px\""> NOW RECORDING</span><p>Please say out loud all the images you saw in part 1 of the experiment, as many as you can remember. The images can be said in any order.</p>""]","","2","creative_activities_semantic"
"","","","","","image-button-response","19","183017","0.0-17.0-0.0","B434DE310DA445DB95EDFFA7A132E066","B434DE310DA445DB95EDFFA7A132E066","0198bf10-5e37-7dda-95f0-9b963acf828c","0198beef-981a-7243-9790-051e10551090","{""num_scrambled_semantic"":""8"",""num_scrambled_causal"":""4"",""num_scrambled_schematic"":""4"",""participantId"":""B434DE310DA445DB95EDFFA7A132E066"",""assignmentId"":""0198bf10-5e37-7dda-95f0-9b963acf828c"",""projectId"":""0198beef-981a-7243-9790-051e10551090""}","https://test12345.live/?num_scrambled_semantic=8&num_scrambled_causal=4&num_scrambled_schematic=4&participantId=B434DE310DA445DB95EDFFA7A132E066&assignmentId=0198bf10-5e37-7dda-95f0-9b963acf828c&projectId=0198beef-981a-7243-9790-051e10551090","B434DE310DA445DB95EDFFA7A132E066-2025-08-18-21-29-07","","null","","images/causal_sequence/museum_causal/museum_causal_0.png","null","",""
"","","","","","html-audio-response","20","199659","0.0-18.0","B434DE310DA445DB95EDFFA7A132E066","B434DE310DA445DB95EDFFA7A132E066","0198bf10-5e37-7dda-95f0-9b963acf828c","0198beef-981a-7243-9790-051e10551090","{""num_scrambled_semantic"":""8"",""num_scrambled_causal"":""4"",""num_scrambled_schematic"":""4"",""participantId"":""B434DE310DA445DB95EDFFA7A132E066"",""assignmentId"":""0198bf10-5e37-7dda-95f0-9b963acf828c"",""projectId"":""0198beef-981a-7243-9790-051e10551090""}","https://test12345.live/?num_scrambled_semantic=8&num_scrambled_causal=4&num_scrambled_schematic=4&participantId=B434DE310DA445DB95EDFFA7A132E066&assignmentId=0198bf10-5e37-7dda-95f0-9b963acf828c&projectId=0198beef-981a-7243-9790-051e10551090","B434DE310DA445DB95EDFFA7A132E066-2025-08-18-21-29-07","","15663","","[""<span style=\""color: red; font-size: 24px\""> NOW RECORDING</span><p>Please say out loud all the images you saw in part 1 of the experiment, as many as you can remember. The images can be said in any order.</p>""]","","3","museum_causal"
"","","","","","image-button-response","21","205669","0.0-19.0-0.0","B434DE310DA445DB95EDFFA7A132E066","B434DE310DA445DB95EDFFA7A132E066","0198bf10-5e37-7dda-95f0-9b963acf828c","0198beef-981a-7243-9790-051e10551090","{""num_scrambled_semantic"":""8"",""num_scrambled_causal"":""4"",""num_scrambled_schematic"":""4"",""participantId"":""B434DE310DA445DB95EDFFA7A132E066"",""assignmentId"":""0198bf10-5e37-7dda-95f0-9b963acf828c"",""projectId"":""0198beef-981a-7243-9790-051e10551090""}","https://test12345.live/?num_scrambled_semantic=8&num_scrambled_causal=4&num_scrambled_schematic=4&participantId=B434DE310DA445DB95EDFFA7A132E066&assignmentId=0198bf10-5e37-7dda-95f0-9b963acf828c&projectId=0198beef-981a-7243-9790-051e10551090","B434DE310DA445DB95EDFFA7A132E066-2025-08-18-21-29-07","","null","","images/causal_sequence/coin_causal/coin_causal_0.png","null","",""
"","","","","","html-audio-response","22","230361","0.0-20.0","B434DE310DA445DB95EDFFA7A132E066","B434DE310DA445DB95EDFFA7A132E066","0198bf10-5e37-7dda-95f0-9b963acf828c","0198beef-981a-7243-9790-051e10551090","{""num_scrambled_semantic"":""8"",""num_scrambled_causal"":""4"",""num_scrambled_schematic"":""4"",""participantId"":""B434DE310DA445DB95EDFFA7A132E066"",""assignmentId"":""0198bf10-5e37-7dda-95f0-9b963acf828c"",""projectId"":""0198beef-981a-7243-9790-051e10551090""}","https://test12345.live/?num_scrambled_semantic=8&num_scrambled_causal=4&num_scrambled_schematic=4&participantId=B434DE310DA445DB95EDFFA7A132E066&assignmentId=0198bf10-5e37-7dda-95f0-9b963acf828c&projectId=0198beef-981a-7243-9790-051e10551090","B434DE310DA445DB95EDFFA7A132E066-2025-08-18-21-29-07","","23726","","[""<span style=\""color: red; font-size: 24px\""> NOW RECORDING</span><p>Please say out loud all the images you saw in part 1 of the experiment, as many as you can remember. The images can be said in any order.</p>""]","","8","coin_causal"
"","","","","","image-button-response","23","236370","0.0-21.0-0.0","B434DE310DA445DB95EDFFA7A132E066","B434DE310DA445DB95EDFFA7A132E066","0198bf10-5e37-7dda-95f0-9b963acf828c","0198beef-981a-7243-9790-051e10551090","{""num_scrambled_semantic"":""8"",""num_scrambled_causal"":""4"",""num_scrambled_schematic"":""4"",""participantId"":""B434DE310DA445DB95EDFFA7A132E066"",""assignmentId"":""0198bf10-5e37-7dda-95f0-9b963acf828c"",""projectId"":""0198beef-981a-7243-9790-051e10551090""}","https://test12345.live/?num_scrambled_semantic=8&num_scrambled_causal=4&num_scrambled_schematic=4&participantId=B434DE310DA445DB95EDFFA7A132E066&assignmentId=0198bf10-5e37-7dda-95f0-9b963acf828c&projectId=0198beef-981a-7243-9790-051e10551090","B434DE310DA445DB95EDFFA7A132E066-2025-08-18-21-29-07","","null","","images/causal_sequence/package_causal/package_causal_0.png","null","",""
"","","","","","html-audio-response","24","247487","0.0-22.0","B434DE310DA445DB95EDFFA7A132E066","B434DE310DA445DB95EDFFA7A132E066","0198bf10-5e37-7dda-95f0-9b963acf828c","0198beef-981a-7243-9790-051e10551090","{""num_scrambled_semantic"":""8"",""num_scrambled_causal"":""4"",""num_scrambled_schematic"":""4"",""participantId"":""B434DE310DA445DB95EDFFA7A132E066"",""assignmentId"":""0198bf10-5e37-7dda-95f0-9b963acf828c"",""projectId"":""0198beef-981a-7243-9790-051e10551090""}","https://test12345.live/?num_scrambled_semantic=8&num_scrambled_causal=4&num_scrambled_schematic=4&participantId=B434DE310DA445DB95EDFFA7A132E066&assignmentId=0198bf10-5e37-7dda-95f0-9b963acf828c&projectId=0198beef-981a-7243-9790-051e10551090","B434DE310DA445DB95EDFFA7A132E066-2025-08-18-21-29-07","","10105","","[""<span style=\""color: red; font-size: 24px\""> NOW RECORDING</span><p>Please say out loud all the images you saw in part 1 of the experiment, as many as you can remember. The images can be said in any order.</p>""]","","2","package_causal"
"","","","","","image-button-response","25","253493","0.0-23.0-0.0","B434DE310DA445DB95EDFFA7A132E066","B434DE310DA445DB95EDFFA7A132E066","0198bf10-5e37-7dda-95f0-9b963acf828c","0198beef-981a-7243-9790-051e10551090","{""num_scrambled_semantic"":""8"",""num_scrambled_causal"":""4"",""num_scrambled_schematic"":""4"",""participantId"":""B434DE310DA445DB95EDFFA7A132E066"",""assignmentId"":""0198bf10-5e37-7dda-95f0-9b963acf828c"",""projectId"":""0198beef-981a-7243-9790-051e10551090""}","https://test12345.live/?num_scrambled_semantic=8&num_scrambled_causal=4&num_scrambled_schematic=4&participantId=B434DE310DA445DB95EDFFA7A132E066&assignmentId=0198bf10-5e37-7dda-95f0-9b963acf828c&projectId=0198beef-981a-7243-9790-051e10551090","B434DE310DA445DB95EDFFA7A132E066-2025-08-18-21-29-07","","null","","images/semantic_sequence/cat_care_semantic/cat_care_semantic_0.png","null","",""
"","","","","","html-audio-response","26","266282","0.0-24.0","B434DE310DA445DB95EDFFA7A132E066","B434DE310DA445DB95EDFFA7A132E066","0198bf10-5e37-7dda-95f0-9b963acf828c","0198beef-981a-7243-9790-051e10551090","{""num_scrambled_semantic"":""8"",""num_scrambled_causal"":""4"",""num_scrambled_schematic"":""4"",""participantId"":""B434DE310DA445DB95EDFFA7A132E066"",""assignmentId"":""0198bf10-5e37-7dda-95f0-9b963acf828c"",""projectId"":""0198beef-981a-7243-9790-051e10551090""}","https://test12345.live/?num_scrambled_semantic=8&num_scrambled_causal=4&num_scrambled_schematic=4&participantId=B434DE310DA445DB95EDFFA7A132E066&assignmentId=0198bf10-5e37-7dda-95f0-9b963acf828c&projectId=0198beef-981a-7243-9790-051e10551090","B434DE310DA445DB95EDFFA7A132E066-2025-08-18-21-29-07","","12053","","[""<span style=\""color: red; font-size: 24px\""> NOW RECORDING</span><p>Please say out loud all the images you saw in part 1 of the experiment, as many as you can remember. The images can be said in any order.</p>""]","","5","cat_care_semantic"
"","","","","","image-button-response","27","272302","0.0-25.0-0.0","B434DE310DA445DB95EDFFA7A132E066","B434DE310DA445DB95EDFFA7A132E066","0198bf10-5e37-7dda-95f0-9b963acf828c","0198beef-981a-7243-9790-051e10551090","{""num_scrambled_semantic"":""8"",""num_scrambled_causal"":""4"",""num_scrambled_schematic"":""4"",""participantId"":""B434DE310DA445DB95EDFFA7A132E066"",""assignmentId"":""0198bf10-5e37-7dda-95f0-9b963acf828c"",""projectId"":""0198beef-981a-7243-9790-051e10551090""}","https://test12345.live/?num_scrambled_semantic=8&num_scrambled_causal=4&num_scrambled_schematic=4&participantId=B434DE310DA445DB95EDFFA7A132E066&assignmentId=0198bf10-5e37-7dda-95f0-9b963acf828c&projectId=0198beef-981a-7243-9790-051e10551090","B434DE310DA445DB95EDFFA7A132E066-2025-08-18-21-29-07","","null","","images/semantic_sequence/maintaining_a_car_semantic/maintaining_a_car_semantic_0.png","null","",""
"","","","","","html-audio-response","28","285636","0.0-26.0","B434DE310DA445DB95EDFFA7A132E066","B434DE310DA445DB95EDFFA7A132E066","0198bf10-5e37-7dda-95f0-9b963acf828c","0198beef-981a-7243-9790-051e10551090","{""num_scrambled_semantic"":""8"",""num_scrambled_causal"":""4"",""num_scrambled_schematic"":""4"",""participantId"":""B434DE310DA445DB95EDFFA7A132E066"",""assignmentId"":""0198bf10-5e37-7dda-95f0-9b963acf828c"",""projectId"":""0198beef-981a-7243-9790-051e10551090""}","https://test12345.live/?num_scrambled_semantic=8&num_scrambled_causal=4&num_scrambled_schematic=4&participantId=B434DE310DA445DB95EDFFA7A132E066&assignmentId=0198bf10-5e37-7dda-95f0-9b963acf828c&projectId=0198beef-981a-7243-9790-051e10551090","B434DE310DA445DB95EDFFA7A132E066-2025-08-18-21-29-07","","12442","","[""<span style=\""color: red; font-size: 24px\""> NOW RECORDING</span><p>Please say out loud all the images you saw in part 1 of the experiment, as many as you can remember. The images can be said in any order.</p>""]","","4","maintaining_a_car_semantic"
"","","","","","image-button-response","29","291649","0.0-27.0-0.0","B434DE310DA445DB95EDFFA7A132E066","B434DE310DA445DB95EDFFA7A132E066","0198bf10-5e37-7dda-95f0-9b963acf828c","0198beef-981a-7243-9790-051e10551090","{""num_scrambled_semantic"":""8"",""num_scrambled_causal"":""4"",""num_scrambled_schematic"":""4"",""participantId"":""B434DE310DA445DB95EDFFA7A132E066"",""assignmentId"":""0198bf10-5e37-7dda-95f0-9b963acf828c"",""projectId"":""0198beef-981a-7243-9790-051e10551090""}","https://test12345.live/?num_scrambled_semantic=8&num_scrambled_causal=4&num_scrambled_schematic=4&participantId=B434DE310DA445DB95EDFFA7A132E066&assignmentId=0198bf10-5e37-7dda-95f0-9b963acf828c&projectId=0198beef-981a-7243-9790-051e10551090","B434DE310DA445DB95EDFFA7A132E066-2025-08-18-21-29-07","","null","","images/semantic_sequence/housework_semantic/housework_semantic_0.png","null","",""
"","","","","","html-audio-response","30","302029","0.0-28.0","B434DE310DA445DB95EDFFA7A132E066","B434DE310DA445DB95EDFFA7A132E066","0198bf10-5e37-7dda-95f0-9b963acf828c","0198beef-981a-7243-9790-051e10551090","{""num_scrambled_semantic"":""8"",""num_scrambled_causal"":""4"",""num_scrambled_schematic"":""4"",""participantId"":""B434DE310DA445DB95EDFFA7A132E066"",""assignmentId"":""0198bf10-5e37-7dda-95f0-9b963acf828c"",""projectId"":""0198beef-981a-7243-9790-051e10551090""}","https://test12345.live/?num_scrambled_semantic=8&num_scrambled_causal=4&num_scrambled_schematic=4&participantId=B434DE310DA445DB95EDFFA7A132E066&assignmentId=0198bf10-5e37-7dda-95f0-9b963acf828c&projectId=0198beef-981a-7243-9790-051e10551090","B434DE310DA445DB95EDFFA7A132E066-2025-08-18-21-29-07","","9436","","[""<span style=\""color: red; font-size: 24px\""> NOW RECORDING</span><p>Please say out loud all the images you saw in part 1 of the experiment, as many as you can remember. The images can be said in any order.</p>""]","","4","housework_semantic"
"","","","","","image-button-response","31","308042","0.0-29.0-0.0","B434DE310DA445DB95EDFFA7A132E066","B434DE310DA445DB95EDFFA7A132E066","0198bf10-5e37-7dda-95f0-9b963acf828c","0198beef-981a-7243-9790-051e10551090","{""num_scrambled_semantic"":""8"",""num_scrambled_causal"":""4"",""num_scrambled_schematic"":""4"",""participantId"":""B434DE310DA445DB95EDFFA7A132E066"",""assignmentId"":""0198bf10-5e37-7dda-95f0-9b963acf828c"",""projectId"":""0198beef-981a-7243-9790-051e10551090""}","https://test12345.live/?num_scrambled_semantic=8&num_scrambled_causal=4&num_scrambled_schematic=4&participantId=B434DE310DA445DB95EDFFA7A132E066&assignmentId=0198bf10-5e37-7dda-95f0-9b963acf828c&projectId=0198beef-981a-7243-9790-051e10551090","B434DE310DA445DB95EDFFA7A132E066-2025-08-18-21-29-07","","null","","images/causal_sequence/saving_a_cat_causal/saving_a_cat_causal_0.png","null","",""
"","","","","","html-audio-response","32","323825","0.0-30.0","B434DE310DA445DB95EDFFA7A132E066","B434DE310DA445DB95EDFFA7A132E066","0198bf10-5e37-7dda-95f0-9b963acf828c","0198beef-981a-7243-9790-051e10551090","{""num_scrambled_semantic"":""8"",""num_scrambled_causal"":""4"",""num_scrambled_schematic"":""4"",""participantId"":""B434DE310DA445DB95EDFFA7A132E066"",""assignmentId"":""0198bf10-5e37-7dda-95f0-9b963acf828c"",""projectId"":""0198beef-981a-7243-9790-051e10551090""}","https://test12345.live/?num_scrambled_semantic=8&num_scrambled_causal=4&num_scrambled_schematic=4&participantId=B434DE310DA445DB95EDFFA7A132E066&assignmentId=0198bf10-5e37-7dda-95f0-9b963acf828c&projectId=0198beef-981a-7243-9790-051e10551090","B434DE310DA445DB95EDFFA7A132E066-2025-08-18-21-29-07","","14102","","[""<span style=\""color: red; font-size: 24px\""> NOW RECORDING</span><p>Please say out loud all the images you saw in part 1 of the experiment, as many as you can remember. The images can be said in any order.</p>""]","","2","saving_a_cat_causal"
"","","","","","image-button-response","33","329839","0.0-31.0-0.0","B434DE310DA445DB95EDFFA7A132E066","B434DE310DA445DB95EDFFA7A132E066","0198bf10-5e37-7dda-95f0-9b963acf828c","0198beef-981a-7243-9790-051e10551090","{""num_scrambled_semantic"":""8"",""num_scrambled_causal"":""4"",""num_scrambled_schematic"":""4"",""participantId"":""B434DE310DA445DB95EDFFA7A132E066"",""assignmentId"":""0198bf10-5e37-7dda-95f0-9b963acf828c"",""projectId"":""0198beef-981a-7243-9790-051e10551090""}","https://test12345.live/?num_scrambled_semantic=8&num_scrambled_causal=4&num_scrambled_schematic=4&participantId=B434DE310DA445DB95EDFFA7A132E066&assignmentId=0198bf10-5e37-7dda-95f0-9b963acf828c&projectId=0198beef-981a-7243-9790-051e10551090","B434DE310DA445DB95EDFFA7A132E066-2025-08-18-21-29-07","","null","","images/semantic_sequence/using_technology_semantic/using_technology_semantic_0.png","null","",""
"","","","","","html-audio-response","34","343713","0.0-32.0","B434DE310DA445DB95EDFFA7A132E066","B434DE310DA445DB95EDFFA7A132E066","0198bf10-5e37-7dda-95f0-9b963acf828c","0198beef-981a-7243-9790-051e10551090","{""num_scrambled_semantic"":""8"",""num_scrambled_causal"":""4"",""num_scrambled_schematic"":""4"",""participantId"":""B434DE310DA445DB95EDFFA7A132E066"",""assignmentId"":""0198bf10-5e37-7dda-95f0-9b963acf828c"",""projectId"":""0198beef-981a-7243-9790-051e10551090""}","https://test12345.live/?num_scrambled_semantic=8&num_scrambled_causal=4&num_scrambled_schematic=4&participantId=B434DE310DA445DB95EDFFA7A132E066&assignmentId=0198bf10-5e37-7dda-95f0-9b963acf828c&projectId=0198beef-981a-7243-9790-051e10551090","B434DE310DA445DB95EDFFA7A132E066-2025-08-18-21-29-07","","12452","","[""<span style=\""color: red; font-size: 24px\""> NOW RECORDING</span><p>Please say out loud all the images you saw in part 1 of the experiment, as many as you can remember. The images can be said in any order.</p>""]","","11","using_technology_semantic"
"","","","","","image-button-response","35","349731","0.0-33.0-0.0","B434DE310DA445DB95EDFFA7A132E066","B434DE310DA445DB95EDFFA7A132E066","0198bf10-5e37-7dda-95f0-9b963acf828c","0198beef-981a-7243-9790-051e10551090","{""num_scrambled_semantic"":""8"",""num_scrambled_causal"":""4"",""num_scrambled_schematic"":""4"",""participantId"":""B434DE310DA445DB95EDFFA7A132E066"",""assignmentId"":""0198bf10-5e37-7dda-95f0-9b963acf828c"",""projectId"":""0198beef-981a-7243-9790-051e10551090""}","https://test12345.live/?num_scrambled_semantic=8&num_scrambled_causal=4&num_scrambled_schematic=4&participantId=B434DE310DA445DB95EDFFA7A132E066&assignmentId=0198bf10-5e37-7dda-95f0-9b963acf828c&projectId=0198beef-981a-7243-9790-051e10551090","B434DE310DA445DB95EDFFA7A132E066-2025-08-18-21-29-07","","null","","images/causal_sequence/the_performance_causal/the_performance_causal_0.png","null","",""
"","","","","","html-audio-response","36","365325","0.0-34.0","B434DE310DA445DB95EDFFA7A132E066","B434DE310DA445DB95EDFFA7A132E066","0198bf10-5e37-7dda-95f0-9b963acf828c","0198beef-981a-7243-9790-051e10551090","{""num_scrambled_semantic"":""8"",""num_scrambled_causal"":""4"",""num_scrambled_schematic"":""4"",""participantId"":""B434DE310DA445DB95EDFFA7A132E066"",""assignmentId"":""0198bf10-5e37-7dda-95f0-9b963acf828c"",""projectId"":""0198beef-981a-7243-9790-051e10551090""}","https://test12345.live/?num_scrambled_semantic=8&num_scrambled_causal=4&num_scrambled_schematic=4&participantId=B434DE310DA445DB95EDFFA7A132E066&assignmentId=0198bf10-5e37-7dda-95f0-9b963acf828c&projectId=0198beef-981a-7243-9790-051e10551090","B434DE310DA445DB95EDFFA7A132E066-2025-08-18-21-29-07","","14856","","[""<span style=\""color: red; font-size: 24px\""> NOW RECORDING</span><p>Please say out loud all the images you saw in part 1 of the experiment, as many as you can remember. The images can be said in any order.</p>""]","","5","the_performance_causal"
"","","","","","survey-text","37","375899","0.0-35.0","B434DE310DA445DB95EDFFA7A132E066","B434DE310DA445DB95EDFFA7A132E066","0198bf10-5e37-7dda-95f0-9b963acf828c","0198beef-981a-7243-9790-051e10551090","{""num_scrambled_semantic"":""8"",""num_scrambled_causal"":""4"",""num_scrambled_schematic"":""4"",""participantId"":""B434DE310DA445DB95EDFFA7A132E066"",""assignmentId"":""0198bf10-5e37-7dda-95f0-9b963acf828c"",""projectId"":""0198beef-981a-7243-9790-051e10551090""}","https://test12345.live/?num_scrambled_semantic=8&num_scrambled_causal=4&num_scrambled_schematic=4&participantId=B434DE310DA445DB95EDFFA7A132E066&assignmentId=0198bf10-5e37-7dda-95f0-9b963acf828c&projectId=0198beef-981a-7243-9790-051e10551090","B434DE310DA445DB95EDFFA7A132E066-2025-08-18-21-29-07","","10540","","","{""Q0"":""female"",""Q1"":""27""}","",""
"","","","","","instructions","38","381350","0.0-36.0","B434DE310DA445DB95EDFFA7A132E066","B434DE310DA445DB95EDFFA7A132E066","0198bf10-5e37-7dda-95f0-9b963acf828c","0198beef-981a-7243-9790-051e10551090","{""num_scrambled_semantic"":""8"",""num_scrambled_causal"":""4"",""num_scrambled_schematic"":""4"",""participantId"":""B434DE310DA445DB95EDFFA7A132E066"",""assignmentId"":""0198bf10-5e37-7dda-95f0-9b963acf828c"",""projectId"":""0198beef-981a-7243-9790-051e10551090""}","https://test12345.live/?num_scrambled_semantic=8&num_scrambled_causal=4&num_scrambled_schematic=4&participantId=B434DE310DA445DB95EDFFA7A132E066&assignmentId=0198bf10-5e37-7dda-95f0-9b963acf828c&projectId=0198beef-981a-7243-9790-051e10551090","B434DE310DA445DB95EDFFA7A132E066-2025-08-18-21-29-07","[{""page_index"":0,""viewing_time"":5449}]","5450","","","","",""
"","","","","","survey-text","39","384239","0.0-37.0","B434DE310DA445DB95EDFFA7A132E066","B434DE310DA445DB95EDFFA7A132E066","0198bf10-5e37-7dda-95f0-9b963acf828c","0198beef-981a-7243-9790-051e10551090","{""num_scrambled_semantic"":""8"",""num_scrambled_causal"":""4"",""num_scrambled_schematic"":""4"",""participantId"":""B434DE310DA445DB95EDFFA7A132E066"",""assignmentId"":""0198bf10-5e37-7dda-95f0-9b963acf828c"",""projectId"":""0198beef-981a-7243-9790-051e10551090""}","https://test12345.live/?num_scrambled_semantic=8&num_scrambled_causal=4&num_scrambled_schematic=4&participantId=B434DE310DA445DB95EDFFA7A132E066&assignmentId=0198bf10-5e37-7dda-95f0-9b963acf828c&projectId=0198beef-981a-7243-9790-051e10551090","B434DE310DA445DB95EDFFA7A132E066-2025-08-18-21-29-07","","2886","","","{""Q0"":""AJFHBG896""}","",""
