"success","timeout","failed_images","failed_audio","failed_video","trial_type","trial_index","time_elapsed","internal_node_id","subject","subject_id","study_id","session_id","urlvar","current_url","audio_id","view_history","rt","device_id","stimulus","response","estimated_stimulus_onset","seq_name"
"true","false","[]","[]","[]","preload","0","9119","0.0-0.0","B5E20A5A702949DB894A9C9A32CD3B01","B5E20A5A702949DB894A9C9A32CD3B01","0ba58431-6bac-4749-8499-48efa4f09c95","2dd913a0-fd4c-43f1-b4f3-f0d48537bce8","{""part"":""2"",""participantId"":""B5E20A5A702949DB894A9C9A32CD3B01"",""assignmentId"":""0ba58431-6bac-4749-8499-48efa4f09c95"",""projectId"":""2dd913a0-fd4c-43f1-b4f3-f0d48537bce8""}","https://test12345.live/?part=2&participantId=B5E20A5A702949DB894A9C9A32CD3B01&assignmentId=0ba58431-6bac-4749-8499-48efa4f09c95&projectId=2dd913a0-fd4c-43f1-b4f3-f0d48537bce8","B5E20A5A702949DB894A9C9A32CD3B01-2025-05-15-22-51-41","","","","","","",""
"","","","","","instructions","1","25059","0.0-1.0","B5E20A5A702949DB894A9C9A32CD3B01","B5E20A5A702949DB894A9C9A32CD3B01","0ba58431-6bac-4749-8499-48efa4f09c95","2dd913a0-fd4c-43f1-b4f3-f0d48537bce8","{""part"":""2"",""participantId"":""B5E20A5A702949DB894A9C9A32CD3B01"",""assignmentId"":""0ba58431-6bac-4749-8499-48efa4f09c95"",""projectId"":""2dd913a0-fd4c-43f1-b4f3-f0d48537bce8""}","https://test12345.live/?part=2&participantId=B5E20A5A702949DB894A9C9A32CD3B01&assignmentId=0ba58431-6bac-4749-8499-48efa4f09c95&projectId=2dd913a0-fd4c-43f1-b4f3-f0d48537bce8","B5E20A5A702949DB894A9C9A32CD3B01-2025-05-15-22-51-41","[{""page_index"":0,""viewing_time"":15937}]","15937","","","","",""
"","","","","","instructions","2","43560","0.0-2.0","B5E20A5A702949DB894A9C9A32CD3B01","B5E20A5A702949DB894A9C9A32CD3B01","0ba58431-6bac-4749-8499-48efa4f09c95","2dd913a0-fd4c-43f1-b4f3-f0d48537bce8","{""part"":""2"",""participantId"":""B5E20A5A702949DB894A9C9A32CD3B01"",""assignmentId"":""0ba58431-6bac-4749-8499-48efa4f09c95"",""projectId"":""2dd913a0-fd4c-43f1-b4f3-f0d48537bce8""}","https://test12345.live/?part=2&participantId=B5E20A5A702949DB894A9C9A32CD3B01&assignmentId=0ba58431-6bac-4749-8499-48efa4f09c95&projectId=2dd913a0-fd4c-43f1-b4f3-f0d48537bce8","B5E20A5A702949DB894A9C9A32CD3B01-2025-05-15-22-51-41","[{""page_index"":0,""viewing_time"":18500}]","18500","","","","",""
"true","","","","","fullscreen","3","45805","0.0-3.0","B5E20A5A702949DB894A9C9A32CD3B01","B5E20A5A702949DB894A9C9A32CD3B01","0ba58431-6bac-4749-8499-48efa4f09c95","2dd913a0-fd4c-43f1-b4f3-f0d48537bce8","{""part"":""2"",""participantId"":""B5E20A5A702949DB894A9C9A32CD3B01"",""assignmentId"":""0ba58431-6bac-4749-8499-48efa4f09c95"",""projectId"":""2dd913a0-fd4c-43f1-b4f3-f0d48537bce8""}","https://test12345.live/?part=2&participantId=B5E20A5A702949DB894A9C9A32CD3B01&assignmentId=0ba58431-6bac-4749-8499-48efa4f09c95&projectId=2dd913a0-fd4c-43f1-b4f3-f0d48537bce8","B5E20A5A702949DB894A9C9A32CD3B01-2025-05-15-22-51-41","","1241","","","","",""
"","","","","","initialize-microphone","4","94448","0.0-4.0-0.0","B5E20A5A702949DB894A9C9A32CD3B01","B5E20A5A702949DB894A9C9A32CD3B01","0ba58431-6bac-4749-8499-48efa4f09c95","2dd913a0-fd4c-43f1-b4f3-f0d48537bce8","{""part"":""2"",""participantId"":""B5E20A5A702949DB894A9C9A32CD3B01"",""assignmentId"":""0ba58431-6bac-4749-8499-48efa4f09c95"",""projectId"":""2dd913a0-fd4c-43f1-b4f3-f0d48537bce8""}","https://test12345.live/?part=2&participantId=B5E20A5A702949DB894A9C9A32CD3B01&assignmentId=0ba58431-6bac-4749-8499-48efa4f09c95&projectId=2dd913a0-fd4c-43f1-b4f3-f0d48537bce8","B5E20A5A702949DB894A9C9A32CD3B01-2025-05-15-22-51-41","","","12a0cd098912f50b06e9b4d40edb74339a1bda5e68f467ad3fa3d58a6b9080ae","","","",""
"","","","","","html-audio-response","5","100775","0.0-4.0-1.0","B5E20A5A702949DB894A9C9A32CD3B01","B5E20A5A702949DB894A9C9A32CD3B01","0ba58431-6bac-4749-8499-48efa4f09c95","2dd913a0-fd4c-43f1-b4f3-f0d48537bce8","{""part"":""2"",""participantId"":""B5E20A5A702949DB894A9C9A32CD3B01"",""assignmentId"":""0ba58431-6bac-4749-8499-48efa4f09c95"",""projectId"":""2dd913a0-fd4c-43f1-b4f3-f0d48537bce8""}","https://test12345.live/?part=2&participantId=B5E20A5A702949DB894A9C9A32CD3B01&assignmentId=0ba58431-6bac-4749-8499-48efa4f09c95&projectId=2dd913a0-fd4c-43f1-b4f3-f0d48537bce8","B5E20A5A702949DB894A9C9A32CD3B01-2025-05-15-22-51-41","","1676","","<span style=""color: red; font-size: 24px""> NOW RECORDING</span>
        <p>Please test Microphone</p>","","1",""
"","","","","","html-button-response","6","102369","0.0-4.0-2.0","B5E20A5A702949DB894A9C9A32CD3B01","B5E20A5A702949DB894A9C9A32CD3B01","0ba58431-6bac-4749-8499-48efa4f09c95","2dd913a0-fd4c-43f1-b4f3-f0d48537bce8","{""part"":""2"",""participantId"":""B5E20A5A702949DB894A9C9A32CD3B01"",""assignmentId"":""0ba58431-6bac-4749-8499-48efa4f09c95"",""projectId"":""2dd913a0-fd4c-43f1-b4f3-f0d48537bce8""}","https://test12345.live/?part=2&participantId=B5E20A5A702949DB894A9C9A32CD3B01&assignmentId=0ba58431-6bac-4749-8499-48efa4f09c95&projectId=2dd913a0-fd4c-43f1-b4f3-f0d48537bce8","B5E20A5A702949DB894A9C9A32CD3B01-2025-05-15-22-51-41","","1592","","<p style=""font-size:48px; color:red;"">Is Microphone OK?</p>","1","",""
"","","","","","instructions","7","110408","0.0-5.0","B5E20A5A702949DB894A9C9A32CD3B01","B5E20A5A702949DB894A9C9A32CD3B01","0ba58431-6bac-4749-8499-48efa4f09c95","2dd913a0-fd4c-43f1-b4f3-f0d48537bce8","{""part"":""2"",""participantId"":""B5E20A5A702949DB894A9C9A32CD3B01"",""assignmentId"":""0ba58431-6bac-4749-8499-48efa4f09c95"",""projectId"":""2dd913a0-fd4c-43f1-b4f3-f0d48537bce8""}","https://test12345.live/?part=2&participantId=B5E20A5A702949DB894A9C9A32CD3B01&assignmentId=0ba58431-6bac-4749-8499-48efa4f09c95&projectId=2dd913a0-fd4c-43f1-b4f3-f0d48537bce8","B5E20A5A702949DB894A9C9A32CD3B01-2025-05-15-22-51-41","[{""page_index"":0,""viewing_time"":842},{""page_index"":1,""viewing_time"":3182},{""page_index"":2,""viewing_time"":4014}]","8038","","","","",""
"","","","","","image-button-response","8","116415","0.0-6.0-0.0","B5E20A5A702949DB894A9C9A32CD3B01","B5E20A5A702949DB894A9C9A32CD3B01","0ba58431-6bac-4749-8499-48efa4f09c95","2dd913a0-fd4c-43f1-b4f3-f0d48537bce8","{""part"":""2"",""participantId"":""B5E20A5A702949DB894A9C9A32CD3B01"",""assignmentId"":""0ba58431-6bac-4749-8499-48efa4f09c95"",""projectId"":""2dd913a0-fd4c-43f1-b4f3-f0d48537bce8""}","https://test12345.live/?part=2&participantId=B5E20A5A702949DB894A9C9A32CD3B01&assignmentId=0ba58431-6bac-4749-8499-48efa4f09c95&projectId=2dd913a0-fd4c-43f1-b4f3-f0d48537bce8","B5E20A5A702949DB894A9C9A32CD3B01-2025-05-15-22-51-41","","null","","images/instructions/movie_0.png","null","",""
"","","","","","html-audio-response","9","136355","0.0-7.0","B5E20A5A702949DB894A9C9A32CD3B01","B5E20A5A702949DB894A9C9A32CD3B01","0ba58431-6bac-4749-8499-48efa4f09c95","2dd913a0-fd4c-43f1-b4f3-f0d48537bce8","{""part"":""2"",""participantId"":""B5E20A5A702949DB894A9C9A32CD3B01"",""assignmentId"":""0ba58431-6bac-4749-8499-48efa4f09c95"",""projectId"":""2dd913a0-fd4c-43f1-b4f3-f0d48537bce8""}","https://test12345.live/?part=2&participantId=B5E20A5A702949DB894A9C9A32CD3B01&assignmentId=0ba58431-6bac-4749-8499-48efa4f09c95&projectId=2dd913a0-fd4c-43f1-b4f3-f0d48537bce8","B5E20A5A702949DB894A9C9A32CD3B01-2025-05-15-22-51-41","","14185","","[""<span style=\""color: red; font-size: 24px\""> NOW RECORDING</span><p>Please say out loud all the images you saw in part 1 of the experiment, as many as you can remember. The images can be said in any order.</p>""]","","18",""
"","","","","","instructions","10","137085","0.0-8.0","B5E20A5A702949DB894A9C9A32CD3B01","B5E20A5A702949DB894A9C9A32CD3B01","0ba58431-6bac-4749-8499-48efa4f09c95","2dd913a0-fd4c-43f1-b4f3-f0d48537bce8","{""part"":""2"",""participantId"":""B5E20A5A702949DB894A9C9A32CD3B01"",""assignmentId"":""0ba58431-6bac-4749-8499-48efa4f09c95"",""projectId"":""2dd913a0-fd4c-43f1-b4f3-f0d48537bce8""}","https://test12345.live/?part=2&participantId=B5E20A5A702949DB894A9C9A32CD3B01&assignmentId=0ba58431-6bac-4749-8499-48efa4f09c95&projectId=2dd913a0-fd4c-43f1-b4f3-f0d48537bce8","B5E20A5A702949DB894A9C9A32CD3B01-2025-05-15-22-51-41","[{""page_index"":0,""viewing_time"":728}]","729","","","","",""
"","","","","","image-button-response","11","143091","0.0-9.0-0.0","B5E20A5A702949DB894A9C9A32CD3B01","B5E20A5A702949DB894A9C9A32CD3B01","0ba58431-6bac-4749-8499-48efa4f09c95","2dd913a0-fd4c-43f1-b4f3-f0d48537bce8","{""part"":""2"",""participantId"":""B5E20A5A702949DB894A9C9A32CD3B01"",""assignmentId"":""0ba58431-6bac-4749-8499-48efa4f09c95"",""projectId"":""2dd913a0-fd4c-43f1-b4f3-f0d48537bce8""}","https://test12345.live/?part=2&participantId=B5E20A5A702949DB894A9C9A32CD3B01&assignmentId=0ba58431-6bac-4749-8499-48efa4f09c95&projectId=2dd913a0-fd4c-43f1-b4f3-f0d48537bce8","B5E20A5A702949DB894A9C9A32CD3B01-2025-05-15-22-51-41","","null","","images/semantic_sequence/cat_care_semantic/cat_care_semantic_0.png","null","",""
"","","","","","html-audio-response","12","166460","0.0-10.0","B5E20A5A702949DB894A9C9A32CD3B01","B5E20A5A702949DB894A9C9A32CD3B01","0ba58431-6bac-4749-8499-48efa4f09c95","2dd913a0-fd4c-43f1-b4f3-f0d48537bce8","{""part"":""2"",""participantId"":""B5E20A5A702949DB894A9C9A32CD3B01"",""assignmentId"":""0ba58431-6bac-4749-8499-48efa4f09c95"",""projectId"":""2dd913a0-fd4c-43f1-b4f3-f0d48537bce8""}","https://test12345.live/?part=2&participantId=B5E20A5A702949DB894A9C9A32CD3B01&assignmentId=0ba58431-6bac-4749-8499-48efa4f09c95&projectId=2dd913a0-fd4c-43f1-b4f3-f0d48537bce8","B5E20A5A702949DB894A9C9A32CD3B01-2025-05-15-22-51-41","","22803","","[""<span style=\""color: red; font-size: 24px\""> NOW RECORDING</span><p>Please say out loud all the images you saw in part 1 of the experiment, as many as you can remember. The images can be said in any order.</p>""]","","15","cat_care_semantic"
"","","","","","image-button-response","13","172464","0.0-11.0-0.0","B5E20A5A702949DB894A9C9A32CD3B01","B5E20A5A702949DB894A9C9A32CD3B01","0ba58431-6bac-4749-8499-48efa4f09c95","2dd913a0-fd4c-43f1-b4f3-f0d48537bce8","{""part"":""2"",""participantId"":""B5E20A5A702949DB894A9C9A32CD3B01"",""assignmentId"":""0ba58431-6bac-4749-8499-48efa4f09c95"",""projectId"":""2dd913a0-fd4c-43f1-b4f3-f0d48537bce8""}","https://test12345.live/?part=2&participantId=B5E20A5A702949DB894A9C9A32CD3B01&assignmentId=0ba58431-6bac-4749-8499-48efa4f09c95&projectId=2dd913a0-fd4c-43f1-b4f3-f0d48537bce8","B5E20A5A702949DB894A9C9A32CD3B01-2025-05-15-22-51-41","","null","","images/semantic_sequence/exploring_nature_semantic/exploring_nature_semantic_0.png","null","",""
"","","","","","html-audio-response","14","198109","0.0-12.0","B5E20A5A702949DB894A9C9A32CD3B01","B5E20A5A702949DB894A9C9A32CD3B01","0ba58431-6bac-4749-8499-48efa4f09c95","2dd913a0-fd4c-43f1-b4f3-f0d48537bce8","{""part"":""2"",""participantId"":""B5E20A5A702949DB894A9C9A32CD3B01"",""assignmentId"":""0ba58431-6bac-4749-8499-48efa4f09c95"",""projectId"":""2dd913a0-fd4c-43f1-b4f3-f0d48537bce8""}","https://test12345.live/?part=2&participantId=B5E20A5A702949DB894A9C9A32CD3B01&assignmentId=0ba58431-6bac-4749-8499-48efa4f09c95&projectId=2dd913a0-fd4c-43f1-b4f3-f0d48537bce8","B5E20A5A702949DB894A9C9A32CD3B01-2025-05-15-22-51-41","","24726","","[""<span style=\""color: red; font-size: 24px\""> NOW RECORDING</span><p>Please say out loud all the images you saw in part 1 of the experiment, as many as you can remember. The images can be said in any order.</p>""]","","1","exploring_nature_semantic"
"","","","","","image-button-response","15","204118","0.0-13.0-0.0","B5E20A5A702949DB894A9C9A32CD3B01","B5E20A5A702949DB894A9C9A32CD3B01","0ba58431-6bac-4749-8499-48efa4f09c95","2dd913a0-fd4c-43f1-b4f3-f0d48537bce8","{""part"":""2"",""participantId"":""B5E20A5A702949DB894A9C9A32CD3B01"",""assignmentId"":""0ba58431-6bac-4749-8499-48efa4f09c95"",""projectId"":""2dd913a0-fd4c-43f1-b4f3-f0d48537bce8""}","https://test12345.live/?part=2&participantId=B5E20A5A702949DB894A9C9A32CD3B01&assignmentId=0ba58431-6bac-4749-8499-48efa4f09c95&projectId=2dd913a0-fd4c-43f1-b4f3-f0d48537bce8","B5E20A5A702949DB894A9C9A32CD3B01-2025-05-15-22-51-41","","null","","images/causal_sequence/coin_causal/coin_causal_0.png","null","",""
"","","","","","html-audio-response","16","255549","0.0-14.0","B5E20A5A702949DB894A9C9A32CD3B01","B5E20A5A702949DB894A9C9A32CD3B01","0ba58431-6bac-4749-8499-48efa4f09c95","2dd913a0-fd4c-43f1-b4f3-f0d48537bce8","{""part"":""2"",""participantId"":""B5E20A5A702949DB894A9C9A32CD3B01"",""assignmentId"":""0ba58431-6bac-4749-8499-48efa4f09c95"",""projectId"":""2dd913a0-fd4c-43f1-b4f3-f0d48537bce8""}","https://test12345.live/?part=2&participantId=B5E20A5A702949DB894A9C9A32CD3B01&assignmentId=0ba58431-6bac-4749-8499-48efa4f09c95&projectId=2dd913a0-fd4c-43f1-b4f3-f0d48537bce8","B5E20A5A702949DB894A9C9A32CD3B01-2025-05-15-22-51-41","","46200","","[""<span style=\""color: red; font-size: 24px\""> NOW RECORDING</span><p>Please say out loud all the images you saw in part 1 of the experiment, as many as you can remember. The images can be said in any order.</p>""]","","4","coin_causal"
"","","","","","image-button-response","17","261559","0.0-15.0-0.0","B5E20A5A702949DB894A9C9A32CD3B01","B5E20A5A702949DB894A9C9A32CD3B01","0ba58431-6bac-4749-8499-48efa4f09c95","2dd913a0-fd4c-43f1-b4f3-f0d48537bce8","{""part"":""2"",""participantId"":""B5E20A5A702949DB894A9C9A32CD3B01"",""assignmentId"":""0ba58431-6bac-4749-8499-48efa4f09c95"",""projectId"":""2dd913a0-fd4c-43f1-b4f3-f0d48537bce8""}","https://test12345.live/?part=2&participantId=B5E20A5A702949DB894A9C9A32CD3B01&assignmentId=0ba58431-6bac-4749-8499-48efa4f09c95&projectId=2dd913a0-fd4c-43f1-b4f3-f0d48537bce8","B5E20A5A702949DB894A9C9A32CD3B01-2025-05-15-22-51-41","","null","","images/causal_sequence/package_causal/package_causal_0.png","null","",""
"","","","","","html-audio-response","18","302755","0.0-16.0","B5E20A5A702949DB894A9C9A32CD3B01","B5E20A5A702949DB894A9C9A32CD3B01","0ba58431-6bac-4749-8499-48efa4f09c95","2dd913a0-fd4c-43f1-b4f3-f0d48537bce8","{""part"":""2"",""participantId"":""B5E20A5A702949DB894A9C9A32CD3B01"",""assignmentId"":""0ba58431-6bac-4749-8499-48efa4f09c95"",""projectId"":""2dd913a0-fd4c-43f1-b4f3-f0d48537bce8""}","https://test12345.live/?part=2&participantId=B5E20A5A702949DB894A9C9A32CD3B01&assignmentId=0ba58431-6bac-4749-8499-48efa4f09c95&projectId=2dd913a0-fd4c-43f1-b4f3-f0d48537bce8","B5E20A5A702949DB894A9C9A32CD3B01-2025-05-15-22-51-41","","33745","","[""<span style=\""color: red; font-size: 24px\""> NOW RECORDING</span><p>Please say out loud all the images you saw in part 1 of the experiment, as many as you can remember. The images can be said in any order.</p>""]","","16","package_causal"
"","","","","","image-button-response","19","308760","0.0-17.0-0.0","B5E20A5A702949DB894A9C9A32CD3B01","B5E20A5A702949DB894A9C9A32CD3B01","0ba58431-6bac-4749-8499-48efa4f09c95","2dd913a0-fd4c-43f1-b4f3-f0d48537bce8","{""part"":""2"",""participantId"":""B5E20A5A702949DB894A9C9A32CD3B01"",""assignmentId"":""0ba58431-6bac-4749-8499-48efa4f09c95"",""projectId"":""2dd913a0-fd4c-43f1-b4f3-f0d48537bce8""}","https://test12345.live/?part=2&participantId=B5E20A5A702949DB894A9C9A32CD3B01&assignmentId=0ba58431-6bac-4749-8499-48efa4f09c95&projectId=2dd913a0-fd4c-43f1-b4f3-f0d48537bce8","B5E20A5A702949DB894A9C9A32CD3B01-2025-05-15-22-51-41","","null","","images/semantic_sequence/physical_activity_semantic/physical_activity_semantic_0.png","null","",""
"","","","","","html-audio-response","20","331475","0.0-18.0","B5E20A5A702949DB894A9C9A32CD3B01","B5E20A5A702949DB894A9C9A32CD3B01","0ba58431-6bac-4749-8499-48efa4f09c95","2dd913a0-fd4c-43f1-b4f3-f0d48537bce8","{""part"":""2"",""participantId"":""B5E20A5A702949DB894A9C9A32CD3B01"",""assignmentId"":""0ba58431-6bac-4749-8499-48efa4f09c95"",""projectId"":""2dd913a0-fd4c-43f1-b4f3-f0d48537bce8""}","https://test12345.live/?part=2&participantId=B5E20A5A702949DB894A9C9A32CD3B01&assignmentId=0ba58431-6bac-4749-8499-48efa4f09c95&projectId=2dd913a0-fd4c-43f1-b4f3-f0d48537bce8","B5E20A5A702949DB894A9C9A32CD3B01-2025-05-15-22-51-41","","21726","","[""<span style=\""color: red; font-size: 24px\""> NOW RECORDING</span><p>Please say out loud all the images you saw in part 1 of the experiment, as many as you can remember. The images can be said in any order.</p>""]","","2","physical_activity_semantic"
"","","","","","image-button-response","21","337483","0.0-19.0-0.0","B5E20A5A702949DB894A9C9A32CD3B01","B5E20A5A702949DB894A9C9A32CD3B01","0ba58431-6bac-4749-8499-48efa4f09c95","2dd913a0-fd4c-43f1-b4f3-f0d48537bce8","{""part"":""2"",""participantId"":""B5E20A5A702949DB894A9C9A32CD3B01"",""assignmentId"":""0ba58431-6bac-4749-8499-48efa4f09c95"",""projectId"":""2dd913a0-fd4c-43f1-b4f3-f0d48537bce8""}","https://test12345.live/?part=2&participantId=B5E20A5A702949DB894A9C9A32CD3B01&assignmentId=0ba58431-6bac-4749-8499-48efa4f09c95&projectId=2dd913a0-fd4c-43f1-b4f3-f0d48537bce8","B5E20A5A702949DB894A9C9A32CD3B01-2025-05-15-22-51-41","","null","","images/semantic_sequence/self_care_activities_semantic/self_care_activities_semantic_0.png","null","",""
"","","","","","html-audio-response","22","360161","0.0-20.0","B5E20A5A702949DB894A9C9A32CD3B01","B5E20A5A702949DB894A9C9A32CD3B01","0ba58431-6bac-4749-8499-48efa4f09c95","2dd913a0-fd4c-43f1-b4f3-f0d48537bce8","{""part"":""2"",""participantId"":""B5E20A5A702949DB894A9C9A32CD3B01"",""assignmentId"":""0ba58431-6bac-4749-8499-48efa4f09c95"",""projectId"":""2dd913a0-fd4c-43f1-b4f3-f0d48537bce8""}","https://test12345.live/?part=2&participantId=B5E20A5A702949DB894A9C9A32CD3B01&assignmentId=0ba58431-6bac-4749-8499-48efa4f09c95&projectId=2dd913a0-fd4c-43f1-b4f3-f0d48537bce8","B5E20A5A702949DB894A9C9A32CD3B01-2025-05-15-22-51-41","","21833","","[""<span style=\""color: red; font-size: 24px\""> NOW RECORDING</span><p>Please say out loud all the images you saw in part 1 of the experiment, as many as you can remember. The images can be said in any order.</p>""]","","19","self_care_activities_semantic"
"","","","","","image-button-response","23","366168","0.0-21.0-0.0","B5E20A5A702949DB894A9C9A32CD3B01","B5E20A5A702949DB894A9C9A32CD3B01","0ba58431-6bac-4749-8499-48efa4f09c95","2dd913a0-fd4c-43f1-b4f3-f0d48537bce8","{""part"":""2"",""participantId"":""B5E20A5A702949DB894A9C9A32CD3B01"",""assignmentId"":""0ba58431-6bac-4749-8499-48efa4f09c95"",""projectId"":""2dd913a0-fd4c-43f1-b4f3-f0d48537bce8""}","https://test12345.live/?part=2&participantId=B5E20A5A702949DB894A9C9A32CD3B01&assignmentId=0ba58431-6bac-4749-8499-48efa4f09c95&projectId=2dd913a0-fd4c-43f1-b4f3-f0d48537bce8","B5E20A5A702949DB894A9C9A32CD3B01-2025-05-15-22-51-41","","null","","images/semantic_sequence/creative_activities_semantic/creative_activities_semantic_0.png","null","",""
"","","","","","html-audio-response","24","394657","0.0-22.0","B5E20A5A702949DB894A9C9A32CD3B01","B5E20A5A702949DB894A9C9A32CD3B01","0ba58431-6bac-4749-8499-48efa4f09c95","2dd913a0-fd4c-43f1-b4f3-f0d48537bce8","{""part"":""2"",""participantId"":""B5E20A5A702949DB894A9C9A32CD3B01"",""assignmentId"":""0ba58431-6bac-4749-8499-48efa4f09c95"",""projectId"":""2dd913a0-fd4c-43f1-b4f3-f0d48537bce8""}","https://test12345.live/?part=2&participantId=B5E20A5A702949DB894A9C9A32CD3B01&assignmentId=0ba58431-6bac-4749-8499-48efa4f09c95&projectId=2dd913a0-fd4c-43f1-b4f3-f0d48537bce8","B5E20A5A702949DB894A9C9A32CD3B01-2025-05-15-22-51-41","","27478","","[""<span style=\""color: red; font-size: 24px\""> NOW RECORDING</span><p>Please say out loud all the images you saw in part 1 of the experiment, as many as you can remember. The images can be said in any order.</p>""]","","13","creative_activities_semantic"
"","","","","","image-button-response","25","400661","0.0-23.0-0.0","B5E20A5A702949DB894A9C9A32CD3B01","B5E20A5A702949DB894A9C9A32CD3B01","0ba58431-6bac-4749-8499-48efa4f09c95","2dd913a0-fd4c-43f1-b4f3-f0d48537bce8","{""part"":""2"",""participantId"":""B5E20A5A702949DB894A9C9A32CD3B01"",""assignmentId"":""0ba58431-6bac-4749-8499-48efa4f09c95"",""projectId"":""2dd913a0-fd4c-43f1-b4f3-f0d48537bce8""}","https://test12345.live/?part=2&participantId=B5E20A5A702949DB894A9C9A32CD3B01&assignmentId=0ba58431-6bac-4749-8499-48efa4f09c95&projectId=2dd913a0-fd4c-43f1-b4f3-f0d48537bce8","B5E20A5A702949DB894A9C9A32CD3B01-2025-05-15-22-51-41","","null","","images/schematic_sequence/restaurant_scheme/restaurant_scheme_0.png","null","",""
"","","","","","html-audio-response","26","444131","0.0-24.0","B5E20A5A702949DB894A9C9A32CD3B01","B5E20A5A702949DB894A9C9A32CD3B01","0ba58431-6bac-4749-8499-48efa4f09c95","2dd913a0-fd4c-43f1-b4f3-f0d48537bce8","{""part"":""2"",""participantId"":""B5E20A5A702949DB894A9C9A32CD3B01"",""assignmentId"":""0ba58431-6bac-4749-8499-48efa4f09c95"",""projectId"":""2dd913a0-fd4c-43f1-b4f3-f0d48537bce8""}","https://test12345.live/?part=2&participantId=B5E20A5A702949DB894A9C9A32CD3B01&assignmentId=0ba58431-6bac-4749-8499-48efa4f09c95&projectId=2dd913a0-fd4c-43f1-b4f3-f0d48537bce8","B5E20A5A702949DB894A9C9A32CD3B01-2025-05-15-22-51-41","","37284","","[""<span style=\""color: red; font-size: 24px\""> NOW RECORDING</span><p>Please say out loud all the images you saw in part 1 of the experiment, as many as you can remember. The images can be said in any order.</p>""]","","7","restaurant_scheme"
"","","","","","image-button-response","27","450139","0.0-25.0-0.0","B5E20A5A702949DB894A9C9A32CD3B01","B5E20A5A702949DB894A9C9A32CD3B01","0ba58431-6bac-4749-8499-48efa4f09c95","2dd913a0-fd4c-43f1-b4f3-f0d48537bce8","{""part"":""2"",""participantId"":""B5E20A5A702949DB894A9C9A32CD3B01"",""assignmentId"":""0ba58431-6bac-4749-8499-48efa4f09c95"",""projectId"":""2dd913a0-fd4c-43f1-b4f3-f0d48537bce8""}","https://test12345.live/?part=2&participantId=B5E20A5A702949DB894A9C9A32CD3B01&assignmentId=0ba58431-6bac-4749-8499-48efa4f09c95&projectId=2dd913a0-fd4c-43f1-b4f3-f0d48537bce8","B5E20A5A702949DB894A9C9A32CD3B01-2025-05-15-22-51-41","","null","","images/causal_sequence/saving_a_cat_causal/saving_a_cat_causal_0.png","null","",""
"","","","","","html-audio-response","28","501776","0.0-26.0","B5E20A5A702949DB894A9C9A32CD3B01","B5E20A5A702949DB894A9C9A32CD3B01","0ba58431-6bac-4749-8499-48efa4f09c95","2dd913a0-fd4c-43f1-b4f3-f0d48537bce8","{""part"":""2"",""participantId"":""B5E20A5A702949DB894A9C9A32CD3B01"",""assignmentId"":""0ba58431-6bac-4749-8499-48efa4f09c95"",""projectId"":""2dd913a0-fd4c-43f1-b4f3-f0d48537bce8""}","https://test12345.live/?part=2&participantId=B5E20A5A702949DB894A9C9A32CD3B01&assignmentId=0ba58431-6bac-4749-8499-48efa4f09c95&projectId=2dd913a0-fd4c-43f1-b4f3-f0d48537bce8","B5E20A5A702949DB894A9C9A32CD3B01-2025-05-15-22-51-41","","40506","","[""<span style=\""color: red; font-size: 24px\""> NOW RECORDING</span><p>Please say out loud all the images you saw in part 1 of the experiment, as many as you can remember. The images can be said in any order.</p>""]","","16","saving_a_cat_causal"
"","","","","","image-button-response","29","507781","0.0-27.0-0.0","B5E20A5A702949DB894A9C9A32CD3B01","B5E20A5A702949DB894A9C9A32CD3B01","0ba58431-6bac-4749-8499-48efa4f09c95","2dd913a0-fd4c-43f1-b4f3-f0d48537bce8","{""part"":""2"",""participantId"":""B5E20A5A702949DB894A9C9A32CD3B01"",""assignmentId"":""0ba58431-6bac-4749-8499-48efa4f09c95"",""projectId"":""2dd913a0-fd4c-43f1-b4f3-f0d48537bce8""}","https://test12345.live/?part=2&participantId=B5E20A5A702949DB894A9C9A32CD3B01&assignmentId=0ba58431-6bac-4749-8499-48efa4f09c95&projectId=2dd913a0-fd4c-43f1-b4f3-f0d48537bce8","B5E20A5A702949DB894A9C9A32CD3B01-2025-05-15-22-51-41","","null","","images/schematic_sequence/supermarket_scheme/supermarket_scheme_0.png","null","",""
"","","","","","html-audio-response","30","544194","0.0-28.0","B5E20A5A702949DB894A9C9A32CD3B01","B5E20A5A702949DB894A9C9A32CD3B01","0ba58431-6bac-4749-8499-48efa4f09c95","2dd913a0-fd4c-43f1-b4f3-f0d48537bce8","{""part"":""2"",""participantId"":""B5E20A5A702949DB894A9C9A32CD3B01"",""assignmentId"":""0ba58431-6bac-4749-8499-48efa4f09c95"",""projectId"":""2dd913a0-fd4c-43f1-b4f3-f0d48537bce8""}","https://test12345.live/?part=2&participantId=B5E20A5A702949DB894A9C9A32CD3B01&assignmentId=0ba58431-6bac-4749-8499-48efa4f09c95&projectId=2dd913a0-fd4c-43f1-b4f3-f0d48537bce8","B5E20A5A702949DB894A9C9A32CD3B01-2025-05-15-22-51-41","","20729","","[""<span style=\""color: red; font-size: 24px\""> NOW RECORDING</span><p>Please say out loud all the images you saw in part 1 of the experiment, as many as you can remember. The images can be said in any order.</p>""]","","13","supermarket_scheme"
"","","","","","image-button-response","31","550202","0.0-29.0-0.0","B5E20A5A702949DB894A9C9A32CD3B01","B5E20A5A702949DB894A9C9A32CD3B01","0ba58431-6bac-4749-8499-48efa4f09c95","2dd913a0-fd4c-43f1-b4f3-f0d48537bce8","{""part"":""2"",""participantId"":""B5E20A5A702949DB894A9C9A32CD3B01"",""assignmentId"":""0ba58431-6bac-4749-8499-48efa4f09c95"",""projectId"":""2dd913a0-fd4c-43f1-b4f3-f0d48537bce8""}","https://test12345.live/?part=2&participantId=B5E20A5A702949DB894A9C9A32CD3B01&assignmentId=0ba58431-6bac-4749-8499-48efa4f09c95&projectId=2dd913a0-fd4c-43f1-b4f3-f0d48537bce8","B5E20A5A702949DB894A9C9A32CD3B01-2025-05-15-22-51-41","","null","","images/semantic_sequence/market_semantic/market_semantic_0.png","null","",""
"","","","","","html-audio-response","32","583792","0.0-30.0","B5E20A5A702949DB894A9C9A32CD3B01","B5E20A5A702949DB894A9C9A32CD3B01","0ba58431-6bac-4749-8499-48efa4f09c95","2dd913a0-fd4c-43f1-b4f3-f0d48537bce8","{""part"":""2"",""participantId"":""B5E20A5A702949DB894A9C9A32CD3B01"",""assignmentId"":""0ba58431-6bac-4749-8499-48efa4f09c95"",""projectId"":""2dd913a0-fd4c-43f1-b4f3-f0d48537bce8""}","https://test12345.live/?part=2&participantId=B5E20A5A702949DB894A9C9A32CD3B01&assignmentId=0ba58431-6bac-4749-8499-48efa4f09c95&projectId=2dd913a0-fd4c-43f1-b4f3-f0d48537bce8","B5E20A5A702949DB894A9C9A32CD3B01-2025-05-15-22-51-41","","33121","","[""<span style=\""color: red; font-size: 24px\""> NOW RECORDING</span><p>Please say out loud all the images you saw in part 1 of the experiment, as many as you can remember. The images can be said in any order.</p>""]","","11","market_semantic"
"","","","","","image-button-response","33","589796","0.0-31.0-0.0","B5E20A5A702949DB894A9C9A32CD3B01","B5E20A5A702949DB894A9C9A32CD3B01","0ba58431-6bac-4749-8499-48efa4f09c95","2dd913a0-fd4c-43f1-b4f3-f0d48537bce8","{""part"":""2"",""participantId"":""B5E20A5A702949DB894A9C9A32CD3B01"",""assignmentId"":""0ba58431-6bac-4749-8499-48efa4f09c95"",""projectId"":""2dd913a0-fd4c-43f1-b4f3-f0d48537bce8""}","https://test12345.live/?part=2&participantId=B5E20A5A702949DB894A9C9A32CD3B01&assignmentId=0ba58431-6bac-4749-8499-48efa4f09c95&projectId=2dd913a0-fd4c-43f1-b4f3-f0d48537bce8","B5E20A5A702949DB894A9C9A32CD3B01-2025-05-15-22-51-41","","null","","images/schematic_sequence/interview_scheme/interview_scheme_0.png","null","",""
"","","","","","html-audio-response","34","628049","0.0-32.0","B5E20A5A702949DB894A9C9A32CD3B01","B5E20A5A702949DB894A9C9A32CD3B01","0ba58431-6bac-4749-8499-48efa4f09c95","2dd913a0-fd4c-43f1-b4f3-f0d48537bce8","{""part"":""2"",""participantId"":""B5E20A5A702949DB894A9C9A32CD3B01"",""assignmentId"":""0ba58431-6bac-4749-8499-48efa4f09c95"",""projectId"":""2dd913a0-fd4c-43f1-b4f3-f0d48537bce8""}","https://test12345.live/?part=2&participantId=B5E20A5A702949DB894A9C9A32CD3B01&assignmentId=0ba58431-6bac-4749-8499-48efa4f09c95&projectId=2dd913a0-fd4c-43f1-b4f3-f0d48537bce8","B5E20A5A702949DB894A9C9A32CD3B01-2025-05-15-22-51-41","","37761","","[""<span style=\""color: red; font-size: 24px\""> NOW RECORDING</span><p>Please say out loud all the images you saw in part 1 of the experiment, as many as you can remember. The images can be said in any order.</p>""]","","12","interview_scheme"
"","","","","","image-button-response","35","634058","0.0-33.0-0.0","B5E20A5A702949DB894A9C9A32CD3B01","B5E20A5A702949DB894A9C9A32CD3B01","0ba58431-6bac-4749-8499-48efa4f09c95","2dd913a0-fd4c-43f1-b4f3-f0d48537bce8","{""part"":""2"",""participantId"":""B5E20A5A702949DB894A9C9A32CD3B01"",""assignmentId"":""0ba58431-6bac-4749-8499-48efa4f09c95"",""projectId"":""2dd913a0-fd4c-43f1-b4f3-f0d48537bce8""}","https://test12345.live/?part=2&participantId=B5E20A5A702949DB894A9C9A32CD3B01&assignmentId=0ba58431-6bac-4749-8499-48efa4f09c95&projectId=2dd913a0-fd4c-43f1-b4f3-f0d48537bce8","B5E20A5A702949DB894A9C9A32CD3B01-2025-05-15-22-51-41","","null","","images/semantic_sequence/visiting_cities_semantic/visiting_cities_semantic_0.png","null","",""
"","","","","","html-audio-response","36","669395","0.0-34.0","B5E20A5A702949DB894A9C9A32CD3B01","B5E20A5A702949DB894A9C9A32CD3B01","0ba58431-6bac-4749-8499-48efa4f09c95","2dd913a0-fd4c-43f1-b4f3-f0d48537bce8","{""part"":""2"",""participantId"":""B5E20A5A702949DB894A9C9A32CD3B01"",""assignmentId"":""0ba58431-6bac-4749-8499-48efa4f09c95"",""projectId"":""2dd913a0-fd4c-43f1-b4f3-f0d48537bce8""}","https://test12345.live/?part=2&participantId=B5E20A5A702949DB894A9C9A32CD3B01&assignmentId=0ba58431-6bac-4749-8499-48efa4f09c95&projectId=2dd913a0-fd4c-43f1-b4f3-f0d48537bce8","B5E20A5A702949DB894A9C9A32CD3B01-2025-05-15-22-51-41","","34726","","[""<span style=\""color: red; font-size: 24px\""> NOW RECORDING</span><p>Please say out loud all the images you saw in part 1 of the experiment, as many as you can remember. The images can be said in any order.</p>""]","","6","visiting_cities_semantic"
"","","","","","image-button-response","37","675403","0.0-35.0-0.0","B5E20A5A702949DB894A9C9A32CD3B01","B5E20A5A702949DB894A9C9A32CD3B01","0ba58431-6bac-4749-8499-48efa4f09c95","2dd913a0-fd4c-43f1-b4f3-f0d48537bce8","{""part"":""2"",""participantId"":""B5E20A5A702949DB894A9C9A32CD3B01"",""assignmentId"":""0ba58431-6bac-4749-8499-48efa4f09c95"",""projectId"":""2dd913a0-fd4c-43f1-b4f3-f0d48537bce8""}","https://test12345.live/?part=2&participantId=B5E20A5A702949DB894A9C9A32CD3B01&assignmentId=0ba58431-6bac-4749-8499-48efa4f09c95&projectId=2dd913a0-fd4c-43f1-b4f3-f0d48537bce8","B5E20A5A702949DB894A9C9A32CD3B01-2025-05-15-22-51-41","","null","","images/semantic_sequence/maintaining_a_car_semantic/maintaining_a_car_semantic_0.png","null","",""
"","","","","","html-audio-response","38","712572","0.0-36.0","B5E20A5A702949DB894A9C9A32CD3B01","B5E20A5A702949DB894A9C9A32CD3B01","0ba58431-6bac-4749-8499-48efa4f09c95","2dd913a0-fd4c-43f1-b4f3-f0d48537bce8","{""part"":""2"",""participantId"":""B5E20A5A702949DB894A9C9A32CD3B01"",""assignmentId"":""0ba58431-6bac-4749-8499-48efa4f09c95"",""projectId"":""2dd913a0-fd4c-43f1-b4f3-f0d48537bce8""}","https://test12345.live/?part=2&participantId=B5E20A5A702949DB894A9C9A32CD3B01&assignmentId=0ba58431-6bac-4749-8499-48efa4f09c95&projectId=2dd913a0-fd4c-43f1-b4f3-f0d48537bce8","B5E20A5A702949DB894A9C9A32CD3B01-2025-05-15-22-51-41","","36489","","[""<span style=\""color: red; font-size: 24px\""> NOW RECORDING</span><p>Please say out loud all the images you saw in part 1 of the experiment, as many as you can remember. The images can be said in any order.</p>""]","","8","maintaining_a_car_semantic"
"","","","","","image-button-response","39","718581","0.0-37.0-0.0","B5E20A5A702949DB894A9C9A32CD3B01","B5E20A5A702949DB894A9C9A32CD3B01","0ba58431-6bac-4749-8499-48efa4f09c95","2dd913a0-fd4c-43f1-b4f3-f0d48537bce8","{""part"":""2"",""participantId"":""B5E20A5A702949DB894A9C9A32CD3B01"",""assignmentId"":""0ba58431-6bac-4749-8499-48efa4f09c95"",""projectId"":""2dd913a0-fd4c-43f1-b4f3-f0d48537bce8""}","https://test12345.live/?part=2&participantId=B5E20A5A702949DB894A9C9A32CD3B01&assignmentId=0ba58431-6bac-4749-8499-48efa4f09c95&projectId=2dd913a0-fd4c-43f1-b4f3-f0d48537bce8","B5E20A5A702949DB894A9C9A32CD3B01-2025-05-15-22-51-41","","null","","images/causal_sequence/dog_causal/dog_causal_0.png","null","",""
"","","","","","html-audio-response","40","756027","0.0-38.0","B5E20A5A702949DB894A9C9A32CD3B01","B5E20A5A702949DB894A9C9A32CD3B01","0ba58431-6bac-4749-8499-48efa4f09c95","2dd913a0-fd4c-43f1-b4f3-f0d48537bce8","{""part"":""2"",""participantId"":""B5E20A5A702949DB894A9C9A32CD3B01"",""assignmentId"":""0ba58431-6bac-4749-8499-48efa4f09c95"",""projectId"":""2dd913a0-fd4c-43f1-b4f3-f0d48537bce8""}","https://test12345.live/?part=2&participantId=B5E20A5A702949DB894A9C9A32CD3B01&assignmentId=0ba58431-6bac-4749-8499-48efa4f09c95&projectId=2dd913a0-fd4c-43f1-b4f3-f0d48537bce8","B5E20A5A702949DB894A9C9A32CD3B01-2025-05-15-22-51-41","","28929","","[""<span style=\""color: red; font-size: 24px\""> NOW RECORDING</span><p>Please say out loud all the images you saw in part 1 of the experiment, as many as you can remember. The images can be said in any order.</p>""]","","13","dog_causal"
"","","","","","image-button-response","41","762034","0.0-39.0-0.0","B5E20A5A702949DB894A9C9A32CD3B01","B5E20A5A702949DB894A9C9A32CD3B01","0ba58431-6bac-4749-8499-48efa4f09c95","2dd913a0-fd4c-43f1-b4f3-f0d48537bce8","{""part"":""2"",""participantId"":""B5E20A5A702949DB894A9C9A32CD3B01"",""assignmentId"":""0ba58431-6bac-4749-8499-48efa4f09c95"",""projectId"":""2dd913a0-fd4c-43f1-b4f3-f0d48537bce8""}","https://test12345.live/?part=2&participantId=B5E20A5A702949DB894A9C9A32CD3B01&assignmentId=0ba58431-6bac-4749-8499-48efa4f09c95&projectId=2dd913a0-fd4c-43f1-b4f3-f0d48537bce8","B5E20A5A702949DB894A9C9A32CD3B01-2025-05-15-22-51-41","","null","","images/schematic_sequence/dinner_party_scheme/dinner_party_scheme_0.png","null","",""
"","","","","","html-audio-response","42","792458","0.0-40.0","B5E20A5A702949DB894A9C9A32CD3B01","B5E20A5A702949DB894A9C9A32CD3B01","0ba58431-6bac-4749-8499-48efa4f09c95","2dd913a0-fd4c-43f1-b4f3-f0d48537bce8","{""part"":""2"",""participantId"":""B5E20A5A702949DB894A9C9A32CD3B01"",""assignmentId"":""0ba58431-6bac-4749-8499-48efa4f09c95"",""projectId"":""2dd913a0-fd4c-43f1-b4f3-f0d48537bce8""}","https://test12345.live/?part=2&participantId=B5E20A5A702949DB894A9C9A32CD3B01&assignmentId=0ba58431-6bac-4749-8499-48efa4f09c95&projectId=2dd913a0-fd4c-43f1-b4f3-f0d48537bce8","B5E20A5A702949DB894A9C9A32CD3B01-2025-05-15-22-51-41","","29815","","[""<span style=\""color: red; font-size: 24px\""> NOW RECORDING</span><p>Please say out loud all the images you saw in part 1 of the experiment, as many as you can remember. The images can be said in any order.</p>""]","","17","dinner_party_scheme"
"","","","","","image-button-response","43","798468","0.0-41.0-0.0","B5E20A5A702949DB894A9C9A32CD3B01","B5E20A5A702949DB894A9C9A32CD3B01","0ba58431-6bac-4749-8499-48efa4f09c95","2dd913a0-fd4c-43f1-b4f3-f0d48537bce8","{""part"":""2"",""participantId"":""B5E20A5A702949DB894A9C9A32CD3B01"",""assignmentId"":""0ba58431-6bac-4749-8499-48efa4f09c95"",""projectId"":""2dd913a0-fd4c-43f1-b4f3-f0d48537bce8""}","https://test12345.live/?part=2&participantId=B5E20A5A702949DB894A9C9A32CD3B01&assignmentId=0ba58431-6bac-4749-8499-48efa4f09c95&projectId=2dd913a0-fd4c-43f1-b4f3-f0d48537bce8","B5E20A5A702949DB894A9C9A32CD3B01-2025-05-15-22-51-41","","null","","images/semantic_sequence/redecorating_semantic/redecorating_semantic_0.png","null","",""
"","","","","","html-audio-response","44","840497","0.0-42.0","B5E20A5A702949DB894A9C9A32CD3B01","B5E20A5A702949DB894A9C9A32CD3B01","0ba58431-6bac-4749-8499-48efa4f09c95","2dd913a0-fd4c-43f1-b4f3-f0d48537bce8","{""part"":""2"",""participantId"":""B5E20A5A702949DB894A9C9A32CD3B01"",""assignmentId"":""0ba58431-6bac-4749-8499-48efa4f09c95"",""projectId"":""2dd913a0-fd4c-43f1-b4f3-f0d48537bce8""}","https://test12345.live/?part=2&participantId=B5E20A5A702949DB894A9C9A32CD3B01&assignmentId=0ba58431-6bac-4749-8499-48efa4f09c95&projectId=2dd913a0-fd4c-43f1-b4f3-f0d48537bce8","B5E20A5A702949DB894A9C9A32CD3B01-2025-05-15-22-51-41","","41301","","[""<span style=\""color: red; font-size: 24px\""> NOW RECORDING</span><p>Please say out loud all the images you saw in part 1 of the experiment, as many as you can remember. The images can be said in any order.</p>""]","","1","redecorating_semantic"
"","","","","","image-button-response","45","846507","0.0-43.0-0.0","B5E20A5A702949DB894A9C9A32CD3B01","B5E20A5A702949DB894A9C9A32CD3B01","0ba58431-6bac-4749-8499-48efa4f09c95","2dd913a0-fd4c-43f1-b4f3-f0d48537bce8","{""part"":""2"",""participantId"":""B5E20A5A702949DB894A9C9A32CD3B01"",""assignmentId"":""0ba58431-6bac-4749-8499-48efa4f09c95"",""projectId"":""2dd913a0-fd4c-43f1-b4f3-f0d48537bce8""}","https://test12345.live/?part=2&participantId=B5E20A5A702949DB894A9C9A32CD3B01&assignmentId=0ba58431-6bac-4749-8499-48efa4f09c95&projectId=2dd913a0-fd4c-43f1-b4f3-f0d48537bce8","B5E20A5A702949DB894A9C9A32CD3B01-2025-05-15-22-51-41","","null","","images/causal_sequence/museum_causal/museum_causal_0.png","null","",""
"","","","","","html-audio-response","46","866453","0.0-44.0","B5E20A5A702949DB894A9C9A32CD3B01","B5E20A5A702949DB894A9C9A32CD3B01","0ba58431-6bac-4749-8499-48efa4f09c95","2dd913a0-fd4c-43f1-b4f3-f0d48537bce8","{""part"":""2"",""participantId"":""B5E20A5A702949DB894A9C9A32CD3B01"",""assignmentId"":""0ba58431-6bac-4749-8499-48efa4f09c95"",""projectId"":""2dd913a0-fd4c-43f1-b4f3-f0d48537bce8""}","https://test12345.live/?part=2&participantId=B5E20A5A702949DB894A9C9A32CD3B01&assignmentId=0ba58431-6bac-4749-8499-48efa4f09c95&projectId=2dd913a0-fd4c-43f1-b4f3-f0d48537bce8","B5E20A5A702949DB894A9C9A32CD3B01-2025-05-15-22-51-41","","19440","","[""<span style=\""color: red; font-size: 24px\""> NOW RECORDING</span><p>Please say out loud all the images you saw in part 1 of the experiment, as many as you can remember. The images can be said in any order.</p>""]","","17","museum_causal"
"","","","","","image-button-response","47","872461","0.0-45.0-0.0","B5E20A5A702949DB894A9C9A32CD3B01","B5E20A5A702949DB894A9C9A32CD3B01","0ba58431-6bac-4749-8499-48efa4f09c95","2dd913a0-fd4c-43f1-b4f3-f0d48537bce8","{""part"":""2"",""participantId"":""B5E20A5A702949DB894A9C9A32CD3B01"",""assignmentId"":""0ba58431-6bac-4749-8499-48efa4f09c95"",""projectId"":""2dd913a0-fd4c-43f1-b4f3-f0d48537bce8""}","https://test12345.live/?part=2&participantId=B5E20A5A702949DB894A9C9A32CD3B01&assignmentId=0ba58431-6bac-4749-8499-48efa4f09c95&projectId=2dd913a0-fd4c-43f1-b4f3-f0d48537bce8","B5E20A5A702949DB894A9C9A32CD3B01-2025-05-15-22-51-41","","null","","images/causal_sequence/the_performance_causal/the_performance_causal_0.png","null","",""
"","","","","","html-audio-response","48","918839","0.0-46.0","B5E20A5A702949DB894A9C9A32CD3B01","B5E20A5A702949DB894A9C9A32CD3B01","0ba58431-6bac-4749-8499-48efa4f09c95","2dd913a0-fd4c-43f1-b4f3-f0d48537bce8","{""part"":""2"",""participantId"":""B5E20A5A702949DB894A9C9A32CD3B01"",""assignmentId"":""0ba58431-6bac-4749-8499-48efa4f09c95"",""projectId"":""2dd913a0-fd4c-43f1-b4f3-f0d48537bce8""}","https://test12345.live/?part=2&participantId=B5E20A5A702949DB894A9C9A32CD3B01&assignmentId=0ba58431-6bac-4749-8499-48efa4f09c95&projectId=2dd913a0-fd4c-43f1-b4f3-f0d48537bce8","B5E20A5A702949DB894A9C9A32CD3B01-2025-05-15-22-51-41","","45796","","[""<span style=\""color: red; font-size: 24px\""> NOW RECORDING</span><p>Please say out loud all the images you saw in part 1 of the experiment, as many as you can remember. The images can be said in any order.</p>""]","","9","the_performance_causal"
"","","","","","image-button-response","49","924852","0.0-47.0-0.0","B5E20A5A702949DB894A9C9A32CD3B01","B5E20A5A702949DB894A9C9A32CD3B01","0ba58431-6bac-4749-8499-48efa4f09c95","2dd913a0-fd4c-43f1-b4f3-f0d48537bce8","{""part"":""2"",""participantId"":""B5E20A5A702949DB894A9C9A32CD3B01"",""assignmentId"":""0ba58431-6bac-4749-8499-48efa4f09c95"",""projectId"":""2dd913a0-fd4c-43f1-b4f3-f0d48537bce8""}","https://test12345.live/?part=2&participantId=B5E20A5A702949DB894A9C9A32CD3B01&assignmentId=0ba58431-6bac-4749-8499-48efa4f09c95&projectId=2dd913a0-fd4c-43f1-b4f3-f0d48537bce8","B5E20A5A702949DB894A9C9A32CD3B01-2025-05-15-22-51-41","","null","","images/semantic_sequence/using_technology_semantic/using_technology_semantic_0.png","null","",""
"","","","","","html-audio-response","50","951949","0.0-48.0","B5E20A5A702949DB894A9C9A32CD3B01","B5E20A5A702949DB894A9C9A32CD3B01","0ba58431-6bac-4749-8499-48efa4f09c95","2dd913a0-fd4c-43f1-b4f3-f0d48537bce8","{""part"":""2"",""participantId"":""B5E20A5A702949DB894A9C9A32CD3B01"",""assignmentId"":""0ba58431-6bac-4749-8499-48efa4f09c95"",""projectId"":""2dd913a0-fd4c-43f1-b4f3-f0d48537bce8""}","https://test12345.live/?part=2&participantId=B5E20A5A702949DB894A9C9A32CD3B01&assignmentId=0ba58431-6bac-4749-8499-48efa4f09c95&projectId=2dd913a0-fd4c-43f1-b4f3-f0d48537bce8","B5E20A5A702949DB894A9C9A32CD3B01-2025-05-15-22-51-41","","26665","","[""<span style=\""color: red; font-size: 24px\""> NOW RECORDING</span><p>Please say out loud all the images you saw in part 1 of the experiment, as many as you can remember. The images can be said in any order.</p>""]","","5","using_technology_semantic"
"","","","","","image-button-response","51","957958","0.0-49.0-0.0","B5E20A5A702949DB894A9C9A32CD3B01","B5E20A5A702949DB894A9C9A32CD3B01","0ba58431-6bac-4749-8499-48efa4f09c95","2dd913a0-fd4c-43f1-b4f3-f0d48537bce8","{""part"":""2"",""participantId"":""B5E20A5A702949DB894A9C9A32CD3B01"",""assignmentId"":""0ba58431-6bac-4749-8499-48efa4f09c95"",""projectId"":""2dd913a0-fd4c-43f1-b4f3-f0d48537bce8""}","https://test12345.live/?part=2&participantId=B5E20A5A702949DB894A9C9A32CD3B01&assignmentId=0ba58431-6bac-4749-8499-48efa4f09c95&projectId=2dd913a0-fd4c-43f1-b4f3-f0d48537bce8","B5E20A5A702949DB894A9C9A32CD3B01-2025-05-15-22-51-41","","null","","images/semantic_sequence/kitchen_operations_semantic/kitchen_operations_semantic_0.png","null","",""
"","","","","","html-audio-response","52","986323","0.0-50.0","B5E20A5A702949DB894A9C9A32CD3B01","B5E20A5A702949DB894A9C9A32CD3B01","0ba58431-6bac-4749-8499-48efa4f09c95","2dd913a0-fd4c-43f1-b4f3-f0d48537bce8","{""part"":""2"",""participantId"":""B5E20A5A702949DB894A9C9A32CD3B01"",""assignmentId"":""0ba58431-6bac-4749-8499-48efa4f09c95"",""projectId"":""2dd913a0-fd4c-43f1-b4f3-f0d48537bce8""}","https://test12345.live/?part=2&participantId=B5E20A5A702949DB894A9C9A32CD3B01&assignmentId=0ba58431-6bac-4749-8499-48efa4f09c95&projectId=2dd913a0-fd4c-43f1-b4f3-f0d48537bce8","B5E20A5A702949DB894A9C9A32CD3B01-2025-05-15-22-51-41","","27952","","[""<span style=\""color: red; font-size: 24px\""> NOW RECORDING</span><p>Please say out loud all the images you saw in part 1 of the experiment, as many as you can remember. The images can be said in any order.</p>""]","","1","kitchen_operations_semantic"
"","","","","","image-button-response","53","992330","0.0-51.0-0.0","B5E20A5A702949DB894A9C9A32CD3B01","B5E20A5A702949DB894A9C9A32CD3B01","0ba58431-6bac-4749-8499-48efa4f09c95","2dd913a0-fd4c-43f1-b4f3-f0d48537bce8","{""part"":""2"",""participantId"":""B5E20A5A702949DB894A9C9A32CD3B01"",""assignmentId"":""0ba58431-6bac-4749-8499-48efa4f09c95"",""projectId"":""2dd913a0-fd4c-43f1-b4f3-f0d48537bce8""}","https://test12345.live/?part=2&participantId=B5E20A5A702949DB894A9C9A32CD3B01&assignmentId=0ba58431-6bac-4749-8499-48efa4f09c95&projectId=2dd913a0-fd4c-43f1-b4f3-f0d48537bce8","B5E20A5A702949DB894A9C9A32CD3B01-2025-05-15-22-51-41","","null","","images/schematic_sequence/flight_scheme/flight_scheme_0.png","null","",""
"","","","","","html-audio-response","54","1027569","0.0-52.0","B5E20A5A702949DB894A9C9A32CD3B01","B5E20A5A702949DB894A9C9A32CD3B01","0ba58431-6bac-4749-8499-48efa4f09c95","2dd913a0-fd4c-43f1-b4f3-f0d48537bce8","{""part"":""2"",""participantId"":""B5E20A5A702949DB894A9C9A32CD3B01"",""assignmentId"":""0ba58431-6bac-4749-8499-48efa4f09c95"",""projectId"":""2dd913a0-fd4c-43f1-b4f3-f0d48537bce8""}","https://test12345.live/?part=2&participantId=B5E20A5A702949DB894A9C9A32CD3B01&assignmentId=0ba58431-6bac-4749-8499-48efa4f09c95&projectId=2dd913a0-fd4c-43f1-b4f3-f0d48537bce8","B5E20A5A702949DB894A9C9A32CD3B01-2025-05-15-22-51-41","","31252","","[""<span style=\""color: red; font-size: 24px\""> NOW RECORDING</span><p>Please say out loud all the images you saw in part 1 of the experiment, as many as you can remember. The images can be said in any order.</p>""]","","12","flight_scheme"
"","","","","","image-button-response","55","1033576","0.0-53.0-0.0","B5E20A5A702949DB894A9C9A32CD3B01","B5E20A5A702949DB894A9C9A32CD3B01","0ba58431-6bac-4749-8499-48efa4f09c95","2dd913a0-fd4c-43f1-b4f3-f0d48537bce8","{""part"":""2"",""participantId"":""B5E20A5A702949DB894A9C9A32CD3B01"",""assignmentId"":""0ba58431-6bac-4749-8499-48efa4f09c95"",""projectId"":""2dd913a0-fd4c-43f1-b4f3-f0d48537bce8""}","https://test12345.live/?part=2&participantId=B5E20A5A702949DB894A9C9A32CD3B01&assignmentId=0ba58431-6bac-4749-8499-48efa4f09c95&projectId=2dd913a0-fd4c-43f1-b4f3-f0d48537bce8","B5E20A5A702949DB894A9C9A32CD3B01-2025-05-15-22-51-41","","null","","images/schematic_sequence/hotel_scheme/hotel_scheme_0.png","null","",""
"","","","","","html-audio-response","56","1062687","0.0-54.0","B5E20A5A702949DB894A9C9A32CD3B01","B5E20A5A702949DB894A9C9A32CD3B01","0ba58431-6bac-4749-8499-48efa4f09c95","2dd913a0-fd4c-43f1-b4f3-f0d48537bce8","{""part"":""2"",""participantId"":""B5E20A5A702949DB894A9C9A32CD3B01"",""assignmentId"":""0ba58431-6bac-4749-8499-48efa4f09c95"",""projectId"":""2dd913a0-fd4c-43f1-b4f3-f0d48537bce8""}","https://test12345.live/?part=2&participantId=B5E20A5A702949DB894A9C9A32CD3B01&assignmentId=0ba58431-6bac-4749-8499-48efa4f09c95&projectId=2dd913a0-fd4c-43f1-b4f3-f0d48537bce8","B5E20A5A702949DB894A9C9A32CD3B01-2025-05-15-22-51-41","","28447","","[""<span style=\""color: red; font-size: 24px\""> NOW RECORDING</span><p>Please say out loud all the images you saw in part 1 of the experiment, as many as you can remember. The images can be said in any order.</p>""]","","6","hotel_scheme"
"","","","","","image-button-response","57","1068690","0.0-55.0-0.0","B5E20A5A702949DB894A9C9A32CD3B01","B5E20A5A702949DB894A9C9A32CD3B01","0ba58431-6bac-4749-8499-48efa4f09c95","2dd913a0-fd4c-43f1-b4f3-f0d48537bce8","{""part"":""2"",""participantId"":""B5E20A5A702949DB894A9C9A32CD3B01"",""assignmentId"":""0ba58431-6bac-4749-8499-48efa4f09c95"",""projectId"":""2dd913a0-fd4c-43f1-b4f3-f0d48537bce8""}","https://test12345.live/?part=2&participantId=B5E20A5A702949DB894A9C9A32CD3B01&assignmentId=0ba58431-6bac-4749-8499-48efa4f09c95&projectId=2dd913a0-fd4c-43f1-b4f3-f0d48537bce8","B5E20A5A702949DB894A9C9A32CD3B01-2025-05-15-22-51-41","","null","","images/semantic_sequence/housework_semantic/housework_semantic_0.png","null","",""
"","","","","","html-audio-response","58","1085584","0.0-56.0","B5E20A5A702949DB894A9C9A32CD3B01","B5E20A5A702949DB894A9C9A32CD3B01","0ba58431-6bac-4749-8499-48efa4f09c95","2dd913a0-fd4c-43f1-b4f3-f0d48537bce8","{""part"":""2"",""participantId"":""B5E20A5A702949DB894A9C9A32CD3B01"",""assignmentId"":""0ba58431-6bac-4749-8499-48efa4f09c95"",""projectId"":""2dd913a0-fd4c-43f1-b4f3-f0d48537bce8""}","https://test12345.live/?part=2&participantId=B5E20A5A702949DB894A9C9A32CD3B01&assignmentId=0ba58431-6bac-4749-8499-48efa4f09c95&projectId=2dd913a0-fd4c-43f1-b4f3-f0d48537bce8","B5E20A5A702949DB894A9C9A32CD3B01-2025-05-15-22-51-41","","16086","","[""<span style=\""color: red; font-size: 24px\""> NOW RECORDING</span><p>Please say out loud all the images you saw in part 1 of the experiment, as many as you can remember. The images can be said in any order.</p>""]","","7","housework_semantic"
"","","","","","survey-text","59","1091246","0.0-57.0","B5E20A5A702949DB894A9C9A32CD3B01","B5E20A5A702949DB894A9C9A32CD3B01","0ba58431-6bac-4749-8499-48efa4f09c95","2dd913a0-fd4c-43f1-b4f3-f0d48537bce8","{""part"":""2"",""participantId"":""B5E20A5A702949DB894A9C9A32CD3B01"",""assignmentId"":""0ba58431-6bac-4749-8499-48efa4f09c95"",""projectId"":""2dd913a0-fd4c-43f1-b4f3-f0d48537bce8""}","https://test12345.live/?part=2&participantId=B5E20A5A702949DB894A9C9A32CD3B01&assignmentId=0ba58431-6bac-4749-8499-48efa4f09c95&projectId=2dd913a0-fd4c-43f1-b4f3-f0d48537bce8","B5E20A5A702949DB894A9C9A32CD3B01-2025-05-15-22-51-41","","5658","","","{""Q0"":""MALE"",""Q1"":""26""}","",""
"","","","","","instructions","60","1099189","0.0-58.0","B5E20A5A702949DB894A9C9A32CD3B01","B5E20A5A702949DB894A9C9A32CD3B01","0ba58431-6bac-4749-8499-48efa4f09c95","2dd913a0-fd4c-43f1-b4f3-f0d48537bce8","{""part"":""2"",""participantId"":""B5E20A5A702949DB894A9C9A32CD3B01"",""assignmentId"":""0ba58431-6bac-4749-8499-48efa4f09c95"",""projectId"":""2dd913a0-fd4c-43f1-b4f3-f0d48537bce8""}","https://test12345.live/?part=2&participantId=B5E20A5A702949DB894A9C9A32CD3B01&assignmentId=0ba58431-6bac-4749-8499-48efa4f09c95&projectId=2dd913a0-fd4c-43f1-b4f3-f0d48537bce8","B5E20A5A702949DB894A9C9A32CD3B01-2025-05-15-22-51-41","[{""page_index"":0,""viewing_time"":7942}]","7943","","","","",""
"","","","","","survey-text","61","1100801","0.0-59.0","B5E20A5A702949DB894A9C9A32CD3B01","B5E20A5A702949DB894A9C9A32CD3B01","0ba58431-6bac-4749-8499-48efa4f09c95","2dd913a0-fd4c-43f1-b4f3-f0d48537bce8","{""part"":""2"",""participantId"":""B5E20A5A702949DB894A9C9A32CD3B01"",""assignmentId"":""0ba58431-6bac-4749-8499-48efa4f09c95"",""projectId"":""2dd913a0-fd4c-43f1-b4f3-f0d48537bce8""}","https://test12345.live/?part=2&participantId=B5E20A5A702949DB894A9C9A32CD3B01&assignmentId=0ba58431-6bac-4749-8499-48efa4f09c95&projectId=2dd913a0-fd4c-43f1-b4f3-f0d48537bce8","B5E20A5A702949DB894A9C9A32CD3B01-2025-05-15-22-51-41","","1612","","","{""Q0"":""AJFHBG896""}","",""
