"success","timeout","failed_images","failed_audio","failed_video","trial_type","trial_index","time_elapsed","internal_node_id","subject","subject_id","study_id","session_id","urlvar","current_url","audio_id","view_history","rt","device_id","stimulus","response","estimated_stimulus_onset","seq_name"
"true","false","[]","[]","[]","preload","0","1143","0.0-0.0","B7BCC484B8354EA690EA40756B9A34C6","B7BCC484B8354EA690EA40756B9A34C6","1aa17568-048b-409e-9d68-f859c637ebe7","2dd913a0-fd4c-43f1-b4f3-f0d48537bce8","{""part"":""2"",""participantId"":""B7BCC484B8354EA690EA40756B9A34C6"",""assignmentId"":""1aa17568-048b-409e-9d68-f859c637ebe7"",""projectId"":""2dd913a0-fd4c-43f1-b4f3-f0d48537bce8""}","https://test12345.live/?part=2&participantId=B7BCC484B8354EA690EA40756B9A34C6&assignmentId=1aa17568-048b-409e-9d68-f859c637ebe7&projectId=2dd913a0-fd4c-43f1-b4f3-f0d48537bce8","B7BCC484B8354EA690EA40756B9A34C6-2025-05-15-20-32-15","","","","","","",""
"","","","","","instructions","1","9218","0.0-1.0","B7BCC484B8354EA690EA40756B9A34C6","B7BCC484B8354EA690EA40756B9A34C6","1aa17568-048b-409e-9d68-f859c637ebe7","2dd913a0-fd4c-43f1-b4f3-f0d48537bce8","{""part"":""2"",""participantId"":""B7BCC484B8354EA690EA40756B9A34C6"",""assignmentId"":""1aa17568-048b-409e-9d68-f859c637ebe7"",""projectId"":""2dd913a0-fd4c-43f1-b4f3-f0d48537bce8""}","https://test12345.live/?part=2&participantId=B7BCC484B8354EA690EA40756B9A34C6&assignmentId=1aa17568-048b-409e-9d68-f859c637ebe7&projectId=2dd913a0-fd4c-43f1-b4f3-f0d48537bce8","B7BCC484B8354EA690EA40756B9A34C6-2025-05-15-20-32-15","[{""page_index"":0,""viewing_time"":8075}]","8075","","","","",""
"","","","","","instructions","2","20011","0.0-2.0","B7BCC484B8354EA690EA40756B9A34C6","B7BCC484B8354EA690EA40756B9A34C6","1aa17568-048b-409e-9d68-f859c637ebe7","2dd913a0-fd4c-43f1-b4f3-f0d48537bce8","{""part"":""2"",""participantId"":""B7BCC484B8354EA690EA40756B9A34C6"",""assignmentId"":""1aa17568-048b-409e-9d68-f859c637ebe7"",""projectId"":""2dd913a0-fd4c-43f1-b4f3-f0d48537bce8""}","https://test12345.live/?part=2&participantId=B7BCC484B8354EA690EA40756B9A34C6&assignmentId=1aa17568-048b-409e-9d68-f859c637ebe7&projectId=2dd913a0-fd4c-43f1-b4f3-f0d48537bce8","B7BCC484B8354EA690EA40756B9A34C6-2025-05-15-20-32-15","[{""page_index"":0,""viewing_time"":10793}]","10793","","","","",""
"true","","","","","fullscreen","3","22347","0.0-3.0","B7BCC484B8354EA690EA40756B9A34C6","B7BCC484B8354EA690EA40756B9A34C6","1aa17568-048b-409e-9d68-f859c637ebe7","2dd913a0-fd4c-43f1-b4f3-f0d48537bce8","{""part"":""2"",""participantId"":""B7BCC484B8354EA690EA40756B9A34C6"",""assignmentId"":""1aa17568-048b-409e-9d68-f859c637ebe7"",""projectId"":""2dd913a0-fd4c-43f1-b4f3-f0d48537bce8""}","https://test12345.live/?part=2&participantId=B7BCC484B8354EA690EA40756B9A34C6&assignmentId=1aa17568-048b-409e-9d68-f859c637ebe7&projectId=2dd913a0-fd4c-43f1-b4f3-f0d48537bce8","B7BCC484B8354EA690EA40756B9A34C6-2025-05-15-20-32-15","","1332","","","","",""
"","","","","","initialize-microphone","4","24657","0.0-4.0-0.0","B7BCC484B8354EA690EA40756B9A34C6","B7BCC484B8354EA690EA40756B9A34C6","1aa17568-048b-409e-9d68-f859c637ebe7","2dd913a0-fd4c-43f1-b4f3-f0d48537bce8","{""part"":""2"",""participantId"":""B7BCC484B8354EA690EA40756B9A34C6"",""assignmentId"":""1aa17568-048b-409e-9d68-f859c637ebe7"",""projectId"":""2dd913a0-fd4c-43f1-b4f3-f0d48537bce8""}","https://test12345.live/?part=2&participantId=B7BCC484B8354EA690EA40756B9A34C6&assignmentId=1aa17568-048b-409e-9d68-f859c637ebe7&projectId=2dd913a0-fd4c-43f1-b4f3-f0d48537bce8","B7BCC484B8354EA690EA40756B9A34C6-2025-05-15-20-32-15","","","945a57426f554078130f090c2d0689fc24244417fada1d6a8850b9bbaaf7bd44","","","",""
"","","","","","html-audio-response","5","50628","0.0-4.0-1.0","B7BCC484B8354EA690EA40756B9A34C6","B7BCC484B8354EA690EA40756B9A34C6","1aa17568-048b-409e-9d68-f859c637ebe7","2dd913a0-fd4c-43f1-b4f3-f0d48537bce8","{""part"":""2"",""participantId"":""B7BCC484B8354EA690EA40756B9A34C6"",""assignmentId"":""1aa17568-048b-409e-9d68-f859c637ebe7"",""projectId"":""2dd913a0-fd4c-43f1-b4f3-f0d48537bce8""}","https://test12345.live/?part=2&participantId=B7BCC484B8354EA690EA40756B9A34C6&assignmentId=1aa17568-048b-409e-9d68-f859c637ebe7&projectId=2dd913a0-fd4c-43f1-b4f3-f0d48537bce8","B7BCC484B8354EA690EA40756B9A34C6-2025-05-15-20-32-15","","4157","","<span style=""color: red; font-size: 24px""> NOW RECORDING</span>
        <p>Please test Microphone</p>","","13",""
"","","","","","html-button-response","6","52144","0.0-4.0-2.0","B7BCC484B8354EA690EA40756B9A34C6","B7BCC484B8354EA690EA40756B9A34C6","1aa17568-048b-409e-9d68-f859c637ebe7","2dd913a0-fd4c-43f1-b4f3-f0d48537bce8","{""part"":""2"",""participantId"":""B7BCC484B8354EA690EA40756B9A34C6"",""assignmentId"":""1aa17568-048b-409e-9d68-f859c637ebe7"",""projectId"":""2dd913a0-fd4c-43f1-b4f3-f0d48537bce8""}","https://test12345.live/?part=2&participantId=B7BCC484B8354EA690EA40756B9A34C6&assignmentId=1aa17568-048b-409e-9d68-f859c637ebe7&projectId=2dd913a0-fd4c-43f1-b4f3-f0d48537bce8","B7BCC484B8354EA690EA40756B9A34C6-2025-05-15-20-32-15","","1516","","<p style=""font-size:48px; color:red;"">Is Microphone OK?</p>","1","",""
"","","","","","instructions","7","81751","0.0-5.0","B7BCC484B8354EA690EA40756B9A34C6","B7BCC484B8354EA690EA40756B9A34C6","1aa17568-048b-409e-9d68-f859c637ebe7","2dd913a0-fd4c-43f1-b4f3-f0d48537bce8","{""part"":""2"",""participantId"":""B7BCC484B8354EA690EA40756B9A34C6"",""assignmentId"":""1aa17568-048b-409e-9d68-f859c637ebe7"",""projectId"":""2dd913a0-fd4c-43f1-b4f3-f0d48537bce8""}","https://test12345.live/?part=2&participantId=B7BCC484B8354EA690EA40756B9A34C6&assignmentId=1aa17568-048b-409e-9d68-f859c637ebe7&projectId=2dd913a0-fd4c-43f1-b4f3-f0d48537bce8","B7BCC484B8354EA690EA40756B9A34C6-2025-05-15-20-32-15","[{""page_index"":0,""viewing_time"":1278},{""page_index"":1,""viewing_time"":20274},{""page_index"":2,""viewing_time"":8054}]","29606","","","","",""
"","","","","","image-button-response","8","87764","0.0-6.0-0.0","B7BCC484B8354EA690EA40756B9A34C6","B7BCC484B8354EA690EA40756B9A34C6","1aa17568-048b-409e-9d68-f859c637ebe7","2dd913a0-fd4c-43f1-b4f3-f0d48537bce8","{""part"":""2"",""participantId"":""B7BCC484B8354EA690EA40756B9A34C6"",""assignmentId"":""1aa17568-048b-409e-9d68-f859c637ebe7"",""projectId"":""2dd913a0-fd4c-43f1-b4f3-f0d48537bce8""}","https://test12345.live/?part=2&participantId=B7BCC484B8354EA690EA40756B9A34C6&assignmentId=1aa17568-048b-409e-9d68-f859c637ebe7&projectId=2dd913a0-fd4c-43f1-b4f3-f0d48537bce8","B7BCC484B8354EA690EA40756B9A34C6-2025-05-15-20-32-15","","null","","images/instructions/movie_0.png","null","",""
"","","","","","html-audio-response","9","145612","0.0-7.0","B7BCC484B8354EA690EA40756B9A34C6","B7BCC484B8354EA690EA40756B9A34C6","1aa17568-048b-409e-9d68-f859c637ebe7","2dd913a0-fd4c-43f1-b4f3-f0d48537bce8","{""part"":""2"",""participantId"":""B7BCC484B8354EA690EA40756B9A34C6"",""assignmentId"":""1aa17568-048b-409e-9d68-f859c637ebe7"",""projectId"":""2dd913a0-fd4c-43f1-b4f3-f0d48537bce8""}","https://test12345.live/?part=2&participantId=B7BCC484B8354EA690EA40756B9A34C6&assignmentId=1aa17568-048b-409e-9d68-f859c637ebe7&projectId=2dd913a0-fd4c-43f1-b4f3-f0d48537bce8","B7BCC484B8354EA690EA40756B9A34C6-2025-05-15-20-32-15","","null","","[""<span style=\""color: red; font-size: 24px\""> NOW RECORDING</span><p>Please say out loud all the images you saw in part 1 of the experiment, as many as you can remember. The images can be said in any order.</p>""]","","1",""
"","","","","","instructions","10","146955","0.0-8.0","B7BCC484B8354EA690EA40756B9A34C6","B7BCC484B8354EA690EA40756B9A34C6","1aa17568-048b-409e-9d68-f859c637ebe7","2dd913a0-fd4c-43f1-b4f3-f0d48537bce8","{""part"":""2"",""participantId"":""B7BCC484B8354EA690EA40756B9A34C6"",""assignmentId"":""1aa17568-048b-409e-9d68-f859c637ebe7"",""projectId"":""2dd913a0-fd4c-43f1-b4f3-f0d48537bce8""}","https://test12345.live/?part=2&participantId=B7BCC484B8354EA690EA40756B9A34C6&assignmentId=1aa17568-048b-409e-9d68-f859c637ebe7&projectId=2dd913a0-fd4c-43f1-b4f3-f0d48537bce8","B7BCC484B8354EA690EA40756B9A34C6-2025-05-15-20-32-15","[{""page_index"":0,""viewing_time"":1339}]","1340","","","","",""
"","","","","","image-button-response","11","152964","0.0-9.0-0.0","B7BCC484B8354EA690EA40756B9A34C6","B7BCC484B8354EA690EA40756B9A34C6","1aa17568-048b-409e-9d68-f859c637ebe7","2dd913a0-fd4c-43f1-b4f3-f0d48537bce8","{""part"":""2"",""participantId"":""B7BCC484B8354EA690EA40756B9A34C6"",""assignmentId"":""1aa17568-048b-409e-9d68-f859c637ebe7"",""projectId"":""2dd913a0-fd4c-43f1-b4f3-f0d48537bce8""}","https://test12345.live/?part=2&participantId=B7BCC484B8354EA690EA40756B9A34C6&assignmentId=1aa17568-048b-409e-9d68-f859c637ebe7&projectId=2dd913a0-fd4c-43f1-b4f3-f0d48537bce8","B7BCC484B8354EA690EA40756B9A34C6-2025-05-15-20-32-15","","null","","images/semantic_sequence/exploring_nature_semantic/exploring_nature_semantic_0.png","null","",""
"","","","","","html-audio-response","12","191377","0.0-10.0","B7BCC484B8354EA690EA40756B9A34C6","B7BCC484B8354EA690EA40756B9A34C6","1aa17568-048b-409e-9d68-f859c637ebe7","2dd913a0-fd4c-43f1-b4f3-f0d48537bce8","{""part"":""2"",""participantId"":""B7BCC484B8354EA690EA40756B9A34C6"",""assignmentId"":""1aa17568-048b-409e-9d68-f859c637ebe7"",""projectId"":""2dd913a0-fd4c-43f1-b4f3-f0d48537bce8""}","https://test12345.live/?part=2&participantId=B7BCC484B8354EA690EA40756B9A34C6&assignmentId=1aa17568-048b-409e-9d68-f859c637ebe7&projectId=2dd913a0-fd4c-43f1-b4f3-f0d48537bce8","B7BCC484B8354EA690EA40756B9A34C6-2025-05-15-20-32-15","","37692","","[""<span style=\""color: red; font-size: 24px\""> NOW RECORDING</span><p>Please say out loud all the images you saw in part 1 of the experiment, as many as you can remember. The images can be said in any order.</p>""]","","0","exploring_nature_semantic"
"","","","","","image-button-response","13","197392","0.0-11.0-0.0","B7BCC484B8354EA690EA40756B9A34C6","B7BCC484B8354EA690EA40756B9A34C6","1aa17568-048b-409e-9d68-f859c637ebe7","2dd913a0-fd4c-43f1-b4f3-f0d48537bce8","{""part"":""2"",""participantId"":""B7BCC484B8354EA690EA40756B9A34C6"",""assignmentId"":""1aa17568-048b-409e-9d68-f859c637ebe7"",""projectId"":""2dd913a0-fd4c-43f1-b4f3-f0d48537bce8""}","https://test12345.live/?part=2&participantId=B7BCC484B8354EA690EA40756B9A34C6&assignmentId=1aa17568-048b-409e-9d68-f859c637ebe7&projectId=2dd913a0-fd4c-43f1-b4f3-f0d48537bce8","B7BCC484B8354EA690EA40756B9A34C6-2025-05-15-20-32-15","","null","","images/semantic_sequence/creative_activities_semantic/creative_activities_semantic_0.png","null","",""
"","","","","","html-audio-response","14","233758","0.0-12.0","B7BCC484B8354EA690EA40756B9A34C6","B7BCC484B8354EA690EA40756B9A34C6","1aa17568-048b-409e-9d68-f859c637ebe7","2dd913a0-fd4c-43f1-b4f3-f0d48537bce8","{""part"":""2"",""participantId"":""B7BCC484B8354EA690EA40756B9A34C6"",""assignmentId"":""1aa17568-048b-409e-9d68-f859c637ebe7"",""projectId"":""2dd913a0-fd4c-43f1-b4f3-f0d48537bce8""}","https://test12345.live/?part=2&participantId=B7BCC484B8354EA690EA40756B9A34C6&assignmentId=1aa17568-048b-409e-9d68-f859c637ebe7&projectId=2dd913a0-fd4c-43f1-b4f3-f0d48537bce8","B7BCC484B8354EA690EA40756B9A34C6-2025-05-15-20-32-15","","35474","","[""<span style=\""color: red; font-size: 24px\""> NOW RECORDING</span><p>Please say out loud all the images you saw in part 1 of the experiment, as many as you can remember. The images can be said in any order.</p>""]","","0","creative_activities_semantic"
"","","","","","image-button-response","15","239767","0.0-13.0-0.0","B7BCC484B8354EA690EA40756B9A34C6","B7BCC484B8354EA690EA40756B9A34C6","1aa17568-048b-409e-9d68-f859c637ebe7","2dd913a0-fd4c-43f1-b4f3-f0d48537bce8","{""part"":""2"",""participantId"":""B7BCC484B8354EA690EA40756B9A34C6"",""assignmentId"":""1aa17568-048b-409e-9d68-f859c637ebe7"",""projectId"":""2dd913a0-fd4c-43f1-b4f3-f0d48537bce8""}","https://test12345.live/?part=2&participantId=B7BCC484B8354EA690EA40756B9A34C6&assignmentId=1aa17568-048b-409e-9d68-f859c637ebe7&projectId=2dd913a0-fd4c-43f1-b4f3-f0d48537bce8","B7BCC484B8354EA690EA40756B9A34C6-2025-05-15-20-32-15","","null","","images/semantic_sequence/visiting_cities_semantic/visiting_cities_semantic_0.png","null","",""
"","","","","","html-audio-response","16","253617","0.0-14.0","B7BCC484B8354EA690EA40756B9A34C6","B7BCC484B8354EA690EA40756B9A34C6","1aa17568-048b-409e-9d68-f859c637ebe7","2dd913a0-fd4c-43f1-b4f3-f0d48537bce8","{""part"":""2"",""participantId"":""B7BCC484B8354EA690EA40756B9A34C6"",""assignmentId"":""1aa17568-048b-409e-9d68-f859c637ebe7"",""projectId"":""2dd913a0-fd4c-43f1-b4f3-f0d48537bce8""}","https://test12345.live/?part=2&participantId=B7BCC484B8354EA690EA40756B9A34C6&assignmentId=1aa17568-048b-409e-9d68-f859c637ebe7&projectId=2dd913a0-fd4c-43f1-b4f3-f0d48537bce8","B7BCC484B8354EA690EA40756B9A34C6-2025-05-15-20-32-15","","13069","","[""<span style=\""color: red; font-size: 24px\""> NOW RECORDING</span><p>Please say out loud all the images you saw in part 1 of the experiment, as many as you can remember. The images can be said in any order.</p>""]","","0","visiting_cities_semantic"
"","","","","","image-button-response","17","259624","0.0-15.0-0.0","B7BCC484B8354EA690EA40756B9A34C6","B7BCC484B8354EA690EA40756B9A34C6","1aa17568-048b-409e-9d68-f859c637ebe7","2dd913a0-fd4c-43f1-b4f3-f0d48537bce8","{""part"":""2"",""participantId"":""B7BCC484B8354EA690EA40756B9A34C6"",""assignmentId"":""1aa17568-048b-409e-9d68-f859c637ebe7"",""projectId"":""2dd913a0-fd4c-43f1-b4f3-f0d48537bce8""}","https://test12345.live/?part=2&participantId=B7BCC484B8354EA690EA40756B9A34C6&assignmentId=1aa17568-048b-409e-9d68-f859c637ebe7&projectId=2dd913a0-fd4c-43f1-b4f3-f0d48537bce8","B7BCC484B8354EA690EA40756B9A34C6-2025-05-15-20-32-15","","null","","images/semantic_sequence/market_semantic/market_semantic_0.png","null","",""
"","","","","","html-audio-response","18","293466","0.0-16.0","B7BCC484B8354EA690EA40756B9A34C6","B7BCC484B8354EA690EA40756B9A34C6","1aa17568-048b-409e-9d68-f859c637ebe7","2dd913a0-fd4c-43f1-b4f3-f0d48537bce8","{""part"":""2"",""participantId"":""B7BCC484B8354EA690EA40756B9A34C6"",""assignmentId"":""1aa17568-048b-409e-9d68-f859c637ebe7"",""projectId"":""2dd913a0-fd4c-43f1-b4f3-f0d48537bce8""}","https://test12345.live/?part=2&participantId=B7BCC484B8354EA690EA40756B9A34C6&assignmentId=1aa17568-048b-409e-9d68-f859c637ebe7&projectId=2dd913a0-fd4c-43f1-b4f3-f0d48537bce8","B7BCC484B8354EA690EA40756B9A34C6-2025-05-15-20-32-15","","33011","","[""<span style=\""color: red; font-size: 24px\""> NOW RECORDING</span><p>Please say out loud all the images you saw in part 1 of the experiment, as many as you can remember. The images can be said in any order.</p>""]","","1","market_semantic"
"","","","","","image-button-response","19","299472","0.0-17.0-0.0","B7BCC484B8354EA690EA40756B9A34C6","B7BCC484B8354EA690EA40756B9A34C6","1aa17568-048b-409e-9d68-f859c637ebe7","2dd913a0-fd4c-43f1-b4f3-f0d48537bce8","{""part"":""2"",""participantId"":""B7BCC484B8354EA690EA40756B9A34C6"",""assignmentId"":""1aa17568-048b-409e-9d68-f859c637ebe7"",""projectId"":""2dd913a0-fd4c-43f1-b4f3-f0d48537bce8""}","https://test12345.live/?part=2&participantId=B7BCC484B8354EA690EA40756B9A34C6&assignmentId=1aa17568-048b-409e-9d68-f859c637ebe7&projectId=2dd913a0-fd4c-43f1-b4f3-f0d48537bce8","B7BCC484B8354EA690EA40756B9A34C6-2025-05-15-20-32-15","","null","","images/semantic_sequence/using_technology_semantic/using_technology_semantic_0.png","null","",""
"","","","","","html-audio-response","20","340224","0.0-18.0","B7BCC484B8354EA690EA40756B9A34C6","B7BCC484B8354EA690EA40756B9A34C6","1aa17568-048b-409e-9d68-f859c637ebe7","2dd913a0-fd4c-43f1-b4f3-f0d48537bce8","{""part"":""2"",""participantId"":""B7BCC484B8354EA690EA40756B9A34C6"",""assignmentId"":""1aa17568-048b-409e-9d68-f859c637ebe7"",""projectId"":""2dd913a0-fd4c-43f1-b4f3-f0d48537bce8""}","https://test12345.live/?part=2&participantId=B7BCC484B8354EA690EA40756B9A34C6&assignmentId=1aa17568-048b-409e-9d68-f859c637ebe7&projectId=2dd913a0-fd4c-43f1-b4f3-f0d48537bce8","B7BCC484B8354EA690EA40756B9A34C6-2025-05-15-20-32-15","","40113","","[""<span style=\""color: red; font-size: 24px\""> NOW RECORDING</span><p>Please say out loud all the images you saw in part 1 of the experiment, as many as you can remember. The images can be said in any order.</p>""]","","0","using_technology_semantic"
"","","","","","image-button-response","21","346230","0.0-19.0-0.0","B7BCC484B8354EA690EA40756B9A34C6","B7BCC484B8354EA690EA40756B9A34C6","1aa17568-048b-409e-9d68-f859c637ebe7","2dd913a0-fd4c-43f1-b4f3-f0d48537bce8","{""part"":""2"",""participantId"":""B7BCC484B8354EA690EA40756B9A34C6"",""assignmentId"":""1aa17568-048b-409e-9d68-f859c637ebe7"",""projectId"":""2dd913a0-fd4c-43f1-b4f3-f0d48537bce8""}","https://test12345.live/?part=2&participantId=B7BCC484B8354EA690EA40756B9A34C6&assignmentId=1aa17568-048b-409e-9d68-f859c637ebe7&projectId=2dd913a0-fd4c-43f1-b4f3-f0d48537bce8","B7BCC484B8354EA690EA40756B9A34C6-2025-05-15-20-32-15","","null","","images/semantic_sequence/kitchen_operations_semantic/kitchen_operations_semantic_0.png","null","",""
"","","","","","html-audio-response","22","362281","0.0-20.0","B7BCC484B8354EA690EA40756B9A34C6","B7BCC484B8354EA690EA40756B9A34C6","1aa17568-048b-409e-9d68-f859c637ebe7","2dd913a0-fd4c-43f1-b4f3-f0d48537bce8","{""part"":""2"",""participantId"":""B7BCC484B8354EA690EA40756B9A34C6"",""assignmentId"":""1aa17568-048b-409e-9d68-f859c637ebe7"",""projectId"":""2dd913a0-fd4c-43f1-b4f3-f0d48537bce8""}","https://test12345.live/?part=2&participantId=B7BCC484B8354EA690EA40756B9A34C6&assignmentId=1aa17568-048b-409e-9d68-f859c637ebe7&projectId=2dd913a0-fd4c-43f1-b4f3-f0d48537bce8","B7BCC484B8354EA690EA40756B9A34C6-2025-05-15-20-32-15","","15237","","[""<span style=\""color: red; font-size: 24px\""> NOW RECORDING</span><p>Please say out loud all the images you saw in part 1 of the experiment, as many as you can remember. The images can be said in any order.</p>""]","","2","kitchen_operations_semantic"
"","","","","","image-button-response","23","368284","0.0-21.0-0.0","B7BCC484B8354EA690EA40756B9A34C6","B7BCC484B8354EA690EA40756B9A34C6","1aa17568-048b-409e-9d68-f859c637ebe7","2dd913a0-fd4c-43f1-b4f3-f0d48537bce8","{""part"":""2"",""participantId"":""B7BCC484B8354EA690EA40756B9A34C6"",""assignmentId"":""1aa17568-048b-409e-9d68-f859c637ebe7"",""projectId"":""2dd913a0-fd4c-43f1-b4f3-f0d48537bce8""}","https://test12345.live/?part=2&participantId=B7BCC484B8354EA690EA40756B9A34C6&assignmentId=1aa17568-048b-409e-9d68-f859c637ebe7&projectId=2dd913a0-fd4c-43f1-b4f3-f0d48537bce8","B7BCC484B8354EA690EA40756B9A34C6-2025-05-15-20-32-15","","null","","images/schematic_sequence/dinner_party_scheme/dinner_party_scheme_0.png","null","",""
"","","","","","html-audio-response","24","424050","0.0-22.0","B7BCC484B8354EA690EA40756B9A34C6","B7BCC484B8354EA690EA40756B9A34C6","1aa17568-048b-409e-9d68-f859c637ebe7","2dd913a0-fd4c-43f1-b4f3-f0d48537bce8","{""part"":""2"",""participantId"":""B7BCC484B8354EA690EA40756B9A34C6"",""assignmentId"":""1aa17568-048b-409e-9d68-f859c637ebe7"",""projectId"":""2dd913a0-fd4c-43f1-b4f3-f0d48537bce8""}","https://test12345.live/?part=2&participantId=B7BCC484B8354EA690EA40756B9A34C6&assignmentId=1aa17568-048b-409e-9d68-f859c637ebe7&projectId=2dd913a0-fd4c-43f1-b4f3-f0d48537bce8","B7BCC484B8354EA690EA40756B9A34C6-2025-05-15-20-32-15","","54851","","[""<span style=\""color: red; font-size: 24px\""> NOW RECORDING</span><p>Please say out loud all the images you saw in part 1 of the experiment, as many as you can remember. The images can be said in any order.</p>""]","","0","dinner_party_scheme"
"","","","","","image-button-response","25","430066","0.0-23.0-0.0","B7BCC484B8354EA690EA40756B9A34C6","B7BCC484B8354EA690EA40756B9A34C6","1aa17568-048b-409e-9d68-f859c637ebe7","2dd913a0-fd4c-43f1-b4f3-f0d48537bce8","{""part"":""2"",""participantId"":""B7BCC484B8354EA690EA40756B9A34C6"",""assignmentId"":""1aa17568-048b-409e-9d68-f859c637ebe7"",""projectId"":""2dd913a0-fd4c-43f1-b4f3-f0d48537bce8""}","https://test12345.live/?part=2&participantId=B7BCC484B8354EA690EA40756B9A34C6&assignmentId=1aa17568-048b-409e-9d68-f859c637ebe7&projectId=2dd913a0-fd4c-43f1-b4f3-f0d48537bce8","B7BCC484B8354EA690EA40756B9A34C6-2025-05-15-20-32-15","","null","","images/schematic_sequence/flight_scheme/flight_scheme_0.png","null","",""
"","","","","","html-audio-response","26","469733","0.0-24.0","B7BCC484B8354EA690EA40756B9A34C6","B7BCC484B8354EA690EA40756B9A34C6","1aa17568-048b-409e-9d68-f859c637ebe7","2dd913a0-fd4c-43f1-b4f3-f0d48537bce8","{""part"":""2"",""participantId"":""B7BCC484B8354EA690EA40756B9A34C6"",""assignmentId"":""1aa17568-048b-409e-9d68-f859c637ebe7"",""projectId"":""2dd913a0-fd4c-43f1-b4f3-f0d48537bce8""}","https://test12345.live/?part=2&participantId=B7BCC484B8354EA690EA40756B9A34C6&assignmentId=1aa17568-048b-409e-9d68-f859c637ebe7&projectId=2dd913a0-fd4c-43f1-b4f3-f0d48537bce8","B7BCC484B8354EA690EA40756B9A34C6-2025-05-15-20-32-15","","38869","","[""<span style=\""color: red; font-size: 24px\""> NOW RECORDING</span><p>Please say out loud all the images you saw in part 1 of the experiment, as many as you can remember. The images can be said in any order.</p>""]","","0","flight_scheme"
"","","","","","image-button-response","27","475748","0.0-25.0-0.0","B7BCC484B8354EA690EA40756B9A34C6","B7BCC484B8354EA690EA40756B9A34C6","1aa17568-048b-409e-9d68-f859c637ebe7","2dd913a0-fd4c-43f1-b4f3-f0d48537bce8","{""part"":""2"",""participantId"":""B7BCC484B8354EA690EA40756B9A34C6"",""assignmentId"":""1aa17568-048b-409e-9d68-f859c637ebe7"",""projectId"":""2dd913a0-fd4c-43f1-b4f3-f0d48537bce8""}","https://test12345.live/?part=2&participantId=B7BCC484B8354EA690EA40756B9A34C6&assignmentId=1aa17568-048b-409e-9d68-f859c637ebe7&projectId=2dd913a0-fd4c-43f1-b4f3-f0d48537bce8","B7BCC484B8354EA690EA40756B9A34C6-2025-05-15-20-32-15","","null","","images/semantic_sequence/self_care_activities_semantic/self_care_activities_semantic_0.png","null","",""
"","","","","","html-audio-response","28","519599","0.0-26.0","B7BCC484B8354EA690EA40756B9A34C6","B7BCC484B8354EA690EA40756B9A34C6","1aa17568-048b-409e-9d68-f859c637ebe7","2dd913a0-fd4c-43f1-b4f3-f0d48537bce8","{""part"":""2"",""participantId"":""B7BCC484B8354EA690EA40756B9A34C6"",""assignmentId"":""1aa17568-048b-409e-9d68-f859c637ebe7"",""projectId"":""2dd913a0-fd4c-43f1-b4f3-f0d48537bce8""}","https://test12345.live/?part=2&participantId=B7BCC484B8354EA690EA40756B9A34C6&assignmentId=1aa17568-048b-409e-9d68-f859c637ebe7&projectId=2dd913a0-fd4c-43f1-b4f3-f0d48537bce8","B7BCC484B8354EA690EA40756B9A34C6-2025-05-15-20-32-15","","43111","","[""<span style=\""color: red; font-size: 24px\""> NOW RECORDING</span><p>Please say out loud all the images you saw in part 1 of the experiment, as many as you can remember. The images can be said in any order.</p>""]","","0","self_care_activities_semantic"
"","","","","","image-button-response","29","525602","0.0-27.0-0.0","B7BCC484B8354EA690EA40756B9A34C6","B7BCC484B8354EA690EA40756B9A34C6","1aa17568-048b-409e-9d68-f859c637ebe7","2dd913a0-fd4c-43f1-b4f3-f0d48537bce8","{""part"":""2"",""participantId"":""B7BCC484B8354EA690EA40756B9A34C6"",""assignmentId"":""1aa17568-048b-409e-9d68-f859c637ebe7"",""projectId"":""2dd913a0-fd4c-43f1-b4f3-f0d48537bce8""}","https://test12345.live/?part=2&participantId=B7BCC484B8354EA690EA40756B9A34C6&assignmentId=1aa17568-048b-409e-9d68-f859c637ebe7&projectId=2dd913a0-fd4c-43f1-b4f3-f0d48537bce8","B7BCC484B8354EA690EA40756B9A34C6-2025-05-15-20-32-15","","null","","images/schematic_sequence/hotel_scheme/hotel_scheme_0.png","null","",""
"","","","","","html-audio-response","30","558458","0.0-28.0","B7BCC484B8354EA690EA40756B9A34C6","B7BCC484B8354EA690EA40756B9A34C6","1aa17568-048b-409e-9d68-f859c637ebe7","2dd913a0-fd4c-43f1-b4f3-f0d48537bce8","{""part"":""2"",""participantId"":""B7BCC484B8354EA690EA40756B9A34C6"",""assignmentId"":""1aa17568-048b-409e-9d68-f859c637ebe7"",""projectId"":""2dd913a0-fd4c-43f1-b4f3-f0d48537bce8""}","https://test12345.live/?part=2&participantId=B7BCC484B8354EA690EA40756B9A34C6&assignmentId=1aa17568-048b-409e-9d68-f859c637ebe7&projectId=2dd913a0-fd4c-43f1-b4f3-f0d48537bce8","B7BCC484B8354EA690EA40756B9A34C6-2025-05-15-20-32-15","","31834","","[""<span style=\""color: red; font-size: 24px\""> NOW RECORDING</span><p>Please say out loud all the images you saw in part 1 of the experiment, as many as you can remember. The images can be said in any order.</p>""]","","0","hotel_scheme"
"","","","","","image-button-response","31","564465","0.0-29.0-0.0","B7BCC484B8354EA690EA40756B9A34C6","B7BCC484B8354EA690EA40756B9A34C6","1aa17568-048b-409e-9d68-f859c637ebe7","2dd913a0-fd4c-43f1-b4f3-f0d48537bce8","{""part"":""2"",""participantId"":""B7BCC484B8354EA690EA40756B9A34C6"",""assignmentId"":""1aa17568-048b-409e-9d68-f859c637ebe7"",""projectId"":""2dd913a0-fd4c-43f1-b4f3-f0d48537bce8""}","https://test12345.live/?part=2&participantId=B7BCC484B8354EA690EA40756B9A34C6&assignmentId=1aa17568-048b-409e-9d68-f859c637ebe7&projectId=2dd913a0-fd4c-43f1-b4f3-f0d48537bce8","B7BCC484B8354EA690EA40756B9A34C6-2025-05-15-20-32-15","","null","","images/schematic_sequence/interview_scheme/interview_scheme_0.png","null","",""
"","","","","","html-audio-response","32","621396","0.0-30.0","B7BCC484B8354EA690EA40756B9A34C6","B7BCC484B8354EA690EA40756B9A34C6","1aa17568-048b-409e-9d68-f859c637ebe7","2dd913a0-fd4c-43f1-b4f3-f0d48537bce8","{""part"":""2"",""participantId"":""B7BCC484B8354EA690EA40756B9A34C6"",""assignmentId"":""1aa17568-048b-409e-9d68-f859c637ebe7"",""projectId"":""2dd913a0-fd4c-43f1-b4f3-f0d48537bce8""}","https://test12345.live/?part=2&participantId=B7BCC484B8354EA690EA40756B9A34C6&assignmentId=1aa17568-048b-409e-9d68-f859c637ebe7&projectId=2dd913a0-fd4c-43f1-b4f3-f0d48537bce8","B7BCC484B8354EA690EA40756B9A34C6-2025-05-15-20-32-15","","null","","[""<span style=\""color: red; font-size: 24px\""> NOW RECORDING</span><p>Please say out loud all the images you saw in part 1 of the experiment, as many as you can remember. The images can be said in any order.</p>""]","","0","interview_scheme"
"","","","","","image-button-response","33","627403","0.0-31.0-0.0","B7BCC484B8354EA690EA40756B9A34C6","B7BCC484B8354EA690EA40756B9A34C6","1aa17568-048b-409e-9d68-f859c637ebe7","2dd913a0-fd4c-43f1-b4f3-f0d48537bce8","{""part"":""2"",""participantId"":""B7BCC484B8354EA690EA40756B9A34C6"",""assignmentId"":""1aa17568-048b-409e-9d68-f859c637ebe7"",""projectId"":""2dd913a0-fd4c-43f1-b4f3-f0d48537bce8""}","https://test12345.live/?part=2&participantId=B7BCC484B8354EA690EA40756B9A34C6&assignmentId=1aa17568-048b-409e-9d68-f859c637ebe7&projectId=2dd913a0-fd4c-43f1-b4f3-f0d48537bce8","B7BCC484B8354EA690EA40756B9A34C6-2025-05-15-20-32-15","","null","","images/semantic_sequence/cat_care_semantic/cat_care_semantic_0.png","null","",""
"","","","","","html-audio-response","34","678997","0.0-32.0","B7BCC484B8354EA690EA40756B9A34C6","B7BCC484B8354EA690EA40756B9A34C6","1aa17568-048b-409e-9d68-f859c637ebe7","2dd913a0-fd4c-43f1-b4f3-f0d48537bce8","{""part"":""2"",""participantId"":""B7BCC484B8354EA690EA40756B9A34C6"",""assignmentId"":""1aa17568-048b-409e-9d68-f859c637ebe7"",""projectId"":""2dd913a0-fd4c-43f1-b4f3-f0d48537bce8""}","https://test12345.live/?part=2&participantId=B7BCC484B8354EA690EA40756B9A34C6&assignmentId=1aa17568-048b-409e-9d68-f859c637ebe7&projectId=2dd913a0-fd4c-43f1-b4f3-f0d48537bce8","B7BCC484B8354EA690EA40756B9A34C6-2025-05-15-20-32-15","","50564","","[""<span style=\""color: red; font-size: 24px\""> NOW RECORDING</span><p>Please say out loud all the images you saw in part 1 of the experiment, as many as you can remember. The images can be said in any order.</p>""]","","0","cat_care_semantic"
"","","","","","image-button-response","35","685007","0.0-33.0-0.0","B7BCC484B8354EA690EA40756B9A34C6","B7BCC484B8354EA690EA40756B9A34C6","1aa17568-048b-409e-9d68-f859c637ebe7","2dd913a0-fd4c-43f1-b4f3-f0d48537bce8","{""part"":""2"",""participantId"":""B7BCC484B8354EA690EA40756B9A34C6"",""assignmentId"":""1aa17568-048b-409e-9d68-f859c637ebe7"",""projectId"":""2dd913a0-fd4c-43f1-b4f3-f0d48537bce8""}","https://test12345.live/?part=2&participantId=B7BCC484B8354EA690EA40756B9A34C6&assignmentId=1aa17568-048b-409e-9d68-f859c637ebe7&projectId=2dd913a0-fd4c-43f1-b4f3-f0d48537bce8","B7BCC484B8354EA690EA40756B9A34C6-2025-05-15-20-32-15","","null","","images/schematic_sequence/supermarket_scheme/supermarket_scheme_0.png","null","",""
"","","","","","html-audio-response","36","712705","0.0-34.0","B7BCC484B8354EA690EA40756B9A34C6","B7BCC484B8354EA690EA40756B9A34C6","1aa17568-048b-409e-9d68-f859c637ebe7","2dd913a0-fd4c-43f1-b4f3-f0d48537bce8","{""part"":""2"",""participantId"":""B7BCC484B8354EA690EA40756B9A34C6"",""assignmentId"":""1aa17568-048b-409e-9d68-f859c637ebe7"",""projectId"":""2dd913a0-fd4c-43f1-b4f3-f0d48537bce8""}","https://test12345.live/?part=2&participantId=B7BCC484B8354EA690EA40756B9A34C6&assignmentId=1aa17568-048b-409e-9d68-f859c637ebe7&projectId=2dd913a0-fd4c-43f1-b4f3-f0d48537bce8","B7BCC484B8354EA690EA40756B9A34C6-2025-05-15-20-32-15","","27001","","[""<span style=\""color: red; font-size: 24px\""> NOW RECORDING</span><p>Please say out loud all the images you saw in part 1 of the experiment, as many as you can remember. The images can be said in any order.</p>""]","","0","supermarket_scheme"
"","","","","","image-button-response","37","718717","0.0-35.0-0.0","B7BCC484B8354EA690EA40756B9A34C6","B7BCC484B8354EA690EA40756B9A34C6","1aa17568-048b-409e-9d68-f859c637ebe7","2dd913a0-fd4c-43f1-b4f3-f0d48537bce8","{""part"":""2"",""participantId"":""B7BCC484B8354EA690EA40756B9A34C6"",""assignmentId"":""1aa17568-048b-409e-9d68-f859c637ebe7"",""projectId"":""2dd913a0-fd4c-43f1-b4f3-f0d48537bce8""}","https://test12345.live/?part=2&participantId=B7BCC484B8354EA690EA40756B9A34C6&assignmentId=1aa17568-048b-409e-9d68-f859c637ebe7&projectId=2dd913a0-fd4c-43f1-b4f3-f0d48537bce8","B7BCC484B8354EA690EA40756B9A34C6-2025-05-15-20-32-15","","null","","images/causal_sequence/the_performance_causal/the_performance_causal_0.png","null","",""
"","","","","","html-audio-response","38","775099","0.0-36.0","B7BCC484B8354EA690EA40756B9A34C6","B7BCC484B8354EA690EA40756B9A34C6","1aa17568-048b-409e-9d68-f859c637ebe7","2dd913a0-fd4c-43f1-b4f3-f0d48537bce8","{""part"":""2"",""participantId"":""B7BCC484B8354EA690EA40756B9A34C6"",""assignmentId"":""1aa17568-048b-409e-9d68-f859c637ebe7"",""projectId"":""2dd913a0-fd4c-43f1-b4f3-f0d48537bce8""}","https://test12345.live/?part=2&participantId=B7BCC484B8354EA690EA40756B9A34C6&assignmentId=1aa17568-048b-409e-9d68-f859c637ebe7&projectId=2dd913a0-fd4c-43f1-b4f3-f0d48537bce8","B7BCC484B8354EA690EA40756B9A34C6-2025-05-15-20-32-15","","null","","[""<span style=\""color: red; font-size: 24px\""> NOW RECORDING</span><p>Please say out loud all the images you saw in part 1 of the experiment, as many as you can remember. The images can be said in any order.</p>""]","","0","the_performance_causal"
"","","","","","image-button-response","39","781103","0.0-37.0-0.0","B7BCC484B8354EA690EA40756B9A34C6","B7BCC484B8354EA690EA40756B9A34C6","1aa17568-048b-409e-9d68-f859c637ebe7","2dd913a0-fd4c-43f1-b4f3-f0d48537bce8","{""part"":""2"",""participantId"":""B7BCC484B8354EA690EA40756B9A34C6"",""assignmentId"":""1aa17568-048b-409e-9d68-f859c637ebe7"",""projectId"":""2dd913a0-fd4c-43f1-b4f3-f0d48537bce8""}","https://test12345.live/?part=2&participantId=B7BCC484B8354EA690EA40756B9A34C6&assignmentId=1aa17568-048b-409e-9d68-f859c637ebe7&projectId=2dd913a0-fd4c-43f1-b4f3-f0d48537bce8","B7BCC484B8354EA690EA40756B9A34C6-2025-05-15-20-32-15","","null","","images/schematic_sequence/restaurant_scheme/restaurant_scheme_0.png","null","",""
"","","","","","html-audio-response","40","827659","0.0-38.0","B7BCC484B8354EA690EA40756B9A34C6","B7BCC484B8354EA690EA40756B9A34C6","1aa17568-048b-409e-9d68-f859c637ebe7","2dd913a0-fd4c-43f1-b4f3-f0d48537bce8","{""part"":""2"",""participantId"":""B7BCC484B8354EA690EA40756B9A34C6"",""assignmentId"":""1aa17568-048b-409e-9d68-f859c637ebe7"",""projectId"":""2dd913a0-fd4c-43f1-b4f3-f0d48537bce8""}","https://test12345.live/?part=2&participantId=B7BCC484B8354EA690EA40756B9A34C6&assignmentId=1aa17568-048b-409e-9d68-f859c637ebe7&projectId=2dd913a0-fd4c-43f1-b4f3-f0d48537bce8","B7BCC484B8354EA690EA40756B9A34C6-2025-05-15-20-32-15","","45827","","[""<span style=\""color: red; font-size: 24px\""> NOW RECORDING</span><p>Please say out loud all the images you saw in part 1 of the experiment, as many as you can remember. The images can be said in any order.</p>""]","","1","restaurant_scheme"
"","","","","","image-button-response","41","833676","0.0-39.0-0.0","B7BCC484B8354EA690EA40756B9A34C6","B7BCC484B8354EA690EA40756B9A34C6","1aa17568-048b-409e-9d68-f859c637ebe7","2dd913a0-fd4c-43f1-b4f3-f0d48537bce8","{""part"":""2"",""participantId"":""B7BCC484B8354EA690EA40756B9A34C6"",""assignmentId"":""1aa17568-048b-409e-9d68-f859c637ebe7"",""projectId"":""2dd913a0-fd4c-43f1-b4f3-f0d48537bce8""}","https://test12345.live/?part=2&participantId=B7BCC484B8354EA690EA40756B9A34C6&assignmentId=1aa17568-048b-409e-9d68-f859c637ebe7&projectId=2dd913a0-fd4c-43f1-b4f3-f0d48537bce8","B7BCC484B8354EA690EA40756B9A34C6-2025-05-15-20-32-15","","null","","images/semantic_sequence/redecorating_semantic/redecorating_semantic_0.png","null","",""
"","","","","","html-audio-response","42","861635","0.0-40.0","B7BCC484B8354EA690EA40756B9A34C6","B7BCC484B8354EA690EA40756B9A34C6","1aa17568-048b-409e-9d68-f859c637ebe7","2dd913a0-fd4c-43f1-b4f3-f0d48537bce8","{""part"":""2"",""participantId"":""B7BCC484B8354EA690EA40756B9A34C6"",""assignmentId"":""1aa17568-048b-409e-9d68-f859c637ebe7"",""projectId"":""2dd913a0-fd4c-43f1-b4f3-f0d48537bce8""}","https://test12345.live/?part=2&participantId=B7BCC484B8354EA690EA40756B9A34C6&assignmentId=1aa17568-048b-409e-9d68-f859c637ebe7&projectId=2dd913a0-fd4c-43f1-b4f3-f0d48537bce8","B7BCC484B8354EA690EA40756B9A34C6-2025-05-15-20-32-15","","27136","","[""<span style=\""color: red; font-size: 24px\""> NOW RECORDING</span><p>Please say out loud all the images you saw in part 1 of the experiment, as many as you can remember. The images can be said in any order.</p>""]","","0","redecorating_semantic"
"","","","","","image-button-response","43","867640","0.0-41.0-0.0","B7BCC484B8354EA690EA40756B9A34C6","B7BCC484B8354EA690EA40756B9A34C6","1aa17568-048b-409e-9d68-f859c637ebe7","2dd913a0-fd4c-43f1-b4f3-f0d48537bce8","{""part"":""2"",""participantId"":""B7BCC484B8354EA690EA40756B9A34C6"",""assignmentId"":""1aa17568-048b-409e-9d68-f859c637ebe7"",""projectId"":""2dd913a0-fd4c-43f1-b4f3-f0d48537bce8""}","https://test12345.live/?part=2&participantId=B7BCC484B8354EA690EA40756B9A34C6&assignmentId=1aa17568-048b-409e-9d68-f859c637ebe7&projectId=2dd913a0-fd4c-43f1-b4f3-f0d48537bce8","B7BCC484B8354EA690EA40756B9A34C6-2025-05-15-20-32-15","","null","","images/causal_sequence/package_causal/package_causal_0.png","null","",""
"","","","","","html-audio-response","44","929427","0.0-42.0","B7BCC484B8354EA690EA40756B9A34C6","B7BCC484B8354EA690EA40756B9A34C6","1aa17568-048b-409e-9d68-f859c637ebe7","2dd913a0-fd4c-43f1-b4f3-f0d48537bce8","{""part"":""2"",""participantId"":""B7BCC484B8354EA690EA40756B9A34C6"",""assignmentId"":""1aa17568-048b-409e-9d68-f859c637ebe7"",""projectId"":""2dd913a0-fd4c-43f1-b4f3-f0d48537bce8""}","https://test12345.live/?part=2&participantId=B7BCC484B8354EA690EA40756B9A34C6&assignmentId=1aa17568-048b-409e-9d68-f859c637ebe7&projectId=2dd913a0-fd4c-43f1-b4f3-f0d48537bce8","B7BCC484B8354EA690EA40756B9A34C6-2025-05-15-20-32-15","","null","","[""<span style=\""color: red; font-size: 24px\""> NOW RECORDING</span><p>Please say out loud all the images you saw in part 1 of the experiment, as many as you can remember. The images can be said in any order.</p>""]","","0","package_causal"
"","","","","","image-button-response","45","935444","0.0-43.0-0.0","B7BCC484B8354EA690EA40756B9A34C6","B7BCC484B8354EA690EA40756B9A34C6","1aa17568-048b-409e-9d68-f859c637ebe7","2dd913a0-fd4c-43f1-b4f3-f0d48537bce8","{""part"":""2"",""participantId"":""B7BCC484B8354EA690EA40756B9A34C6"",""assignmentId"":""1aa17568-048b-409e-9d68-f859c637ebe7"",""projectId"":""2dd913a0-fd4c-43f1-b4f3-f0d48537bce8""}","https://test12345.live/?part=2&participantId=B7BCC484B8354EA690EA40756B9A34C6&assignmentId=1aa17568-048b-409e-9d68-f859c637ebe7&projectId=2dd913a0-fd4c-43f1-b4f3-f0d48537bce8","B7BCC484B8354EA690EA40756B9A34C6-2025-05-15-20-32-15","","null","","images/semantic_sequence/housework_semantic/housework_semantic_0.png","null","",""
"","","","","","html-audio-response","46","955440","0.0-44.0","B7BCC484B8354EA690EA40756B9A34C6","B7BCC484B8354EA690EA40756B9A34C6","1aa17568-048b-409e-9d68-f859c637ebe7","2dd913a0-fd4c-43f1-b4f3-f0d48537bce8","{""part"":""2"",""participantId"":""B7BCC484B8354EA690EA40756B9A34C6"",""assignmentId"":""1aa17568-048b-409e-9d68-f859c637ebe7"",""projectId"":""2dd913a0-fd4c-43f1-b4f3-f0d48537bce8""}","https://test12345.live/?part=2&participantId=B7BCC484B8354EA690EA40756B9A34C6&assignmentId=1aa17568-048b-409e-9d68-f859c637ebe7&projectId=2dd913a0-fd4c-43f1-b4f3-f0d48537bce8","B7BCC484B8354EA690EA40756B9A34C6-2025-05-15-20-32-15","","19060","","[""<span style=\""color: red; font-size: 24px\""> NOW RECORDING</span><p>Please say out loud all the images you saw in part 1 of the experiment, as many as you can remember. The images can be said in any order.</p>""]","","0","housework_semantic"
"","","","","","image-button-response","47","961452","0.0-45.0-0.0","B7BCC484B8354EA690EA40756B9A34C6","B7BCC484B8354EA690EA40756B9A34C6","1aa17568-048b-409e-9d68-f859c637ebe7","2dd913a0-fd4c-43f1-b4f3-f0d48537bce8","{""part"":""2"",""participantId"":""B7BCC484B8354EA690EA40756B9A34C6"",""assignmentId"":""1aa17568-048b-409e-9d68-f859c637ebe7"",""projectId"":""2dd913a0-fd4c-43f1-b4f3-f0d48537bce8""}","https://test12345.live/?part=2&participantId=B7BCC484B8354EA690EA40756B9A34C6&assignmentId=1aa17568-048b-409e-9d68-f859c637ebe7&projectId=2dd913a0-fd4c-43f1-b4f3-f0d48537bce8","B7BCC484B8354EA690EA40756B9A34C6-2025-05-15-20-32-15","","null","","images/semantic_sequence/maintaining_a_car_semantic/maintaining_a_car_semantic_0.png","null","",""
"","","","","","html-audio-response","48","986262","0.0-46.0","B7BCC484B8354EA690EA40756B9A34C6","B7BCC484B8354EA690EA40756B9A34C6","1aa17568-048b-409e-9d68-f859c637ebe7","2dd913a0-fd4c-43f1-b4f3-f0d48537bce8","{""part"":""2"",""participantId"":""B7BCC484B8354EA690EA40756B9A34C6"",""assignmentId"":""1aa17568-048b-409e-9d68-f859c637ebe7"",""projectId"":""2dd913a0-fd4c-43f1-b4f3-f0d48537bce8""}","https://test12345.live/?part=2&participantId=B7BCC484B8354EA690EA40756B9A34C6&assignmentId=1aa17568-048b-409e-9d68-f859c637ebe7&projectId=2dd913a0-fd4c-43f1-b4f3-f0d48537bce8","B7BCC484B8354EA690EA40756B9A34C6-2025-05-15-20-32-15","","24114","","[""<span style=\""color: red; font-size: 24px\""> NOW RECORDING</span><p>Please say out loud all the images you saw in part 1 of the experiment, as many as you can remember. The images can be said in any order.</p>""]","","0","maintaining_a_car_semantic"
"","","","","","image-button-response","49","992270","0.0-47.0-0.0","B7BCC484B8354EA690EA40756B9A34C6","B7BCC484B8354EA690EA40756B9A34C6","1aa17568-048b-409e-9d68-f859c637ebe7","2dd913a0-fd4c-43f1-b4f3-f0d48537bce8","{""part"":""2"",""participantId"":""B7BCC484B8354EA690EA40756B9A34C6"",""assignmentId"":""1aa17568-048b-409e-9d68-f859c637ebe7"",""projectId"":""2dd913a0-fd4c-43f1-b4f3-f0d48537bce8""}","https://test12345.live/?part=2&participantId=B7BCC484B8354EA690EA40756B9A34C6&assignmentId=1aa17568-048b-409e-9d68-f859c637ebe7&projectId=2dd913a0-fd4c-43f1-b4f3-f0d48537bce8","B7BCC484B8354EA690EA40756B9A34C6-2025-05-15-20-32-15","","null","","images/causal_sequence/saving_a_cat_causal/saving_a_cat_causal_0.png","null","",""
"","","","","","html-audio-response","50","1046635","0.0-48.0","B7BCC484B8354EA690EA40756B9A34C6","B7BCC484B8354EA690EA40756B9A34C6","1aa17568-048b-409e-9d68-f859c637ebe7","2dd913a0-fd4c-43f1-b4f3-f0d48537bce8","{""part"":""2"",""participantId"":""B7BCC484B8354EA690EA40756B9A34C6"",""assignmentId"":""1aa17568-048b-409e-9d68-f859c637ebe7"",""projectId"":""2dd913a0-fd4c-43f1-b4f3-f0d48537bce8""}","https://test12345.live/?part=2&participantId=B7BCC484B8354EA690EA40756B9A34C6&assignmentId=1aa17568-048b-409e-9d68-f859c637ebe7&projectId=2dd913a0-fd4c-43f1-b4f3-f0d48537bce8","B7BCC484B8354EA690EA40756B9A34C6-2025-05-15-20-32-15","","53528","","[""<span style=\""color: red; font-size: 24px\""> NOW RECORDING</span><p>Please say out loud all the images you saw in part 1 of the experiment, as many as you can remember. The images can be said in any order.</p>""]","","0","saving_a_cat_causal"
"","","","","","image-button-response","51","1052647","0.0-49.0-0.0","B7BCC484B8354EA690EA40756B9A34C6","B7BCC484B8354EA690EA40756B9A34C6","1aa17568-048b-409e-9d68-f859c637ebe7","2dd913a0-fd4c-43f1-b4f3-f0d48537bce8","{""part"":""2"",""participantId"":""B7BCC484B8354EA690EA40756B9A34C6"",""assignmentId"":""1aa17568-048b-409e-9d68-f859c637ebe7"",""projectId"":""2dd913a0-fd4c-43f1-b4f3-f0d48537bce8""}","https://test12345.live/?part=2&participantId=B7BCC484B8354EA690EA40756B9A34C6&assignmentId=1aa17568-048b-409e-9d68-f859c637ebe7&projectId=2dd913a0-fd4c-43f1-b4f3-f0d48537bce8","B7BCC484B8354EA690EA40756B9A34C6-2025-05-15-20-32-15","","null","","images/causal_sequence/dog_causal/dog_causal_0.png","null","",""
"","","","","","html-audio-response","52","1109152","0.0-50.0","B7BCC484B8354EA690EA40756B9A34C6","B7BCC484B8354EA690EA40756B9A34C6","1aa17568-048b-409e-9d68-f859c637ebe7","2dd913a0-fd4c-43f1-b4f3-f0d48537bce8","{""part"":""2"",""participantId"":""B7BCC484B8354EA690EA40756B9A34C6"",""assignmentId"":""1aa17568-048b-409e-9d68-f859c637ebe7"",""projectId"":""2dd913a0-fd4c-43f1-b4f3-f0d48537bce8""}","https://test12345.live/?part=2&participantId=B7BCC484B8354EA690EA40756B9A34C6&assignmentId=1aa17568-048b-409e-9d68-f859c637ebe7&projectId=2dd913a0-fd4c-43f1-b4f3-f0d48537bce8","B7BCC484B8354EA690EA40756B9A34C6-2025-05-15-20-32-15","","null","","[""<span style=\""color: red; font-size: 24px\""> NOW RECORDING</span><p>Please say out loud all the images you saw in part 1 of the experiment, as many as you can remember. The images can be said in any order.</p>""]","","0","dog_causal"
"","","","","","image-button-response","53","1115166","0.0-51.0-0.0","B7BCC484B8354EA690EA40756B9A34C6","B7BCC484B8354EA690EA40756B9A34C6","1aa17568-048b-409e-9d68-f859c637ebe7","2dd913a0-fd4c-43f1-b4f3-f0d48537bce8","{""part"":""2"",""participantId"":""B7BCC484B8354EA690EA40756B9A34C6"",""assignmentId"":""1aa17568-048b-409e-9d68-f859c637ebe7"",""projectId"":""2dd913a0-fd4c-43f1-b4f3-f0d48537bce8""}","https://test12345.live/?part=2&participantId=B7BCC484B8354EA690EA40756B9A34C6&assignmentId=1aa17568-048b-409e-9d68-f859c637ebe7&projectId=2dd913a0-fd4c-43f1-b4f3-f0d48537bce8","B7BCC484B8354EA690EA40756B9A34C6-2025-05-15-20-32-15","","null","","images/causal_sequence/coin_causal/coin_causal_0.png","null","",""
"","","","","","html-audio-response","54","1172171","0.0-52.0","B7BCC484B8354EA690EA40756B9A34C6","B7BCC484B8354EA690EA40756B9A34C6","1aa17568-048b-409e-9d68-f859c637ebe7","2dd913a0-fd4c-43f1-b4f3-f0d48537bce8","{""part"":""2"",""participantId"":""B7BCC484B8354EA690EA40756B9A34C6"",""assignmentId"":""1aa17568-048b-409e-9d68-f859c637ebe7"",""projectId"":""2dd913a0-fd4c-43f1-b4f3-f0d48537bce8""}","https://test12345.live/?part=2&participantId=B7BCC484B8354EA690EA40756B9A34C6&assignmentId=1aa17568-048b-409e-9d68-f859c637ebe7&projectId=2dd913a0-fd4c-43f1-b4f3-f0d48537bce8","B7BCC484B8354EA690EA40756B9A34C6-2025-05-15-20-32-15","","null","","[""<span style=\""color: red; font-size: 24px\""> NOW RECORDING</span><p>Please say out loud all the images you saw in part 1 of the experiment, as many as you can remember. The images can be said in any order.</p>""]","","0","coin_causal"
"","","","","","image-button-response","55","1178181","0.0-53.0-0.0","B7BCC484B8354EA690EA40756B9A34C6","B7BCC484B8354EA690EA40756B9A34C6","1aa17568-048b-409e-9d68-f859c637ebe7","2dd913a0-fd4c-43f1-b4f3-f0d48537bce8","{""part"":""2"",""participantId"":""B7BCC484B8354EA690EA40756B9A34C6"",""assignmentId"":""1aa17568-048b-409e-9d68-f859c637ebe7"",""projectId"":""2dd913a0-fd4c-43f1-b4f3-f0d48537bce8""}","https://test12345.live/?part=2&participantId=B7BCC484B8354EA690EA40756B9A34C6&assignmentId=1aa17568-048b-409e-9d68-f859c637ebe7&projectId=2dd913a0-fd4c-43f1-b4f3-f0d48537bce8","B7BCC484B8354EA690EA40756B9A34C6-2025-05-15-20-32-15","","null","","images/causal_sequence/museum_causal/museum_causal_0.png","null","",""
"","","","","","html-audio-response","56","1284159","0.0-54.0","B7BCC484B8354EA690EA40756B9A34C6","B7BCC484B8354EA690EA40756B9A34C6","1aa17568-048b-409e-9d68-f859c637ebe7","2dd913a0-fd4c-43f1-b4f3-f0d48537bce8","{""part"":""2"",""participantId"":""B7BCC484B8354EA690EA40756B9A34C6"",""assignmentId"":""1aa17568-048b-409e-9d68-f859c637ebe7"",""projectId"":""2dd913a0-fd4c-43f1-b4f3-f0d48537bce8""}","https://test12345.live/?part=2&participantId=B7BCC484B8354EA690EA40756B9A34C6&assignmentId=1aa17568-048b-409e-9d68-f859c637ebe7&projectId=2dd913a0-fd4c-43f1-b4f3-f0d48537bce8","B7BCC484B8354EA690EA40756B9A34C6-2025-05-15-20-32-15","","44923","","[""<span style=\""color: red; font-size: 24px\""> NOW RECORDING</span><p>Please say out loud all the images you saw in part 1 of the experiment, as many as you can remember. The images can be said in any order.</p>""]","","0","museum_causal"
"","","","","","image-button-response","57","1290173","0.0-55.0-0.0","B7BCC484B8354EA690EA40756B9A34C6","B7BCC484B8354EA690EA40756B9A34C6","1aa17568-048b-409e-9d68-f859c637ebe7","2dd913a0-fd4c-43f1-b4f3-f0d48537bce8","{""part"":""2"",""participantId"":""B7BCC484B8354EA690EA40756B9A34C6"",""assignmentId"":""1aa17568-048b-409e-9d68-f859c637ebe7"",""projectId"":""2dd913a0-fd4c-43f1-b4f3-f0d48537bce8""}","https://test12345.live/?part=2&participantId=B7BCC484B8354EA690EA40756B9A34C6&assignmentId=1aa17568-048b-409e-9d68-f859c637ebe7&projectId=2dd913a0-fd4c-43f1-b4f3-f0d48537bce8","B7BCC484B8354EA690EA40756B9A34C6-2025-05-15-20-32-15","","null","","images/semantic_sequence/physical_activity_semantic/physical_activity_semantic_0.png","null","",""
"","","","","","html-audio-response","58","1311211","0.0-56.0","B7BCC484B8354EA690EA40756B9A34C6","B7BCC484B8354EA690EA40756B9A34C6","1aa17568-048b-409e-9d68-f859c637ebe7","2dd913a0-fd4c-43f1-b4f3-f0d48537bce8","{""part"":""2"",""participantId"":""B7BCC484B8354EA690EA40756B9A34C6"",""assignmentId"":""1aa17568-048b-409e-9d68-f859c637ebe7"",""projectId"":""2dd913a0-fd4c-43f1-b4f3-f0d48537bce8""}","https://test12345.live/?part=2&participantId=B7BCC484B8354EA690EA40756B9A34C6&assignmentId=1aa17568-048b-409e-9d68-f859c637ebe7&projectId=2dd913a0-fd4c-43f1-b4f3-f0d48537bce8","B7BCC484B8354EA690EA40756B9A34C6-2025-05-15-20-32-15","","20361","","[""<span style=\""color: red; font-size: 24px\""> NOW RECORDING</span><p>Please say out loud all the images you saw in part 1 of the experiment, as many as you can remember. The images can be said in any order.</p>""]","","0","physical_activity_semantic"
"","","","","","survey-text","59","1317723","0.0-57.0","B7BCC484B8354EA690EA40756B9A34C6","B7BCC484B8354EA690EA40756B9A34C6","1aa17568-048b-409e-9d68-f859c637ebe7","2dd913a0-fd4c-43f1-b4f3-f0d48537bce8","{""part"":""2"",""participantId"":""B7BCC484B8354EA690EA40756B9A34C6"",""assignmentId"":""1aa17568-048b-409e-9d68-f859c637ebe7"",""projectId"":""2dd913a0-fd4c-43f1-b4f3-f0d48537bce8""}","https://test12345.live/?part=2&participantId=B7BCC484B8354EA690EA40756B9A34C6&assignmentId=1aa17568-048b-409e-9d68-f859c637ebe7&projectId=2dd913a0-fd4c-43f1-b4f3-f0d48537bce8","B7BCC484B8354EA690EA40756B9A34C6-2025-05-15-20-32-15","","6509","","","{""Q0"":""female"",""Q1"":""31""}","",""
"","","","","","instructions","60","1332921","0.0-58.0","B7BCC484B8354EA690EA40756B9A34C6","B7BCC484B8354EA690EA40756B9A34C6","1aa17568-048b-409e-9d68-f859c637ebe7","2dd913a0-fd4c-43f1-b4f3-f0d48537bce8","{""part"":""2"",""participantId"":""B7BCC484B8354EA690EA40756B9A34C6"",""assignmentId"":""1aa17568-048b-409e-9d68-f859c637ebe7"",""projectId"":""2dd913a0-fd4c-43f1-b4f3-f0d48537bce8""}","https://test12345.live/?part=2&participantId=B7BCC484B8354EA690EA40756B9A34C6&assignmentId=1aa17568-048b-409e-9d68-f859c637ebe7&projectId=2dd913a0-fd4c-43f1-b4f3-f0d48537bce8","B7BCC484B8354EA690EA40756B9A34C6-2025-05-15-20-32-15","[{""page_index"":0,""viewing_time"":15198}]","15198","","","","",""
"","","","","","survey-text","61","1335265","0.0-59.0","B7BCC484B8354EA690EA40756B9A34C6","B7BCC484B8354EA690EA40756B9A34C6","1aa17568-048b-409e-9d68-f859c637ebe7","2dd913a0-fd4c-43f1-b4f3-f0d48537bce8","{""part"":""2"",""participantId"":""B7BCC484B8354EA690EA40756B9A34C6"",""assignmentId"":""1aa17568-048b-409e-9d68-f859c637ebe7"",""projectId"":""2dd913a0-fd4c-43f1-b4f3-f0d48537bce8""}","https://test12345.live/?part=2&participantId=B7BCC484B8354EA690EA40756B9A34C6&assignmentId=1aa17568-048b-409e-9d68-f859c637ebe7&projectId=2dd913a0-fd4c-43f1-b4f3-f0d48537bce8","B7BCC484B8354EA690EA40756B9A34C6-2025-05-15-20-32-15","","2344","","","{""Q0"":""AJFHBG896""}","",""
