"success","timeout","failed_images","failed_audio","failed_video","trial_type","trial_index","time_elapsed","internal_node_id","subject","subject_id","study_id","session_id","urlvar","current_url","audio_id","view_history","rt","device_id","stimulus","response","estimated_stimulus_onset","seq_name"
"true","false","[]","[]","[]","preload","0","6675","0.0-0.0","B9DC5D0C7E994BEE83870547024E5F48","B9DC5D0C7E994BEE83870547024E5F48","5e1551e9-cb48-41a3-a0af-9252d2935c51","81dd14e9-200e-48d1-afc5-b6c2b3ebd11b","{""part"":""2"",""participantId"":""B9DC5D0C7E994BEE83870547024E5F48"",""assignmentId"":""5e1551e9-cb48-41a3-a0af-9252d2935c51"",""projectId"":""81dd14e9-200e-48d1-afc5-b6c2b3ebd11b""}","https://test12345.live/?part=2&participantId=B9DC5D0C7E994BEE83870547024E5F48&assignmentId=5e1551e9-cb48-41a3-a0af-9252d2935c51&projectId=81dd14e9-200e-48d1-afc5-b6c2b3ebd11b","B9DC5D0C7E994BEE83870547024E5F48-2025-05-15-15-38-23","","","","","","",""
"","","","","","instructions","1","18769","0.0-1.0","B9DC5D0C7E994BEE83870547024E5F48","B9DC5D0C7E994BEE83870547024E5F48","5e1551e9-cb48-41a3-a0af-9252d2935c51","81dd14e9-200e-48d1-afc5-b6c2b3ebd11b","{""part"":""2"",""participantId"":""B9DC5D0C7E994BEE83870547024E5F48"",""assignmentId"":""5e1551e9-cb48-41a3-a0af-9252d2935c51"",""projectId"":""81dd14e9-200e-48d1-afc5-b6c2b3ebd11b""}","https://test12345.live/?part=2&participantId=B9DC5D0C7E994BEE83870547024E5F48&assignmentId=5e1551e9-cb48-41a3-a0af-9252d2935c51&projectId=81dd14e9-200e-48d1-afc5-b6c2b3ebd11b","B9DC5D0C7E994BEE83870547024E5F48-2025-05-15-15-38-23","[{""page_index"":0,""viewing_time"":12093}]","12093","","","","",""
"","","","","","instructions","2","32588","0.0-2.0","B9DC5D0C7E994BEE83870547024E5F48","B9DC5D0C7E994BEE83870547024E5F48","5e1551e9-cb48-41a3-a0af-9252d2935c51","81dd14e9-200e-48d1-afc5-b6c2b3ebd11b","{""part"":""2"",""participantId"":""B9DC5D0C7E994BEE83870547024E5F48"",""assignmentId"":""5e1551e9-cb48-41a3-a0af-9252d2935c51"",""projectId"":""81dd14e9-200e-48d1-afc5-b6c2b3ebd11b""}","https://test12345.live/?part=2&participantId=B9DC5D0C7E994BEE83870547024E5F48&assignmentId=5e1551e9-cb48-41a3-a0af-9252d2935c51&projectId=81dd14e9-200e-48d1-afc5-b6c2b3ebd11b","B9DC5D0C7E994BEE83870547024E5F48-2025-05-15-15-38-23","[{""page_index"":0,""viewing_time"":13818}]","13818","","","","",""
"true","","","","","fullscreen","3","34967","0.0-3.0","B9DC5D0C7E994BEE83870547024E5F48","B9DC5D0C7E994BEE83870547024E5F48","5e1551e9-cb48-41a3-a0af-9252d2935c51","81dd14e9-200e-48d1-afc5-b6c2b3ebd11b","{""part"":""2"",""participantId"":""B9DC5D0C7E994BEE83870547024E5F48"",""assignmentId"":""5e1551e9-cb48-41a3-a0af-9252d2935c51"",""projectId"":""81dd14e9-200e-48d1-afc5-b6c2b3ebd11b""}","https://test12345.live/?part=2&participantId=B9DC5D0C7E994BEE83870547024E5F48&assignmentId=5e1551e9-cb48-41a3-a0af-9252d2935c51&projectId=81dd14e9-200e-48d1-afc5-b6c2b3ebd11b","B9DC5D0C7E994BEE83870547024E5F48-2025-05-15-15-38-23","","1377","","","","",""
"","","","","","initialize-microphone","4","41626","0.0-4.0-0.0","B9DC5D0C7E994BEE83870547024E5F48","B9DC5D0C7E994BEE83870547024E5F48","5e1551e9-cb48-41a3-a0af-9252d2935c51","81dd14e9-200e-48d1-afc5-b6c2b3ebd11b","{""part"":""2"",""participantId"":""B9DC5D0C7E994BEE83870547024E5F48"",""assignmentId"":""5e1551e9-cb48-41a3-a0af-9252d2935c51"",""projectId"":""81dd14e9-200e-48d1-afc5-b6c2b3ebd11b""}","https://test12345.live/?part=2&participantId=B9DC5D0C7E994BEE83870547024E5F48&assignmentId=5e1551e9-cb48-41a3-a0af-9252d2935c51&projectId=81dd14e9-200e-48d1-afc5-b6c2b3ebd11b","B9DC5D0C7E994BEE83870547024E5F48-2025-05-15-15-38-23","","","cf74b21af1bbdd57304ea62c239c76287661b7b4aa03708618e0ec3717f48df2","","","",""
"","","","","","html-audio-response","5","50497","0.0-4.0-1.0","B9DC5D0C7E994BEE83870547024E5F48","B9DC5D0C7E994BEE83870547024E5F48","5e1551e9-cb48-41a3-a0af-9252d2935c51","81dd14e9-200e-48d1-afc5-b6c2b3ebd11b","{""part"":""2"",""participantId"":""B9DC5D0C7E994BEE83870547024E5F48"",""assignmentId"":""5e1551e9-cb48-41a3-a0af-9252d2935c51"",""projectId"":""81dd14e9-200e-48d1-afc5-b6c2b3ebd11b""}","https://test12345.live/?part=2&participantId=B9DC5D0C7E994BEE83870547024E5F48&assignmentId=5e1551e9-cb48-41a3-a0af-9252d2935c51&projectId=81dd14e9-200e-48d1-afc5-b6c2b3ebd11b","B9DC5D0C7E994BEE83870547024E5F48-2025-05-15-15-38-23","","4267","","<span style=""color: red; font-size: 24px""> NOW RECORDING</span>
        <p>Please test Microphone</p>","","2",""
"","","","","","html-button-response","6","52093","0.0-4.0-2.0","B9DC5D0C7E994BEE83870547024E5F48","B9DC5D0C7E994BEE83870547024E5F48","5e1551e9-cb48-41a3-a0af-9252d2935c51","81dd14e9-200e-48d1-afc5-b6c2b3ebd11b","{""part"":""2"",""participantId"":""B9DC5D0C7E994BEE83870547024E5F48"",""assignmentId"":""5e1551e9-cb48-41a3-a0af-9252d2935c51"",""projectId"":""81dd14e9-200e-48d1-afc5-b6c2b3ebd11b""}","https://test12345.live/?part=2&participantId=B9DC5D0C7E994BEE83870547024E5F48&assignmentId=5e1551e9-cb48-41a3-a0af-9252d2935c51&projectId=81dd14e9-200e-48d1-afc5-b6c2b3ebd11b","B9DC5D0C7E994BEE83870547024E5F48-2025-05-15-15-38-23","","1595","","<p style=""font-size:48px; color:red;"">Is Microphone OK?</p>","1","",""
"","","","","","instructions","7","61179","0.0-5.0","B9DC5D0C7E994BEE83870547024E5F48","B9DC5D0C7E994BEE83870547024E5F48","5e1551e9-cb48-41a3-a0af-9252d2935c51","81dd14e9-200e-48d1-afc5-b6c2b3ebd11b","{""part"":""2"",""participantId"":""B9DC5D0C7E994BEE83870547024E5F48"",""assignmentId"":""5e1551e9-cb48-41a3-a0af-9252d2935c51"",""projectId"":""81dd14e9-200e-48d1-afc5-b6c2b3ebd11b""}","https://test12345.live/?part=2&participantId=B9DC5D0C7E994BEE83870547024E5F48&assignmentId=5e1551e9-cb48-41a3-a0af-9252d2935c51&projectId=81dd14e9-200e-48d1-afc5-b6c2b3ebd11b","B9DC5D0C7E994BEE83870547024E5F48-2025-05-15-15-38-23","[{""page_index"":0,""viewing_time"":911},{""page_index"":1,""viewing_time"":2198},{""page_index"":2,""viewing_time"":1281},{""page_index"":1,""viewing_time"":1229},{""page_index"":2,""viewing_time"":3468}]","9086","","","","",""
"","","","","","image-button-response","8","67181","0.0-6.0-0.0","B9DC5D0C7E994BEE83870547024E5F48","B9DC5D0C7E994BEE83870547024E5F48","5e1551e9-cb48-41a3-a0af-9252d2935c51","81dd14e9-200e-48d1-afc5-b6c2b3ebd11b","{""part"":""2"",""participantId"":""B9DC5D0C7E994BEE83870547024E5F48"",""assignmentId"":""5e1551e9-cb48-41a3-a0af-9252d2935c51"",""projectId"":""81dd14e9-200e-48d1-afc5-b6c2b3ebd11b""}","https://test12345.live/?part=2&participantId=B9DC5D0C7E994BEE83870547024E5F48&assignmentId=5e1551e9-cb48-41a3-a0af-9252d2935c51&projectId=81dd14e9-200e-48d1-afc5-b6c2b3ebd11b","B9DC5D0C7E994BEE83870547024E5F48-2025-05-15-15-38-23","","null","","images/instructions/movie_0.png","null","",""
"","","","","","html-audio-response","9","79992","0.0-7.0","B9DC5D0C7E994BEE83870547024E5F48","B9DC5D0C7E994BEE83870547024E5F48","5e1551e9-cb48-41a3-a0af-9252d2935c51","81dd14e9-200e-48d1-afc5-b6c2b3ebd11b","{""part"":""2"",""participantId"":""B9DC5D0C7E994BEE83870547024E5F48"",""assignmentId"":""5e1551e9-cb48-41a3-a0af-9252d2935c51"",""projectId"":""81dd14e9-200e-48d1-afc5-b6c2b3ebd11b""}","https://test12345.live/?part=2&participantId=B9DC5D0C7E994BEE83870547024E5F48&assignmentId=5e1551e9-cb48-41a3-a0af-9252d2935c51&projectId=81dd14e9-200e-48d1-afc5-b6c2b3ebd11b","B9DC5D0C7E994BEE83870547024E5F48-2025-05-15-15-38-23","","8215","","[""<span style=\""color: red; font-size: 24px\""> NOW RECORDING</span><p>Please say out loud all the images you saw in part 1 of the experiment, as many as you can remember. The images can be said in any order.</p>""]","","4",""
"","","","","","instructions","10","81041","0.0-8.0","B9DC5D0C7E994BEE83870547024E5F48","B9DC5D0C7E994BEE83870547024E5F48","5e1551e9-cb48-41a3-a0af-9252d2935c51","81dd14e9-200e-48d1-afc5-b6c2b3ebd11b","{""part"":""2"",""participantId"":""B9DC5D0C7E994BEE83870547024E5F48"",""assignmentId"":""5e1551e9-cb48-41a3-a0af-9252d2935c51"",""projectId"":""81dd14e9-200e-48d1-afc5-b6c2b3ebd11b""}","https://test12345.live/?part=2&participantId=B9DC5D0C7E994BEE83870547024E5F48&assignmentId=5e1551e9-cb48-41a3-a0af-9252d2935c51&projectId=81dd14e9-200e-48d1-afc5-b6c2b3ebd11b","B9DC5D0C7E994BEE83870547024E5F48-2025-05-15-15-38-23","[{""page_index"":0,""viewing_time"":1048}]","1048","","","","",""
"","","","","","image-button-response","11","87053","0.0-9.0-0.0","B9DC5D0C7E994BEE83870547024E5F48","B9DC5D0C7E994BEE83870547024E5F48","5e1551e9-cb48-41a3-a0af-9252d2935c51","81dd14e9-200e-48d1-afc5-b6c2b3ebd11b","{""part"":""2"",""participantId"":""B9DC5D0C7E994BEE83870547024E5F48"",""assignmentId"":""5e1551e9-cb48-41a3-a0af-9252d2935c51"",""projectId"":""81dd14e9-200e-48d1-afc5-b6c2b3ebd11b""}","https://test12345.live/?part=2&participantId=B9DC5D0C7E994BEE83870547024E5F48&assignmentId=5e1551e9-cb48-41a3-a0af-9252d2935c51&projectId=81dd14e9-200e-48d1-afc5-b6c2b3ebd11b","B9DC5D0C7E994BEE83870547024E5F48-2025-05-15-15-38-23","","null","","images/semantic_sequence/market_semantic/market_semantic_0.png","null","",""
"","","","","","html-audio-response","12","110000","0.0-10.0","B9DC5D0C7E994BEE83870547024E5F48","B9DC5D0C7E994BEE83870547024E5F48","5e1551e9-cb48-41a3-a0af-9252d2935c51","81dd14e9-200e-48d1-afc5-b6c2b3ebd11b","{""part"":""2"",""participantId"":""B9DC5D0C7E994BEE83870547024E5F48"",""assignmentId"":""5e1551e9-cb48-41a3-a0af-9252d2935c51"",""projectId"":""81dd14e9-200e-48d1-afc5-b6c2b3ebd11b""}","https://test12345.live/?part=2&participantId=B9DC5D0C7E994BEE83870547024E5F48&assignmentId=5e1551e9-cb48-41a3-a0af-9252d2935c51&projectId=81dd14e9-200e-48d1-afc5-b6c2b3ebd11b","B9DC5D0C7E994BEE83870547024E5F48-2025-05-15-15-38-23","","18583","","[""<span style=\""color: red; font-size: 24px\""> NOW RECORDING</span><p>Please say out loud all the images you saw in part 1 of the experiment, as many as you can remember. The images can be said in any order.</p>""]","","1","market_semantic"
"","","","","","image-button-response","13","116010","0.0-11.0-0.0","B9DC5D0C7E994BEE83870547024E5F48","B9DC5D0C7E994BEE83870547024E5F48","5e1551e9-cb48-41a3-a0af-9252d2935c51","81dd14e9-200e-48d1-afc5-b6c2b3ebd11b","{""part"":""2"",""participantId"":""B9DC5D0C7E994BEE83870547024E5F48"",""assignmentId"":""5e1551e9-cb48-41a3-a0af-9252d2935c51"",""projectId"":""81dd14e9-200e-48d1-afc5-b6c2b3ebd11b""}","https://test12345.live/?part=2&participantId=B9DC5D0C7E994BEE83870547024E5F48&assignmentId=5e1551e9-cb48-41a3-a0af-9252d2935c51&projectId=81dd14e9-200e-48d1-afc5-b6c2b3ebd11b","B9DC5D0C7E994BEE83870547024E5F48-2025-05-15-15-38-23","","null","","images/causal_sequence/the_performance_causal/the_performance_causal_0.png","null","",""
"","","","","","html-audio-response","14","141904","0.0-12.0","B9DC5D0C7E994BEE83870547024E5F48","B9DC5D0C7E994BEE83870547024E5F48","5e1551e9-cb48-41a3-a0af-9252d2935c51","81dd14e9-200e-48d1-afc5-b6c2b3ebd11b","{""part"":""2"",""participantId"":""B9DC5D0C7E994BEE83870547024E5F48"",""assignmentId"":""5e1551e9-cb48-41a3-a0af-9252d2935c51"",""projectId"":""81dd14e9-200e-48d1-afc5-b6c2b3ebd11b""}","https://test12345.live/?part=2&participantId=B9DC5D0C7E994BEE83870547024E5F48&assignmentId=5e1551e9-cb48-41a3-a0af-9252d2935c51&projectId=81dd14e9-200e-48d1-afc5-b6c2b3ebd11b","B9DC5D0C7E994BEE83870547024E5F48-2025-05-15-15-38-23","","21968","","[""<span style=\""color: red; font-size: 24px\""> NOW RECORDING</span><p>Please say out loud all the images you saw in part 1 of the experiment, as many as you can remember. The images can be said in any order.</p>""]","","2","the_performance_causal"
"","","","","","image-button-response","15","147911","0.0-13.0-0.0","B9DC5D0C7E994BEE83870547024E5F48","B9DC5D0C7E994BEE83870547024E5F48","5e1551e9-cb48-41a3-a0af-9252d2935c51","81dd14e9-200e-48d1-afc5-b6c2b3ebd11b","{""part"":""2"",""participantId"":""B9DC5D0C7E994BEE83870547024E5F48"",""assignmentId"":""5e1551e9-cb48-41a3-a0af-9252d2935c51"",""projectId"":""81dd14e9-200e-48d1-afc5-b6c2b3ebd11b""}","https://test12345.live/?part=2&participantId=B9DC5D0C7E994BEE83870547024E5F48&assignmentId=5e1551e9-cb48-41a3-a0af-9252d2935c51&projectId=81dd14e9-200e-48d1-afc5-b6c2b3ebd11b","B9DC5D0C7E994BEE83870547024E5F48-2025-05-15-15-38-23","","null","","images/semantic_sequence/creative_activities_semantic/creative_activities_semantic_0.png","null","",""
"","","","","","html-audio-response","16","164511","0.0-14.0","B9DC5D0C7E994BEE83870547024E5F48","B9DC5D0C7E994BEE83870547024E5F48","5e1551e9-cb48-41a3-a0af-9252d2935c51","81dd14e9-200e-48d1-afc5-b6c2b3ebd11b","{""part"":""2"",""participantId"":""B9DC5D0C7E994BEE83870547024E5F48"",""assignmentId"":""5e1551e9-cb48-41a3-a0af-9252d2935c51"",""projectId"":""81dd14e9-200e-48d1-afc5-b6c2b3ebd11b""}","https://test12345.live/?part=2&participantId=B9DC5D0C7E994BEE83870547024E5F48&assignmentId=5e1551e9-cb48-41a3-a0af-9252d2935c51&projectId=81dd14e9-200e-48d1-afc5-b6c2b3ebd11b","B9DC5D0C7E994BEE83870547024E5F48-2025-05-15-15-38-23","","15519","","[""<span style=\""color: red; font-size: 24px\""> NOW RECORDING</span><p>Please say out loud all the images you saw in part 1 of the experiment, as many as you can remember. The images can be said in any order.</p>""]","","1","creative_activities_semantic"
"","","","","","image-button-response","17","170519","0.0-15.0-0.0","B9DC5D0C7E994BEE83870547024E5F48","B9DC5D0C7E994BEE83870547024E5F48","5e1551e9-cb48-41a3-a0af-9252d2935c51","81dd14e9-200e-48d1-afc5-b6c2b3ebd11b","{""part"":""2"",""participantId"":""B9DC5D0C7E994BEE83870547024E5F48"",""assignmentId"":""5e1551e9-cb48-41a3-a0af-9252d2935c51"",""projectId"":""81dd14e9-200e-48d1-afc5-b6c2b3ebd11b""}","https://test12345.live/?part=2&participantId=B9DC5D0C7E994BEE83870547024E5F48&assignmentId=5e1551e9-cb48-41a3-a0af-9252d2935c51&projectId=81dd14e9-200e-48d1-afc5-b6c2b3ebd11b","B9DC5D0C7E994BEE83870547024E5F48-2025-05-15-15-38-23","","null","","images/schematic_sequence/supermarket_scheme/supermarket_scheme_0.png","null","",""
"","","","","","html-audio-response","18","197135","0.0-16.0","B9DC5D0C7E994BEE83870547024E5F48","B9DC5D0C7E994BEE83870547024E5F48","5e1551e9-cb48-41a3-a0af-9252d2935c51","81dd14e9-200e-48d1-afc5-b6c2b3ebd11b","{""part"":""2"",""participantId"":""B9DC5D0C7E994BEE83870547024E5F48"",""assignmentId"":""5e1551e9-cb48-41a3-a0af-9252d2935c51"",""projectId"":""81dd14e9-200e-48d1-afc5-b6c2b3ebd11b""}","https://test12345.live/?part=2&participantId=B9DC5D0C7E994BEE83870547024E5F48&assignmentId=5e1551e9-cb48-41a3-a0af-9252d2935c51&projectId=81dd14e9-200e-48d1-afc5-b6c2b3ebd11b","B9DC5D0C7E994BEE83870547024E5F48-2025-05-15-15-38-23","","25657","","[""<span style=\""color: red; font-size: 24px\""> NOW RECORDING</span><p>Please say out loud all the images you saw in part 1 of the experiment, as many as you can remember. The images can be said in any order.</p>""]","","1","supermarket_scheme"
"","","","","","image-button-response","19","203150","0.0-17.0-0.0","B9DC5D0C7E994BEE83870547024E5F48","B9DC5D0C7E994BEE83870547024E5F48","5e1551e9-cb48-41a3-a0af-9252d2935c51","81dd14e9-200e-48d1-afc5-b6c2b3ebd11b","{""part"":""2"",""participantId"":""B9DC5D0C7E994BEE83870547024E5F48"",""assignmentId"":""5e1551e9-cb48-41a3-a0af-9252d2935c51"",""projectId"":""81dd14e9-200e-48d1-afc5-b6c2b3ebd11b""}","https://test12345.live/?part=2&participantId=B9DC5D0C7E994BEE83870547024E5F48&assignmentId=5e1551e9-cb48-41a3-a0af-9252d2935c51&projectId=81dd14e9-200e-48d1-afc5-b6c2b3ebd11b","B9DC5D0C7E994BEE83870547024E5F48-2025-05-15-15-38-23","","null","","images/causal_sequence/package_causal/package_causal_0.png","null","",""
"","","","","","html-audio-response","20","228221","0.0-18.0","B9DC5D0C7E994BEE83870547024E5F48","B9DC5D0C7E994BEE83870547024E5F48","5e1551e9-cb48-41a3-a0af-9252d2935c51","81dd14e9-200e-48d1-afc5-b6c2b3ebd11b","{""part"":""2"",""participantId"":""B9DC5D0C7E994BEE83870547024E5F48"",""assignmentId"":""5e1551e9-cb48-41a3-a0af-9252d2935c51"",""projectId"":""81dd14e9-200e-48d1-afc5-b6c2b3ebd11b""}","https://test12345.live/?part=2&participantId=B9DC5D0C7E994BEE83870547024E5F48&assignmentId=5e1551e9-cb48-41a3-a0af-9252d2935c51&projectId=81dd14e9-200e-48d1-afc5-b6c2b3ebd11b","B9DC5D0C7E994BEE83870547024E5F48-2025-05-15-15-38-23","","23975","","[""<span style=\""color: red; font-size: 24px\""> NOW RECORDING</span><p>Please say out loud all the images you saw in part 1 of the experiment, as many as you can remember. The images can be said in any order.</p>""]","","2","package_causal"
"","","","","","image-button-response","21","234235","0.0-19.0-0.0","B9DC5D0C7E994BEE83870547024E5F48","B9DC5D0C7E994BEE83870547024E5F48","5e1551e9-cb48-41a3-a0af-9252d2935c51","81dd14e9-200e-48d1-afc5-b6c2b3ebd11b","{""part"":""2"",""participantId"":""B9DC5D0C7E994BEE83870547024E5F48"",""assignmentId"":""5e1551e9-cb48-41a3-a0af-9252d2935c51"",""projectId"":""81dd14e9-200e-48d1-afc5-b6c2b3ebd11b""}","https://test12345.live/?part=2&participantId=B9DC5D0C7E994BEE83870547024E5F48&assignmentId=5e1551e9-cb48-41a3-a0af-9252d2935c51&projectId=81dd14e9-200e-48d1-afc5-b6c2b3ebd11b","B9DC5D0C7E994BEE83870547024E5F48-2025-05-15-15-38-23","","null","","images/schematic_sequence/interview_scheme/interview_scheme_0.png","null","",""
"","","","","","html-audio-response","22","252328","0.0-20.0","B9DC5D0C7E994BEE83870547024E5F48","B9DC5D0C7E994BEE83870547024E5F48","5e1551e9-cb48-41a3-a0af-9252d2935c51","81dd14e9-200e-48d1-afc5-b6c2b3ebd11b","{""part"":""2"",""participantId"":""B9DC5D0C7E994BEE83870547024E5F48"",""assignmentId"":""5e1551e9-cb48-41a3-a0af-9252d2935c51"",""projectId"":""81dd14e9-200e-48d1-afc5-b6c2b3ebd11b""}","https://test12345.live/?part=2&participantId=B9DC5D0C7E994BEE83870547024E5F48&assignmentId=5e1551e9-cb48-41a3-a0af-9252d2935c51&projectId=81dd14e9-200e-48d1-afc5-b6c2b3ebd11b","B9DC5D0C7E994BEE83870547024E5F48-2025-05-15-15-38-23","","16879","","[""<span style=\""color: red; font-size: 24px\""> NOW RECORDING</span><p>Please say out loud all the images you saw in part 1 of the experiment, as many as you can remember. The images can be said in any order.</p>""]","","1","interview_scheme"
"","","","","","image-button-response","23","258342","0.0-21.0-0.0","B9DC5D0C7E994BEE83870547024E5F48","B9DC5D0C7E994BEE83870547024E5F48","5e1551e9-cb48-41a3-a0af-9252d2935c51","81dd14e9-200e-48d1-afc5-b6c2b3ebd11b","{""part"":""2"",""participantId"":""B9DC5D0C7E994BEE83870547024E5F48"",""assignmentId"":""5e1551e9-cb48-41a3-a0af-9252d2935c51"",""projectId"":""81dd14e9-200e-48d1-afc5-b6c2b3ebd11b""}","https://test12345.live/?part=2&participantId=B9DC5D0C7E994BEE83870547024E5F48&assignmentId=5e1551e9-cb48-41a3-a0af-9252d2935c51&projectId=81dd14e9-200e-48d1-afc5-b6c2b3ebd11b","B9DC5D0C7E994BEE83870547024E5F48-2025-05-15-15-38-23","","null","","images/semantic_sequence/self_care_activities_semantic/self_care_activities_semantic_0.png","null","",""
"","","","","","html-audio-response","24","270891","0.0-22.0","B9DC5D0C7E994BEE83870547024E5F48","B9DC5D0C7E994BEE83870547024E5F48","5e1551e9-cb48-41a3-a0af-9252d2935c51","81dd14e9-200e-48d1-afc5-b6c2b3ebd11b","{""part"":""2"",""participantId"":""B9DC5D0C7E994BEE83870547024E5F48"",""assignmentId"":""5e1551e9-cb48-41a3-a0af-9252d2935c51"",""projectId"":""81dd14e9-200e-48d1-afc5-b6c2b3ebd11b""}","https://test12345.live/?part=2&participantId=B9DC5D0C7E994BEE83870547024E5F48&assignmentId=5e1551e9-cb48-41a3-a0af-9252d2935c51&projectId=81dd14e9-200e-48d1-afc5-b6c2b3ebd11b","B9DC5D0C7E994BEE83870547024E5F48-2025-05-15-15-38-23","","11895","","[""<span style=\""color: red; font-size: 24px\""> NOW RECORDING</span><p>Please say out loud all the images you saw in part 1 of the experiment, as many as you can remember. The images can be said in any order.</p>""]","","1","self_care_activities_semantic"
"","","","","","image-button-response","25","276906","0.0-23.0-0.0","B9DC5D0C7E994BEE83870547024E5F48","B9DC5D0C7E994BEE83870547024E5F48","5e1551e9-cb48-41a3-a0af-9252d2935c51","81dd14e9-200e-48d1-afc5-b6c2b3ebd11b","{""part"":""2"",""participantId"":""B9DC5D0C7E994BEE83870547024E5F48"",""assignmentId"":""5e1551e9-cb48-41a3-a0af-9252d2935c51"",""projectId"":""81dd14e9-200e-48d1-afc5-b6c2b3ebd11b""}","https://test12345.live/?part=2&participantId=B9DC5D0C7E994BEE83870547024E5F48&assignmentId=5e1551e9-cb48-41a3-a0af-9252d2935c51&projectId=81dd14e9-200e-48d1-afc5-b6c2b3ebd11b","B9DC5D0C7E994BEE83870547024E5F48-2025-05-15-15-38-23","","null","","images/semantic_sequence/redecorating_semantic/redecorating_semantic_0.png","null","",""
"","","","","","html-audio-response","26","290924","0.0-24.0","B9DC5D0C7E994BEE83870547024E5F48","B9DC5D0C7E994BEE83870547024E5F48","5e1551e9-cb48-41a3-a0af-9252d2935c51","81dd14e9-200e-48d1-afc5-b6c2b3ebd11b","{""part"":""2"",""participantId"":""B9DC5D0C7E994BEE83870547024E5F48"",""assignmentId"":""5e1551e9-cb48-41a3-a0af-9252d2935c51"",""projectId"":""81dd14e9-200e-48d1-afc5-b6c2b3ebd11b""}","https://test12345.live/?part=2&participantId=B9DC5D0C7E994BEE83870547024E5F48&assignmentId=5e1551e9-cb48-41a3-a0af-9252d2935c51&projectId=81dd14e9-200e-48d1-afc5-b6c2b3ebd11b","B9DC5D0C7E994BEE83870547024E5F48-2025-05-15-15-38-23","","13258","","[""<span style=\""color: red; font-size: 24px\""> NOW RECORDING</span><p>Please say out loud all the images you saw in part 1 of the experiment, as many as you can remember. The images can be said in any order.</p>""]","","1","redecorating_semantic"
"","","","","","image-button-response","27","296928","0.0-25.0-0.0","B9DC5D0C7E994BEE83870547024E5F48","B9DC5D0C7E994BEE83870547024E5F48","5e1551e9-cb48-41a3-a0af-9252d2935c51","81dd14e9-200e-48d1-afc5-b6c2b3ebd11b","{""part"":""2"",""participantId"":""B9DC5D0C7E994BEE83870547024E5F48"",""assignmentId"":""5e1551e9-cb48-41a3-a0af-9252d2935c51"",""projectId"":""81dd14e9-200e-48d1-afc5-b6c2b3ebd11b""}","https://test12345.live/?part=2&participantId=B9DC5D0C7E994BEE83870547024E5F48&assignmentId=5e1551e9-cb48-41a3-a0af-9252d2935c51&projectId=81dd14e9-200e-48d1-afc5-b6c2b3ebd11b","B9DC5D0C7E994BEE83870547024E5F48-2025-05-15-15-38-23","","null","","images/causal_sequence/museum_causal/museum_causal_0.png","null","",""
"","","","","","html-audio-response","28","316685","0.0-26.0","B9DC5D0C7E994BEE83870547024E5F48","B9DC5D0C7E994BEE83870547024E5F48","5e1551e9-cb48-41a3-a0af-9252d2935c51","81dd14e9-200e-48d1-afc5-b6c2b3ebd11b","{""part"":""2"",""participantId"":""B9DC5D0C7E994BEE83870547024E5F48"",""assignmentId"":""5e1551e9-cb48-41a3-a0af-9252d2935c51"",""projectId"":""81dd14e9-200e-48d1-afc5-b6c2b3ebd11b""}","https://test12345.live/?part=2&participantId=B9DC5D0C7E994BEE83870547024E5F48&assignmentId=5e1551e9-cb48-41a3-a0af-9252d2935c51&projectId=81dd14e9-200e-48d1-afc5-b6c2b3ebd11b","B9DC5D0C7E994BEE83870547024E5F48-2025-05-15-15-38-23","","18569","","[""<span style=\""color: red; font-size: 24px\""> NOW RECORDING</span><p>Please say out loud all the images you saw in part 1 of the experiment, as many as you can remember. The images can be said in any order.</p>""]","","1","museum_causal"
"","","","","","image-button-response","29","322700","0.0-27.0-0.0","B9DC5D0C7E994BEE83870547024E5F48","B9DC5D0C7E994BEE83870547024E5F48","5e1551e9-cb48-41a3-a0af-9252d2935c51","81dd14e9-200e-48d1-afc5-b6c2b3ebd11b","{""part"":""2"",""participantId"":""B9DC5D0C7E994BEE83870547024E5F48"",""assignmentId"":""5e1551e9-cb48-41a3-a0af-9252d2935c51"",""projectId"":""81dd14e9-200e-48d1-afc5-b6c2b3ebd11b""}","https://test12345.live/?part=2&participantId=B9DC5D0C7E994BEE83870547024E5F48&assignmentId=5e1551e9-cb48-41a3-a0af-9252d2935c51&projectId=81dd14e9-200e-48d1-afc5-b6c2b3ebd11b","B9DC5D0C7E994BEE83870547024E5F48-2025-05-15-15-38-23","","null","","images/schematic_sequence/hotel_scheme/hotel_scheme_0.png","null","",""
"","","","","","html-audio-response","30","342980","0.0-28.0","B9DC5D0C7E994BEE83870547024E5F48","B9DC5D0C7E994BEE83870547024E5F48","5e1551e9-cb48-41a3-a0af-9252d2935c51","81dd14e9-200e-48d1-afc5-b6c2b3ebd11b","{""part"":""2"",""participantId"":""B9DC5D0C7E994BEE83870547024E5F48"",""assignmentId"":""5e1551e9-cb48-41a3-a0af-9252d2935c51"",""projectId"":""81dd14e9-200e-48d1-afc5-b6c2b3ebd11b""}","https://test12345.live/?part=2&participantId=B9DC5D0C7E994BEE83870547024E5F48&assignmentId=5e1551e9-cb48-41a3-a0af-9252d2935c51&projectId=81dd14e9-200e-48d1-afc5-b6c2b3ebd11b","B9DC5D0C7E994BEE83870547024E5F48-2025-05-15-15-38-23","","19468","","[""<span style=\""color: red; font-size: 24px\""> NOW RECORDING</span><p>Please say out loud all the images you saw in part 1 of the experiment, as many as you can remember. The images can be said in any order.</p>""]","","1","hotel_scheme"
"","","","","","image-button-response","31","348995","0.0-29.0-0.0","B9DC5D0C7E994BEE83870547024E5F48","B9DC5D0C7E994BEE83870547024E5F48","5e1551e9-cb48-41a3-a0af-9252d2935c51","81dd14e9-200e-48d1-afc5-b6c2b3ebd11b","{""part"":""2"",""participantId"":""B9DC5D0C7E994BEE83870547024E5F48"",""assignmentId"":""5e1551e9-cb48-41a3-a0af-9252d2935c51"",""projectId"":""81dd14e9-200e-48d1-afc5-b6c2b3ebd11b""}","https://test12345.live/?part=2&participantId=B9DC5D0C7E994BEE83870547024E5F48&assignmentId=5e1551e9-cb48-41a3-a0af-9252d2935c51&projectId=81dd14e9-200e-48d1-afc5-b6c2b3ebd11b","B9DC5D0C7E994BEE83870547024E5F48-2025-05-15-15-38-23","","null","","images/semantic_sequence/housework_semantic/housework_semantic_0.png","null","",""
"","","","","","html-audio-response","32","374803","0.0-30.0","B9DC5D0C7E994BEE83870547024E5F48","B9DC5D0C7E994BEE83870547024E5F48","5e1551e9-cb48-41a3-a0af-9252d2935c51","81dd14e9-200e-48d1-afc5-b6c2b3ebd11b","{""part"":""2"",""participantId"":""B9DC5D0C7E994BEE83870547024E5F48"",""assignmentId"":""5e1551e9-cb48-41a3-a0af-9252d2935c51"",""projectId"":""81dd14e9-200e-48d1-afc5-b6c2b3ebd11b""}","https://test12345.live/?part=2&participantId=B9DC5D0C7E994BEE83870547024E5F48&assignmentId=5e1551e9-cb48-41a3-a0af-9252d2935c51&projectId=81dd14e9-200e-48d1-afc5-b6c2b3ebd11b","B9DC5D0C7E994BEE83870547024E5F48-2025-05-15-15-38-23","","17405","","[""<span style=\""color: red; font-size: 24px\""> NOW RECORDING</span><p>Please say out loud all the images you saw in part 1 of the experiment, as many as you can remember. The images can be said in any order.</p>""]","","2","housework_semantic"
"","","","","","image-button-response","33","380811","0.0-31.0-0.0","B9DC5D0C7E994BEE83870547024E5F48","B9DC5D0C7E994BEE83870547024E5F48","5e1551e9-cb48-41a3-a0af-9252d2935c51","81dd14e9-200e-48d1-afc5-b6c2b3ebd11b","{""part"":""2"",""participantId"":""B9DC5D0C7E994BEE83870547024E5F48"",""assignmentId"":""5e1551e9-cb48-41a3-a0af-9252d2935c51"",""projectId"":""81dd14e9-200e-48d1-afc5-b6c2b3ebd11b""}","https://test12345.live/?part=2&participantId=B9DC5D0C7E994BEE83870547024E5F48&assignmentId=5e1551e9-cb48-41a3-a0af-9252d2935c51&projectId=81dd14e9-200e-48d1-afc5-b6c2b3ebd11b","B9DC5D0C7E994BEE83870547024E5F48-2025-05-15-15-38-23","","null","","images/causal_sequence/coin_causal/coin_causal_0.png","null","",""
"","","","","","html-audio-response","34","400768","0.0-32.0","B9DC5D0C7E994BEE83870547024E5F48","B9DC5D0C7E994BEE83870547024E5F48","5e1551e9-cb48-41a3-a0af-9252d2935c51","81dd14e9-200e-48d1-afc5-b6c2b3ebd11b","{""part"":""2"",""participantId"":""B9DC5D0C7E994BEE83870547024E5F48"",""assignmentId"":""5e1551e9-cb48-41a3-a0af-9252d2935c51"",""projectId"":""81dd14e9-200e-48d1-afc5-b6c2b3ebd11b""}","https://test12345.live/?part=2&participantId=B9DC5D0C7E994BEE83870547024E5F48&assignmentId=5e1551e9-cb48-41a3-a0af-9252d2935c51&projectId=81dd14e9-200e-48d1-afc5-b6c2b3ebd11b","B9DC5D0C7E994BEE83870547024E5F48-2025-05-15-15-38-23","","19412","","[""<span style=\""color: red; font-size: 24px\""> NOW RECORDING</span><p>Please say out loud all the images you saw in part 1 of the experiment, as many as you can remember. The images can be said in any order.</p>""]","","2","coin_causal"
"","","","","","image-button-response","35","406771","0.0-33.0-0.0","B9DC5D0C7E994BEE83870547024E5F48","B9DC5D0C7E994BEE83870547024E5F48","5e1551e9-cb48-41a3-a0af-9252d2935c51","81dd14e9-200e-48d1-afc5-b6c2b3ebd11b","{""part"":""2"",""participantId"":""B9DC5D0C7E994BEE83870547024E5F48"",""assignmentId"":""5e1551e9-cb48-41a3-a0af-9252d2935c51"",""projectId"":""81dd14e9-200e-48d1-afc5-b6c2b3ebd11b""}","https://test12345.live/?part=2&participantId=B9DC5D0C7E994BEE83870547024E5F48&assignmentId=5e1551e9-cb48-41a3-a0af-9252d2935c51&projectId=81dd14e9-200e-48d1-afc5-b6c2b3ebd11b","B9DC5D0C7E994BEE83870547024E5F48-2025-05-15-15-38-23","","null","","images/semantic_sequence/physical_activity_semantic/physical_activity_semantic_0.png","null","",""
"","","","","","html-audio-response","36","415077","0.0-34.0","B9DC5D0C7E994BEE83870547024E5F48","B9DC5D0C7E994BEE83870547024E5F48","5e1551e9-cb48-41a3-a0af-9252d2935c51","81dd14e9-200e-48d1-afc5-b6c2b3ebd11b","{""part"":""2"",""participantId"":""B9DC5D0C7E994BEE83870547024E5F48"",""assignmentId"":""5e1551e9-cb48-41a3-a0af-9252d2935c51"",""projectId"":""81dd14e9-200e-48d1-afc5-b6c2b3ebd11b""}","https://test12345.live/?part=2&participantId=B9DC5D0C7E994BEE83870547024E5F48&assignmentId=5e1551e9-cb48-41a3-a0af-9252d2935c51&projectId=81dd14e9-200e-48d1-afc5-b6c2b3ebd11b","B9DC5D0C7E994BEE83870547024E5F48-2025-05-15-15-38-23","","7657","","[""<span style=\""color: red; font-size: 24px\""> NOW RECORDING</span><p>Please say out loud all the images you saw in part 1 of the experiment, as many as you can remember. The images can be said in any order.</p>""]","","6","physical_activity_semantic"
"","","","","","image-button-response","37","421082","0.0-35.0-0.0","B9DC5D0C7E994BEE83870547024E5F48","B9DC5D0C7E994BEE83870547024E5F48","5e1551e9-cb48-41a3-a0af-9252d2935c51","81dd14e9-200e-48d1-afc5-b6c2b3ebd11b","{""part"":""2"",""participantId"":""B9DC5D0C7E994BEE83870547024E5F48"",""assignmentId"":""5e1551e9-cb48-41a3-a0af-9252d2935c51"",""projectId"":""81dd14e9-200e-48d1-afc5-b6c2b3ebd11b""}","https://test12345.live/?part=2&participantId=B9DC5D0C7E994BEE83870547024E5F48&assignmentId=5e1551e9-cb48-41a3-a0af-9252d2935c51&projectId=81dd14e9-200e-48d1-afc5-b6c2b3ebd11b","B9DC5D0C7E994BEE83870547024E5F48-2025-05-15-15-38-23","","null","","images/schematic_sequence/restaurant_scheme/restaurant_scheme_0.png","null","",""
"","","","","","html-audio-response","38","442611","0.0-36.0","B9DC5D0C7E994BEE83870547024E5F48","B9DC5D0C7E994BEE83870547024E5F48","5e1551e9-cb48-41a3-a0af-9252d2935c51","81dd14e9-200e-48d1-afc5-b6c2b3ebd11b","{""part"":""2"",""participantId"":""B9DC5D0C7E994BEE83870547024E5F48"",""assignmentId"":""5e1551e9-cb48-41a3-a0af-9252d2935c51"",""projectId"":""81dd14e9-200e-48d1-afc5-b6c2b3ebd11b""}","https://test12345.live/?part=2&participantId=B9DC5D0C7E994BEE83870547024E5F48&assignmentId=5e1551e9-cb48-41a3-a0af-9252d2935c51&projectId=81dd14e9-200e-48d1-afc5-b6c2b3ebd11b","B9DC5D0C7E994BEE83870547024E5F48-2025-05-15-15-38-23","","20675","","[""<span style=\""color: red; font-size: 24px\""> NOW RECORDING</span><p>Please say out loud all the images you saw in part 1 of the experiment, as many as you can remember. The images can be said in any order.</p>""]","","2","restaurant_scheme"
"","","","","","image-button-response","39","448615","0.0-37.0-0.0","B9DC5D0C7E994BEE83870547024E5F48","B9DC5D0C7E994BEE83870547024E5F48","5e1551e9-cb48-41a3-a0af-9252d2935c51","81dd14e9-200e-48d1-afc5-b6c2b3ebd11b","{""part"":""2"",""participantId"":""B9DC5D0C7E994BEE83870547024E5F48"",""assignmentId"":""5e1551e9-cb48-41a3-a0af-9252d2935c51"",""projectId"":""81dd14e9-200e-48d1-afc5-b6c2b3ebd11b""}","https://test12345.live/?part=2&participantId=B9DC5D0C7E994BEE83870547024E5F48&assignmentId=5e1551e9-cb48-41a3-a0af-9252d2935c51&projectId=81dd14e9-200e-48d1-afc5-b6c2b3ebd11b","B9DC5D0C7E994BEE83870547024E5F48-2025-05-15-15-38-23","","null","","images/semantic_sequence/cat_care_semantic/cat_care_semantic_0.png","null","",""
"","","","","","html-audio-response","40","458411","0.0-38.0","B9DC5D0C7E994BEE83870547024E5F48","B9DC5D0C7E994BEE83870547024E5F48","5e1551e9-cb48-41a3-a0af-9252d2935c51","81dd14e9-200e-48d1-afc5-b6c2b3ebd11b","{""part"":""2"",""participantId"":""B9DC5D0C7E994BEE83870547024E5F48"",""assignmentId"":""5e1551e9-cb48-41a3-a0af-9252d2935c51"",""projectId"":""81dd14e9-200e-48d1-afc5-b6c2b3ebd11b""}","https://test12345.live/?part=2&participantId=B9DC5D0C7E994BEE83870547024E5F48&assignmentId=5e1551e9-cb48-41a3-a0af-9252d2935c51&projectId=81dd14e9-200e-48d1-afc5-b6c2b3ebd11b","B9DC5D0C7E994BEE83870547024E5F48-2025-05-15-15-38-23","","9109","","[""<span style=\""color: red; font-size: 24px\""> NOW RECORDING</span><p>Please say out loud all the images you saw in part 1 of the experiment, as many as you can remember. The images can be said in any order.</p>""]","","5","cat_care_semantic"
"","","","","","image-button-response","41","464420","0.0-39.0-0.0","B9DC5D0C7E994BEE83870547024E5F48","B9DC5D0C7E994BEE83870547024E5F48","5e1551e9-cb48-41a3-a0af-9252d2935c51","81dd14e9-200e-48d1-afc5-b6c2b3ebd11b","{""part"":""2"",""participantId"":""B9DC5D0C7E994BEE83870547024E5F48"",""assignmentId"":""5e1551e9-cb48-41a3-a0af-9252d2935c51"",""projectId"":""81dd14e9-200e-48d1-afc5-b6c2b3ebd11b""}","https://test12345.live/?part=2&participantId=B9DC5D0C7E994BEE83870547024E5F48&assignmentId=5e1551e9-cb48-41a3-a0af-9252d2935c51&projectId=81dd14e9-200e-48d1-afc5-b6c2b3ebd11b","B9DC5D0C7E994BEE83870547024E5F48-2025-05-15-15-38-23","","null","","images/causal_sequence/saving_a_cat_causal/saving_a_cat_causal_0.png","null","",""
"","","","","","html-audio-response","42","485963","0.0-40.0","B9DC5D0C7E994BEE83870547024E5F48","B9DC5D0C7E994BEE83870547024E5F48","5e1551e9-cb48-41a3-a0af-9252d2935c51","81dd14e9-200e-48d1-afc5-b6c2b3ebd11b","{""part"":""2"",""participantId"":""B9DC5D0C7E994BEE83870547024E5F48"",""assignmentId"":""5e1551e9-cb48-41a3-a0af-9252d2935c51"",""projectId"":""81dd14e9-200e-48d1-afc5-b6c2b3ebd11b""}","https://test12345.live/?part=2&participantId=B9DC5D0C7E994BEE83870547024E5F48&assignmentId=5e1551e9-cb48-41a3-a0af-9252d2935c51&projectId=81dd14e9-200e-48d1-afc5-b6c2b3ebd11b","B9DC5D0C7E994BEE83870547024E5F48-2025-05-15-15-38-23","","20811","","[""<span style=\""color: red; font-size: 24px\""> NOW RECORDING</span><p>Please say out loud all the images you saw in part 1 of the experiment, as many as you can remember. The images can be said in any order.</p>""]","","2","saving_a_cat_causal"
"","","","","","image-button-response","43","491970","0.0-41.0-0.0","B9DC5D0C7E994BEE83870547024E5F48","B9DC5D0C7E994BEE83870547024E5F48","5e1551e9-cb48-41a3-a0af-9252d2935c51","81dd14e9-200e-48d1-afc5-b6c2b3ebd11b","{""part"":""2"",""participantId"":""B9DC5D0C7E994BEE83870547024E5F48"",""assignmentId"":""5e1551e9-cb48-41a3-a0af-9252d2935c51"",""projectId"":""81dd14e9-200e-48d1-afc5-b6c2b3ebd11b""}","https://test12345.live/?part=2&participantId=B9DC5D0C7E994BEE83870547024E5F48&assignmentId=5e1551e9-cb48-41a3-a0af-9252d2935c51&projectId=81dd14e9-200e-48d1-afc5-b6c2b3ebd11b","B9DC5D0C7E994BEE83870547024E5F48-2025-05-15-15-38-23","","null","","images/semantic_sequence/maintaining_a_car_semantic/maintaining_a_car_semantic_0.png","null","",""
"","","","","","html-audio-response","44","507698","0.0-42.0","B9DC5D0C7E994BEE83870547024E5F48","B9DC5D0C7E994BEE83870547024E5F48","5e1551e9-cb48-41a3-a0af-9252d2935c51","81dd14e9-200e-48d1-afc5-b6c2b3ebd11b","{""part"":""2"",""participantId"":""B9DC5D0C7E994BEE83870547024E5F48"",""assignmentId"":""5e1551e9-cb48-41a3-a0af-9252d2935c51"",""projectId"":""81dd14e9-200e-48d1-afc5-b6c2b3ebd11b""}","https://test12345.live/?part=2&participantId=B9DC5D0C7E994BEE83870547024E5F48&assignmentId=5e1551e9-cb48-41a3-a0af-9252d2935c51&projectId=81dd14e9-200e-48d1-afc5-b6c2b3ebd11b","B9DC5D0C7E994BEE83870547024E5F48-2025-05-15-15-38-23","","15013","","[""<span style=\""color: red; font-size: 24px\""> NOW RECORDING</span><p>Please say out loud all the images you saw in part 1 of the experiment, as many as you can remember. The images can be said in any order.</p>""]","","1","maintaining_a_car_semantic"
"","","","","","image-button-response","45","513703","0.0-43.0-0.0","B9DC5D0C7E994BEE83870547024E5F48","B9DC5D0C7E994BEE83870547024E5F48","5e1551e9-cb48-41a3-a0af-9252d2935c51","81dd14e9-200e-48d1-afc5-b6c2b3ebd11b","{""part"":""2"",""participantId"":""B9DC5D0C7E994BEE83870547024E5F48"",""assignmentId"":""5e1551e9-cb48-41a3-a0af-9252d2935c51"",""projectId"":""81dd14e9-200e-48d1-afc5-b6c2b3ebd11b""}","https://test12345.live/?part=2&participantId=B9DC5D0C7E994BEE83870547024E5F48&assignmentId=5e1551e9-cb48-41a3-a0af-9252d2935c51&projectId=81dd14e9-200e-48d1-afc5-b6c2b3ebd11b","B9DC5D0C7E994BEE83870547024E5F48-2025-05-15-15-38-23","","null","","images/semantic_sequence/kitchen_operations_semantic/kitchen_operations_semantic_0.png","null","",""
"","","","","","html-audio-response","46","520825","0.0-44.0","B9DC5D0C7E994BEE83870547024E5F48","B9DC5D0C7E994BEE83870547024E5F48","5e1551e9-cb48-41a3-a0af-9252d2935c51","81dd14e9-200e-48d1-afc5-b6c2b3ebd11b","{""part"":""2"",""participantId"":""B9DC5D0C7E994BEE83870547024E5F48"",""assignmentId"":""5e1551e9-cb48-41a3-a0af-9252d2935c51"",""projectId"":""81dd14e9-200e-48d1-afc5-b6c2b3ebd11b""}","https://test12345.live/?part=2&participantId=B9DC5D0C7E994BEE83870547024E5F48&assignmentId=5e1551e9-cb48-41a3-a0af-9252d2935c51&projectId=81dd14e9-200e-48d1-afc5-b6c2b3ebd11b","B9DC5D0C7E994BEE83870547024E5F48-2025-05-15-15-38-23","","6400","","[""<span style=\""color: red; font-size: 24px\""> NOW RECORDING</span><p>Please say out loud all the images you saw in part 1 of the experiment, as many as you can remember. The images can be said in any order.</p>""]","","2","kitchen_operations_semantic"
"","","","","","image-button-response","47","526827","0.0-45.0-0.0","B9DC5D0C7E994BEE83870547024E5F48","B9DC5D0C7E994BEE83870547024E5F48","5e1551e9-cb48-41a3-a0af-9252d2935c51","81dd14e9-200e-48d1-afc5-b6c2b3ebd11b","{""part"":""2"",""participantId"":""B9DC5D0C7E994BEE83870547024E5F48"",""assignmentId"":""5e1551e9-cb48-41a3-a0af-9252d2935c51"",""projectId"":""81dd14e9-200e-48d1-afc5-b6c2b3ebd11b""}","https://test12345.live/?part=2&participantId=B9DC5D0C7E994BEE83870547024E5F48&assignmentId=5e1551e9-cb48-41a3-a0af-9252d2935c51&projectId=81dd14e9-200e-48d1-afc5-b6c2b3ebd11b","B9DC5D0C7E994BEE83870547024E5F48-2025-05-15-15-38-23","","null","","images/semantic_sequence/exploring_nature_semantic/exploring_nature_semantic_0.png","null","",""
"","","","","","html-audio-response","48","541494","0.0-46.0","B9DC5D0C7E994BEE83870547024E5F48","B9DC5D0C7E994BEE83870547024E5F48","5e1551e9-cb48-41a3-a0af-9252d2935c51","81dd14e9-200e-48d1-afc5-b6c2b3ebd11b","{""part"":""2"",""participantId"":""B9DC5D0C7E994BEE83870547024E5F48"",""assignmentId"":""5e1551e9-cb48-41a3-a0af-9252d2935c51"",""projectId"":""81dd14e9-200e-48d1-afc5-b6c2b3ebd11b""}","https://test12345.live/?part=2&participantId=B9DC5D0C7E994BEE83870547024E5F48&assignmentId=5e1551e9-cb48-41a3-a0af-9252d2935c51&projectId=81dd14e9-200e-48d1-afc5-b6c2b3ebd11b","B9DC5D0C7E994BEE83870547024E5F48-2025-05-15-15-38-23","","13688","","[""<span style=\""color: red; font-size: 24px\""> NOW RECORDING</span><p>Please say out loud all the images you saw in part 1 of the experiment, as many as you can remember. The images can be said in any order.</p>""]","","5","exploring_nature_semantic"
"","","","","","image-button-response","49","547504","0.0-47.0-0.0","B9DC5D0C7E994BEE83870547024E5F48","B9DC5D0C7E994BEE83870547024E5F48","5e1551e9-cb48-41a3-a0af-9252d2935c51","81dd14e9-200e-48d1-afc5-b6c2b3ebd11b","{""part"":""2"",""participantId"":""B9DC5D0C7E994BEE83870547024E5F48"",""assignmentId"":""5e1551e9-cb48-41a3-a0af-9252d2935c51"",""projectId"":""81dd14e9-200e-48d1-afc5-b6c2b3ebd11b""}","https://test12345.live/?part=2&participantId=B9DC5D0C7E994BEE83870547024E5F48&assignmentId=5e1551e9-cb48-41a3-a0af-9252d2935c51&projectId=81dd14e9-200e-48d1-afc5-b6c2b3ebd11b","B9DC5D0C7E994BEE83870547024E5F48-2025-05-15-15-38-23","","null","","images/semantic_sequence/visiting_cities_semantic/visiting_cities_semantic_0.png","null","",""
"","","","","","html-audio-response","50","558642","0.0-48.0","B9DC5D0C7E994BEE83870547024E5F48","B9DC5D0C7E994BEE83870547024E5F48","5e1551e9-cb48-41a3-a0af-9252d2935c51","81dd14e9-200e-48d1-afc5-b6c2b3ebd11b","{""part"":""2"",""participantId"":""B9DC5D0C7E994BEE83870547024E5F48"",""assignmentId"":""5e1551e9-cb48-41a3-a0af-9252d2935c51"",""projectId"":""81dd14e9-200e-48d1-afc5-b6c2b3ebd11b""}","https://test12345.live/?part=2&participantId=B9DC5D0C7E994BEE83870547024E5F48&assignmentId=5e1551e9-cb48-41a3-a0af-9252d2935c51&projectId=81dd14e9-200e-48d1-afc5-b6c2b3ebd11b","B9DC5D0C7E994BEE83870547024E5F48-2025-05-15-15-38-23","","10611","","[""<span style=\""color: red; font-size: 24px\""> NOW RECORDING</span><p>Please say out loud all the images you saw in part 1 of the experiment, as many as you can remember. The images can be said in any order.</p>""]","","1","visiting_cities_semantic"
"","","","","","image-button-response","51","564654","0.0-49.0-0.0","B9DC5D0C7E994BEE83870547024E5F48","B9DC5D0C7E994BEE83870547024E5F48","5e1551e9-cb48-41a3-a0af-9252d2935c51","81dd14e9-200e-48d1-afc5-b6c2b3ebd11b","{""part"":""2"",""participantId"":""B9DC5D0C7E994BEE83870547024E5F48"",""assignmentId"":""5e1551e9-cb48-41a3-a0af-9252d2935c51"",""projectId"":""81dd14e9-200e-48d1-afc5-b6c2b3ebd11b""}","https://test12345.live/?part=2&participantId=B9DC5D0C7E994BEE83870547024E5F48&assignmentId=5e1551e9-cb48-41a3-a0af-9252d2935c51&projectId=81dd14e9-200e-48d1-afc5-b6c2b3ebd11b","B9DC5D0C7E994BEE83870547024E5F48-2025-05-15-15-38-23","","null","","images/schematic_sequence/dinner_party_scheme/dinner_party_scheme_0.png","null","",""
"","","","","","html-audio-response","52","581613","0.0-50.0","B9DC5D0C7E994BEE83870547024E5F48","B9DC5D0C7E994BEE83870547024E5F48","5e1551e9-cb48-41a3-a0af-9252d2935c51","81dd14e9-200e-48d1-afc5-b6c2b3ebd11b","{""part"":""2"",""participantId"":""B9DC5D0C7E994BEE83870547024E5F48"",""assignmentId"":""5e1551e9-cb48-41a3-a0af-9252d2935c51"",""projectId"":""81dd14e9-200e-48d1-afc5-b6c2b3ebd11b""}","https://test12345.live/?part=2&participantId=B9DC5D0C7E994BEE83870547024E5F48&assignmentId=5e1551e9-cb48-41a3-a0af-9252d2935c51&projectId=81dd14e9-200e-48d1-afc5-b6c2b3ebd11b","B9DC5D0C7E994BEE83870547024E5F48-2025-05-15-15-38-23","","15932","","[""<span style=\""color: red; font-size: 24px\""> NOW RECORDING</span><p>Please say out loud all the images you saw in part 1 of the experiment, as many as you can remember. The images can be said in any order.</p>""]","","1","dinner_party_scheme"
"","","","","","image-button-response","53","587617","0.0-51.0-0.0","B9DC5D0C7E994BEE83870547024E5F48","B9DC5D0C7E994BEE83870547024E5F48","5e1551e9-cb48-41a3-a0af-9252d2935c51","81dd14e9-200e-48d1-afc5-b6c2b3ebd11b","{""part"":""2"",""participantId"":""B9DC5D0C7E994BEE83870547024E5F48"",""assignmentId"":""5e1551e9-cb48-41a3-a0af-9252d2935c51"",""projectId"":""81dd14e9-200e-48d1-afc5-b6c2b3ebd11b""}","https://test12345.live/?part=2&participantId=B9DC5D0C7E994BEE83870547024E5F48&assignmentId=5e1551e9-cb48-41a3-a0af-9252d2935c51&projectId=81dd14e9-200e-48d1-afc5-b6c2b3ebd11b","B9DC5D0C7E994BEE83870547024E5F48-2025-05-15-15-38-23","","null","","images/semantic_sequence/using_technology_semantic/using_technology_semantic_0.png","null","",""
"","","","","","html-audio-response","54","601714","0.0-52.0","B9DC5D0C7E994BEE83870547024E5F48","B9DC5D0C7E994BEE83870547024E5F48","5e1551e9-cb48-41a3-a0af-9252d2935c51","81dd14e9-200e-48d1-afc5-b6c2b3ebd11b","{""part"":""2"",""participantId"":""B9DC5D0C7E994BEE83870547024E5F48"",""assignmentId"":""5e1551e9-cb48-41a3-a0af-9252d2935c51"",""projectId"":""81dd14e9-200e-48d1-afc5-b6c2b3ebd11b""}","https://test12345.live/?part=2&participantId=B9DC5D0C7E994BEE83870547024E5F48&assignmentId=5e1551e9-cb48-41a3-a0af-9252d2935c51&projectId=81dd14e9-200e-48d1-afc5-b6c2b3ebd11b","B9DC5D0C7E994BEE83870547024E5F48-2025-05-15-15-38-23","","13284","","[""<span style=\""color: red; font-size: 24px\""> NOW RECORDING</span><p>Please say out loud all the images you saw in part 1 of the experiment, as many as you can remember. The images can be said in any order.</p>""]","","1","using_technology_semantic"
"","","","","","image-button-response","55","607730","0.0-53.0-0.0","B9DC5D0C7E994BEE83870547024E5F48","B9DC5D0C7E994BEE83870547024E5F48","5e1551e9-cb48-41a3-a0af-9252d2935c51","81dd14e9-200e-48d1-afc5-b6c2b3ebd11b","{""part"":""2"",""participantId"":""B9DC5D0C7E994BEE83870547024E5F48"",""assignmentId"":""5e1551e9-cb48-41a3-a0af-9252d2935c51"",""projectId"":""81dd14e9-200e-48d1-afc5-b6c2b3ebd11b""}","https://test12345.live/?part=2&participantId=B9DC5D0C7E994BEE83870547024E5F48&assignmentId=5e1551e9-cb48-41a3-a0af-9252d2935c51&projectId=81dd14e9-200e-48d1-afc5-b6c2b3ebd11b","B9DC5D0C7E994BEE83870547024E5F48-2025-05-15-15-38-23","","null","","images/causal_sequence/dog_causal/dog_causal_0.png","null","",""
"","","","","","html-audio-response","56","626279","0.0-54.0","B9DC5D0C7E994BEE83870547024E5F48","B9DC5D0C7E994BEE83870547024E5F48","5e1551e9-cb48-41a3-a0af-9252d2935c51","81dd14e9-200e-48d1-afc5-b6c2b3ebd11b","{""part"":""2"",""participantId"":""B9DC5D0C7E994BEE83870547024E5F48"",""assignmentId"":""5e1551e9-cb48-41a3-a0af-9252d2935c51"",""projectId"":""81dd14e9-200e-48d1-afc5-b6c2b3ebd11b""}","https://test12345.live/?part=2&participantId=B9DC5D0C7E994BEE83870547024E5F48&assignmentId=5e1551e9-cb48-41a3-a0af-9252d2935c51&projectId=81dd14e9-200e-48d1-afc5-b6c2b3ebd11b","B9DC5D0C7E994BEE83870547024E5F48-2025-05-15-15-38-23","","17742","","[""<span style=\""color: red; font-size: 24px\""> NOW RECORDING</span><p>Please say out loud all the images you saw in part 1 of the experiment, as many as you can remember. The images can be said in any order.</p>""]","","1","dog_causal"
"","","","","","image-button-response","57","632284","0.0-55.0-0.0","B9DC5D0C7E994BEE83870547024E5F48","B9DC5D0C7E994BEE83870547024E5F48","5e1551e9-cb48-41a3-a0af-9252d2935c51","81dd14e9-200e-48d1-afc5-b6c2b3ebd11b","{""part"":""2"",""participantId"":""B9DC5D0C7E994BEE83870547024E5F48"",""assignmentId"":""5e1551e9-cb48-41a3-a0af-9252d2935c51"",""projectId"":""81dd14e9-200e-48d1-afc5-b6c2b3ebd11b""}","https://test12345.live/?part=2&participantId=B9DC5D0C7E994BEE83870547024E5F48&assignmentId=5e1551e9-cb48-41a3-a0af-9252d2935c51&projectId=81dd14e9-200e-48d1-afc5-b6c2b3ebd11b","B9DC5D0C7E994BEE83870547024E5F48-2025-05-15-15-38-23","","null","","images/schematic_sequence/flight_scheme/flight_scheme_0.png","null","",""
"","","","","","html-audio-response","58","649446","0.0-56.0","B9DC5D0C7E994BEE83870547024E5F48","B9DC5D0C7E994BEE83870547024E5F48","5e1551e9-cb48-41a3-a0af-9252d2935c51","81dd14e9-200e-48d1-afc5-b6c2b3ebd11b","{""part"":""2"",""participantId"":""B9DC5D0C7E994BEE83870547024E5F48"",""assignmentId"":""5e1551e9-cb48-41a3-a0af-9252d2935c51"",""projectId"":""81dd14e9-200e-48d1-afc5-b6c2b3ebd11b""}","https://test12345.live/?part=2&participantId=B9DC5D0C7E994BEE83870547024E5F48&assignmentId=5e1551e9-cb48-41a3-a0af-9252d2935c51&projectId=81dd14e9-200e-48d1-afc5-b6c2b3ebd11b","B9DC5D0C7E994BEE83870547024E5F48-2025-05-15-15-38-23","","16301","","[""<span style=\""color: red; font-size: 24px\""> NOW RECORDING</span><p>Please say out loud all the images you saw in part 1 of the experiment, as many as you can remember. The images can be said in any order.</p>""]","","3","flight_scheme"
"","","","","","survey-text","59","654712","0.0-57.0","B9DC5D0C7E994BEE83870547024E5F48","B9DC5D0C7E994BEE83870547024E5F48","5e1551e9-cb48-41a3-a0af-9252d2935c51","81dd14e9-200e-48d1-afc5-b6c2b3ebd11b","{""part"":""2"",""participantId"":""B9DC5D0C7E994BEE83870547024E5F48"",""assignmentId"":""5e1551e9-cb48-41a3-a0af-9252d2935c51"",""projectId"":""81dd14e9-200e-48d1-afc5-b6c2b3ebd11b""}","https://test12345.live/?part=2&participantId=B9DC5D0C7E994BEE83870547024E5F48&assignmentId=5e1551e9-cb48-41a3-a0af-9252d2935c51&projectId=81dd14e9-200e-48d1-afc5-b6c2b3ebd11b","B9DC5D0C7E994BEE83870547024E5F48-2025-05-15-15-38-23","","5262","","","{""Q0"":""Male"",""Q1"":""24""}","",""
"","","","","","instructions","60","657138","0.0-58.0","B9DC5D0C7E994BEE83870547024E5F48","B9DC5D0C7E994BEE83870547024E5F48","5e1551e9-cb48-41a3-a0af-9252d2935c51","81dd14e9-200e-48d1-afc5-b6c2b3ebd11b","{""part"":""2"",""participantId"":""B9DC5D0C7E994BEE83870547024E5F48"",""assignmentId"":""5e1551e9-cb48-41a3-a0af-9252d2935c51"",""projectId"":""81dd14e9-200e-48d1-afc5-b6c2b3ebd11b""}","https://test12345.live/?part=2&participantId=B9DC5D0C7E994BEE83870547024E5F48&assignmentId=5e1551e9-cb48-41a3-a0af-9252d2935c51&projectId=81dd14e9-200e-48d1-afc5-b6c2b3ebd11b","B9DC5D0C7E994BEE83870547024E5F48-2025-05-15-15-38-23","[{""page_index"":0,""viewing_time"":2426}]","2426","","","","",""
"","","","","","survey-text","61","659028","0.0-59.0","B9DC5D0C7E994BEE83870547024E5F48","B9DC5D0C7E994BEE83870547024E5F48","5e1551e9-cb48-41a3-a0af-9252d2935c51","81dd14e9-200e-48d1-afc5-b6c2b3ebd11b","{""part"":""2"",""participantId"":""B9DC5D0C7E994BEE83870547024E5F48"",""assignmentId"":""5e1551e9-cb48-41a3-a0af-9252d2935c51"",""projectId"":""81dd14e9-200e-48d1-afc5-b6c2b3ebd11b""}","https://test12345.live/?part=2&participantId=B9DC5D0C7E994BEE83870547024E5F48&assignmentId=5e1551e9-cb48-41a3-a0af-9252d2935c51&projectId=81dd14e9-200e-48d1-afc5-b6c2b3ebd11b","B9DC5D0C7E994BEE83870547024E5F48-2025-05-15-15-38-23","","1889","","","{""Q0"":""AJFHBG896""}","",""
