"success","timeout","failed_images","failed_audio","failed_video","trial_type","trial_index","time_elapsed","internal_node_id","subject","subject_id","study_id","session_id","urlvar","current_url","audio_id","view_history","rt","device_id","stimulus","response","estimated_stimulus_onset","seq_name"
"true","false","[]","[]","[]","preload","0","15609","0.0-0.0","BCF1104BBF8B4C4A8EE80B9D598175B0","BCF1104BBF8B4C4A8EE80B9D598175B0","a2943aac-3781-4d5b-931e-77a6e548d61b","e9cc2542-c7dc-4d8f-b94f-d088ad8989d1","{""part"":""2"",""participantId"":""BCF1104BBF8B4C4A8EE80B9D598175B0"",""assignmentId"":""a2943aac-3781-4d5b-931e-77a6e548d61b"",""projectId"":""e9cc2542-c7dc-4d8f-b94f-d088ad8989d1""}","https://test12345.live/?part=2&participantId=BCF1104BBF8B4C4A8EE80B9D598175B0&assignmentId=a2943aac-3781-4d5b-931e-77a6e548d61b&projectId=e9cc2542-c7dc-4d8f-b94f-d088ad8989d1","BCF1104BBF8B4C4A8EE80B9D598175B0-2025-05-16-18-21-23","","","","","","",""
"","","","","","instructions","1","29964","0.0-1.0","BCF1104BBF8B4C4A8EE80B9D598175B0","BCF1104BBF8B4C4A8EE80B9D598175B0","a2943aac-3781-4d5b-931e-77a6e548d61b","e9cc2542-c7dc-4d8f-b94f-d088ad8989d1","{""part"":""2"",""participantId"":""BCF1104BBF8B4C4A8EE80B9D598175B0"",""assignmentId"":""a2943aac-3781-4d5b-931e-77a6e548d61b"",""projectId"":""e9cc2542-c7dc-4d8f-b94f-d088ad8989d1""}","https://test12345.live/?part=2&participantId=BCF1104BBF8B4C4A8EE80B9D598175B0&assignmentId=a2943aac-3781-4d5b-931e-77a6e548d61b&projectId=e9cc2542-c7dc-4d8f-b94f-d088ad8989d1","BCF1104BBF8B4C4A8EE80B9D598175B0-2025-05-16-18-21-23","[{""page_index"":0,""viewing_time"":14355}]","14355","","","","",""
"","","","","","instructions","2","36955","0.0-2.0","BCF1104BBF8B4C4A8EE80B9D598175B0","BCF1104BBF8B4C4A8EE80B9D598175B0","a2943aac-3781-4d5b-931e-77a6e548d61b","e9cc2542-c7dc-4d8f-b94f-d088ad8989d1","{""part"":""2"",""participantId"":""BCF1104BBF8B4C4A8EE80B9D598175B0"",""assignmentId"":""a2943aac-3781-4d5b-931e-77a6e548d61b"",""projectId"":""e9cc2542-c7dc-4d8f-b94f-d088ad8989d1""}","https://test12345.live/?part=2&participantId=BCF1104BBF8B4C4A8EE80B9D598175B0&assignmentId=a2943aac-3781-4d5b-931e-77a6e548d61b&projectId=e9cc2542-c7dc-4d8f-b94f-d088ad8989d1","BCF1104BBF8B4C4A8EE80B9D598175B0-2025-05-16-18-21-23","[{""page_index"":0,""viewing_time"":6989}]","6990","","","","",""
"true","","","","","fullscreen","3","42692","0.0-3.0","BCF1104BBF8B4C4A8EE80B9D598175B0","BCF1104BBF8B4C4A8EE80B9D598175B0","a2943aac-3781-4d5b-931e-77a6e548d61b","e9cc2542-c7dc-4d8f-b94f-d088ad8989d1","{""part"":""2"",""participantId"":""BCF1104BBF8B4C4A8EE80B9D598175B0"",""assignmentId"":""a2943aac-3781-4d5b-931e-77a6e548d61b"",""projectId"":""e9cc2542-c7dc-4d8f-b94f-d088ad8989d1""}","https://test12345.live/?part=2&participantId=BCF1104BBF8B4C4A8EE80B9D598175B0&assignmentId=a2943aac-3781-4d5b-931e-77a6e548d61b&projectId=e9cc2542-c7dc-4d8f-b94f-d088ad8989d1","BCF1104BBF8B4C4A8EE80B9D598175B0-2025-05-16-18-21-23","","4727","","","","",""
"","","","","","initialize-microphone","4","53587","0.0-4.0-0.0","BCF1104BBF8B4C4A8EE80B9D598175B0","BCF1104BBF8B4C4A8EE80B9D598175B0","a2943aac-3781-4d5b-931e-77a6e548d61b","e9cc2542-c7dc-4d8f-b94f-d088ad8989d1","{""part"":""2"",""participantId"":""BCF1104BBF8B4C4A8EE80B9D598175B0"",""assignmentId"":""a2943aac-3781-4d5b-931e-77a6e548d61b"",""projectId"":""e9cc2542-c7dc-4d8f-b94f-d088ad8989d1""}","https://test12345.live/?part=2&participantId=BCF1104BBF8B4C4A8EE80B9D598175B0&assignmentId=a2943aac-3781-4d5b-931e-77a6e548d61b&projectId=e9cc2542-c7dc-4d8f-b94f-d088ad8989d1","BCF1104BBF8B4C4A8EE80B9D598175B0-2025-05-16-18-21-23","","","d904e1ca6ea3911bd0a7d57e2ea03d62338eef7503a61769ed0818f18896e380","","","",""
"","","","","","html-audio-response","5","103729","0.0-4.0-1.0","BCF1104BBF8B4C4A8EE80B9D598175B0","BCF1104BBF8B4C4A8EE80B9D598175B0","a2943aac-3781-4d5b-931e-77a6e548d61b","e9cc2542-c7dc-4d8f-b94f-d088ad8989d1","{""part"":""2"",""participantId"":""BCF1104BBF8B4C4A8EE80B9D598175B0"",""assignmentId"":""a2943aac-3781-4d5b-931e-77a6e548d61b"",""projectId"":""e9cc2542-c7dc-4d8f-b94f-d088ad8989d1""}","https://test12345.live/?part=2&participantId=BCF1104BBF8B4C4A8EE80B9D598175B0&assignmentId=a2943aac-3781-4d5b-931e-77a6e548d61b&projectId=e9cc2542-c7dc-4d8f-b94f-d088ad8989d1","BCF1104BBF8B4C4A8EE80B9D598175B0-2025-05-16-18-21-23","","4562","","<span style=""color: red; font-size: 24px""> NOW RECORDING</span>
        <p>Please test Microphone</p>","","12",""
"","","","","","html-button-response","6","105235","0.0-4.0-2.0","BCF1104BBF8B4C4A8EE80B9D598175B0","BCF1104BBF8B4C4A8EE80B9D598175B0","a2943aac-3781-4d5b-931e-77a6e548d61b","e9cc2542-c7dc-4d8f-b94f-d088ad8989d1","{""part"":""2"",""participantId"":""BCF1104BBF8B4C4A8EE80B9D598175B0"",""assignmentId"":""a2943aac-3781-4d5b-931e-77a6e548d61b"",""projectId"":""e9cc2542-c7dc-4d8f-b94f-d088ad8989d1""}","https://test12345.live/?part=2&participantId=BCF1104BBF8B4C4A8EE80B9D598175B0&assignmentId=a2943aac-3781-4d5b-931e-77a6e548d61b&projectId=e9cc2542-c7dc-4d8f-b94f-d088ad8989d1","BCF1104BBF8B4C4A8EE80B9D598175B0-2025-05-16-18-21-23","","1505","","<p style=""font-size:48px; color:red;"">Is Microphone OK?</p>","1","",""
"","","","","","instructions","7","115788","0.0-5.0","BCF1104BBF8B4C4A8EE80B9D598175B0","BCF1104BBF8B4C4A8EE80B9D598175B0","a2943aac-3781-4d5b-931e-77a6e548d61b","e9cc2542-c7dc-4d8f-b94f-d088ad8989d1","{""part"":""2"",""participantId"":""BCF1104BBF8B4C4A8EE80B9D598175B0"",""assignmentId"":""a2943aac-3781-4d5b-931e-77a6e548d61b"",""projectId"":""e9cc2542-c7dc-4d8f-b94f-d088ad8989d1""}","https://test12345.live/?part=2&participantId=BCF1104BBF8B4C4A8EE80B9D598175B0&assignmentId=a2943aac-3781-4d5b-931e-77a6e548d61b&projectId=e9cc2542-c7dc-4d8f-b94f-d088ad8989d1","BCF1104BBF8B4C4A8EE80B9D598175B0-2025-05-16-18-21-23","[{""page_index"":0,""viewing_time"":1011},{""page_index"":1,""viewing_time"":5275},{""page_index"":2,""viewing_time"":4265}]","10552","","","","",""
"","","","","","image-button-response","8","121806","0.0-6.0-0.0","BCF1104BBF8B4C4A8EE80B9D598175B0","BCF1104BBF8B4C4A8EE80B9D598175B0","a2943aac-3781-4d5b-931e-77a6e548d61b","e9cc2542-c7dc-4d8f-b94f-d088ad8989d1","{""part"":""2"",""participantId"":""BCF1104BBF8B4C4A8EE80B9D598175B0"",""assignmentId"":""a2943aac-3781-4d5b-931e-77a6e548d61b"",""projectId"":""e9cc2542-c7dc-4d8f-b94f-d088ad8989d1""}","https://test12345.live/?part=2&participantId=BCF1104BBF8B4C4A8EE80B9D598175B0&assignmentId=a2943aac-3781-4d5b-931e-77a6e548d61b&projectId=e9cc2542-c7dc-4d8f-b94f-d088ad8989d1","BCF1104BBF8B4C4A8EE80B9D598175B0-2025-05-16-18-21-23","","null","","images/instructions/movie_0.png","null","",""
"","","","","","html-audio-response","9","154867","0.0-7.0","BCF1104BBF8B4C4A8EE80B9D598175B0","BCF1104BBF8B4C4A8EE80B9D598175B0","a2943aac-3781-4d5b-931e-77a6e548d61b","e9cc2542-c7dc-4d8f-b94f-d088ad8989d1","{""part"":""2"",""participantId"":""BCF1104BBF8B4C4A8EE80B9D598175B0"",""assignmentId"":""a2943aac-3781-4d5b-931e-77a6e548d61b"",""projectId"":""e9cc2542-c7dc-4d8f-b94f-d088ad8989d1""}","https://test12345.live/?part=2&participantId=BCF1104BBF8B4C4A8EE80B9D598175B0&assignmentId=a2943aac-3781-4d5b-931e-77a6e548d61b&projectId=e9cc2542-c7dc-4d8f-b94f-d088ad8989d1","BCF1104BBF8B4C4A8EE80B9D598175B0-2025-05-16-18-21-23","","14838","","[""<span style=\""color: red; font-size: 24px\""> NOW RECORDING</span><p>Please say out loud all the images you saw in part 1 of the experiment, as many as you can remember. The images can be said in any order.</p>""]","","6",""
"","","","","","instructions","10","155681","0.0-8.0","BCF1104BBF8B4C4A8EE80B9D598175B0","BCF1104BBF8B4C4A8EE80B9D598175B0","a2943aac-3781-4d5b-931e-77a6e548d61b","e9cc2542-c7dc-4d8f-b94f-d088ad8989d1","{""part"":""2"",""participantId"":""BCF1104BBF8B4C4A8EE80B9D598175B0"",""assignmentId"":""a2943aac-3781-4d5b-931e-77a6e548d61b"",""projectId"":""e9cc2542-c7dc-4d8f-b94f-d088ad8989d1""}","https://test12345.live/?part=2&participantId=BCF1104BBF8B4C4A8EE80B9D598175B0&assignmentId=a2943aac-3781-4d5b-931e-77a6e548d61b&projectId=e9cc2542-c7dc-4d8f-b94f-d088ad8989d1","BCF1104BBF8B4C4A8EE80B9D598175B0-2025-05-16-18-21-23","[{""page_index"":0,""viewing_time"":807}]","808","","","","",""
"","","","","","image-button-response","11","161712","0.0-9.0-0.0","BCF1104BBF8B4C4A8EE80B9D598175B0","BCF1104BBF8B4C4A8EE80B9D598175B0","a2943aac-3781-4d5b-931e-77a6e548d61b","e9cc2542-c7dc-4d8f-b94f-d088ad8989d1","{""part"":""2"",""participantId"":""BCF1104BBF8B4C4A8EE80B9D598175B0"",""assignmentId"":""a2943aac-3781-4d5b-931e-77a6e548d61b"",""projectId"":""e9cc2542-c7dc-4d8f-b94f-d088ad8989d1""}","https://test12345.live/?part=2&participantId=BCF1104BBF8B4C4A8EE80B9D598175B0&assignmentId=a2943aac-3781-4d5b-931e-77a6e548d61b&projectId=e9cc2542-c7dc-4d8f-b94f-d088ad8989d1","BCF1104BBF8B4C4A8EE80B9D598175B0-2025-05-16-18-21-23","","null","","images/semantic_sequence/redecorating_semantic/redecorating_semantic_0.png","null","",""
"","","","","","html-audio-response","12","176176","0.0-10.0","BCF1104BBF8B4C4A8EE80B9D598175B0","BCF1104BBF8B4C4A8EE80B9D598175B0","a2943aac-3781-4d5b-931e-77a6e548d61b","e9cc2542-c7dc-4d8f-b94f-d088ad8989d1","{""part"":""2"",""participantId"":""BCF1104BBF8B4C4A8EE80B9D598175B0"",""assignmentId"":""a2943aac-3781-4d5b-931e-77a6e548d61b"",""projectId"":""e9cc2542-c7dc-4d8f-b94f-d088ad8989d1""}","https://test12345.live/?part=2&participantId=BCF1104BBF8B4C4A8EE80B9D598175B0&assignmentId=a2943aac-3781-4d5b-931e-77a6e548d61b&projectId=e9cc2542-c7dc-4d8f-b94f-d088ad8989d1","BCF1104BBF8B4C4A8EE80B9D598175B0-2025-05-16-18-21-23","","8911","","[""<span style=\""color: red; font-size: 24px\""> NOW RECORDING</span><p>Please say out loud all the images you saw in part 1 of the experiment, as many as you can remember. The images can be said in any order.</p>""]","","2","redecorating_semantic"
"","","","","","image-button-response","13","182196","0.0-11.0-0.0","BCF1104BBF8B4C4A8EE80B9D598175B0","BCF1104BBF8B4C4A8EE80B9D598175B0","a2943aac-3781-4d5b-931e-77a6e548d61b","e9cc2542-c7dc-4d8f-b94f-d088ad8989d1","{""part"":""2"",""participantId"":""BCF1104BBF8B4C4A8EE80B9D598175B0"",""assignmentId"":""a2943aac-3781-4d5b-931e-77a6e548d61b"",""projectId"":""e9cc2542-c7dc-4d8f-b94f-d088ad8989d1""}","https://test12345.live/?part=2&participantId=BCF1104BBF8B4C4A8EE80B9D598175B0&assignmentId=a2943aac-3781-4d5b-931e-77a6e548d61b&projectId=e9cc2542-c7dc-4d8f-b94f-d088ad8989d1","BCF1104BBF8B4C4A8EE80B9D598175B0-2025-05-16-18-21-23","","null","","images/schematic_sequence/dinner_party_scheme/dinner_party_scheme_0.png","null","",""
"","","","","","html-audio-response","14","201173","0.0-12.0","BCF1104BBF8B4C4A8EE80B9D598175B0","BCF1104BBF8B4C4A8EE80B9D598175B0","a2943aac-3781-4d5b-931e-77a6e548d61b","e9cc2542-c7dc-4d8f-b94f-d088ad8989d1","{""part"":""2"",""participantId"":""BCF1104BBF8B4C4A8EE80B9D598175B0"",""assignmentId"":""a2943aac-3781-4d5b-931e-77a6e548d61b"",""projectId"":""e9cc2542-c7dc-4d8f-b94f-d088ad8989d1""}","https://test12345.live/?part=2&participantId=BCF1104BBF8B4C4A8EE80B9D598175B0&assignmentId=a2943aac-3781-4d5b-931e-77a6e548d61b&projectId=e9cc2542-c7dc-4d8f-b94f-d088ad8989d1","BCF1104BBF8B4C4A8EE80B9D598175B0-2025-05-16-18-21-23","","15372","","[""<span style=\""color: red; font-size: 24px\""> NOW RECORDING</span><p>Please say out loud all the images you saw in part 1 of the experiment, as many as you can remember. The images can be said in any order.</p>""]","","7","dinner_party_scheme"
"","","","","","image-button-response","15","207184","0.0-13.0-0.0","BCF1104BBF8B4C4A8EE80B9D598175B0","BCF1104BBF8B4C4A8EE80B9D598175B0","a2943aac-3781-4d5b-931e-77a6e548d61b","e9cc2542-c7dc-4d8f-b94f-d088ad8989d1","{""part"":""2"",""participantId"":""BCF1104BBF8B4C4A8EE80B9D598175B0"",""assignmentId"":""a2943aac-3781-4d5b-931e-77a6e548d61b"",""projectId"":""e9cc2542-c7dc-4d8f-b94f-d088ad8989d1""}","https://test12345.live/?part=2&participantId=BCF1104BBF8B4C4A8EE80B9D598175B0&assignmentId=a2943aac-3781-4d5b-931e-77a6e548d61b&projectId=e9cc2542-c7dc-4d8f-b94f-d088ad8989d1","BCF1104BBF8B4C4A8EE80B9D598175B0-2025-05-16-18-21-23","","null","","images/semantic_sequence/visiting_cities_semantic/visiting_cities_semantic_0.png","null","",""
"","","","","","html-audio-response","16","247967","0.0-14.0","BCF1104BBF8B4C4A8EE80B9D598175B0","BCF1104BBF8B4C4A8EE80B9D598175B0","a2943aac-3781-4d5b-931e-77a6e548d61b","e9cc2542-c7dc-4d8f-b94f-d088ad8989d1","{""part"":""2"",""participantId"":""BCF1104BBF8B4C4A8EE80B9D598175B0"",""assignmentId"":""a2943aac-3781-4d5b-931e-77a6e548d61b"",""projectId"":""e9cc2542-c7dc-4d8f-b94f-d088ad8989d1""}","https://test12345.live/?part=2&participantId=BCF1104BBF8B4C4A8EE80B9D598175B0&assignmentId=a2943aac-3781-4d5b-931e-77a6e548d61b&projectId=e9cc2542-c7dc-4d8f-b94f-d088ad8989d1","BCF1104BBF8B4C4A8EE80B9D598175B0-2025-05-16-18-21-23","","31812","","[""<span style=\""color: red; font-size: 24px\""> NOW RECORDING</span><p>Please say out loud all the images you saw in part 1 of the experiment, as many as you can remember. The images can be said in any order.</p>""]","","15","visiting_cities_semantic"
"","","","","","image-button-response","17","253994","0.0-15.0-0.0","BCF1104BBF8B4C4A8EE80B9D598175B0","BCF1104BBF8B4C4A8EE80B9D598175B0","a2943aac-3781-4d5b-931e-77a6e548d61b","e9cc2542-c7dc-4d8f-b94f-d088ad8989d1","{""part"":""2"",""participantId"":""BCF1104BBF8B4C4A8EE80B9D598175B0"",""assignmentId"":""a2943aac-3781-4d5b-931e-77a6e548d61b"",""projectId"":""e9cc2542-c7dc-4d8f-b94f-d088ad8989d1""}","https://test12345.live/?part=2&participantId=BCF1104BBF8B4C4A8EE80B9D598175B0&assignmentId=a2943aac-3781-4d5b-931e-77a6e548d61b&projectId=e9cc2542-c7dc-4d8f-b94f-d088ad8989d1","BCF1104BBF8B4C4A8EE80B9D598175B0-2025-05-16-18-21-23","","null","","images/semantic_sequence/using_technology_semantic/using_technology_semantic_0.png","null","",""
"","","","","","html-audio-response","18","285859","0.0-16.0","BCF1104BBF8B4C4A8EE80B9D598175B0","BCF1104BBF8B4C4A8EE80B9D598175B0","a2943aac-3781-4d5b-931e-77a6e548d61b","e9cc2542-c7dc-4d8f-b94f-d088ad8989d1","{""part"":""2"",""participantId"":""BCF1104BBF8B4C4A8EE80B9D598175B0"",""assignmentId"":""a2943aac-3781-4d5b-931e-77a6e548d61b"",""projectId"":""e9cc2542-c7dc-4d8f-b94f-d088ad8989d1""}","https://test12345.live/?part=2&participantId=BCF1104BBF8B4C4A8EE80B9D598175B0&assignmentId=a2943aac-3781-4d5b-931e-77a6e548d61b&projectId=e9cc2542-c7dc-4d8f-b94f-d088ad8989d1","BCF1104BBF8B4C4A8EE80B9D598175B0-2025-05-16-18-21-23","","16048","","[""<span style=\""color: red; font-size: 24px\""> NOW RECORDING</span><p>Please say out loud all the images you saw in part 1 of the experiment, as many as you can remember. The images can be said in any order.</p>""]","","6","using_technology_semantic"
"","","","","","image-button-response","19","291890","0.0-17.0-0.0","BCF1104BBF8B4C4A8EE80B9D598175B0","BCF1104BBF8B4C4A8EE80B9D598175B0","a2943aac-3781-4d5b-931e-77a6e548d61b","e9cc2542-c7dc-4d8f-b94f-d088ad8989d1","{""part"":""2"",""participantId"":""BCF1104BBF8B4C4A8EE80B9D598175B0"",""assignmentId"":""a2943aac-3781-4d5b-931e-77a6e548d61b"",""projectId"":""e9cc2542-c7dc-4d8f-b94f-d088ad8989d1""}","https://test12345.live/?part=2&participantId=BCF1104BBF8B4C4A8EE80B9D598175B0&assignmentId=a2943aac-3781-4d5b-931e-77a6e548d61b&projectId=e9cc2542-c7dc-4d8f-b94f-d088ad8989d1","BCF1104BBF8B4C4A8EE80B9D598175B0-2025-05-16-18-21-23","","null","","images/schematic_sequence/flight_scheme/flight_scheme_0.png","null","",""
"","","","","","html-audio-response","20","335713","0.0-18.0","BCF1104BBF8B4C4A8EE80B9D598175B0","BCF1104BBF8B4C4A8EE80B9D598175B0","a2943aac-3781-4d5b-931e-77a6e548d61b","e9cc2542-c7dc-4d8f-b94f-d088ad8989d1","{""part"":""2"",""participantId"":""BCF1104BBF8B4C4A8EE80B9D598175B0"",""assignmentId"":""a2943aac-3781-4d5b-931e-77a6e548d61b"",""projectId"":""e9cc2542-c7dc-4d8f-b94f-d088ad8989d1""}","https://test12345.live/?part=2&participantId=BCF1104BBF8B4C4A8EE80B9D598175B0&assignmentId=a2943aac-3781-4d5b-931e-77a6e548d61b&projectId=e9cc2542-c7dc-4d8f-b94f-d088ad8989d1","BCF1104BBF8B4C4A8EE80B9D598175B0-2025-05-16-18-21-23","","20353","","[""<span style=\""color: red; font-size: 24px\""> NOW RECORDING</span><p>Please say out loud all the images you saw in part 1 of the experiment, as many as you can remember. The images can be said in any order.</p>""]","","12","flight_scheme"
"","","","","","image-button-response","21","341724","0.0-19.0-0.0","BCF1104BBF8B4C4A8EE80B9D598175B0","BCF1104BBF8B4C4A8EE80B9D598175B0","a2943aac-3781-4d5b-931e-77a6e548d61b","e9cc2542-c7dc-4d8f-b94f-d088ad8989d1","{""part"":""2"",""participantId"":""BCF1104BBF8B4C4A8EE80B9D598175B0"",""assignmentId"":""a2943aac-3781-4d5b-931e-77a6e548d61b"",""projectId"":""e9cc2542-c7dc-4d8f-b94f-d088ad8989d1""}","https://test12345.live/?part=2&participantId=BCF1104BBF8B4C4A8EE80B9D598175B0&assignmentId=a2943aac-3781-4d5b-931e-77a6e548d61b&projectId=e9cc2542-c7dc-4d8f-b94f-d088ad8989d1","BCF1104BBF8B4C4A8EE80B9D598175B0-2025-05-16-18-21-23","","null","","images/causal_sequence/package_causal/package_causal_0.png","null","",""
"","","","","","html-audio-response","22","408138","0.0-20.0","BCF1104BBF8B4C4A8EE80B9D598175B0","BCF1104BBF8B4C4A8EE80B9D598175B0","a2943aac-3781-4d5b-931e-77a6e548d61b","e9cc2542-c7dc-4d8f-b94f-d088ad8989d1","{""part"":""2"",""participantId"":""BCF1104BBF8B4C4A8EE80B9D598175B0"",""assignmentId"":""a2943aac-3781-4d5b-931e-77a6e548d61b"",""projectId"":""e9cc2542-c7dc-4d8f-b94f-d088ad8989d1""}","https://test12345.live/?part=2&participantId=BCF1104BBF8B4C4A8EE80B9D598175B0&assignmentId=a2943aac-3781-4d5b-931e-77a6e548d61b&projectId=e9cc2542-c7dc-4d8f-b94f-d088ad8989d1","BCF1104BBF8B4C4A8EE80B9D598175B0-2025-05-16-18-21-23","","32172","","[""<span style=\""color: red; font-size: 24px\""> NOW RECORDING</span><p>Please say out loud all the images you saw in part 1 of the experiment, as many as you can remember. The images can be said in any order.</p>""]","","6","package_causal"
"","","","","","image-button-response","23","414152","0.0-21.0-0.0","BCF1104BBF8B4C4A8EE80B9D598175B0","BCF1104BBF8B4C4A8EE80B9D598175B0","a2943aac-3781-4d5b-931e-77a6e548d61b","e9cc2542-c7dc-4d8f-b94f-d088ad8989d1","{""part"":""2"",""participantId"":""BCF1104BBF8B4C4A8EE80B9D598175B0"",""assignmentId"":""a2943aac-3781-4d5b-931e-77a6e548d61b"",""projectId"":""e9cc2542-c7dc-4d8f-b94f-d088ad8989d1""}","https://test12345.live/?part=2&participantId=BCF1104BBF8B4C4A8EE80B9D598175B0&assignmentId=a2943aac-3781-4d5b-931e-77a6e548d61b&projectId=e9cc2542-c7dc-4d8f-b94f-d088ad8989d1","BCF1104BBF8B4C4A8EE80B9D598175B0-2025-05-16-18-21-23","","null","","images/causal_sequence/saving_a_cat_causal/saving_a_cat_causal_0.png","null","",""
"","","","","","html-audio-response","24","447853","0.0-22.0","BCF1104BBF8B4C4A8EE80B9D598175B0","BCF1104BBF8B4C4A8EE80B9D598175B0","a2943aac-3781-4d5b-931e-77a6e548d61b","e9cc2542-c7dc-4d8f-b94f-d088ad8989d1","{""part"":""2"",""participantId"":""BCF1104BBF8B4C4A8EE80B9D598175B0"",""assignmentId"":""a2943aac-3781-4d5b-931e-77a6e548d61b"",""projectId"":""e9cc2542-c7dc-4d8f-b94f-d088ad8989d1""}","https://test12345.live/?part=2&participantId=BCF1104BBF8B4C4A8EE80B9D598175B0&assignmentId=a2943aac-3781-4d5b-931e-77a6e548d61b&projectId=e9cc2542-c7dc-4d8f-b94f-d088ad8989d1","BCF1104BBF8B4C4A8EE80B9D598175B0-2025-05-16-18-21-23","","20838","","[""<span style=\""color: red; font-size: 24px\""> NOW RECORDING</span><p>Please say out loud all the images you saw in part 1 of the experiment, as many as you can remember. The images can be said in any order.</p>""]","","4","saving_a_cat_causal"
"","","","","","image-button-response","25","453866","0.0-23.0-0.0","BCF1104BBF8B4C4A8EE80B9D598175B0","BCF1104BBF8B4C4A8EE80B9D598175B0","a2943aac-3781-4d5b-931e-77a6e548d61b","e9cc2542-c7dc-4d8f-b94f-d088ad8989d1","{""part"":""2"",""participantId"":""BCF1104BBF8B4C4A8EE80B9D598175B0"",""assignmentId"":""a2943aac-3781-4d5b-931e-77a6e548d61b"",""projectId"":""e9cc2542-c7dc-4d8f-b94f-d088ad8989d1""}","https://test12345.live/?part=2&participantId=BCF1104BBF8B4C4A8EE80B9D598175B0&assignmentId=a2943aac-3781-4d5b-931e-77a6e548d61b&projectId=e9cc2542-c7dc-4d8f-b94f-d088ad8989d1","BCF1104BBF8B4C4A8EE80B9D598175B0-2025-05-16-18-21-23","","null","","images/causal_sequence/museum_causal/museum_causal_0.png","null","",""
"","","","","","html-audio-response","26","504402","0.0-24.0","BCF1104BBF8B4C4A8EE80B9D598175B0","BCF1104BBF8B4C4A8EE80B9D598175B0","a2943aac-3781-4d5b-931e-77a6e548d61b","e9cc2542-c7dc-4d8f-b94f-d088ad8989d1","{""part"":""2"",""participantId"":""BCF1104BBF8B4C4A8EE80B9D598175B0"",""assignmentId"":""a2943aac-3781-4d5b-931e-77a6e548d61b"",""projectId"":""e9cc2542-c7dc-4d8f-b94f-d088ad8989d1""}","https://test12345.live/?part=2&participantId=BCF1104BBF8B4C4A8EE80B9D598175B0&assignmentId=a2943aac-3781-4d5b-931e-77a6e548d61b&projectId=e9cc2542-c7dc-4d8f-b94f-d088ad8989d1","BCF1104BBF8B4C4A8EE80B9D598175B0-2025-05-16-18-21-23","","23914","","[""<span style=\""color: red; font-size: 24px\""> NOW RECORDING</span><p>Please say out loud all the images you saw in part 1 of the experiment, as many as you can remember. The images can be said in any order.</p>""]","","11","museum_causal"
"","","","","","image-button-response","27","510426","0.0-25.0-0.0","BCF1104BBF8B4C4A8EE80B9D598175B0","BCF1104BBF8B4C4A8EE80B9D598175B0","a2943aac-3781-4d5b-931e-77a6e548d61b","e9cc2542-c7dc-4d8f-b94f-d088ad8989d1","{""part"":""2"",""participantId"":""BCF1104BBF8B4C4A8EE80B9D598175B0"",""assignmentId"":""a2943aac-3781-4d5b-931e-77a6e548d61b"",""projectId"":""e9cc2542-c7dc-4d8f-b94f-d088ad8989d1""}","https://test12345.live/?part=2&participantId=BCF1104BBF8B4C4A8EE80B9D598175B0&assignmentId=a2943aac-3781-4d5b-931e-77a6e548d61b&projectId=e9cc2542-c7dc-4d8f-b94f-d088ad8989d1","BCF1104BBF8B4C4A8EE80B9D598175B0-2025-05-16-18-21-23","","null","","images/semantic_sequence/exploring_nature_semantic/exploring_nature_semantic_0.png","null","",""
"","","","","","html-audio-response","28","536722","0.0-26.0","BCF1104BBF8B4C4A8EE80B9D598175B0","BCF1104BBF8B4C4A8EE80B9D598175B0","a2943aac-3781-4d5b-931e-77a6e548d61b","e9cc2542-c7dc-4d8f-b94f-d088ad8989d1","{""part"":""2"",""participantId"":""BCF1104BBF8B4C4A8EE80B9D598175B0"",""assignmentId"":""a2943aac-3781-4d5b-931e-77a6e548d61b"",""projectId"":""e9cc2542-c7dc-4d8f-b94f-d088ad8989d1""}","https://test12345.live/?part=2&participantId=BCF1104BBF8B4C4A8EE80B9D598175B0&assignmentId=a2943aac-3781-4d5b-931e-77a6e548d61b&projectId=e9cc2542-c7dc-4d8f-b94f-d088ad8989d1","BCF1104BBF8B4C4A8EE80B9D598175B0-2025-05-16-18-21-23","","15086","","[""<span style=\""color: red; font-size: 24px\""> NOW RECORDING</span><p>Please say out loud all the images you saw in part 1 of the experiment, as many as you can remember. The images can be said in any order.</p>""]","","17","exploring_nature_semantic"
"","","","","","image-button-response","29","542731","0.0-27.0-0.0","BCF1104BBF8B4C4A8EE80B9D598175B0","BCF1104BBF8B4C4A8EE80B9D598175B0","a2943aac-3781-4d5b-931e-77a6e548d61b","e9cc2542-c7dc-4d8f-b94f-d088ad8989d1","{""part"":""2"",""participantId"":""BCF1104BBF8B4C4A8EE80B9D598175B0"",""assignmentId"":""a2943aac-3781-4d5b-931e-77a6e548d61b"",""projectId"":""e9cc2542-c7dc-4d8f-b94f-d088ad8989d1""}","https://test12345.live/?part=2&participantId=BCF1104BBF8B4C4A8EE80B9D598175B0&assignmentId=a2943aac-3781-4d5b-931e-77a6e548d61b&projectId=e9cc2542-c7dc-4d8f-b94f-d088ad8989d1","BCF1104BBF8B4C4A8EE80B9D598175B0-2025-05-16-18-21-23","","null","","images/causal_sequence/coin_causal/coin_causal_0.png","null","",""
"","","","","","html-audio-response","30","594091","0.0-28.0","BCF1104BBF8B4C4A8EE80B9D598175B0","BCF1104BBF8B4C4A8EE80B9D598175B0","a2943aac-3781-4d5b-931e-77a6e548d61b","e9cc2542-c7dc-4d8f-b94f-d088ad8989d1","{""part"":""2"",""participantId"":""BCF1104BBF8B4C4A8EE80B9D598175B0"",""assignmentId"":""a2943aac-3781-4d5b-931e-77a6e548d61b"",""projectId"":""e9cc2542-c7dc-4d8f-b94f-d088ad8989d1""}","https://test12345.live/?part=2&participantId=BCF1104BBF8B4C4A8EE80B9D598175B0&assignmentId=a2943aac-3781-4d5b-931e-77a6e548d61b&projectId=e9cc2542-c7dc-4d8f-b94f-d088ad8989d1","BCF1104BBF8B4C4A8EE80B9D598175B0-2025-05-16-18-21-23","","24916","","[""<span style=\""color: red; font-size: 24px\""> NOW RECORDING</span><p>Please say out loud all the images you saw in part 1 of the experiment, as many as you can remember. The images can be said in any order.</p>""]","","17","coin_causal"
"","","","","","image-button-response","31","600106","0.0-29.0-0.0","BCF1104BBF8B4C4A8EE80B9D598175B0","BCF1104BBF8B4C4A8EE80B9D598175B0","a2943aac-3781-4d5b-931e-77a6e548d61b","e9cc2542-c7dc-4d8f-b94f-d088ad8989d1","{""part"":""2"",""participantId"":""BCF1104BBF8B4C4A8EE80B9D598175B0"",""assignmentId"":""a2943aac-3781-4d5b-931e-77a6e548d61b"",""projectId"":""e9cc2542-c7dc-4d8f-b94f-d088ad8989d1""}","https://test12345.live/?part=2&participantId=BCF1104BBF8B4C4A8EE80B9D598175B0&assignmentId=a2943aac-3781-4d5b-931e-77a6e548d61b&projectId=e9cc2542-c7dc-4d8f-b94f-d088ad8989d1","BCF1104BBF8B4C4A8EE80B9D598175B0-2025-05-16-18-21-23","","null","","images/semantic_sequence/cat_care_semantic/cat_care_semantic_0.png","null","",""
"","","","","","html-audio-response","32","627872","0.0-30.0","BCF1104BBF8B4C4A8EE80B9D598175B0","BCF1104BBF8B4C4A8EE80B9D598175B0","a2943aac-3781-4d5b-931e-77a6e548d61b","e9cc2542-c7dc-4d8f-b94f-d088ad8989d1","{""part"":""2"",""participantId"":""BCF1104BBF8B4C4A8EE80B9D598175B0"",""assignmentId"":""a2943aac-3781-4d5b-931e-77a6e548d61b"",""projectId"":""e9cc2542-c7dc-4d8f-b94f-d088ad8989d1""}","https://test12345.live/?part=2&participantId=BCF1104BBF8B4C4A8EE80B9D598175B0&assignmentId=a2943aac-3781-4d5b-931e-77a6e548d61b&projectId=e9cc2542-c7dc-4d8f-b94f-d088ad8989d1","BCF1104BBF8B4C4A8EE80B9D598175B0-2025-05-16-18-21-23","","12952","","[""<span style=\""color: red; font-size: 24px\""> NOW RECORDING</span><p>Please say out loud all the images you saw in part 1 of the experiment, as many as you can remember. The images can be said in any order.</p>""]","","1","cat_care_semantic"
"","","","","","image-button-response","33","633894","0.0-31.0-0.0","BCF1104BBF8B4C4A8EE80B9D598175B0","BCF1104BBF8B4C4A8EE80B9D598175B0","a2943aac-3781-4d5b-931e-77a6e548d61b","e9cc2542-c7dc-4d8f-b94f-d088ad8989d1","{""part"":""2"",""participantId"":""BCF1104BBF8B4C4A8EE80B9D598175B0"",""assignmentId"":""a2943aac-3781-4d5b-931e-77a6e548d61b"",""projectId"":""e9cc2542-c7dc-4d8f-b94f-d088ad8989d1""}","https://test12345.live/?part=2&participantId=BCF1104BBF8B4C4A8EE80B9D598175B0&assignmentId=a2943aac-3781-4d5b-931e-77a6e548d61b&projectId=e9cc2542-c7dc-4d8f-b94f-d088ad8989d1","BCF1104BBF8B4C4A8EE80B9D598175B0-2025-05-16-18-21-23","","null","","images/semantic_sequence/maintaining_a_car_semantic/maintaining_a_car_semantic_0.png","null","",""
"","","","","","html-audio-response","34","656429","0.0-32.0","BCF1104BBF8B4C4A8EE80B9D598175B0","BCF1104BBF8B4C4A8EE80B9D598175B0","a2943aac-3781-4d5b-931e-77a6e548d61b","e9cc2542-c7dc-4d8f-b94f-d088ad8989d1","{""part"":""2"",""participantId"":""BCF1104BBF8B4C4A8EE80B9D598175B0"",""assignmentId"":""a2943aac-3781-4d5b-931e-77a6e548d61b"",""projectId"":""e9cc2542-c7dc-4d8f-b94f-d088ad8989d1""}","https://test12345.live/?part=2&participantId=BCF1104BBF8B4C4A8EE80B9D598175B0&assignmentId=a2943aac-3781-4d5b-931e-77a6e548d61b&projectId=e9cc2542-c7dc-4d8f-b94f-d088ad8989d1","BCF1104BBF8B4C4A8EE80B9D598175B0-2025-05-16-18-21-23","","10263","","[""<span style=\""color: red; font-size: 24px\""> NOW RECORDING</span><p>Please say out loud all the images you saw in part 1 of the experiment, as many as you can remember. The images can be said in any order.</p>""]","","8","maintaining_a_car_semantic"
"","","","","","image-button-response","35","662450","0.0-33.0-0.0","BCF1104BBF8B4C4A8EE80B9D598175B0","BCF1104BBF8B4C4A8EE80B9D598175B0","a2943aac-3781-4d5b-931e-77a6e548d61b","e9cc2542-c7dc-4d8f-b94f-d088ad8989d1","{""part"":""2"",""participantId"":""BCF1104BBF8B4C4A8EE80B9D598175B0"",""assignmentId"":""a2943aac-3781-4d5b-931e-77a6e548d61b"",""projectId"":""e9cc2542-c7dc-4d8f-b94f-d088ad8989d1""}","https://test12345.live/?part=2&participantId=BCF1104BBF8B4C4A8EE80B9D598175B0&assignmentId=a2943aac-3781-4d5b-931e-77a6e548d61b&projectId=e9cc2542-c7dc-4d8f-b94f-d088ad8989d1","BCF1104BBF8B4C4A8EE80B9D598175B0-2025-05-16-18-21-23","","null","","images/semantic_sequence/self_care_activities_semantic/self_care_activities_semantic_0.png","null","",""
"","","","","","html-audio-response","36","687205","0.0-34.0","BCF1104BBF8B4C4A8EE80B9D598175B0","BCF1104BBF8B4C4A8EE80B9D598175B0","a2943aac-3781-4d5b-931e-77a6e548d61b","e9cc2542-c7dc-4d8f-b94f-d088ad8989d1","{""part"":""2"",""participantId"":""BCF1104BBF8B4C4A8EE80B9D598175B0"",""assignmentId"":""a2943aac-3781-4d5b-931e-77a6e548d61b"",""projectId"":""e9cc2542-c7dc-4d8f-b94f-d088ad8989d1""}","https://test12345.live/?part=2&participantId=BCF1104BBF8B4C4A8EE80B9D598175B0&assignmentId=a2943aac-3781-4d5b-931e-77a6e548d61b&projectId=e9cc2542-c7dc-4d8f-b94f-d088ad8989d1","BCF1104BBF8B4C4A8EE80B9D598175B0-2025-05-16-18-21-23","","12730","","[""<span style=\""color: red; font-size: 24px\""> NOW RECORDING</span><p>Please say out loud all the images you saw in part 1 of the experiment, as many as you can remember. The images can be said in any order.</p>""]","","7","self_care_activities_semantic"
"","","","","","image-button-response","37","693230","0.0-35.0-0.0","BCF1104BBF8B4C4A8EE80B9D598175B0","BCF1104BBF8B4C4A8EE80B9D598175B0","a2943aac-3781-4d5b-931e-77a6e548d61b","e9cc2542-c7dc-4d8f-b94f-d088ad8989d1","{""part"":""2"",""participantId"":""BCF1104BBF8B4C4A8EE80B9D598175B0"",""assignmentId"":""a2943aac-3781-4d5b-931e-77a6e548d61b"",""projectId"":""e9cc2542-c7dc-4d8f-b94f-d088ad8989d1""}","https://test12345.live/?part=2&participantId=BCF1104BBF8B4C4A8EE80B9D598175B0&assignmentId=a2943aac-3781-4d5b-931e-77a6e548d61b&projectId=e9cc2542-c7dc-4d8f-b94f-d088ad8989d1","BCF1104BBF8B4C4A8EE80B9D598175B0-2025-05-16-18-21-23","","null","","images/schematic_sequence/restaurant_scheme/restaurant_scheme_0.png","null","",""
"","","","","","html-audio-response","38","714559","0.0-36.0","BCF1104BBF8B4C4A8EE80B9D598175B0","BCF1104BBF8B4C4A8EE80B9D598175B0","a2943aac-3781-4d5b-931e-77a6e548d61b","e9cc2542-c7dc-4d8f-b94f-d088ad8989d1","{""part"":""2"",""participantId"":""BCF1104BBF8B4C4A8EE80B9D598175B0"",""assignmentId"":""a2943aac-3781-4d5b-931e-77a6e548d61b"",""projectId"":""e9cc2542-c7dc-4d8f-b94f-d088ad8989d1""}","https://test12345.live/?part=2&participantId=BCF1104BBF8B4C4A8EE80B9D598175B0&assignmentId=a2943aac-3781-4d5b-931e-77a6e548d61b&projectId=e9cc2542-c7dc-4d8f-b94f-d088ad8989d1","BCF1104BBF8B4C4A8EE80B9D598175B0-2025-05-16-18-21-23","","9753","","[""<span style=\""color: red; font-size: 24px\""> NOW RECORDING</span><p>Please say out loud all the images you saw in part 1 of the experiment, as many as you can remember. The images can be said in any order.</p>""]","","9","restaurant_scheme"
"","","","","","image-button-response","39","720564","0.0-37.0-0.0","BCF1104BBF8B4C4A8EE80B9D598175B0","BCF1104BBF8B4C4A8EE80B9D598175B0","a2943aac-3781-4d5b-931e-77a6e548d61b","e9cc2542-c7dc-4d8f-b94f-d088ad8989d1","{""part"":""2"",""participantId"":""BCF1104BBF8B4C4A8EE80B9D598175B0"",""assignmentId"":""a2943aac-3781-4d5b-931e-77a6e548d61b"",""projectId"":""e9cc2542-c7dc-4d8f-b94f-d088ad8989d1""}","https://test12345.live/?part=2&participantId=BCF1104BBF8B4C4A8EE80B9D598175B0&assignmentId=a2943aac-3781-4d5b-931e-77a6e548d61b&projectId=e9cc2542-c7dc-4d8f-b94f-d088ad8989d1","BCF1104BBF8B4C4A8EE80B9D598175B0-2025-05-16-18-21-23","","null","","images/causal_sequence/the_performance_causal/the_performance_causal_0.png","null","",""
"","","","","","html-audio-response","40","766899","0.0-38.0","BCF1104BBF8B4C4A8EE80B9D598175B0","BCF1104BBF8B4C4A8EE80B9D598175B0","a2943aac-3781-4d5b-931e-77a6e548d61b","e9cc2542-c7dc-4d8f-b94f-d088ad8989d1","{""part"":""2"",""participantId"":""BCF1104BBF8B4C4A8EE80B9D598175B0"",""assignmentId"":""a2943aac-3781-4d5b-931e-77a6e548d61b"",""projectId"":""e9cc2542-c7dc-4d8f-b94f-d088ad8989d1""}","https://test12345.live/?part=2&participantId=BCF1104BBF8B4C4A8EE80B9D598175B0&assignmentId=a2943aac-3781-4d5b-931e-77a6e548d61b&projectId=e9cc2542-c7dc-4d8f-b94f-d088ad8989d1","BCF1104BBF8B4C4A8EE80B9D598175B0-2025-05-16-18-21-23","","32529","","[""<span style=\""color: red; font-size: 24px\""> NOW RECORDING</span><p>Please say out loud all the images you saw in part 1 of the experiment, as many as you can remember. The images can be said in any order.</p>""]","","7","the_performance_causal"
"","","","","","image-button-response","41","772909","0.0-39.0-0.0","BCF1104BBF8B4C4A8EE80B9D598175B0","BCF1104BBF8B4C4A8EE80B9D598175B0","a2943aac-3781-4d5b-931e-77a6e548d61b","e9cc2542-c7dc-4d8f-b94f-d088ad8989d1","{""part"":""2"",""participantId"":""BCF1104BBF8B4C4A8EE80B9D598175B0"",""assignmentId"":""a2943aac-3781-4d5b-931e-77a6e548d61b"",""projectId"":""e9cc2542-c7dc-4d8f-b94f-d088ad8989d1""}","https://test12345.live/?part=2&participantId=BCF1104BBF8B4C4A8EE80B9D598175B0&assignmentId=a2943aac-3781-4d5b-931e-77a6e548d61b&projectId=e9cc2542-c7dc-4d8f-b94f-d088ad8989d1","BCF1104BBF8B4C4A8EE80B9D598175B0-2025-05-16-18-21-23","","null","","images/causal_sequence/dog_causal/dog_causal_0.png","null","",""
"","","","","","html-audio-response","42","843091","0.0-40.0","BCF1104BBF8B4C4A8EE80B9D598175B0","BCF1104BBF8B4C4A8EE80B9D598175B0","a2943aac-3781-4d5b-931e-77a6e548d61b","e9cc2542-c7dc-4d8f-b94f-d088ad8989d1","{""part"":""2"",""participantId"":""BCF1104BBF8B4C4A8EE80B9D598175B0"",""assignmentId"":""a2943aac-3781-4d5b-931e-77a6e548d61b"",""projectId"":""e9cc2542-c7dc-4d8f-b94f-d088ad8989d1""}","https://test12345.live/?part=2&participantId=BCF1104BBF8B4C4A8EE80B9D598175B0&assignmentId=a2943aac-3781-4d5b-931e-77a6e548d61b&projectId=e9cc2542-c7dc-4d8f-b94f-d088ad8989d1","BCF1104BBF8B4C4A8EE80B9D598175B0-2025-05-16-18-21-23","","34076","","[""<span style=\""color: red; font-size: 24px\""> NOW RECORDING</span><p>Please say out loud all the images you saw in part 1 of the experiment, as many as you can remember. The images can be said in any order.</p>""]","","5","dog_causal"
"","","","","","image-button-response","43","849130","0.0-41.0-0.0","BCF1104BBF8B4C4A8EE80B9D598175B0","BCF1104BBF8B4C4A8EE80B9D598175B0","a2943aac-3781-4d5b-931e-77a6e548d61b","e9cc2542-c7dc-4d8f-b94f-d088ad8989d1","{""part"":""2"",""participantId"":""BCF1104BBF8B4C4A8EE80B9D598175B0"",""assignmentId"":""a2943aac-3781-4d5b-931e-77a6e548d61b"",""projectId"":""e9cc2542-c7dc-4d8f-b94f-d088ad8989d1""}","https://test12345.live/?part=2&participantId=BCF1104BBF8B4C4A8EE80B9D598175B0&assignmentId=a2943aac-3781-4d5b-931e-77a6e548d61b&projectId=e9cc2542-c7dc-4d8f-b94f-d088ad8989d1","BCF1104BBF8B4C4A8EE80B9D598175B0-2025-05-16-18-21-23","","null","","images/semantic_sequence/kitchen_operations_semantic/kitchen_operations_semantic_0.png","null","",""
"","","","","","html-audio-response","44","894046","0.0-42.0","BCF1104BBF8B4C4A8EE80B9D598175B0","BCF1104BBF8B4C4A8EE80B9D598175B0","a2943aac-3781-4d5b-931e-77a6e548d61b","e9cc2542-c7dc-4d8f-b94f-d088ad8989d1","{""part"":""2"",""participantId"":""BCF1104BBF8B4C4A8EE80B9D598175B0"",""assignmentId"":""a2943aac-3781-4d5b-931e-77a6e548d61b"",""projectId"":""e9cc2542-c7dc-4d8f-b94f-d088ad8989d1""}","https://test12345.live/?part=2&participantId=BCF1104BBF8B4C4A8EE80B9D598175B0&assignmentId=a2943aac-3781-4d5b-931e-77a6e548d61b&projectId=e9cc2542-c7dc-4d8f-b94f-d088ad8989d1","BCF1104BBF8B4C4A8EE80B9D598175B0-2025-05-16-18-21-23","","21724","","[""<span style=\""color: red; font-size: 24px\""> NOW RECORDING</span><p>Please say out loud all the images you saw in part 1 of the experiment, as many as you can remember. The images can be said in any order.</p>""]","","10","kitchen_operations_semantic"
"","","","","","image-button-response","45","900058","0.0-43.0-0.0","BCF1104BBF8B4C4A8EE80B9D598175B0","BCF1104BBF8B4C4A8EE80B9D598175B0","a2943aac-3781-4d5b-931e-77a6e548d61b","e9cc2542-c7dc-4d8f-b94f-d088ad8989d1","{""part"":""2"",""participantId"":""BCF1104BBF8B4C4A8EE80B9D598175B0"",""assignmentId"":""a2943aac-3781-4d5b-931e-77a6e548d61b"",""projectId"":""e9cc2542-c7dc-4d8f-b94f-d088ad8989d1""}","https://test12345.live/?part=2&participantId=BCF1104BBF8B4C4A8EE80B9D598175B0&assignmentId=a2943aac-3781-4d5b-931e-77a6e548d61b&projectId=e9cc2542-c7dc-4d8f-b94f-d088ad8989d1","BCF1104BBF8B4C4A8EE80B9D598175B0-2025-05-16-18-21-23","","null","","images/semantic_sequence/creative_activities_semantic/creative_activities_semantic_0.png","null","",""
"","","","","","html-audio-response","46","929439","0.0-44.0","BCF1104BBF8B4C4A8EE80B9D598175B0","BCF1104BBF8B4C4A8EE80B9D598175B0","a2943aac-3781-4d5b-931e-77a6e548d61b","e9cc2542-c7dc-4d8f-b94f-d088ad8989d1","{""part"":""2"",""participantId"":""BCF1104BBF8B4C4A8EE80B9D598175B0"",""assignmentId"":""a2943aac-3781-4d5b-931e-77a6e548d61b"",""projectId"":""e9cc2542-c7dc-4d8f-b94f-d088ad8989d1""}","https://test12345.live/?part=2&participantId=BCF1104BBF8B4C4A8EE80B9D598175B0&assignmentId=a2943aac-3781-4d5b-931e-77a6e548d61b&projectId=e9cc2542-c7dc-4d8f-b94f-d088ad8989d1","BCF1104BBF8B4C4A8EE80B9D598175B0-2025-05-16-18-21-23","","13767","","[""<span style=\""color: red; font-size: 24px\""> NOW RECORDING</span><p>Please say out loud all the images you saw in part 1 of the experiment, as many as you can remember. The images can be said in any order.</p>""]","","6","creative_activities_semantic"
"","","","","","image-button-response","47","935457","0.0-45.0-0.0","BCF1104BBF8B4C4A8EE80B9D598175B0","BCF1104BBF8B4C4A8EE80B9D598175B0","a2943aac-3781-4d5b-931e-77a6e548d61b","e9cc2542-c7dc-4d8f-b94f-d088ad8989d1","{""part"":""2"",""participantId"":""BCF1104BBF8B4C4A8EE80B9D598175B0"",""assignmentId"":""a2943aac-3781-4d5b-931e-77a6e548d61b"",""projectId"":""e9cc2542-c7dc-4d8f-b94f-d088ad8989d1""}","https://test12345.live/?part=2&participantId=BCF1104BBF8B4C4A8EE80B9D598175B0&assignmentId=a2943aac-3781-4d5b-931e-77a6e548d61b&projectId=e9cc2542-c7dc-4d8f-b94f-d088ad8989d1","BCF1104BBF8B4C4A8EE80B9D598175B0-2025-05-16-18-21-23","","null","","images/semantic_sequence/market_semantic/market_semantic_0.png","null","",""
"","","","","","html-audio-response","48","964526","0.0-46.0","BCF1104BBF8B4C4A8EE80B9D598175B0","BCF1104BBF8B4C4A8EE80B9D598175B0","a2943aac-3781-4d5b-931e-77a6e548d61b","e9cc2542-c7dc-4d8f-b94f-d088ad8989d1","{""part"":""2"",""participantId"":""BCF1104BBF8B4C4A8EE80B9D598175B0"",""assignmentId"":""a2943aac-3781-4d5b-931e-77a6e548d61b"",""projectId"":""e9cc2542-c7dc-4d8f-b94f-d088ad8989d1""}","https://test12345.live/?part=2&participantId=BCF1104BBF8B4C4A8EE80B9D598175B0&assignmentId=a2943aac-3781-4d5b-931e-77a6e548d61b&projectId=e9cc2542-c7dc-4d8f-b94f-d088ad8989d1","BCF1104BBF8B4C4A8EE80B9D598175B0-2025-05-16-18-21-23","","13983","","[""<span style=\""color: red; font-size: 24px\""> NOW RECORDING</span><p>Please say out loud all the images you saw in part 1 of the experiment, as many as you can remember. The images can be said in any order.</p>""]","","2","market_semantic"
"","","","","","image-button-response","49","970532","0.0-47.0-0.0","BCF1104BBF8B4C4A8EE80B9D598175B0","BCF1104BBF8B4C4A8EE80B9D598175B0","a2943aac-3781-4d5b-931e-77a6e548d61b","e9cc2542-c7dc-4d8f-b94f-d088ad8989d1","{""part"":""2"",""participantId"":""BCF1104BBF8B4C4A8EE80B9D598175B0"",""assignmentId"":""a2943aac-3781-4d5b-931e-77a6e548d61b"",""projectId"":""e9cc2542-c7dc-4d8f-b94f-d088ad8989d1""}","https://test12345.live/?part=2&participantId=BCF1104BBF8B4C4A8EE80B9D598175B0&assignmentId=a2943aac-3781-4d5b-931e-77a6e548d61b&projectId=e9cc2542-c7dc-4d8f-b94f-d088ad8989d1","BCF1104BBF8B4C4A8EE80B9D598175B0-2025-05-16-18-21-23","","null","","images/semantic_sequence/physical_activity_semantic/physical_activity_semantic_0.png","null","",""
"","","","","","html-audio-response","50","989379","0.0-48.0","BCF1104BBF8B4C4A8EE80B9D598175B0","BCF1104BBF8B4C4A8EE80B9D598175B0","a2943aac-3781-4d5b-931e-77a6e548d61b","e9cc2542-c7dc-4d8f-b94f-d088ad8989d1","{""part"":""2"",""participantId"":""BCF1104BBF8B4C4A8EE80B9D598175B0"",""assignmentId"":""a2943aac-3781-4d5b-931e-77a6e548d61b"",""projectId"":""e9cc2542-c7dc-4d8f-b94f-d088ad8989d1""}","https://test12345.live/?part=2&participantId=BCF1104BBF8B4C4A8EE80B9D598175B0&assignmentId=a2943aac-3781-4d5b-931e-77a6e548d61b&projectId=e9cc2542-c7dc-4d8f-b94f-d088ad8989d1","BCF1104BBF8B4C4A8EE80B9D598175B0-2025-05-16-18-21-23","","9200","","[""<span style=\""color: red; font-size: 24px\""> NOW RECORDING</span><p>Please say out loud all the images you saw in part 1 of the experiment, as many as you can remember. The images can be said in any order.</p>""]","","7","physical_activity_semantic"
"","","","","","image-button-response","51","995401","0.0-49.0-0.0","BCF1104BBF8B4C4A8EE80B9D598175B0","BCF1104BBF8B4C4A8EE80B9D598175B0","a2943aac-3781-4d5b-931e-77a6e548d61b","e9cc2542-c7dc-4d8f-b94f-d088ad8989d1","{""part"":""2"",""participantId"":""BCF1104BBF8B4C4A8EE80B9D598175B0"",""assignmentId"":""a2943aac-3781-4d5b-931e-77a6e548d61b"",""projectId"":""e9cc2542-c7dc-4d8f-b94f-d088ad8989d1""}","https://test12345.live/?part=2&participantId=BCF1104BBF8B4C4A8EE80B9D598175B0&assignmentId=a2943aac-3781-4d5b-931e-77a6e548d61b&projectId=e9cc2542-c7dc-4d8f-b94f-d088ad8989d1","BCF1104BBF8B4C4A8EE80B9D598175B0-2025-05-16-18-21-23","","null","","images/schematic_sequence/interview_scheme/interview_scheme_0.png","null","",""
"","","","","","html-audio-response","52","1039207","0.0-50.0","BCF1104BBF8B4C4A8EE80B9D598175B0","BCF1104BBF8B4C4A8EE80B9D598175B0","a2943aac-3781-4d5b-931e-77a6e548d61b","e9cc2542-c7dc-4d8f-b94f-d088ad8989d1","{""part"":""2"",""participantId"":""BCF1104BBF8B4C4A8EE80B9D598175B0"",""assignmentId"":""a2943aac-3781-4d5b-931e-77a6e548d61b"",""projectId"":""e9cc2542-c7dc-4d8f-b94f-d088ad8989d1""}","https://test12345.live/?part=2&participantId=BCF1104BBF8B4C4A8EE80B9D598175B0&assignmentId=a2943aac-3781-4d5b-931e-77a6e548d61b&projectId=e9cc2542-c7dc-4d8f-b94f-d088ad8989d1","BCF1104BBF8B4C4A8EE80B9D598175B0-2025-05-16-18-21-23","","20949","","[""<span style=\""color: red; font-size: 24px\""> NOW RECORDING</span><p>Please say out loud all the images you saw in part 1 of the experiment, as many as you can remember. The images can be said in any order.</p>""]","","5","interview_scheme"
"","","","","","image-button-response","53","1045227","0.0-51.0-0.0","BCF1104BBF8B4C4A8EE80B9D598175B0","BCF1104BBF8B4C4A8EE80B9D598175B0","a2943aac-3781-4d5b-931e-77a6e548d61b","e9cc2542-c7dc-4d8f-b94f-d088ad8989d1","{""part"":""2"",""participantId"":""BCF1104BBF8B4C4A8EE80B9D598175B0"",""assignmentId"":""a2943aac-3781-4d5b-931e-77a6e548d61b"",""projectId"":""e9cc2542-c7dc-4d8f-b94f-d088ad8989d1""}","https://test12345.live/?part=2&participantId=BCF1104BBF8B4C4A8EE80B9D598175B0&assignmentId=a2943aac-3781-4d5b-931e-77a6e548d61b&projectId=e9cc2542-c7dc-4d8f-b94f-d088ad8989d1","BCF1104BBF8B4C4A8EE80B9D598175B0-2025-05-16-18-21-23","","null","","images/schematic_sequence/supermarket_scheme/supermarket_scheme_0.png","null","",""
"","","","","","html-audio-response","54","1076791","0.0-52.0","BCF1104BBF8B4C4A8EE80B9D598175B0","BCF1104BBF8B4C4A8EE80B9D598175B0","a2943aac-3781-4d5b-931e-77a6e548d61b","e9cc2542-c7dc-4d8f-b94f-d088ad8989d1","{""part"":""2"",""participantId"":""BCF1104BBF8B4C4A8EE80B9D598175B0"",""assignmentId"":""a2943aac-3781-4d5b-931e-77a6e548d61b"",""projectId"":""e9cc2542-c7dc-4d8f-b94f-d088ad8989d1""}","https://test12345.live/?part=2&participantId=BCF1104BBF8B4C4A8EE80B9D598175B0&assignmentId=a2943aac-3781-4d5b-931e-77a6e548d61b&projectId=e9cc2542-c7dc-4d8f-b94f-d088ad8989d1","BCF1104BBF8B4C4A8EE80B9D598175B0-2025-05-16-18-21-23","","14881","","[""<span style=\""color: red; font-size: 24px\""> NOW RECORDING</span><p>Please say out loud all the images you saw in part 1 of the experiment, as many as you can remember. The images can be said in any order.</p>""]","","5","supermarket_scheme"
"","","","","","image-button-response","55","1082798","0.0-53.0-0.0","BCF1104BBF8B4C4A8EE80B9D598175B0","BCF1104BBF8B4C4A8EE80B9D598175B0","a2943aac-3781-4d5b-931e-77a6e548d61b","e9cc2542-c7dc-4d8f-b94f-d088ad8989d1","{""part"":""2"",""participantId"":""BCF1104BBF8B4C4A8EE80B9D598175B0"",""assignmentId"":""a2943aac-3781-4d5b-931e-77a6e548d61b"",""projectId"":""e9cc2542-c7dc-4d8f-b94f-d088ad8989d1""}","https://test12345.live/?part=2&participantId=BCF1104BBF8B4C4A8EE80B9D598175B0&assignmentId=a2943aac-3781-4d5b-931e-77a6e548d61b&projectId=e9cc2542-c7dc-4d8f-b94f-d088ad8989d1","BCF1104BBF8B4C4A8EE80B9D598175B0-2025-05-16-18-21-23","","null","","images/schematic_sequence/hotel_scheme/hotel_scheme_0.png","null","",""
"","","","","","html-audio-response","56","1117512","0.0-54.0","BCF1104BBF8B4C4A8EE80B9D598175B0","BCF1104BBF8B4C4A8EE80B9D598175B0","a2943aac-3781-4d5b-931e-77a6e548d61b","e9cc2542-c7dc-4d8f-b94f-d088ad8989d1","{""part"":""2"",""participantId"":""BCF1104BBF8B4C4A8EE80B9D598175B0"",""assignmentId"":""a2943aac-3781-4d5b-931e-77a6e548d61b"",""projectId"":""e9cc2542-c7dc-4d8f-b94f-d088ad8989d1""}","https://test12345.live/?part=2&participantId=BCF1104BBF8B4C4A8EE80B9D598175B0&assignmentId=a2943aac-3781-4d5b-931e-77a6e548d61b&projectId=e9cc2542-c7dc-4d8f-b94f-d088ad8989d1","BCF1104BBF8B4C4A8EE80B9D598175B0-2025-05-16-18-21-23","","16213","","[""<span style=\""color: red; font-size: 24px\""> NOW RECORDING</span><p>Please say out loud all the images you saw in part 1 of the experiment, as many as you can remember. The images can be said in any order.</p>""]","","10","hotel_scheme"
"","","","","","image-button-response","57","1123518","0.0-55.0-0.0","BCF1104BBF8B4C4A8EE80B9D598175B0","BCF1104BBF8B4C4A8EE80B9D598175B0","a2943aac-3781-4d5b-931e-77a6e548d61b","e9cc2542-c7dc-4d8f-b94f-d088ad8989d1","{""part"":""2"",""participantId"":""BCF1104BBF8B4C4A8EE80B9D598175B0"",""assignmentId"":""a2943aac-3781-4d5b-931e-77a6e548d61b"",""projectId"":""e9cc2542-c7dc-4d8f-b94f-d088ad8989d1""}","https://test12345.live/?part=2&participantId=BCF1104BBF8B4C4A8EE80B9D598175B0&assignmentId=a2943aac-3781-4d5b-931e-77a6e548d61b&projectId=e9cc2542-c7dc-4d8f-b94f-d088ad8989d1","BCF1104BBF8B4C4A8EE80B9D598175B0-2025-05-16-18-21-23","","null","","images/semantic_sequence/housework_semantic/housework_semantic_0.png","null","",""
"","","","","","html-audio-response","58","1146976","0.0-56.0","BCF1104BBF8B4C4A8EE80B9D598175B0","BCF1104BBF8B4C4A8EE80B9D598175B0","a2943aac-3781-4d5b-931e-77a6e548d61b","e9cc2542-c7dc-4d8f-b94f-d088ad8989d1","{""part"":""2"",""participantId"":""BCF1104BBF8B4C4A8EE80B9D598175B0"",""assignmentId"":""a2943aac-3781-4d5b-931e-77a6e548d61b"",""projectId"":""e9cc2542-c7dc-4d8f-b94f-d088ad8989d1""}","https://test12345.live/?part=2&participantId=BCF1104BBF8B4C4A8EE80B9D598175B0&assignmentId=a2943aac-3781-4d5b-931e-77a6e548d61b&projectId=e9cc2542-c7dc-4d8f-b94f-d088ad8989d1","BCF1104BBF8B4C4A8EE80B9D598175B0-2025-05-16-18-21-23","","10655","","[""<span style=\""color: red; font-size: 24px\""> NOW RECORDING</span><p>Please say out loud all the images you saw in part 1 of the experiment, as many as you can remember. The images can be said in any order.</p>""]","","15","housework_semantic"
"","","","","","survey-text","59","1152930","0.0-57.0","BCF1104BBF8B4C4A8EE80B9D598175B0","BCF1104BBF8B4C4A8EE80B9D598175B0","a2943aac-3781-4d5b-931e-77a6e548d61b","e9cc2542-c7dc-4d8f-b94f-d088ad8989d1","{""part"":""2"",""participantId"":""BCF1104BBF8B4C4A8EE80B9D598175B0"",""assignmentId"":""a2943aac-3781-4d5b-931e-77a6e548d61b"",""projectId"":""e9cc2542-c7dc-4d8f-b94f-d088ad8989d1""}","https://test12345.live/?part=2&participantId=BCF1104BBF8B4C4A8EE80B9D598175B0&assignmentId=a2943aac-3781-4d5b-931e-77a6e548d61b&projectId=e9cc2542-c7dc-4d8f-b94f-d088ad8989d1","BCF1104BBF8B4C4A8EE80B9D598175B0-2025-05-16-18-21-23","","5941","","","{""Q0"":""male"",""Q1"":""31""}","",""
"","","","","","instructions","60","1156126","0.0-58.0","BCF1104BBF8B4C4A8EE80B9D598175B0","BCF1104BBF8B4C4A8EE80B9D598175B0","a2943aac-3781-4d5b-931e-77a6e548d61b","e9cc2542-c7dc-4d8f-b94f-d088ad8989d1","{""part"":""2"",""participantId"":""BCF1104BBF8B4C4A8EE80B9D598175B0"",""assignmentId"":""a2943aac-3781-4d5b-931e-77a6e548d61b"",""projectId"":""e9cc2542-c7dc-4d8f-b94f-d088ad8989d1""}","https://test12345.live/?part=2&participantId=BCF1104BBF8B4C4A8EE80B9D598175B0&assignmentId=a2943aac-3781-4d5b-931e-77a6e548d61b&projectId=e9cc2542-c7dc-4d8f-b94f-d088ad8989d1","BCF1104BBF8B4C4A8EE80B9D598175B0-2025-05-16-18-21-23","[{""page_index"":0,""viewing_time"":3195}]","3195","","","","",""
"","","","","","survey-text","61","1159402","0.0-59.0","BCF1104BBF8B4C4A8EE80B9D598175B0","BCF1104BBF8B4C4A8EE80B9D598175B0","a2943aac-3781-4d5b-931e-77a6e548d61b","e9cc2542-c7dc-4d8f-b94f-d088ad8989d1","{""part"":""2"",""participantId"":""BCF1104BBF8B4C4A8EE80B9D598175B0"",""assignmentId"":""a2943aac-3781-4d5b-931e-77a6e548d61b"",""projectId"":""e9cc2542-c7dc-4d8f-b94f-d088ad8989d1""}","https://test12345.live/?part=2&participantId=BCF1104BBF8B4C4A8EE80B9D598175B0&assignmentId=a2943aac-3781-4d5b-931e-77a6e548d61b&projectId=e9cc2542-c7dc-4d8f-b94f-d088ad8989d1","BCF1104BBF8B4C4A8EE80B9D598175B0-2025-05-16-18-21-23","","3272","","","{""Q0"":""AJFHBG896""}","",""
