"success","timeout","failed_images","failed_audio","failed_video","trial_type","trial_index","time_elapsed","internal_node_id","subject","subject_id","study_id","session_id","urlvar","current_url","audio_id","view_history","rt","device_id","stimulus","response","estimated_stimulus_onset","seq_name"
"true","false","[]","[]","[]","preload","0","5711","0.0-0.0","BE7977AF39E44A7FAE63BABF841E83CD","BE7977AF39E44A7FAE63BABF841E83CD","6bffa1ab-8681-4dda-a835-d989a000abfe","c8967202-2e67-4b77-b18d-1bc6a319defc","{""part"":""2"",""participantId"":""BE7977AF39E44A7FAE63BABF841E83CD"",""assignmentId"":""6bffa1ab-8681-4dda-a835-d989a000abfe"",""projectId"":""c8967202-2e67-4b77-b18d-1bc6a319defc""}","https://test12345.live/?part=2&participantId=BE7977AF39E44A7FAE63BABF841E83CD&assignmentId=6bffa1ab-8681-4dda-a835-d989a000abfe&projectId=c8967202-2e67-4b77-b18d-1bc6a319defc","BE7977AF39E44A7FAE63BABF841E83CD-2025-05-14-00-10-52","","","","","","",""
"","","","","","instructions","1","36396","0.0-1.0","BE7977AF39E44A7FAE63BABF841E83CD","BE7977AF39E44A7FAE63BABF841E83CD","6bffa1ab-8681-4dda-a835-d989a000abfe","c8967202-2e67-4b77-b18d-1bc6a319defc","{""part"":""2"",""participantId"":""BE7977AF39E44A7FAE63BABF841E83CD"",""assignmentId"":""6bffa1ab-8681-4dda-a835-d989a000abfe"",""projectId"":""c8967202-2e67-4b77-b18d-1bc6a319defc""}","https://test12345.live/?part=2&participantId=BE7977AF39E44A7FAE63BABF841E83CD&assignmentId=6bffa1ab-8681-4dda-a835-d989a000abfe&projectId=c8967202-2e67-4b77-b18d-1bc6a319defc","BE7977AF39E44A7FAE63BABF841E83CD-2025-05-14-00-10-52","[{""page_index"":0,""viewing_time"":30684}]","30685","","","","",""
"","","","","","instructions","2","53099","0.0-2.0","BE7977AF39E44A7FAE63BABF841E83CD","BE7977AF39E44A7FAE63BABF841E83CD","6bffa1ab-8681-4dda-a835-d989a000abfe","c8967202-2e67-4b77-b18d-1bc6a319defc","{""part"":""2"",""participantId"":""BE7977AF39E44A7FAE63BABF841E83CD"",""assignmentId"":""6bffa1ab-8681-4dda-a835-d989a000abfe"",""projectId"":""c8967202-2e67-4b77-b18d-1bc6a319defc""}","https://test12345.live/?part=2&participantId=BE7977AF39E44A7FAE63BABF841E83CD&assignmentId=6bffa1ab-8681-4dda-a835-d989a000abfe&projectId=c8967202-2e67-4b77-b18d-1bc6a319defc","BE7977AF39E44A7FAE63BABF841E83CD-2025-05-14-00-10-52","[{""page_index"":0,""viewing_time"":16703}]","16703","","","","",""
"true","","","","","fullscreen","3","56464","0.0-3.0","BE7977AF39E44A7FAE63BABF841E83CD","BE7977AF39E44A7FAE63BABF841E83CD","6bffa1ab-8681-4dda-a835-d989a000abfe","c8967202-2e67-4b77-b18d-1bc6a319defc","{""part"":""2"",""participantId"":""BE7977AF39E44A7FAE63BABF841E83CD"",""assignmentId"":""6bffa1ab-8681-4dda-a835-d989a000abfe"",""projectId"":""c8967202-2e67-4b77-b18d-1bc6a319defc""}","https://test12345.live/?part=2&participantId=BE7977AF39E44A7FAE63BABF841E83CD&assignmentId=6bffa1ab-8681-4dda-a835-d989a000abfe&projectId=c8967202-2e67-4b77-b18d-1bc6a319defc","BE7977AF39E44A7FAE63BABF841E83CD-2025-05-14-00-10-52","","2352","","","","",""
"","","","","","initialize-microphone","4","62250","0.0-4.0-0.0","BE7977AF39E44A7FAE63BABF841E83CD","BE7977AF39E44A7FAE63BABF841E83CD","6bffa1ab-8681-4dda-a835-d989a000abfe","c8967202-2e67-4b77-b18d-1bc6a319defc","{""part"":""2"",""participantId"":""BE7977AF39E44A7FAE63BABF841E83CD"",""assignmentId"":""6bffa1ab-8681-4dda-a835-d989a000abfe"",""projectId"":""c8967202-2e67-4b77-b18d-1bc6a319defc""}","https://test12345.live/?part=2&participantId=BE7977AF39E44A7FAE63BABF841E83CD&assignmentId=6bffa1ab-8681-4dda-a835-d989a000abfe&projectId=c8967202-2e67-4b77-b18d-1bc6a319defc","BE7977AF39E44A7FAE63BABF841E83CD-2025-05-14-00-10-52","","","36d91d531e14ce6f28a2776e62a37d667654c1f55bc036a46b203079cd01fd90","","","",""
"","","","","","html-audio-response","5","87676","0.0-4.0-1.0","BE7977AF39E44A7FAE63BABF841E83CD","BE7977AF39E44A7FAE63BABF841E83CD","6bffa1ab-8681-4dda-a835-d989a000abfe","c8967202-2e67-4b77-b18d-1bc6a319defc","{""part"":""2"",""participantId"":""BE7977AF39E44A7FAE63BABF841E83CD"",""assignmentId"":""6bffa1ab-8681-4dda-a835-d989a000abfe"",""projectId"":""c8967202-2e67-4b77-b18d-1bc6a319defc""}","https://test12345.live/?part=2&participantId=BE7977AF39E44A7FAE63BABF841E83CD&assignmentId=6bffa1ab-8681-4dda-a835-d989a000abfe&projectId=c8967202-2e67-4b77-b18d-1bc6a319defc","BE7977AF39E44A7FAE63BABF841E83CD-2025-05-14-00-10-52","","1221","","<span style=""color: red; font-size: 24px""> NOW RECORDING</span>
        <p>Please test Microphone</p>","","1",""
"","","","","","html-button-response","6","89068","0.0-4.0-2.0","BE7977AF39E44A7FAE63BABF841E83CD","BE7977AF39E44A7FAE63BABF841E83CD","6bffa1ab-8681-4dda-a835-d989a000abfe","c8967202-2e67-4b77-b18d-1bc6a319defc","{""part"":""2"",""participantId"":""BE7977AF39E44A7FAE63BABF841E83CD"",""assignmentId"":""6bffa1ab-8681-4dda-a835-d989a000abfe"",""projectId"":""c8967202-2e67-4b77-b18d-1bc6a319defc""}","https://test12345.live/?part=2&participantId=BE7977AF39E44A7FAE63BABF841E83CD&assignmentId=6bffa1ab-8681-4dda-a835-d989a000abfe&projectId=c8967202-2e67-4b77-b18d-1bc6a319defc","BE7977AF39E44A7FAE63BABF841E83CD-2025-05-14-00-10-52","","1392","","<p style=""font-size:48px; color:red;"">Is Microphone OK?</p>","1","",""
"","","","","","instructions","7","102732","0.0-5.0","BE7977AF39E44A7FAE63BABF841E83CD","BE7977AF39E44A7FAE63BABF841E83CD","6bffa1ab-8681-4dda-a835-d989a000abfe","c8967202-2e67-4b77-b18d-1bc6a319defc","{""part"":""2"",""participantId"":""BE7977AF39E44A7FAE63BABF841E83CD"",""assignmentId"":""6bffa1ab-8681-4dda-a835-d989a000abfe"",""projectId"":""c8967202-2e67-4b77-b18d-1bc6a319defc""}","https://test12345.live/?part=2&participantId=BE7977AF39E44A7FAE63BABF841E83CD&assignmentId=6bffa1ab-8681-4dda-a835-d989a000abfe&projectId=c8967202-2e67-4b77-b18d-1bc6a319defc","BE7977AF39E44A7FAE63BABF841E83CD-2025-05-14-00-10-52","[{""page_index"":0,""viewing_time"":1351},{""page_index"":1,""viewing_time"":5944},{""page_index"":2,""viewing_time"":6368}]","13664","","","","",""
"","","","","","image-button-response","8","108740","0.0-6.0-0.0","BE7977AF39E44A7FAE63BABF841E83CD","BE7977AF39E44A7FAE63BABF841E83CD","6bffa1ab-8681-4dda-a835-d989a000abfe","c8967202-2e67-4b77-b18d-1bc6a319defc","{""part"":""2"",""participantId"":""BE7977AF39E44A7FAE63BABF841E83CD"",""assignmentId"":""6bffa1ab-8681-4dda-a835-d989a000abfe"",""projectId"":""c8967202-2e67-4b77-b18d-1bc6a319defc""}","https://test12345.live/?part=2&participantId=BE7977AF39E44A7FAE63BABF841E83CD&assignmentId=6bffa1ab-8681-4dda-a835-d989a000abfe&projectId=c8967202-2e67-4b77-b18d-1bc6a319defc","BE7977AF39E44A7FAE63BABF841E83CD-2025-05-14-00-10-52","","null","","images/instructions/movie_0.png","null","",""
"","","","","","html-audio-response","9","141580","0.0-7.0","BE7977AF39E44A7FAE63BABF841E83CD","BE7977AF39E44A7FAE63BABF841E83CD","6bffa1ab-8681-4dda-a835-d989a000abfe","c8967202-2e67-4b77-b18d-1bc6a319defc","{""part"":""2"",""participantId"":""BE7977AF39E44A7FAE63BABF841E83CD"",""assignmentId"":""6bffa1ab-8681-4dda-a835-d989a000abfe"",""projectId"":""c8967202-2e67-4b77-b18d-1bc6a319defc""}","https://test12345.live/?part=2&participantId=BE7977AF39E44A7FAE63BABF841E83CD&assignmentId=6bffa1ab-8681-4dda-a835-d989a000abfe&projectId=c8967202-2e67-4b77-b18d-1bc6a319defc","BE7977AF39E44A7FAE63BABF841E83CD-2025-05-14-00-10-52","","17114","","[""<span style=\""color: red; font-size: 24px\""> NOW RECORDING</span><p>Please say out loud all the images you saw in part 1 of the experiment, as many as you can remember. The images can be said in any order.</p>""]","","1",""
"","","","","","instructions","10","145444","0.0-8.0","BE7977AF39E44A7FAE63BABF841E83CD","BE7977AF39E44A7FAE63BABF841E83CD","6bffa1ab-8681-4dda-a835-d989a000abfe","c8967202-2e67-4b77-b18d-1bc6a319defc","{""part"":""2"",""participantId"":""BE7977AF39E44A7FAE63BABF841E83CD"",""assignmentId"":""6bffa1ab-8681-4dda-a835-d989a000abfe"",""projectId"":""c8967202-2e67-4b77-b18d-1bc6a319defc""}","https://test12345.live/?part=2&participantId=BE7977AF39E44A7FAE63BABF841E83CD&assignmentId=6bffa1ab-8681-4dda-a835-d989a000abfe&projectId=c8967202-2e67-4b77-b18d-1bc6a319defc","BE7977AF39E44A7FAE63BABF841E83CD-2025-05-14-00-10-52","[{""page_index"":0,""viewing_time"":3859}]","3859","","","","",""
"","","","","","image-button-response","11","151457","0.0-9.0-0.0","BE7977AF39E44A7FAE63BABF841E83CD","BE7977AF39E44A7FAE63BABF841E83CD","6bffa1ab-8681-4dda-a835-d989a000abfe","c8967202-2e67-4b77-b18d-1bc6a319defc","{""part"":""2"",""participantId"":""BE7977AF39E44A7FAE63BABF841E83CD"",""assignmentId"":""6bffa1ab-8681-4dda-a835-d989a000abfe"",""projectId"":""c8967202-2e67-4b77-b18d-1bc6a319defc""}","https://test12345.live/?part=2&participantId=BE7977AF39E44A7FAE63BABF841E83CD&assignmentId=6bffa1ab-8681-4dda-a835-d989a000abfe&projectId=c8967202-2e67-4b77-b18d-1bc6a319defc","BE7977AF39E44A7FAE63BABF841E83CD-2025-05-14-00-10-52","","null","","images/semantic_sequence/maintaining_a_car_semantic/maintaining_a_car_semantic_0.png","null","",""
"","","","","","html-audio-response","12","200068","0.0-10.0","BE7977AF39E44A7FAE63BABF841E83CD","BE7977AF39E44A7FAE63BABF841E83CD","6bffa1ab-8681-4dda-a835-d989a000abfe","c8967202-2e67-4b77-b18d-1bc6a319defc","{""part"":""2"",""participantId"":""BE7977AF39E44A7FAE63BABF841E83CD"",""assignmentId"":""6bffa1ab-8681-4dda-a835-d989a000abfe"",""projectId"":""c8967202-2e67-4b77-b18d-1bc6a319defc""}","https://test12345.live/?part=2&participantId=BE7977AF39E44A7FAE63BABF841E83CD&assignmentId=6bffa1ab-8681-4dda-a835-d989a000abfe&projectId=c8967202-2e67-4b77-b18d-1bc6a319defc","BE7977AF39E44A7FAE63BABF841E83CD-2025-05-14-00-10-52","","29594","","[""<span style=\""color: red; font-size: 24px\""> NOW RECORDING</span><p>Please say out loud all the images you saw in part 1 of the experiment, as many as you can remember. The images can be said in any order.</p>""]","","1","maintaining_a_car_semantic"
"","","","","","image-button-response","13","206082","0.0-11.0-0.0","BE7977AF39E44A7FAE63BABF841E83CD","BE7977AF39E44A7FAE63BABF841E83CD","6bffa1ab-8681-4dda-a835-d989a000abfe","c8967202-2e67-4b77-b18d-1bc6a319defc","{""part"":""2"",""participantId"":""BE7977AF39E44A7FAE63BABF841E83CD"",""assignmentId"":""6bffa1ab-8681-4dda-a835-d989a000abfe"",""projectId"":""c8967202-2e67-4b77-b18d-1bc6a319defc""}","https://test12345.live/?part=2&participantId=BE7977AF39E44A7FAE63BABF841E83CD&assignmentId=6bffa1ab-8681-4dda-a835-d989a000abfe&projectId=c8967202-2e67-4b77-b18d-1bc6a319defc","BE7977AF39E44A7FAE63BABF841E83CD-2025-05-14-00-10-52","","null","","images/causal_sequence/museum_causal/museum_causal_0.png","null","",""
"","","","","","html-audio-response","14","303452","0.0-12.0","BE7977AF39E44A7FAE63BABF841E83CD","BE7977AF39E44A7FAE63BABF841E83CD","6bffa1ab-8681-4dda-a835-d989a000abfe","c8967202-2e67-4b77-b18d-1bc6a319defc","{""part"":""2"",""participantId"":""BE7977AF39E44A7FAE63BABF841E83CD"",""assignmentId"":""6bffa1ab-8681-4dda-a835-d989a000abfe"",""projectId"":""c8967202-2e67-4b77-b18d-1bc6a319defc""}","https://test12345.live/?part=2&participantId=BE7977AF39E44A7FAE63BABF841E83CD&assignmentId=6bffa1ab-8681-4dda-a835-d989a000abfe&projectId=c8967202-2e67-4b77-b18d-1bc6a319defc","BE7977AF39E44A7FAE63BABF841E83CD-2025-05-14-00-10-52","","7862","","[""<span style=\""color: red; font-size: 24px\""> NOW RECORDING</span><p>Please say out loud all the images you saw in part 1 of the experiment, as many as you can remember. The images can be said in any order.</p>""]","","4","museum_causal"
"","","","","","image-button-response","15","309461","0.0-13.0-0.0","BE7977AF39E44A7FAE63BABF841E83CD","BE7977AF39E44A7FAE63BABF841E83CD","6bffa1ab-8681-4dda-a835-d989a000abfe","c8967202-2e67-4b77-b18d-1bc6a319defc","{""part"":""2"",""participantId"":""BE7977AF39E44A7FAE63BABF841E83CD"",""assignmentId"":""6bffa1ab-8681-4dda-a835-d989a000abfe"",""projectId"":""c8967202-2e67-4b77-b18d-1bc6a319defc""}","https://test12345.live/?part=2&participantId=BE7977AF39E44A7FAE63BABF841E83CD&assignmentId=6bffa1ab-8681-4dda-a835-d989a000abfe&projectId=c8967202-2e67-4b77-b18d-1bc6a319defc","BE7977AF39E44A7FAE63BABF841E83CD-2025-05-14-00-10-52","","null","","images/schematic_sequence/dinner_party_scheme/dinner_party_scheme_0.png","null","",""
"","","","","","html-audio-response","16","349612","0.0-14.0","BE7977AF39E44A7FAE63BABF841E83CD","BE7977AF39E44A7FAE63BABF841E83CD","6bffa1ab-8681-4dda-a835-d989a000abfe","c8967202-2e67-4b77-b18d-1bc6a319defc","{""part"":""2"",""participantId"":""BE7977AF39E44A7FAE63BABF841E83CD"",""assignmentId"":""6bffa1ab-8681-4dda-a835-d989a000abfe"",""projectId"":""c8967202-2e67-4b77-b18d-1bc6a319defc""}","https://test12345.live/?part=2&participantId=BE7977AF39E44A7FAE63BABF841E83CD&assignmentId=6bffa1ab-8681-4dda-a835-d989a000abfe&projectId=c8967202-2e67-4b77-b18d-1bc6a319defc","BE7977AF39E44A7FAE63BABF841E83CD-2025-05-14-00-10-52","","30339","","[""<span style=\""color: red; font-size: 24px\""> NOW RECORDING</span><p>Please say out loud all the images you saw in part 1 of the experiment, as many as you can remember. The images can be said in any order.</p>""]","","1","dinner_party_scheme"
"","","","","","image-button-response","17","355625","0.0-15.0-0.0","BE7977AF39E44A7FAE63BABF841E83CD","BE7977AF39E44A7FAE63BABF841E83CD","6bffa1ab-8681-4dda-a835-d989a000abfe","c8967202-2e67-4b77-b18d-1bc6a319defc","{""part"":""2"",""participantId"":""BE7977AF39E44A7FAE63BABF841E83CD"",""assignmentId"":""6bffa1ab-8681-4dda-a835-d989a000abfe"",""projectId"":""c8967202-2e67-4b77-b18d-1bc6a319defc""}","https://test12345.live/?part=2&participantId=BE7977AF39E44A7FAE63BABF841E83CD&assignmentId=6bffa1ab-8681-4dda-a835-d989a000abfe&projectId=c8967202-2e67-4b77-b18d-1bc6a319defc","BE7977AF39E44A7FAE63BABF841E83CD-2025-05-14-00-10-52","","null","","images/semantic_sequence/kitchen_operations_semantic/kitchen_operations_semantic_0.png","null","",""
"","","","","","html-audio-response","18","390476","0.0-16.0","BE7977AF39E44A7FAE63BABF841E83CD","BE7977AF39E44A7FAE63BABF841E83CD","6bffa1ab-8681-4dda-a835-d989a000abfe","c8967202-2e67-4b77-b18d-1bc6a319defc","{""part"":""2"",""participantId"":""BE7977AF39E44A7FAE63BABF841E83CD"",""assignmentId"":""6bffa1ab-8681-4dda-a835-d989a000abfe"",""projectId"":""c8967202-2e67-4b77-b18d-1bc6a319defc""}","https://test12345.live/?part=2&participantId=BE7977AF39E44A7FAE63BABF841E83CD&assignmentId=6bffa1ab-8681-4dda-a835-d989a000abfe&projectId=c8967202-2e67-4b77-b18d-1bc6a319defc","BE7977AF39E44A7FAE63BABF841E83CD-2025-05-14-00-10-52","","21480","","[""<span style=\""color: red; font-size: 24px\""> NOW RECORDING</span><p>Please say out loud all the images you saw in part 1 of the experiment, as many as you can remember. The images can be said in any order.</p>""]","","1","kitchen_operations_semantic"
"","","","","","image-button-response","19","396486","0.0-17.0-0.0","BE7977AF39E44A7FAE63BABF841E83CD","BE7977AF39E44A7FAE63BABF841E83CD","6bffa1ab-8681-4dda-a835-d989a000abfe","c8967202-2e67-4b77-b18d-1bc6a319defc","{""part"":""2"",""participantId"":""BE7977AF39E44A7FAE63BABF841E83CD"",""assignmentId"":""6bffa1ab-8681-4dda-a835-d989a000abfe"",""projectId"":""c8967202-2e67-4b77-b18d-1bc6a319defc""}","https://test12345.live/?part=2&participantId=BE7977AF39E44A7FAE63BABF841E83CD&assignmentId=6bffa1ab-8681-4dda-a835-d989a000abfe&projectId=c8967202-2e67-4b77-b18d-1bc6a319defc","BE7977AF39E44A7FAE63BABF841E83CD-2025-05-14-00-10-52","","null","","images/causal_sequence/package_causal/package_causal_0.png","null","",""
"","","","","","html-audio-response","20","444324","0.0-18.0","BE7977AF39E44A7FAE63BABF841E83CD","BE7977AF39E44A7FAE63BABF841E83CD","6bffa1ab-8681-4dda-a835-d989a000abfe","c8967202-2e67-4b77-b18d-1bc6a319defc","{""part"":""2"",""participantId"":""BE7977AF39E44A7FAE63BABF841E83CD"",""assignmentId"":""6bffa1ab-8681-4dda-a835-d989a000abfe"",""projectId"":""c8967202-2e67-4b77-b18d-1bc6a319defc""}","https://test12345.live/?part=2&participantId=BE7977AF39E44A7FAE63BABF841E83CD&assignmentId=6bffa1ab-8681-4dda-a835-d989a000abfe&projectId=c8967202-2e67-4b77-b18d-1bc6a319defc","BE7977AF39E44A7FAE63BABF841E83CD-2025-05-14-00-10-52","","39645","","[""<span style=\""color: red; font-size: 24px\""> NOW RECORDING</span><p>Please say out loud all the images you saw in part 1 of the experiment, as many as you can remember. The images can be said in any order.</p>""]","","1","package_causal"
"","","","","","image-button-response","21","450333","0.0-19.0-0.0","BE7977AF39E44A7FAE63BABF841E83CD","BE7977AF39E44A7FAE63BABF841E83CD","6bffa1ab-8681-4dda-a835-d989a000abfe","c8967202-2e67-4b77-b18d-1bc6a319defc","{""part"":""2"",""participantId"":""BE7977AF39E44A7FAE63BABF841E83CD"",""assignmentId"":""6bffa1ab-8681-4dda-a835-d989a000abfe"",""projectId"":""c8967202-2e67-4b77-b18d-1bc6a319defc""}","https://test12345.live/?part=2&participantId=BE7977AF39E44A7FAE63BABF841E83CD&assignmentId=6bffa1ab-8681-4dda-a835-d989a000abfe&projectId=c8967202-2e67-4b77-b18d-1bc6a319defc","BE7977AF39E44A7FAE63BABF841E83CD-2025-05-14-00-10-52","","null","","images/schematic_sequence/hotel_scheme/hotel_scheme_0.png","null","",""
"","","","","","html-audio-response","22","486771","0.0-20.0","BE7977AF39E44A7FAE63BABF841E83CD","BE7977AF39E44A7FAE63BABF841E83CD","6bffa1ab-8681-4dda-a835-d989a000abfe","c8967202-2e67-4b77-b18d-1bc6a319defc","{""part"":""2"",""participantId"":""BE7977AF39E44A7FAE63BABF841E83CD"",""assignmentId"":""6bffa1ab-8681-4dda-a835-d989a000abfe"",""projectId"":""c8967202-2e67-4b77-b18d-1bc6a319defc""}","https://test12345.live/?part=2&participantId=BE7977AF39E44A7FAE63BABF841E83CD&assignmentId=6bffa1ab-8681-4dda-a835-d989a000abfe&projectId=c8967202-2e67-4b77-b18d-1bc6a319defc","BE7977AF39E44A7FAE63BABF841E83CD-2025-05-14-00-10-52","","23450","","[""<span style=\""color: red; font-size: 24px\""> NOW RECORDING</span><p>Please say out loud all the images you saw in part 1 of the experiment, as many as you can remember. The images can be said in any order.</p>""]","","1","hotel_scheme"
"","","","","","image-button-response","23","492789","0.0-21.0-0.0","BE7977AF39E44A7FAE63BABF841E83CD","BE7977AF39E44A7FAE63BABF841E83CD","6bffa1ab-8681-4dda-a835-d989a000abfe","c8967202-2e67-4b77-b18d-1bc6a319defc","{""part"":""2"",""participantId"":""BE7977AF39E44A7FAE63BABF841E83CD"",""assignmentId"":""6bffa1ab-8681-4dda-a835-d989a000abfe"",""projectId"":""c8967202-2e67-4b77-b18d-1bc6a319defc""}","https://test12345.live/?part=2&participantId=BE7977AF39E44A7FAE63BABF841E83CD&assignmentId=6bffa1ab-8681-4dda-a835-d989a000abfe&projectId=c8967202-2e67-4b77-b18d-1bc6a319defc","BE7977AF39E44A7FAE63BABF841E83CD-2025-05-14-00-10-52","","null","","images/semantic_sequence/cat_care_semantic/cat_care_semantic_0.png","null","",""
"","","","","","html-audio-response","24","523348","0.0-22.0","BE7977AF39E44A7FAE63BABF841E83CD","BE7977AF39E44A7FAE63BABF841E83CD","6bffa1ab-8681-4dda-a835-d989a000abfe","c8967202-2e67-4b77-b18d-1bc6a319defc","{""part"":""2"",""participantId"":""BE7977AF39E44A7FAE63BABF841E83CD"",""assignmentId"":""6bffa1ab-8681-4dda-a835-d989a000abfe"",""projectId"":""c8967202-2e67-4b77-b18d-1bc6a319defc""}","https://test12345.live/?part=2&participantId=BE7977AF39E44A7FAE63BABF841E83CD&assignmentId=6bffa1ab-8681-4dda-a835-d989a000abfe&projectId=c8967202-2e67-4b77-b18d-1bc6a319defc","BE7977AF39E44A7FAE63BABF841E83CD-2025-05-14-00-10-52","","22047","","[""<span style=\""color: red; font-size: 24px\""> NOW RECORDING</span><p>Please say out loud all the images you saw in part 1 of the experiment, as many as you can remember. The images can be said in any order.</p>""]","","1","cat_care_semantic"
"","","","","","image-button-response","25","529364","0.0-23.0-0.0","BE7977AF39E44A7FAE63BABF841E83CD","BE7977AF39E44A7FAE63BABF841E83CD","6bffa1ab-8681-4dda-a835-d989a000abfe","c8967202-2e67-4b77-b18d-1bc6a319defc","{""part"":""2"",""participantId"":""BE7977AF39E44A7FAE63BABF841E83CD"",""assignmentId"":""6bffa1ab-8681-4dda-a835-d989a000abfe"",""projectId"":""c8967202-2e67-4b77-b18d-1bc6a319defc""}","https://test12345.live/?part=2&participantId=BE7977AF39E44A7FAE63BABF841E83CD&assignmentId=6bffa1ab-8681-4dda-a835-d989a000abfe&projectId=c8967202-2e67-4b77-b18d-1bc6a319defc","BE7977AF39E44A7FAE63BABF841E83CD-2025-05-14-00-10-52","","null","","images/causal_sequence/coin_causal/coin_causal_0.png","null","",""
"","","","","","html-audio-response","26","590484","0.0-24.0","BE7977AF39E44A7FAE63BABF841E83CD","BE7977AF39E44A7FAE63BABF841E83CD","6bffa1ab-8681-4dda-a835-d989a000abfe","c8967202-2e67-4b77-b18d-1bc6a319defc","{""part"":""2"",""participantId"":""BE7977AF39E44A7FAE63BABF841E83CD"",""assignmentId"":""6bffa1ab-8681-4dda-a835-d989a000abfe"",""projectId"":""c8967202-2e67-4b77-b18d-1bc6a319defc""}","https://test12345.live/?part=2&participantId=BE7977AF39E44A7FAE63BABF841E83CD&assignmentId=6bffa1ab-8681-4dda-a835-d989a000abfe&projectId=c8967202-2e67-4b77-b18d-1bc6a319defc","BE7977AF39E44A7FAE63BABF841E83CD-2025-05-14-00-10-52","","45820","","[""<span style=\""color: red; font-size: 24px\""> NOW RECORDING</span><p>Please say out loud all the images you saw in part 1 of the experiment, as many as you can remember. The images can be said in any order.</p>""]","","1","coin_causal"
"","","","","","image-button-response","27","596491","0.0-25.0-0.0","BE7977AF39E44A7FAE63BABF841E83CD","BE7977AF39E44A7FAE63BABF841E83CD","6bffa1ab-8681-4dda-a835-d989a000abfe","c8967202-2e67-4b77-b18d-1bc6a319defc","{""part"":""2"",""participantId"":""BE7977AF39E44A7FAE63BABF841E83CD"",""assignmentId"":""6bffa1ab-8681-4dda-a835-d989a000abfe"",""projectId"":""c8967202-2e67-4b77-b18d-1bc6a319defc""}","https://test12345.live/?part=2&participantId=BE7977AF39E44A7FAE63BABF841E83CD&assignmentId=6bffa1ab-8681-4dda-a835-d989a000abfe&projectId=c8967202-2e67-4b77-b18d-1bc6a319defc","BE7977AF39E44A7FAE63BABF841E83CD-2025-05-14-00-10-52","","null","","images/schematic_sequence/restaurant_scheme/restaurant_scheme_0.png","null","",""
"","","","","","html-audio-response","28","631692","0.0-26.0","BE7977AF39E44A7FAE63BABF841E83CD","BE7977AF39E44A7FAE63BABF841E83CD","6bffa1ab-8681-4dda-a835-d989a000abfe","c8967202-2e67-4b77-b18d-1bc6a319defc","{""part"":""2"",""participantId"":""BE7977AF39E44A7FAE63BABF841E83CD"",""assignmentId"":""6bffa1ab-8681-4dda-a835-d989a000abfe"",""projectId"":""c8967202-2e67-4b77-b18d-1bc6a319defc""}","https://test12345.live/?part=2&participantId=BE7977AF39E44A7FAE63BABF841E83CD&assignmentId=6bffa1ab-8681-4dda-a835-d989a000abfe&projectId=c8967202-2e67-4b77-b18d-1bc6a319defc","BE7977AF39E44A7FAE63BABF841E83CD-2025-05-14-00-10-52","","29962","","[""<span style=\""color: red; font-size: 24px\""> NOW RECORDING</span><p>Please say out loud all the images you saw in part 1 of the experiment, as many as you can remember. The images can be said in any order.</p>""]","","1","restaurant_scheme"
"","","","","","image-button-response","29","637708","0.0-27.0-0.0","BE7977AF39E44A7FAE63BABF841E83CD","BE7977AF39E44A7FAE63BABF841E83CD","6bffa1ab-8681-4dda-a835-d989a000abfe","c8967202-2e67-4b77-b18d-1bc6a319defc","{""part"":""2"",""participantId"":""BE7977AF39E44A7FAE63BABF841E83CD"",""assignmentId"":""6bffa1ab-8681-4dda-a835-d989a000abfe"",""projectId"":""c8967202-2e67-4b77-b18d-1bc6a319defc""}","https://test12345.live/?part=2&participantId=BE7977AF39E44A7FAE63BABF841E83CD&assignmentId=6bffa1ab-8681-4dda-a835-d989a000abfe&projectId=c8967202-2e67-4b77-b18d-1bc6a319defc","BE7977AF39E44A7FAE63BABF841E83CD-2025-05-14-00-10-52","","null","","images/semantic_sequence/exploring_nature_semantic/exploring_nature_semantic_0.png","null","",""
"","","","","","html-audio-response","30","670155","0.0-28.0","BE7977AF39E44A7FAE63BABF841E83CD","BE7977AF39E44A7FAE63BABF841E83CD","6bffa1ab-8681-4dda-a835-d989a000abfe","c8967202-2e67-4b77-b18d-1bc6a319defc","{""part"":""2"",""participantId"":""BE7977AF39E44A7FAE63BABF841E83CD"",""assignmentId"":""6bffa1ab-8681-4dda-a835-d989a000abfe"",""projectId"":""c8967202-2e67-4b77-b18d-1bc6a319defc""}","https://test12345.live/?part=2&participantId=BE7977AF39E44A7FAE63BABF841E83CD&assignmentId=6bffa1ab-8681-4dda-a835-d989a000abfe&projectId=c8967202-2e67-4b77-b18d-1bc6a319defc","BE7977AF39E44A7FAE63BABF841E83CD-2025-05-14-00-10-52","","25793","","[""<span style=\""color: red; font-size: 24px\""> NOW RECORDING</span><p>Please say out loud all the images you saw in part 1 of the experiment, as many as you can remember. The images can be said in any order.</p>""]","","1","exploring_nature_semantic"
"","","","","","image-button-response","31","676167","0.0-29.0-0.0","BE7977AF39E44A7FAE63BABF841E83CD","BE7977AF39E44A7FAE63BABF841E83CD","6bffa1ab-8681-4dda-a835-d989a000abfe","c8967202-2e67-4b77-b18d-1bc6a319defc","{""part"":""2"",""participantId"":""BE7977AF39E44A7FAE63BABF841E83CD"",""assignmentId"":""6bffa1ab-8681-4dda-a835-d989a000abfe"",""projectId"":""c8967202-2e67-4b77-b18d-1bc6a319defc""}","https://test12345.live/?part=2&participantId=BE7977AF39E44A7FAE63BABF841E83CD&assignmentId=6bffa1ab-8681-4dda-a835-d989a000abfe&projectId=c8967202-2e67-4b77-b18d-1bc6a319defc","BE7977AF39E44A7FAE63BABF841E83CD-2025-05-14-00-10-52","","null","","images/semantic_sequence/traveling_semantic/traveling_semantic_0.png","null","",""
"","","","","","html-audio-response","32","729803","0.0-30.0","BE7977AF39E44A7FAE63BABF841E83CD","BE7977AF39E44A7FAE63BABF841E83CD","6bffa1ab-8681-4dda-a835-d989a000abfe","c8967202-2e67-4b77-b18d-1bc6a319defc","{""part"":""2"",""participantId"":""BE7977AF39E44A7FAE63BABF841E83CD"",""assignmentId"":""6bffa1ab-8681-4dda-a835-d989a000abfe"",""projectId"":""c8967202-2e67-4b77-b18d-1bc6a319defc""}","https://test12345.live/?part=2&participantId=BE7977AF39E44A7FAE63BABF841E83CD&assignmentId=6bffa1ab-8681-4dda-a835-d989a000abfe&projectId=c8967202-2e67-4b77-b18d-1bc6a319defc","BE7977AF39E44A7FAE63BABF841E83CD-2025-05-14-00-10-52","","32443","","[""<span style=\""color: red; font-size: 24px\""> NOW RECORDING</span><p>Please say out loud all the images you saw in part 1 of the experiment, as many as you can remember. The images can be said in any order.</p>""]","","1","traveling_semantic"
"","","","","","image-button-response","33","735813","0.0-31.0-0.0","BE7977AF39E44A7FAE63BABF841E83CD","BE7977AF39E44A7FAE63BABF841E83CD","6bffa1ab-8681-4dda-a835-d989a000abfe","c8967202-2e67-4b77-b18d-1bc6a319defc","{""part"":""2"",""participantId"":""BE7977AF39E44A7FAE63BABF841E83CD"",""assignmentId"":""6bffa1ab-8681-4dda-a835-d989a000abfe"",""projectId"":""c8967202-2e67-4b77-b18d-1bc6a319defc""}","https://test12345.live/?part=2&participantId=BE7977AF39E44A7FAE63BABF841E83CD&assignmentId=6bffa1ab-8681-4dda-a835-d989a000abfe&projectId=c8967202-2e67-4b77-b18d-1bc6a319defc","BE7977AF39E44A7FAE63BABF841E83CD-2025-05-14-00-10-52","","null","","images/causal_sequence/dog_causal/dog_causal_0.png","null","",""
"","","","","","html-audio-response","34","782788","0.0-32.0","BE7977AF39E44A7FAE63BABF841E83CD","BE7977AF39E44A7FAE63BABF841E83CD","6bffa1ab-8681-4dda-a835-d989a000abfe","c8967202-2e67-4b77-b18d-1bc6a319defc","{""part"":""2"",""participantId"":""BE7977AF39E44A7FAE63BABF841E83CD"",""assignmentId"":""6bffa1ab-8681-4dda-a835-d989a000abfe"",""projectId"":""c8967202-2e67-4b77-b18d-1bc6a319defc""}","https://test12345.live/?part=2&participantId=BE7977AF39E44A7FAE63BABF841E83CD&assignmentId=6bffa1ab-8681-4dda-a835-d989a000abfe&projectId=c8967202-2e67-4b77-b18d-1bc6a319defc","BE7977AF39E44A7FAE63BABF841E83CD-2025-05-14-00-10-52","","42554","","[""<span style=\""color: red; font-size: 24px\""> NOW RECORDING</span><p>Please say out loud all the images you saw in part 1 of the experiment, as many as you can remember. The images can be said in any order.</p>""]","","1","dog_causal"
"","","","","","image-button-response","35","788797","0.0-33.0-0.0","BE7977AF39E44A7FAE63BABF841E83CD","BE7977AF39E44A7FAE63BABF841E83CD","6bffa1ab-8681-4dda-a835-d989a000abfe","c8967202-2e67-4b77-b18d-1bc6a319defc","{""part"":""2"",""participantId"":""BE7977AF39E44A7FAE63BABF841E83CD"",""assignmentId"":""6bffa1ab-8681-4dda-a835-d989a000abfe"",""projectId"":""c8967202-2e67-4b77-b18d-1bc6a319defc""}","https://test12345.live/?part=2&participantId=BE7977AF39E44A7FAE63BABF841E83CD&assignmentId=6bffa1ab-8681-4dda-a835-d989a000abfe&projectId=c8967202-2e67-4b77-b18d-1bc6a319defc","BE7977AF39E44A7FAE63BABF841E83CD-2025-05-14-00-10-52","","null","","images/schematic_sequence/supermarket_scheme/supermarket_scheme_0.png","null","",""
"","","","","","html-audio-response","36","840827","0.0-34.0","BE7977AF39E44A7FAE63BABF841E83CD","BE7977AF39E44A7FAE63BABF841E83CD","6bffa1ab-8681-4dda-a835-d989a000abfe","c8967202-2e67-4b77-b18d-1bc6a319defc","{""part"":""2"",""participantId"":""BE7977AF39E44A7FAE63BABF841E83CD"",""assignmentId"":""6bffa1ab-8681-4dda-a835-d989a000abfe"",""projectId"":""c8967202-2e67-4b77-b18d-1bc6a319defc""}","https://test12345.live/?part=2&participantId=BE7977AF39E44A7FAE63BABF841E83CD&assignmentId=6bffa1ab-8681-4dda-a835-d989a000abfe&projectId=c8967202-2e67-4b77-b18d-1bc6a319defc","BE7977AF39E44A7FAE63BABF841E83CD-2025-05-14-00-10-52","","38350","","[""<span style=\""color: red; font-size: 24px\""> NOW RECORDING</span><p>Please say out loud all the images you saw in part 1 of the experiment, as many as you can remember. The images can be said in any order.</p>""]","","1","supermarket_scheme"
"","","","","","image-button-response","37","846835","0.0-35.0-0.0","BE7977AF39E44A7FAE63BABF841E83CD","BE7977AF39E44A7FAE63BABF841E83CD","6bffa1ab-8681-4dda-a835-d989a000abfe","c8967202-2e67-4b77-b18d-1bc6a319defc","{""part"":""2"",""participantId"":""BE7977AF39E44A7FAE63BABF841E83CD"",""assignmentId"":""6bffa1ab-8681-4dda-a835-d989a000abfe"",""projectId"":""c8967202-2e67-4b77-b18d-1bc6a319defc""}","https://test12345.live/?part=2&participantId=BE7977AF39E44A7FAE63BABF841E83CD&assignmentId=6bffa1ab-8681-4dda-a835-d989a000abfe&projectId=c8967202-2e67-4b77-b18d-1bc6a319defc","BE7977AF39E44A7FAE63BABF841E83CD-2025-05-14-00-10-52","","null","","images/causal_sequence/saving_a_cat_causal/saving_a_cat_causal_0.png","null","",""
"","","","","","html-audio-response","38","897003","0.0-36.0","BE7977AF39E44A7FAE63BABF841E83CD","BE7977AF39E44A7FAE63BABF841E83CD","6bffa1ab-8681-4dda-a835-d989a000abfe","c8967202-2e67-4b77-b18d-1bc6a319defc","{""part"":""2"",""participantId"":""BE7977AF39E44A7FAE63BABF841E83CD"",""assignmentId"":""6bffa1ab-8681-4dda-a835-d989a000abfe"",""projectId"":""c8967202-2e67-4b77-b18d-1bc6a319defc""}","https://test12345.live/?part=2&participantId=BE7977AF39E44A7FAE63BABF841E83CD&assignmentId=6bffa1ab-8681-4dda-a835-d989a000abfe&projectId=c8967202-2e67-4b77-b18d-1bc6a319defc","BE7977AF39E44A7FAE63BABF841E83CD-2025-05-14-00-10-52","","36975","","[""<span style=\""color: red; font-size: 24px\""> NOW RECORDING</span><p>Please say out loud all the images you saw in part 1 of the experiment, as many as you can remember. The images can be said in any order.</p>""]","","0","saving_a_cat_causal"
"","","","","","image-button-response","39","903020","0.0-37.0-0.0","BE7977AF39E44A7FAE63BABF841E83CD","BE7977AF39E44A7FAE63BABF841E83CD","6bffa1ab-8681-4dda-a835-d989a000abfe","c8967202-2e67-4b77-b18d-1bc6a319defc","{""part"":""2"",""participantId"":""BE7977AF39E44A7FAE63BABF841E83CD"",""assignmentId"":""6bffa1ab-8681-4dda-a835-d989a000abfe"",""projectId"":""c8967202-2e67-4b77-b18d-1bc6a319defc""}","https://test12345.live/?part=2&participantId=BE7977AF39E44A7FAE63BABF841E83CD&assignmentId=6bffa1ab-8681-4dda-a835-d989a000abfe&projectId=c8967202-2e67-4b77-b18d-1bc6a319defc","BE7977AF39E44A7FAE63BABF841E83CD-2025-05-14-00-10-52","","null","","images/causal_sequence/the_performance_causal/the_performance_causal_0.png","null","",""
"","","","","","html-audio-response","40","999019","0.0-38.0","BE7977AF39E44A7FAE63BABF841E83CD","BE7977AF39E44A7FAE63BABF841E83CD","6bffa1ab-8681-4dda-a835-d989a000abfe","c8967202-2e67-4b77-b18d-1bc6a319defc","{""part"":""2"",""participantId"":""BE7977AF39E44A7FAE63BABF841E83CD"",""assignmentId"":""6bffa1ab-8681-4dda-a835-d989a000abfe"",""projectId"":""c8967202-2e67-4b77-b18d-1bc6a319defc""}","https://test12345.live/?part=2&participantId=BE7977AF39E44A7FAE63BABF841E83CD&assignmentId=6bffa1ab-8681-4dda-a835-d989a000abfe&projectId=c8967202-2e67-4b77-b18d-1bc6a319defc","BE7977AF39E44A7FAE63BABF841E83CD-2025-05-14-00-10-52","","36010","","[""<span style=\""color: red; font-size: 24px\""> NOW RECORDING</span><p>Please say out loud all the images you saw in part 1 of the experiment, as many as you can remember. The images can be said in any order.</p>""]","","1","the_performance_causal"
"","","","","","image-button-response","41","1005039","0.0-39.0-0.0","BE7977AF39E44A7FAE63BABF841E83CD","BE7977AF39E44A7FAE63BABF841E83CD","6bffa1ab-8681-4dda-a835-d989a000abfe","c8967202-2e67-4b77-b18d-1bc6a319defc","{""part"":""2"",""participantId"":""BE7977AF39E44A7FAE63BABF841E83CD"",""assignmentId"":""6bffa1ab-8681-4dda-a835-d989a000abfe"",""projectId"":""c8967202-2e67-4b77-b18d-1bc6a319defc""}","https://test12345.live/?part=2&participantId=BE7977AF39E44A7FAE63BABF841E83CD&assignmentId=6bffa1ab-8681-4dda-a835-d989a000abfe&projectId=c8967202-2e67-4b77-b18d-1bc6a319defc","BE7977AF39E44A7FAE63BABF841E83CD-2025-05-14-00-10-52","","null","","images/semantic_sequence/using_technology_semantic/using_technology_semantic_0.png","null","",""
"","","","","","html-audio-response","42","1044067","0.0-40.0","BE7977AF39E44A7FAE63BABF841E83CD","BE7977AF39E44A7FAE63BABF841E83CD","6bffa1ab-8681-4dda-a835-d989a000abfe","c8967202-2e67-4b77-b18d-1bc6a319defc","{""part"":""2"",""participantId"":""BE7977AF39E44A7FAE63BABF841E83CD"",""assignmentId"":""6bffa1ab-8681-4dda-a835-d989a000abfe"",""projectId"":""c8967202-2e67-4b77-b18d-1bc6a319defc""}","https://test12345.live/?part=2&participantId=BE7977AF39E44A7FAE63BABF841E83CD&assignmentId=6bffa1ab-8681-4dda-a835-d989a000abfe&projectId=c8967202-2e67-4b77-b18d-1bc6a319defc","BE7977AF39E44A7FAE63BABF841E83CD-2025-05-14-00-10-52","","22310","","[""<span style=\""color: red; font-size: 24px\""> NOW RECORDING</span><p>Please say out loud all the images you saw in part 1 of the experiment, as many as you can remember. The images can be said in any order.</p>""]","","0","using_technology_semantic"
"","","","","","image-button-response","43","1050079","0.0-41.0-0.0","BE7977AF39E44A7FAE63BABF841E83CD","BE7977AF39E44A7FAE63BABF841E83CD","6bffa1ab-8681-4dda-a835-d989a000abfe","c8967202-2e67-4b77-b18d-1bc6a319defc","{""part"":""2"",""participantId"":""BE7977AF39E44A7FAE63BABF841E83CD"",""assignmentId"":""6bffa1ab-8681-4dda-a835-d989a000abfe"",""projectId"":""c8967202-2e67-4b77-b18d-1bc6a319defc""}","https://test12345.live/?part=2&participantId=BE7977AF39E44A7FAE63BABF841E83CD&assignmentId=6bffa1ab-8681-4dda-a835-d989a000abfe&projectId=c8967202-2e67-4b77-b18d-1bc6a319defc","BE7977AF39E44A7FAE63BABF841E83CD-2025-05-14-00-10-52","","null","","images/semantic_sequence/market_semantic/market_semantic_0.png","null","",""
"","","","","","html-audio-response","44","1089404","0.0-42.0","BE7977AF39E44A7FAE63BABF841E83CD","BE7977AF39E44A7FAE63BABF841E83CD","6bffa1ab-8681-4dda-a835-d989a000abfe","c8967202-2e67-4b77-b18d-1bc6a319defc","{""part"":""2"",""participantId"":""BE7977AF39E44A7FAE63BABF841E83CD"",""assignmentId"":""6bffa1ab-8681-4dda-a835-d989a000abfe"",""projectId"":""c8967202-2e67-4b77-b18d-1bc6a319defc""}","https://test12345.live/?part=2&participantId=BE7977AF39E44A7FAE63BABF841E83CD&assignmentId=6bffa1ab-8681-4dda-a835-d989a000abfe&projectId=c8967202-2e67-4b77-b18d-1bc6a319defc","BE7977AF39E44A7FAE63BABF841E83CD-2025-05-14-00-10-52","","30893","","[""<span style=\""color: red; font-size: 24px\""> NOW RECORDING</span><p>Please say out loud all the images you saw in part 1 of the experiment, as many as you can remember. The images can be said in any order.</p>""]","","1","market_semantic"
"","","","","","image-button-response","45","1095426","0.0-43.0-0.0","BE7977AF39E44A7FAE63BABF841E83CD","BE7977AF39E44A7FAE63BABF841E83CD","6bffa1ab-8681-4dda-a835-d989a000abfe","c8967202-2e67-4b77-b18d-1bc6a319defc","{""part"":""2"",""participantId"":""BE7977AF39E44A7FAE63BABF841E83CD"",""assignmentId"":""6bffa1ab-8681-4dda-a835-d989a000abfe"",""projectId"":""c8967202-2e67-4b77-b18d-1bc6a319defc""}","https://test12345.live/?part=2&participantId=BE7977AF39E44A7FAE63BABF841E83CD&assignmentId=6bffa1ab-8681-4dda-a835-d989a000abfe&projectId=c8967202-2e67-4b77-b18d-1bc6a319defc","BE7977AF39E44A7FAE63BABF841E83CD-2025-05-14-00-10-52","","null","","images/semantic_sequence/housework_semantic/housework_semantic_0.png","null","",""
"","","","","","html-audio-response","46","1139739","0.0-44.0","BE7977AF39E44A7FAE63BABF841E83CD","BE7977AF39E44A7FAE63BABF841E83CD","6bffa1ab-8681-4dda-a835-d989a000abfe","c8967202-2e67-4b77-b18d-1bc6a319defc","{""part"":""2"",""participantId"":""BE7977AF39E44A7FAE63BABF841E83CD"",""assignmentId"":""6bffa1ab-8681-4dda-a835-d989a000abfe"",""projectId"":""c8967202-2e67-4b77-b18d-1bc6a319defc""}","https://test12345.live/?part=2&participantId=BE7977AF39E44A7FAE63BABF841E83CD&assignmentId=6bffa1ab-8681-4dda-a835-d989a000abfe&projectId=c8967202-2e67-4b77-b18d-1bc6a319defc","BE7977AF39E44A7FAE63BABF841E83CD-2025-05-14-00-10-52","","25968","","[""<span style=\""color: red; font-size: 24px\""> NOW RECORDING</span><p>Please say out loud all the images you saw in part 1 of the experiment, as many as you can remember. The images can be said in any order.</p>""]","","1","housework_semantic"
"","","","","","image-button-response","47","1145747","0.0-45.0-0.0","BE7977AF39E44A7FAE63BABF841E83CD","BE7977AF39E44A7FAE63BABF841E83CD","6bffa1ab-8681-4dda-a835-d989a000abfe","c8967202-2e67-4b77-b18d-1bc6a319defc","{""part"":""2"",""participantId"":""BE7977AF39E44A7FAE63BABF841E83CD"",""assignmentId"":""6bffa1ab-8681-4dda-a835-d989a000abfe"",""projectId"":""c8967202-2e67-4b77-b18d-1bc6a319defc""}","https://test12345.live/?part=2&participantId=BE7977AF39E44A7FAE63BABF841E83CD&assignmentId=6bffa1ab-8681-4dda-a835-d989a000abfe&projectId=c8967202-2e67-4b77-b18d-1bc6a319defc","BE7977AF39E44A7FAE63BABF841E83CD-2025-05-14-00-10-52","","null","","images/semantic_sequence/self_care_activities_semantic/self_care_activities_semantic_0.png","null","",""
"","","","","","html-audio-response","48","1175563","0.0-46.0","BE7977AF39E44A7FAE63BABF841E83CD","BE7977AF39E44A7FAE63BABF841E83CD","6bffa1ab-8681-4dda-a835-d989a000abfe","c8967202-2e67-4b77-b18d-1bc6a319defc","{""part"":""2"",""participantId"":""BE7977AF39E44A7FAE63BABF841E83CD"",""assignmentId"":""6bffa1ab-8681-4dda-a835-d989a000abfe"",""projectId"":""c8967202-2e67-4b77-b18d-1bc6a319defc""}","https://test12345.live/?part=2&participantId=BE7977AF39E44A7FAE63BABF841E83CD&assignmentId=6bffa1ab-8681-4dda-a835-d989a000abfe&projectId=c8967202-2e67-4b77-b18d-1bc6a319defc","BE7977AF39E44A7FAE63BABF841E83CD-2025-05-14-00-10-52","","23369","","[""<span style=\""color: red; font-size: 24px\""> NOW RECORDING</span><p>Please say out loud all the images you saw in part 1 of the experiment, as many as you can remember. The images can be said in any order.</p>""]","","0","self_care_activities_semantic"
"","","","","","image-button-response","49","1181573","0.0-47.0-0.0","BE7977AF39E44A7FAE63BABF841E83CD","BE7977AF39E44A7FAE63BABF841E83CD","6bffa1ab-8681-4dda-a835-d989a000abfe","c8967202-2e67-4b77-b18d-1bc6a319defc","{""part"":""2"",""participantId"":""BE7977AF39E44A7FAE63BABF841E83CD"",""assignmentId"":""6bffa1ab-8681-4dda-a835-d989a000abfe"",""projectId"":""c8967202-2e67-4b77-b18d-1bc6a319defc""}","https://test12345.live/?part=2&participantId=BE7977AF39E44A7FAE63BABF841E83CD&assignmentId=6bffa1ab-8681-4dda-a835-d989a000abfe&projectId=c8967202-2e67-4b77-b18d-1bc6a319defc","BE7977AF39E44A7FAE63BABF841E83CD-2025-05-14-00-10-52","","null","","images/schematic_sequence/interview_scheme/interview_scheme_0.png","null","",""
"","","","","","html-audio-response","50","1239051","0.0-48.0","BE7977AF39E44A7FAE63BABF841E83CD","BE7977AF39E44A7FAE63BABF841E83CD","6bffa1ab-8681-4dda-a835-d989a000abfe","c8967202-2e67-4b77-b18d-1bc6a319defc","{""part"":""2"",""participantId"":""BE7977AF39E44A7FAE63BABF841E83CD"",""assignmentId"":""6bffa1ab-8681-4dda-a835-d989a000abfe"",""projectId"":""c8967202-2e67-4b77-b18d-1bc6a319defc""}","https://test12345.live/?part=2&participantId=BE7977AF39E44A7FAE63BABF841E83CD&assignmentId=6bffa1ab-8681-4dda-a835-d989a000abfe&projectId=c8967202-2e67-4b77-b18d-1bc6a319defc","BE7977AF39E44A7FAE63BABF841E83CD-2025-05-14-00-10-52","","30778","","[""<span style=\""color: red; font-size: 24px\""> NOW RECORDING</span><p>Please say out loud all the images you saw in part 1 of the experiment, as many as you can remember. The images can be said in any order.</p>""]","","1","interview_scheme"
"","","","","","image-button-response","51","1245064","0.0-49.0-0.0","BE7977AF39E44A7FAE63BABF841E83CD","BE7977AF39E44A7FAE63BABF841E83CD","6bffa1ab-8681-4dda-a835-d989a000abfe","c8967202-2e67-4b77-b18d-1bc6a319defc","{""part"":""2"",""participantId"":""BE7977AF39E44A7FAE63BABF841E83CD"",""assignmentId"":""6bffa1ab-8681-4dda-a835-d989a000abfe"",""projectId"":""c8967202-2e67-4b77-b18d-1bc6a319defc""}","https://test12345.live/?part=2&participantId=BE7977AF39E44A7FAE63BABF841E83CD&assignmentId=6bffa1ab-8681-4dda-a835-d989a000abfe&projectId=c8967202-2e67-4b77-b18d-1bc6a319defc","BE7977AF39E44A7FAE63BABF841E83CD-2025-05-14-00-10-52","","null","","images/semantic_sequence/physical_activity_semantic/physical_activity_semantic_0.png","null","",""
"","","","","","html-audio-response","52","1299579","0.0-50.0","BE7977AF39E44A7FAE63BABF841E83CD","BE7977AF39E44A7FAE63BABF841E83CD","6bffa1ab-8681-4dda-a835-d989a000abfe","c8967202-2e67-4b77-b18d-1bc6a319defc","{""part"":""2"",""participantId"":""BE7977AF39E44A7FAE63BABF841E83CD"",""assignmentId"":""6bffa1ab-8681-4dda-a835-d989a000abfe"",""projectId"":""c8967202-2e67-4b77-b18d-1bc6a319defc""}","https://test12345.live/?part=2&participantId=BE7977AF39E44A7FAE63BABF841E83CD&assignmentId=6bffa1ab-8681-4dda-a835-d989a000abfe&projectId=c8967202-2e67-4b77-b18d-1bc6a319defc","BE7977AF39E44A7FAE63BABF841E83CD-2025-05-14-00-10-52","","27717","","[""<span style=\""color: red; font-size: 24px\""> NOW RECORDING</span><p>Please say out loud all the images you saw in part 1 of the experiment, as many as you can remember. The images can be said in any order.</p>""]","","3","physical_activity_semantic"
"","","","","","image-button-response","53","1305591","0.0-51.0-0.0","BE7977AF39E44A7FAE63BABF841E83CD","BE7977AF39E44A7FAE63BABF841E83CD","6bffa1ab-8681-4dda-a835-d989a000abfe","c8967202-2e67-4b77-b18d-1bc6a319defc","{""part"":""2"",""participantId"":""BE7977AF39E44A7FAE63BABF841E83CD"",""assignmentId"":""6bffa1ab-8681-4dda-a835-d989a000abfe"",""projectId"":""c8967202-2e67-4b77-b18d-1bc6a319defc""}","https://test12345.live/?part=2&participantId=BE7977AF39E44A7FAE63BABF841E83CD&assignmentId=6bffa1ab-8681-4dda-a835-d989a000abfe&projectId=c8967202-2e67-4b77-b18d-1bc6a319defc","BE7977AF39E44A7FAE63BABF841E83CD-2025-05-14-00-10-52","","null","","images/schematic_sequence/flight_scheme/flight_scheme_0.png","null","",""
"","","","","","html-audio-response","54","1347163","0.0-52.0","BE7977AF39E44A7FAE63BABF841E83CD","BE7977AF39E44A7FAE63BABF841E83CD","6bffa1ab-8681-4dda-a835-d989a000abfe","c8967202-2e67-4b77-b18d-1bc6a319defc","{""part"":""2"",""participantId"":""BE7977AF39E44A7FAE63BABF841E83CD"",""assignmentId"":""6bffa1ab-8681-4dda-a835-d989a000abfe"",""projectId"":""c8967202-2e67-4b77-b18d-1bc6a319defc""}","https://test12345.live/?part=2&participantId=BE7977AF39E44A7FAE63BABF841E83CD&assignmentId=6bffa1ab-8681-4dda-a835-d989a000abfe&projectId=c8967202-2e67-4b77-b18d-1bc6a319defc","BE7977AF39E44A7FAE63BABF841E83CD-2025-05-14-00-10-52","","31151","","[""<span style=\""color: red; font-size: 24px\""> NOW RECORDING</span><p>Please say out loud all the images you saw in part 1 of the experiment, as many as you can remember. The images can be said in any order.</p>""]","","1","flight_scheme"
"","","","","","image-button-response","55","1353176","0.0-53.0-0.0","BE7977AF39E44A7FAE63BABF841E83CD","BE7977AF39E44A7FAE63BABF841E83CD","6bffa1ab-8681-4dda-a835-d989a000abfe","c8967202-2e67-4b77-b18d-1bc6a319defc","{""part"":""2"",""participantId"":""BE7977AF39E44A7FAE63BABF841E83CD"",""assignmentId"":""6bffa1ab-8681-4dda-a835-d989a000abfe"",""projectId"":""c8967202-2e67-4b77-b18d-1bc6a319defc""}","https://test12345.live/?part=2&participantId=BE7977AF39E44A7FAE63BABF841E83CD&assignmentId=6bffa1ab-8681-4dda-a835-d989a000abfe&projectId=c8967202-2e67-4b77-b18d-1bc6a319defc","BE7977AF39E44A7FAE63BABF841E83CD-2025-05-14-00-10-52","","null","","images/semantic_sequence/redecorating_a_house_semantic/redecorating_a_house_semantic_0.png","null","",""
"","","","","","html-audio-response","56","1376203","0.0-54.0","BE7977AF39E44A7FAE63BABF841E83CD","BE7977AF39E44A7FAE63BABF841E83CD","6bffa1ab-8681-4dda-a835-d989a000abfe","c8967202-2e67-4b77-b18d-1bc6a319defc","{""part"":""2"",""participantId"":""BE7977AF39E44A7FAE63BABF841E83CD"",""assignmentId"":""6bffa1ab-8681-4dda-a835-d989a000abfe"",""projectId"":""c8967202-2e67-4b77-b18d-1bc6a319defc""}","https://test12345.live/?part=2&participantId=BE7977AF39E44A7FAE63BABF841E83CD&assignmentId=6bffa1ab-8681-4dda-a835-d989a000abfe&projectId=c8967202-2e67-4b77-b18d-1bc6a319defc","BE7977AF39E44A7FAE63BABF841E83CD-2025-05-14-00-10-52","","14259","","[""<span style=\""color: red; font-size: 24px\""> NOW RECORDING</span><p>Please say out loud all the images you saw in part 1 of the experiment, as many as you can remember. The images can be said in any order.</p>""]","","1","redecorating_a_house_semantic"
"","","","","","image-button-response","57","1382209","0.0-55.0-0.0","BE7977AF39E44A7FAE63BABF841E83CD","BE7977AF39E44A7FAE63BABF841E83CD","6bffa1ab-8681-4dda-a835-d989a000abfe","c8967202-2e67-4b77-b18d-1bc6a319defc","{""part"":""2"",""participantId"":""BE7977AF39E44A7FAE63BABF841E83CD"",""assignmentId"":""6bffa1ab-8681-4dda-a835-d989a000abfe"",""projectId"":""c8967202-2e67-4b77-b18d-1bc6a319defc""}","https://test12345.live/?part=2&participantId=BE7977AF39E44A7FAE63BABF841E83CD&assignmentId=6bffa1ab-8681-4dda-a835-d989a000abfe&projectId=c8967202-2e67-4b77-b18d-1bc6a319defc","BE7977AF39E44A7FAE63BABF841E83CD-2025-05-14-00-10-52","","null","","images/semantic_sequence/creative_activities_semantic/creative_activities_semantic_0.png","null","",""
"","","","","","html-audio-response","58","1404427","0.0-56.0","BE7977AF39E44A7FAE63BABF841E83CD","BE7977AF39E44A7FAE63BABF841E83CD","6bffa1ab-8681-4dda-a835-d989a000abfe","c8967202-2e67-4b77-b18d-1bc6a319defc","{""part"":""2"",""participantId"":""BE7977AF39E44A7FAE63BABF841E83CD"",""assignmentId"":""6bffa1ab-8681-4dda-a835-d989a000abfe"",""projectId"":""c8967202-2e67-4b77-b18d-1bc6a319defc""}","https://test12345.live/?part=2&participantId=BE7977AF39E44A7FAE63BABF841E83CD&assignmentId=6bffa1ab-8681-4dda-a835-d989a000abfe&projectId=c8967202-2e67-4b77-b18d-1bc6a319defc","BE7977AF39E44A7FAE63BABF841E83CD-2025-05-14-00-10-52","","18093","","[""<span style=\""color: red; font-size: 24px\""> NOW RECORDING</span><p>Please say out loud all the images you saw in part 1 of the experiment, as many as you can remember. The images can be said in any order.</p>""]","","1","creative_activities_semantic"
"","","","","","survey-text","59","1412732","0.0-57.0","BE7977AF39E44A7FAE63BABF841E83CD","BE7977AF39E44A7FAE63BABF841E83CD","6bffa1ab-8681-4dda-a835-d989a000abfe","c8967202-2e67-4b77-b18d-1bc6a319defc","{""part"":""2"",""participantId"":""BE7977AF39E44A7FAE63BABF841E83CD"",""assignmentId"":""6bffa1ab-8681-4dda-a835-d989a000abfe"",""projectId"":""c8967202-2e67-4b77-b18d-1bc6a319defc""}","https://test12345.live/?part=2&participantId=BE7977AF39E44A7FAE63BABF841E83CD&assignmentId=6bffa1ab-8681-4dda-a835-d989a000abfe&projectId=c8967202-2e67-4b77-b18d-1bc6a319defc","BE7977AF39E44A7FAE63BABF841E83CD-2025-05-14-00-10-52","","8294","","","{""Q0"":""MALE"",""Q1"":""27""}","",""
"","","","","","instructions","60","1417571","0.0-58.0","BE7977AF39E44A7FAE63BABF841E83CD","BE7977AF39E44A7FAE63BABF841E83CD","6bffa1ab-8681-4dda-a835-d989a000abfe","c8967202-2e67-4b77-b18d-1bc6a319defc","{""part"":""2"",""participantId"":""BE7977AF39E44A7FAE63BABF841E83CD"",""assignmentId"":""6bffa1ab-8681-4dda-a835-d989a000abfe"",""projectId"":""c8967202-2e67-4b77-b18d-1bc6a319defc""}","https://test12345.live/?part=2&participantId=BE7977AF39E44A7FAE63BABF841E83CD&assignmentId=6bffa1ab-8681-4dda-a835-d989a000abfe&projectId=c8967202-2e67-4b77-b18d-1bc6a319defc","BE7977AF39E44A7FAE63BABF841E83CD-2025-05-14-00-10-52","[{""page_index"":0,""viewing_time"":4839}]","4839","","","","",""
"","","","","","survey-text","61","1419876","0.0-59.0","BE7977AF39E44A7FAE63BABF841E83CD","BE7977AF39E44A7FAE63BABF841E83CD","6bffa1ab-8681-4dda-a835-d989a000abfe","c8967202-2e67-4b77-b18d-1bc6a319defc","{""part"":""2"",""participantId"":""BE7977AF39E44A7FAE63BABF841E83CD"",""assignmentId"":""6bffa1ab-8681-4dda-a835-d989a000abfe"",""projectId"":""c8967202-2e67-4b77-b18d-1bc6a319defc""}","https://test12345.live/?part=2&participantId=BE7977AF39E44A7FAE63BABF841E83CD&assignmentId=6bffa1ab-8681-4dda-a835-d989a000abfe&projectId=c8967202-2e67-4b77-b18d-1bc6a319defc","BE7977AF39E44A7FAE63BABF841E83CD-2025-05-14-00-10-52","","2303","","","{""Q0"":""AJFHBG896""}","",""
