"success","timeout","failed_images","failed_audio","failed_video","trial_type","trial_index","time_elapsed","internal_node_id","subject","subject_id","study_id","session_id","urlvar","current_url","audio_id","view_history","rt","device_id","stimulus","response","estimated_stimulus_onset","seq_name"
"true","false","[]","[]","[]","preload","0","3761","0.0-0.0","BE8DB153AE6C4E7D8291B5F06FC21497","BE8DB153AE6C4E7D8291B5F06FC21497","ad26c607-f412-46a9-8cad-22d7255ddcf3","8dfb86c6-d592-4b65-b168-1bfaa987a769","{""part"":""2"",""participantId"":""BE8DB153AE6C4E7D8291B5F06FC21497"",""assignmentId"":""ad26c607-f412-46a9-8cad-22d7255ddcf3"",""projectId"":""8dfb86c6-d592-4b65-b168-1bfaa987a769""}","https://test12345.live/?part=2&participantId=BE8DB153AE6C4E7D8291B5F06FC21497&assignmentId=ad26c607-f412-46a9-8cad-22d7255ddcf3&projectId=8dfb86c6-d592-4b65-b168-1bfaa987a769","BE8DB153AE6C4E7D8291B5F06FC21497-2025-05-24-02-11-45","","","","","","",""
"","","","","","instructions","1","129707","0.0-1.0","BE8DB153AE6C4E7D8291B5F06FC21497","BE8DB153AE6C4E7D8291B5F06FC21497","ad26c607-f412-46a9-8cad-22d7255ddcf3","8dfb86c6-d592-4b65-b168-1bfaa987a769","{""part"":""2"",""participantId"":""BE8DB153AE6C4E7D8291B5F06FC21497"",""assignmentId"":""ad26c607-f412-46a9-8cad-22d7255ddcf3"",""projectId"":""8dfb86c6-d592-4b65-b168-1bfaa987a769""}","https://test12345.live/?part=2&participantId=BE8DB153AE6C4E7D8291B5F06FC21497&assignmentId=ad26c607-f412-46a9-8cad-22d7255ddcf3&projectId=8dfb86c6-d592-4b65-b168-1bfaa987a769","BE8DB153AE6C4E7D8291B5F06FC21497-2025-05-24-02-11-45","[{""page_index"":0,""viewing_time"":125944}]","125945","","","","",""
"","","","","","instructions","2","601722","0.0-2.0","BE8DB153AE6C4E7D8291B5F06FC21497","BE8DB153AE6C4E7D8291B5F06FC21497","ad26c607-f412-46a9-8cad-22d7255ddcf3","8dfb86c6-d592-4b65-b168-1bfaa987a769","{""part"":""2"",""participantId"":""BE8DB153AE6C4E7D8291B5F06FC21497"",""assignmentId"":""ad26c607-f412-46a9-8cad-22d7255ddcf3"",""projectId"":""8dfb86c6-d592-4b65-b168-1bfaa987a769""}","https://test12345.live/?part=2&participantId=BE8DB153AE6C4E7D8291B5F06FC21497&assignmentId=ad26c607-f412-46a9-8cad-22d7255ddcf3&projectId=8dfb86c6-d592-4b65-b168-1bfaa987a769","BE8DB153AE6C4E7D8291B5F06FC21497-2025-05-24-02-11-45","[{""page_index"":0,""viewing_time"":472015}]","472015","","","","",""
"true","","","","","fullscreen","3","610239","0.0-3.0","BE8DB153AE6C4E7D8291B5F06FC21497","BE8DB153AE6C4E7D8291B5F06FC21497","ad26c607-f412-46a9-8cad-22d7255ddcf3","8dfb86c6-d592-4b65-b168-1bfaa987a769","{""part"":""2"",""participantId"":""BE8DB153AE6C4E7D8291B5F06FC21497"",""assignmentId"":""ad26c607-f412-46a9-8cad-22d7255ddcf3"",""projectId"":""8dfb86c6-d592-4b65-b168-1bfaa987a769""}","https://test12345.live/?part=2&participantId=BE8DB153AE6C4E7D8291B5F06FC21497&assignmentId=ad26c607-f412-46a9-8cad-22d7255ddcf3&projectId=8dfb86c6-d592-4b65-b168-1bfaa987a769","BE8DB153AE6C4E7D8291B5F06FC21497-2025-05-24-02-11-45","","7513","","","","",""
"","","","","","initialize-microphone","4","619434","0.0-4.0-0.0","BE8DB153AE6C4E7D8291B5F06FC21497","BE8DB153AE6C4E7D8291B5F06FC21497","ad26c607-f412-46a9-8cad-22d7255ddcf3","8dfb86c6-d592-4b65-b168-1bfaa987a769","{""part"":""2"",""participantId"":""BE8DB153AE6C4E7D8291B5F06FC21497"",""assignmentId"":""ad26c607-f412-46a9-8cad-22d7255ddcf3"",""projectId"":""8dfb86c6-d592-4b65-b168-1bfaa987a769""}","https://test12345.live/?part=2&participantId=BE8DB153AE6C4E7D8291B5F06FC21497&assignmentId=ad26c607-f412-46a9-8cad-22d7255ddcf3&projectId=8dfb86c6-d592-4b65-b168-1bfaa987a769","BE8DB153AE6C4E7D8291B5F06FC21497-2025-05-24-02-11-45","","","a18c8faee3780045ba35be239aa2d79c6e54bffa0d412a3834202a6bde95af66","","","",""
"","","","","","html-audio-response","5","632628","0.0-4.0-1.0","BE8DB153AE6C4E7D8291B5F06FC21497","BE8DB153AE6C4E7D8291B5F06FC21497","ad26c607-f412-46a9-8cad-22d7255ddcf3","8dfb86c6-d592-4b65-b168-1bfaa987a769","{""part"":""2"",""participantId"":""BE8DB153AE6C4E7D8291B5F06FC21497"",""assignmentId"":""ad26c607-f412-46a9-8cad-22d7255ddcf3"",""projectId"":""8dfb86c6-d592-4b65-b168-1bfaa987a769""}","https://test12345.live/?part=2&participantId=BE8DB153AE6C4E7D8291B5F06FC21497&assignmentId=ad26c607-f412-46a9-8cad-22d7255ddcf3&projectId=8dfb86c6-d592-4b65-b168-1bfaa987a769","BE8DB153AE6C4E7D8291B5F06FC21497-2025-05-24-02-11-45","","4868","","<span style=""color: red; font-size: 24px""> NOW RECORDING</span>
        <p>Please test Microphone</p>","","4",""
"","","","","","html-button-response","6","634376","0.0-4.0-2.0","BE8DB153AE6C4E7D8291B5F06FC21497","BE8DB153AE6C4E7D8291B5F06FC21497","ad26c607-f412-46a9-8cad-22d7255ddcf3","8dfb86c6-d592-4b65-b168-1bfaa987a769","{""part"":""2"",""participantId"":""BE8DB153AE6C4E7D8291B5F06FC21497"",""assignmentId"":""ad26c607-f412-46a9-8cad-22d7255ddcf3"",""projectId"":""8dfb86c6-d592-4b65-b168-1bfaa987a769""}","https://test12345.live/?part=2&participantId=BE8DB153AE6C4E7D8291B5F06FC21497&assignmentId=ad26c607-f412-46a9-8cad-22d7255ddcf3&projectId=8dfb86c6-d592-4b65-b168-1bfaa987a769","BE8DB153AE6C4E7D8291B5F06FC21497-2025-05-24-02-11-45","","1746","","<p style=""font-size:48px; color:red;"">Is Microphone OK?</p>","1","",""
"","","","","","instructions","7","665711","0.0-5.0","BE8DB153AE6C4E7D8291B5F06FC21497","BE8DB153AE6C4E7D8291B5F06FC21497","ad26c607-f412-46a9-8cad-22d7255ddcf3","8dfb86c6-d592-4b65-b168-1bfaa987a769","{""part"":""2"",""participantId"":""BE8DB153AE6C4E7D8291B5F06FC21497"",""assignmentId"":""ad26c607-f412-46a9-8cad-22d7255ddcf3"",""projectId"":""8dfb86c6-d592-4b65-b168-1bfaa987a769""}","https://test12345.live/?part=2&participantId=BE8DB153AE6C4E7D8291B5F06FC21497&assignmentId=ad26c607-f412-46a9-8cad-22d7255ddcf3&projectId=8dfb86c6-d592-4b65-b168-1bfaa987a769","BE8DB153AE6C4E7D8291B5F06FC21497-2025-05-24-02-11-45","[{""page_index"":0,""viewing_time"":2750},{""page_index"":1,""viewing_time"":8301},{""page_index"":2,""viewing_time"":20283}]","31334","","","","",""
"","","","","","image-button-response","8","671715","0.0-6.0-0.0","BE8DB153AE6C4E7D8291B5F06FC21497","BE8DB153AE6C4E7D8291B5F06FC21497","ad26c607-f412-46a9-8cad-22d7255ddcf3","8dfb86c6-d592-4b65-b168-1bfaa987a769","{""part"":""2"",""participantId"":""BE8DB153AE6C4E7D8291B5F06FC21497"",""assignmentId"":""ad26c607-f412-46a9-8cad-22d7255ddcf3"",""projectId"":""8dfb86c6-d592-4b65-b168-1bfaa987a769""}","https://test12345.live/?part=2&participantId=BE8DB153AE6C4E7D8291B5F06FC21497&assignmentId=ad26c607-f412-46a9-8cad-22d7255ddcf3&projectId=8dfb86c6-d592-4b65-b168-1bfaa987a769","BE8DB153AE6C4E7D8291B5F06FC21497-2025-05-24-02-11-45","","null","","images/instructions/movie_0.png","null","",""
"","","","","","html-audio-response","9","909413","0.0-7.0","BE8DB153AE6C4E7D8291B5F06FC21497","BE8DB153AE6C4E7D8291B5F06FC21497","ad26c607-f412-46a9-8cad-22d7255ddcf3","8dfb86c6-d592-4b65-b168-1bfaa987a769","{""part"":""2"",""participantId"":""BE8DB153AE6C4E7D8291B5F06FC21497"",""assignmentId"":""ad26c607-f412-46a9-8cad-22d7255ddcf3"",""projectId"":""8dfb86c6-d592-4b65-b168-1bfaa987a769""}","https://test12345.live/?part=2&participantId=BE8DB153AE6C4E7D8291B5F06FC21497&assignmentId=ad26c607-f412-46a9-8cad-22d7255ddcf3&projectId=8dfb86c6-d592-4b65-b168-1bfaa987a769","BE8DB153AE6C4E7D8291B5F06FC21497-2025-05-24-02-11-45","","12499","","[""<span style=\""color: red; font-size: 24px\""> NOW RECORDING</span><p>Please say out loud all the images you saw in part 1 of the experiment, in the exact order you saw them. Try to recall as many images as you can, but remember: getting the order right is more important than the number of images you recall.</p>""]","","3",""
"","","","","","instructions","10","916387","0.0-8.0","BE8DB153AE6C4E7D8291B5F06FC21497","BE8DB153AE6C4E7D8291B5F06FC21497","ad26c607-f412-46a9-8cad-22d7255ddcf3","8dfb86c6-d592-4b65-b168-1bfaa987a769","{""part"":""2"",""participantId"":""BE8DB153AE6C4E7D8291B5F06FC21497"",""assignmentId"":""ad26c607-f412-46a9-8cad-22d7255ddcf3"",""projectId"":""8dfb86c6-d592-4b65-b168-1bfaa987a769""}","https://test12345.live/?part=2&participantId=BE8DB153AE6C4E7D8291B5F06FC21497&assignmentId=ad26c607-f412-46a9-8cad-22d7255ddcf3&projectId=8dfb86c6-d592-4b65-b168-1bfaa987a769","BE8DB153AE6C4E7D8291B5F06FC21497-2025-05-24-02-11-45","[{""page_index"":0,""viewing_time"":6967}]","6967","","","","",""
"","","","","","image-button-response","11","922390","0.0-9.0-0.0","BE8DB153AE6C4E7D8291B5F06FC21497","BE8DB153AE6C4E7D8291B5F06FC21497","ad26c607-f412-46a9-8cad-22d7255ddcf3","8dfb86c6-d592-4b65-b168-1bfaa987a769","{""part"":""2"",""participantId"":""BE8DB153AE6C4E7D8291B5F06FC21497"",""assignmentId"":""ad26c607-f412-46a9-8cad-22d7255ddcf3"",""projectId"":""8dfb86c6-d592-4b65-b168-1bfaa987a769""}","https://test12345.live/?part=2&participantId=BE8DB153AE6C4E7D8291B5F06FC21497&assignmentId=ad26c607-f412-46a9-8cad-22d7255ddcf3&projectId=8dfb86c6-d592-4b65-b168-1bfaa987a769","BE8DB153AE6C4E7D8291B5F06FC21497-2025-05-24-02-11-45","","null","","images/causal_sequence/package_causal/package_causal_0.png","null","",""
"","","","","","html-audio-response","12","1158329","0.0-10.0","BE8DB153AE6C4E7D8291B5F06FC21497","BE8DB153AE6C4E7D8291B5F06FC21497","ad26c607-f412-46a9-8cad-22d7255ddcf3","8dfb86c6-d592-4b65-b168-1bfaa987a769","{""part"":""2"",""participantId"":""BE8DB153AE6C4E7D8291B5F06FC21497"",""assignmentId"":""ad26c607-f412-46a9-8cad-22d7255ddcf3"",""projectId"":""8dfb86c6-d592-4b65-b168-1bfaa987a769""}","https://test12345.live/?part=2&participantId=BE8DB153AE6C4E7D8291B5F06FC21497&assignmentId=ad26c607-f412-46a9-8cad-22d7255ddcf3&projectId=8dfb86c6-d592-4b65-b168-1bfaa987a769","BE8DB153AE6C4E7D8291B5F06FC21497-2025-05-24-02-11-45","","19676","","[""<span style=\""color: red; font-size: 24px\""> NOW RECORDING</span><p>Please say out loud all the images you saw in part 1 of the experiment, in the exact order you saw them. Try to recall as many images as you can, but remember: getting the order right is more important than the number of images you recall. </p>""]","","3","package_causal"
"","","","","","image-button-response","13","1164357","0.0-11.0-0.0","BE8DB153AE6C4E7D8291B5F06FC21497","BE8DB153AE6C4E7D8291B5F06FC21497","ad26c607-f412-46a9-8cad-22d7255ddcf3","8dfb86c6-d592-4b65-b168-1bfaa987a769","{""part"":""2"",""participantId"":""BE8DB153AE6C4E7D8291B5F06FC21497"",""assignmentId"":""ad26c607-f412-46a9-8cad-22d7255ddcf3"",""projectId"":""8dfb86c6-d592-4b65-b168-1bfaa987a769""}","https://test12345.live/?part=2&participantId=BE8DB153AE6C4E7D8291B5F06FC21497&assignmentId=ad26c607-f412-46a9-8cad-22d7255ddcf3&projectId=8dfb86c6-d592-4b65-b168-1bfaa987a769","BE8DB153AE6C4E7D8291B5F06FC21497-2025-05-24-02-11-45","","null","","images/semantic_sequence/exploring_nature_semantic/exploring_nature_semantic_0.png","null","",""
"","","","","","html-audio-response","14","1276341","0.0-12.0","BE8DB153AE6C4E7D8291B5F06FC21497","BE8DB153AE6C4E7D8291B5F06FC21497","ad26c607-f412-46a9-8cad-22d7255ddcf3","8dfb86c6-d592-4b65-b168-1bfaa987a769","{""part"":""2"",""participantId"":""BE8DB153AE6C4E7D8291B5F06FC21497"",""assignmentId"":""ad26c607-f412-46a9-8cad-22d7255ddcf3"",""projectId"":""8dfb86c6-d592-4b65-b168-1bfaa987a769""}","https://test12345.live/?part=2&participantId=BE8DB153AE6C4E7D8291B5F06FC21497&assignmentId=ad26c607-f412-46a9-8cad-22d7255ddcf3&projectId=8dfb86c6-d592-4b65-b168-1bfaa987a769","BE8DB153AE6C4E7D8291B5F06FC21497-2025-05-24-02-11-45","","24091","","[""<span style=\""color: red; font-size: 24px\""> NOW RECORDING</span><p>Please say out loud all the images you saw in part 1 of the experiment, in the exact order you saw them. Try to recall as many images as you can, but remember: getting the order right is more important than the number of images you recall. </p>""]","","1","exploring_nature_semantic"
"","","","","","image-button-response","15","1282350","0.0-13.0-0.0","BE8DB153AE6C4E7D8291B5F06FC21497","BE8DB153AE6C4E7D8291B5F06FC21497","ad26c607-f412-46a9-8cad-22d7255ddcf3","8dfb86c6-d592-4b65-b168-1bfaa987a769","{""part"":""2"",""participantId"":""BE8DB153AE6C4E7D8291B5F06FC21497"",""assignmentId"":""ad26c607-f412-46a9-8cad-22d7255ddcf3"",""projectId"":""8dfb86c6-d592-4b65-b168-1bfaa987a769""}","https://test12345.live/?part=2&participantId=BE8DB153AE6C4E7D8291B5F06FC21497&assignmentId=ad26c607-f412-46a9-8cad-22d7255ddcf3&projectId=8dfb86c6-d592-4b65-b168-1bfaa987a769","BE8DB153AE6C4E7D8291B5F06FC21497-2025-05-24-02-11-45","","null","","images/causal_sequence/dog_causal/dog_causal_0.png","null","",""
"","","","","","html-audio-response","16","1373025","0.0-14.0","BE8DB153AE6C4E7D8291B5F06FC21497","BE8DB153AE6C4E7D8291B5F06FC21497","ad26c607-f412-46a9-8cad-22d7255ddcf3","8dfb86c6-d592-4b65-b168-1bfaa987a769","{""part"":""2"",""participantId"":""BE8DB153AE6C4E7D8291B5F06FC21497"",""assignmentId"":""ad26c607-f412-46a9-8cad-22d7255ddcf3"",""projectId"":""8dfb86c6-d592-4b65-b168-1bfaa987a769""}","https://test12345.live/?part=2&participantId=BE8DB153AE6C4E7D8291B5F06FC21497&assignmentId=ad26c607-f412-46a9-8cad-22d7255ddcf3&projectId=8dfb86c6-d592-4b65-b168-1bfaa987a769","BE8DB153AE6C4E7D8291B5F06FC21497-2025-05-24-02-11-45","","16048","","[""<span style=\""color: red; font-size: 24px\""> NOW RECORDING</span><p>Please say out loud all the images you saw in part 1 of the experiment, in the exact order you saw them. Try to recall as many images as you can, but remember: getting the order right is more important than the number of images you recall. </p>""]","","1","dog_causal"
"","","","","","image-button-response","17","1379040","0.0-15.0-0.0","BE8DB153AE6C4E7D8291B5F06FC21497","BE8DB153AE6C4E7D8291B5F06FC21497","ad26c607-f412-46a9-8cad-22d7255ddcf3","8dfb86c6-d592-4b65-b168-1bfaa987a769","{""part"":""2"",""participantId"":""BE8DB153AE6C4E7D8291B5F06FC21497"",""assignmentId"":""ad26c607-f412-46a9-8cad-22d7255ddcf3"",""projectId"":""8dfb86c6-d592-4b65-b168-1bfaa987a769""}","https://test12345.live/?part=2&participantId=BE8DB153AE6C4E7D8291B5F06FC21497&assignmentId=ad26c607-f412-46a9-8cad-22d7255ddcf3&projectId=8dfb86c6-d592-4b65-b168-1bfaa987a769","BE8DB153AE6C4E7D8291B5F06FC21497-2025-05-24-02-11-45","","null","","images/semantic_sequence/creative_activities_semantic/creative_activities_semantic_0.png","null","",""
"","","","","","html-audio-response","18","1505691","0.0-16.0","BE8DB153AE6C4E7D8291B5F06FC21497","BE8DB153AE6C4E7D8291B5F06FC21497","ad26c607-f412-46a9-8cad-22d7255ddcf3","8dfb86c6-d592-4b65-b168-1bfaa987a769","{""part"":""2"",""participantId"":""BE8DB153AE6C4E7D8291B5F06FC21497"",""assignmentId"":""ad26c607-f412-46a9-8cad-22d7255ddcf3"",""projectId"":""8dfb86c6-d592-4b65-b168-1bfaa987a769""}","https://test12345.live/?part=2&participantId=BE8DB153AE6C4E7D8291B5F06FC21497&assignmentId=ad26c607-f412-46a9-8cad-22d7255ddcf3&projectId=8dfb86c6-d592-4b65-b168-1bfaa987a769","BE8DB153AE6C4E7D8291B5F06FC21497-2025-05-24-02-11-45","","6470","","[""<span style=\""color: red; font-size: 24px\""> NOW RECORDING</span><p>Please say out loud all the images you saw in part 1 of the experiment, in the exact order you saw them. Try to recall as many images as you can, but remember: getting the order right is more important than the number of images you recall. </p>""]","","1","creative_activities_semantic"
"","","","","","image-button-response","19","1511701","0.0-17.0-0.0","BE8DB153AE6C4E7D8291B5F06FC21497","BE8DB153AE6C4E7D8291B5F06FC21497","ad26c607-f412-46a9-8cad-22d7255ddcf3","8dfb86c6-d592-4b65-b168-1bfaa987a769","{""part"":""2"",""participantId"":""BE8DB153AE6C4E7D8291B5F06FC21497"",""assignmentId"":""ad26c607-f412-46a9-8cad-22d7255ddcf3"",""projectId"":""8dfb86c6-d592-4b65-b168-1bfaa987a769""}","https://test12345.live/?part=2&participantId=BE8DB153AE6C4E7D8291B5F06FC21497&assignmentId=ad26c607-f412-46a9-8cad-22d7255ddcf3&projectId=8dfb86c6-d592-4b65-b168-1bfaa987a769","BE8DB153AE6C4E7D8291B5F06FC21497-2025-05-24-02-11-45","","null","","images/semantic_sequence/cat_care_semantic/cat_care_semantic_0.png","null","",""
"","","","","","html-audio-response","20","1608971","0.0-18.0","BE8DB153AE6C4E7D8291B5F06FC21497","BE8DB153AE6C4E7D8291B5F06FC21497","ad26c607-f412-46a9-8cad-22d7255ddcf3","8dfb86c6-d592-4b65-b168-1bfaa987a769","{""part"":""2"",""participantId"":""BE8DB153AE6C4E7D8291B5F06FC21497"",""assignmentId"":""ad26c607-f412-46a9-8cad-22d7255ddcf3"",""projectId"":""8dfb86c6-d592-4b65-b168-1bfaa987a769""}","https://test12345.live/?part=2&participantId=BE8DB153AE6C4E7D8291B5F06FC21497&assignmentId=ad26c607-f412-46a9-8cad-22d7255ddcf3&projectId=8dfb86c6-d592-4b65-b168-1bfaa987a769","BE8DB153AE6C4E7D8291B5F06FC21497-2025-05-24-02-11-45","","47990","","[""<span style=\""color: red; font-size: 24px\""> NOW RECORDING</span><p>Please say out loud all the images you saw in part 1 of the experiment, in the exact order you saw them. Try to recall as many images as you can, but remember: getting the order right is more important than the number of images you recall. </p>""]","","2","cat_care_semantic"
"","","","","","image-button-response","21","1614991","0.0-19.0-0.0","BE8DB153AE6C4E7D8291B5F06FC21497","BE8DB153AE6C4E7D8291B5F06FC21497","ad26c607-f412-46a9-8cad-22d7255ddcf3","8dfb86c6-d592-4b65-b168-1bfaa987a769","{""part"":""2"",""participantId"":""BE8DB153AE6C4E7D8291B5F06FC21497"",""assignmentId"":""ad26c607-f412-46a9-8cad-22d7255ddcf3"",""projectId"":""8dfb86c6-d592-4b65-b168-1bfaa987a769""}","https://test12345.live/?part=2&participantId=BE8DB153AE6C4E7D8291B5F06FC21497&assignmentId=ad26c607-f412-46a9-8cad-22d7255ddcf3&projectId=8dfb86c6-d592-4b65-b168-1bfaa987a769","BE8DB153AE6C4E7D8291B5F06FC21497-2025-05-24-02-11-45","","null","","images/causal_sequence/the_performance_causal/the_performance_causal_0.png","null","",""
"","","","","","html-audio-response","22","1703920","0.0-20.0","BE8DB153AE6C4E7D8291B5F06FC21497","BE8DB153AE6C4E7D8291B5F06FC21497","ad26c607-f412-46a9-8cad-22d7255ddcf3","8dfb86c6-d592-4b65-b168-1bfaa987a769","{""part"":""2"",""participantId"":""BE8DB153AE6C4E7D8291B5F06FC21497"",""assignmentId"":""ad26c607-f412-46a9-8cad-22d7255ddcf3"",""projectId"":""8dfb86c6-d592-4b65-b168-1bfaa987a769""}","https://test12345.live/?part=2&participantId=BE8DB153AE6C4E7D8291B5F06FC21497&assignmentId=ad26c607-f412-46a9-8cad-22d7255ddcf3&projectId=8dfb86c6-d592-4b65-b168-1bfaa987a769","BE8DB153AE6C4E7D8291B5F06FC21497-2025-05-24-02-11-45","","8769","","[""<span style=\""color: red; font-size: 24px\""> NOW RECORDING</span><p>Please say out loud all the images you saw in part 1 of the experiment, in the exact order you saw them. Try to recall as many images as you can, but remember: getting the order right is more important than the number of images you recall. </p>""]","","2","the_performance_causal"
"","","","","","image-button-response","23","1709940","0.0-21.0-0.0","BE8DB153AE6C4E7D8291B5F06FC21497","BE8DB153AE6C4E7D8291B5F06FC21497","ad26c607-f412-46a9-8cad-22d7255ddcf3","8dfb86c6-d592-4b65-b168-1bfaa987a769","{""part"":""2"",""participantId"":""BE8DB153AE6C4E7D8291B5F06FC21497"",""assignmentId"":""ad26c607-f412-46a9-8cad-22d7255ddcf3"",""projectId"":""8dfb86c6-d592-4b65-b168-1bfaa987a769""}","https://test12345.live/?part=2&participantId=BE8DB153AE6C4E7D8291B5F06FC21497&assignmentId=ad26c607-f412-46a9-8cad-22d7255ddcf3&projectId=8dfb86c6-d592-4b65-b168-1bfaa987a769","BE8DB153AE6C4E7D8291B5F06FC21497-2025-05-24-02-11-45","","null","","images/semantic_sequence/market_semantic/market_semantic_0.png","null","",""
"","","","","","html-audio-response","24","1779576","0.0-22.0","BE8DB153AE6C4E7D8291B5F06FC21497","BE8DB153AE6C4E7D8291B5F06FC21497","ad26c607-f412-46a9-8cad-22d7255ddcf3","8dfb86c6-d592-4b65-b168-1bfaa987a769","{""part"":""2"",""participantId"":""BE8DB153AE6C4E7D8291B5F06FC21497"",""assignmentId"":""ad26c607-f412-46a9-8cad-22d7255ddcf3"",""projectId"":""8dfb86c6-d592-4b65-b168-1bfaa987a769""}","https://test12345.live/?part=2&participantId=BE8DB153AE6C4E7D8291B5F06FC21497&assignmentId=ad26c607-f412-46a9-8cad-22d7255ddcf3&projectId=8dfb86c6-d592-4b65-b168-1bfaa987a769","BE8DB153AE6C4E7D8291B5F06FC21497-2025-05-24-02-11-45","","41999","","[""<span style=\""color: red; font-size: 24px\""> NOW RECORDING</span><p>Please say out loud all the images you saw in part 1 of the experiment, in the exact order you saw them. Try to recall as many images as you can, but remember: getting the order right is more important than the number of images you recall. </p>""]","","1","market_semantic"
"","","","","","image-button-response","25","1785589","0.0-23.0-0.0","BE8DB153AE6C4E7D8291B5F06FC21497","BE8DB153AE6C4E7D8291B5F06FC21497","ad26c607-f412-46a9-8cad-22d7255ddcf3","8dfb86c6-d592-4b65-b168-1bfaa987a769","{""part"":""2"",""participantId"":""BE8DB153AE6C4E7D8291B5F06FC21497"",""assignmentId"":""ad26c607-f412-46a9-8cad-22d7255ddcf3"",""projectId"":""8dfb86c6-d592-4b65-b168-1bfaa987a769""}","https://test12345.live/?part=2&participantId=BE8DB153AE6C4E7D8291B5F06FC21497&assignmentId=ad26c607-f412-46a9-8cad-22d7255ddcf3&projectId=8dfb86c6-d592-4b65-b168-1bfaa987a769","BE8DB153AE6C4E7D8291B5F06FC21497-2025-05-24-02-11-45","","null","","images/causal_sequence/coin_causal/coin_causal_0.png","null","",""
"","","","","","html-audio-response","26","1907583","0.0-24.0","BE8DB153AE6C4E7D8291B5F06FC21497","BE8DB153AE6C4E7D8291B5F06FC21497","ad26c607-f412-46a9-8cad-22d7255ddcf3","8dfb86c6-d592-4b65-b168-1bfaa987a769","{""part"":""2"",""participantId"":""BE8DB153AE6C4E7D8291B5F06FC21497"",""assignmentId"":""ad26c607-f412-46a9-8cad-22d7255ddcf3"",""projectId"":""8dfb86c6-d592-4b65-b168-1bfaa987a769""}","https://test12345.live/?part=2&participantId=BE8DB153AE6C4E7D8291B5F06FC21497&assignmentId=ad26c607-f412-46a9-8cad-22d7255ddcf3&projectId=8dfb86c6-d592-4b65-b168-1bfaa987a769","BE8DB153AE6C4E7D8291B5F06FC21497-2025-05-24-02-11-45","","29424","","[""<span style=\""color: red; font-size: 24px\""> NOW RECORDING</span><p>Please say out loud all the images you saw in part 1 of the experiment, in the exact order you saw them. Try to recall as many images as you can, but remember: getting the order right is more important than the number of images you recall. </p>""]","","2","coin_causal"
"","","","","","image-button-response","27","1913602","0.0-25.0-0.0","BE8DB153AE6C4E7D8291B5F06FC21497","BE8DB153AE6C4E7D8291B5F06FC21497","ad26c607-f412-46a9-8cad-22d7255ddcf3","8dfb86c6-d592-4b65-b168-1bfaa987a769","{""part"":""2"",""participantId"":""BE8DB153AE6C4E7D8291B5F06FC21497"",""assignmentId"":""ad26c607-f412-46a9-8cad-22d7255ddcf3"",""projectId"":""8dfb86c6-d592-4b65-b168-1bfaa987a769""}","https://test12345.live/?part=2&participantId=BE8DB153AE6C4E7D8291B5F06FC21497&assignmentId=ad26c607-f412-46a9-8cad-22d7255ddcf3&projectId=8dfb86c6-d592-4b65-b168-1bfaa987a769","BE8DB153AE6C4E7D8291B5F06FC21497-2025-05-24-02-11-45","","null","","images/semantic_sequence/redecorating_semantic/redecorating_semantic_0.png","null","",""
"","","","","","html-audio-response","28","2034741","0.0-26.0","BE8DB153AE6C4E7D8291B5F06FC21497","BE8DB153AE6C4E7D8291B5F06FC21497","ad26c607-f412-46a9-8cad-22d7255ddcf3","8dfb86c6-d592-4b65-b168-1bfaa987a769","{""part"":""2"",""participantId"":""BE8DB153AE6C4E7D8291B5F06FC21497"",""assignmentId"":""ad26c607-f412-46a9-8cad-22d7255ddcf3"",""projectId"":""8dfb86c6-d592-4b65-b168-1bfaa987a769""}","https://test12345.live/?part=2&participantId=BE8DB153AE6C4E7D8291B5F06FC21497&assignmentId=ad26c607-f412-46a9-8cad-22d7255ddcf3&projectId=8dfb86c6-d592-4b65-b168-1bfaa987a769","BE8DB153AE6C4E7D8291B5F06FC21497-2025-05-24-02-11-45","","20040","","[""<span style=\""color: red; font-size: 24px\""> NOW RECORDING</span><p>Please say out loud all the images you saw in part 1 of the experiment, in the exact order you saw them. Try to recall as many images as you can, but remember: getting the order right is more important than the number of images you recall. </p>""]","","1","redecorating_semantic"
"","","","","","image-button-response","29","2040751","0.0-27.0-0.0","BE8DB153AE6C4E7D8291B5F06FC21497","BE8DB153AE6C4E7D8291B5F06FC21497","ad26c607-f412-46a9-8cad-22d7255ddcf3","8dfb86c6-d592-4b65-b168-1bfaa987a769","{""part"":""2"",""participantId"":""BE8DB153AE6C4E7D8291B5F06FC21497"",""assignmentId"":""ad26c607-f412-46a9-8cad-22d7255ddcf3"",""projectId"":""8dfb86c6-d592-4b65-b168-1bfaa987a769""}","https://test12345.live/?part=2&participantId=BE8DB153AE6C4E7D8291B5F06FC21497&assignmentId=ad26c607-f412-46a9-8cad-22d7255ddcf3&projectId=8dfb86c6-d592-4b65-b168-1bfaa987a769","BE8DB153AE6C4E7D8291B5F06FC21497-2025-05-24-02-11-45","","null","","images/semantic_sequence/housework_semantic/housework_semantic_0.png","null","",""
"","","","","","html-audio-response","30","2150853","0.0-28.0","BE8DB153AE6C4E7D8291B5F06FC21497","BE8DB153AE6C4E7D8291B5F06FC21497","ad26c607-f412-46a9-8cad-22d7255ddcf3","8dfb86c6-d592-4b65-b168-1bfaa987a769","{""part"":""2"",""participantId"":""BE8DB153AE6C4E7D8291B5F06FC21497"",""assignmentId"":""ad26c607-f412-46a9-8cad-22d7255ddcf3"",""projectId"":""8dfb86c6-d592-4b65-b168-1bfaa987a769""}","https://test12345.live/?part=2&participantId=BE8DB153AE6C4E7D8291B5F06FC21497&assignmentId=ad26c607-f412-46a9-8cad-22d7255ddcf3&projectId=8dfb86c6-d592-4b65-b168-1bfaa987a769","BE8DB153AE6C4E7D8291B5F06FC21497-2025-05-24-02-11-45","","20014","","[""<span style=\""color: red; font-size: 24px\""> NOW RECORDING</span><p>Please say out loud all the images you saw in part 1 of the experiment, in the exact order you saw them. Try to recall as many images as you can, but remember: getting the order right is more important than the number of images you recall. </p>""]","","2","housework_semantic"
"","","","","","image-button-response","31","2156880","0.0-29.0-0.0","BE8DB153AE6C4E7D8291B5F06FC21497","BE8DB153AE6C4E7D8291B5F06FC21497","ad26c607-f412-46a9-8cad-22d7255ddcf3","8dfb86c6-d592-4b65-b168-1bfaa987a769","{""part"":""2"",""participantId"":""BE8DB153AE6C4E7D8291B5F06FC21497"",""assignmentId"":""ad26c607-f412-46a9-8cad-22d7255ddcf3"",""projectId"":""8dfb86c6-d592-4b65-b168-1bfaa987a769""}","https://test12345.live/?part=2&participantId=BE8DB153AE6C4E7D8291B5F06FC21497&assignmentId=ad26c607-f412-46a9-8cad-22d7255ddcf3&projectId=8dfb86c6-d592-4b65-b168-1bfaa987a769","BE8DB153AE6C4E7D8291B5F06FC21497-2025-05-24-02-11-45","","null","","images/semantic_sequence/kitchen_operations_semantic/kitchen_operations_semantic_0.png","null","",""
"","","","","","html-audio-response","32","2196151","0.0-30.0","BE8DB153AE6C4E7D8291B5F06FC21497","BE8DB153AE6C4E7D8291B5F06FC21497","ad26c607-f412-46a9-8cad-22d7255ddcf3","8dfb86c6-d592-4b65-b168-1bfaa987a769","{""part"":""2"",""participantId"":""BE8DB153AE6C4E7D8291B5F06FC21497"",""assignmentId"":""ad26c607-f412-46a9-8cad-22d7255ddcf3"",""projectId"":""8dfb86c6-d592-4b65-b168-1bfaa987a769""}","https://test12345.live/?part=2&participantId=BE8DB153AE6C4E7D8291B5F06FC21497&assignmentId=ad26c607-f412-46a9-8cad-22d7255ddcf3&projectId=8dfb86c6-d592-4b65-b168-1bfaa987a769","BE8DB153AE6C4E7D8291B5F06FC21497-2025-05-24-02-11-45","","10359","","[""<span style=\""color: red; font-size: 24px\""> NOW RECORDING</span><p>Please say out loud all the images you saw in part 1 of the experiment, in the exact order you saw them. Try to recall as many images as you can, but remember: getting the order right is more important than the number of images you recall. </p>""]","","1","kitchen_operations_semantic"
"","","","","","image-button-response","33","2202166","0.0-31.0-0.0","BE8DB153AE6C4E7D8291B5F06FC21497","BE8DB153AE6C4E7D8291B5F06FC21497","ad26c607-f412-46a9-8cad-22d7255ddcf3","8dfb86c6-d592-4b65-b168-1bfaa987a769","{""part"":""2"",""participantId"":""BE8DB153AE6C4E7D8291B5F06FC21497"",""assignmentId"":""ad26c607-f412-46a9-8cad-22d7255ddcf3"",""projectId"":""8dfb86c6-d592-4b65-b168-1bfaa987a769""}","https://test12345.live/?part=2&participantId=BE8DB153AE6C4E7D8291B5F06FC21497&assignmentId=ad26c607-f412-46a9-8cad-22d7255ddcf3&projectId=8dfb86c6-d592-4b65-b168-1bfaa987a769","BE8DB153AE6C4E7D8291B5F06FC21497-2025-05-24-02-11-45","","null","","images/semantic_sequence/self_care_activities_semantic/self_care_activities_semantic_0.png","null","",""
"","","","","","html-audio-response","34","2250412","0.0-32.0","BE8DB153AE6C4E7D8291B5F06FC21497","BE8DB153AE6C4E7D8291B5F06FC21497","ad26c607-f412-46a9-8cad-22d7255ddcf3","8dfb86c6-d592-4b65-b168-1bfaa987a769","{""part"":""2"",""participantId"":""BE8DB153AE6C4E7D8291B5F06FC21497"",""assignmentId"":""ad26c607-f412-46a9-8cad-22d7255ddcf3"",""projectId"":""8dfb86c6-d592-4b65-b168-1bfaa987a769""}","https://test12345.live/?part=2&participantId=BE8DB153AE6C4E7D8291B5F06FC21497&assignmentId=ad26c607-f412-46a9-8cad-22d7255ddcf3&projectId=8dfb86c6-d592-4b65-b168-1bfaa987a769","BE8DB153AE6C4E7D8291B5F06FC21497-2025-05-24-02-11-45","","9188","","[""<span style=\""color: red; font-size: 24px\""> NOW RECORDING</span><p>Please say out loud all the images you saw in part 1 of the experiment, in the exact order you saw them. Try to recall as many images as you can, but remember: getting the order right is more important than the number of images you recall. </p>""]","","2","self_care_activities_semantic"
"","","","","","image-button-response","35","2256429","0.0-33.0-0.0","BE8DB153AE6C4E7D8291B5F06FC21497","BE8DB153AE6C4E7D8291B5F06FC21497","ad26c607-f412-46a9-8cad-22d7255ddcf3","8dfb86c6-d592-4b65-b168-1bfaa987a769","{""part"":""2"",""participantId"":""BE8DB153AE6C4E7D8291B5F06FC21497"",""assignmentId"":""ad26c607-f412-46a9-8cad-22d7255ddcf3"",""projectId"":""8dfb86c6-d592-4b65-b168-1bfaa987a769""}","https://test12345.live/?part=2&participantId=BE8DB153AE6C4E7D8291B5F06FC21497&assignmentId=ad26c607-f412-46a9-8cad-22d7255ddcf3&projectId=8dfb86c6-d592-4b65-b168-1bfaa987a769","BE8DB153AE6C4E7D8291B5F06FC21497-2025-05-24-02-11-45","","null","","images/schematic_sequence/dinner_party_scheme/dinner_party_scheme_0.png","null","",""
"","","","","","html-audio-response","36","2321902","0.0-34.0","BE8DB153AE6C4E7D8291B5F06FC21497","BE8DB153AE6C4E7D8291B5F06FC21497","ad26c607-f412-46a9-8cad-22d7255ddcf3","8dfb86c6-d592-4b65-b168-1bfaa987a769","{""part"":""2"",""participantId"":""BE8DB153AE6C4E7D8291B5F06FC21497"",""assignmentId"":""ad26c607-f412-46a9-8cad-22d7255ddcf3"",""projectId"":""8dfb86c6-d592-4b65-b168-1bfaa987a769""}","https://test12345.live/?part=2&participantId=BE8DB153AE6C4E7D8291B5F06FC21497&assignmentId=ad26c607-f412-46a9-8cad-22d7255ddcf3&projectId=8dfb86c6-d592-4b65-b168-1bfaa987a769","BE8DB153AE6C4E7D8291B5F06FC21497-2025-05-24-02-11-45","","31565","","[""<span style=\""color: red; font-size: 24px\""> NOW RECORDING</span><p>Please say out loud all the images you saw in part 1 of the experiment, in the exact order you saw them. Try to recall as many images as you can, but remember: getting the order right is more important than the number of images you recall. </p>""]","","3","dinner_party_scheme"
"","","","","","image-button-response","37","2327931","0.0-35.0-0.0","BE8DB153AE6C4E7D8291B5F06FC21497","BE8DB153AE6C4E7D8291B5F06FC21497","ad26c607-f412-46a9-8cad-22d7255ddcf3","8dfb86c6-d592-4b65-b168-1bfaa987a769","{""part"":""2"",""participantId"":""BE8DB153AE6C4E7D8291B5F06FC21497"",""assignmentId"":""ad26c607-f412-46a9-8cad-22d7255ddcf3"",""projectId"":""8dfb86c6-d592-4b65-b168-1bfaa987a769""}","https://test12345.live/?part=2&participantId=BE8DB153AE6C4E7D8291B5F06FC21497&assignmentId=ad26c607-f412-46a9-8cad-22d7255ddcf3&projectId=8dfb86c6-d592-4b65-b168-1bfaa987a769","BE8DB153AE6C4E7D8291B5F06FC21497-2025-05-24-02-11-45","","null","","images/semantic_sequence/maintaining_a_car_semantic/maintaining_a_car_semantic_0.png","null","",""
"","","","","","html-audio-response","38","2403546","0.0-36.0","BE8DB153AE6C4E7D8291B5F06FC21497","BE8DB153AE6C4E7D8291B5F06FC21497","ad26c607-f412-46a9-8cad-22d7255ddcf3","8dfb86c6-d592-4b65-b168-1bfaa987a769","{""part"":""2"",""participantId"":""BE8DB153AE6C4E7D8291B5F06FC21497"",""assignmentId"":""ad26c607-f412-46a9-8cad-22d7255ddcf3"",""projectId"":""8dfb86c6-d592-4b65-b168-1bfaa987a769""}","https://test12345.live/?part=2&participantId=BE8DB153AE6C4E7D8291B5F06FC21497&assignmentId=ad26c607-f412-46a9-8cad-22d7255ddcf3&projectId=8dfb86c6-d592-4b65-b168-1bfaa987a769","BE8DB153AE6C4E7D8291B5F06FC21497-2025-05-24-02-11-45","","40477","","[""<span style=\""color: red; font-size: 24px\""> NOW RECORDING</span><p>Please say out loud all the images you saw in part 1 of the experiment, in the exact order you saw them. Try to recall as many images as you can, but remember: getting the order right is more important than the number of images you recall. </p>""]","","1","maintaining_a_car_semantic"
"","","","","","image-button-response","39","2409571","0.0-37.0-0.0","BE8DB153AE6C4E7D8291B5F06FC21497","BE8DB153AE6C4E7D8291B5F06FC21497","ad26c607-f412-46a9-8cad-22d7255ddcf3","8dfb86c6-d592-4b65-b168-1bfaa987a769","{""part"":""2"",""participantId"":""BE8DB153AE6C4E7D8291B5F06FC21497"",""assignmentId"":""ad26c607-f412-46a9-8cad-22d7255ddcf3"",""projectId"":""8dfb86c6-d592-4b65-b168-1bfaa987a769""}","https://test12345.live/?part=2&participantId=BE8DB153AE6C4E7D8291B5F06FC21497&assignmentId=ad26c607-f412-46a9-8cad-22d7255ddcf3&projectId=8dfb86c6-d592-4b65-b168-1bfaa987a769","BE8DB153AE6C4E7D8291B5F06FC21497-2025-05-24-02-11-45","","null","","images/schematic_sequence/flight_scheme/flight_scheme_0.png","null","",""
"","","","","","html-audio-response","40","2480309","0.0-38.0","BE8DB153AE6C4E7D8291B5F06FC21497","BE8DB153AE6C4E7D8291B5F06FC21497","ad26c607-f412-46a9-8cad-22d7255ddcf3","8dfb86c6-d592-4b65-b168-1bfaa987a769","{""part"":""2"",""participantId"":""BE8DB153AE6C4E7D8291B5F06FC21497"",""assignmentId"":""ad26c607-f412-46a9-8cad-22d7255ddcf3"",""projectId"":""8dfb86c6-d592-4b65-b168-1bfaa987a769""}","https://test12345.live/?part=2&participantId=BE8DB153AE6C4E7D8291B5F06FC21497&assignmentId=ad26c607-f412-46a9-8cad-22d7255ddcf3&projectId=8dfb86c6-d592-4b65-b168-1bfaa987a769","BE8DB153AE6C4E7D8291B5F06FC21497-2025-05-24-02-11-45","","23332","","[""<span style=\""color: red; font-size: 24px\""> NOW RECORDING</span><p>Please say out loud all the images you saw in part 1 of the experiment, in the exact order you saw them. Try to recall as many images as you can, but remember: getting the order right is more important than the number of images you recall. </p>""]","","1","flight_scheme"
"","","","","","image-button-response","41","2486322","0.0-39.0-0.0","BE8DB153AE6C4E7D8291B5F06FC21497","BE8DB153AE6C4E7D8291B5F06FC21497","ad26c607-f412-46a9-8cad-22d7255ddcf3","8dfb86c6-d592-4b65-b168-1bfaa987a769","{""part"":""2"",""participantId"":""BE8DB153AE6C4E7D8291B5F06FC21497"",""assignmentId"":""ad26c607-f412-46a9-8cad-22d7255ddcf3"",""projectId"":""8dfb86c6-d592-4b65-b168-1bfaa987a769""}","https://test12345.live/?part=2&participantId=BE8DB153AE6C4E7D8291B5F06FC21497&assignmentId=ad26c607-f412-46a9-8cad-22d7255ddcf3&projectId=8dfb86c6-d592-4b65-b168-1bfaa987a769","BE8DB153AE6C4E7D8291B5F06FC21497-2025-05-24-02-11-45","","null","","images/semantic_sequence/physical_activity_semantic/physical_activity_semantic_0.png","null","",""
"","","","","","html-audio-response","42","2549605","0.0-40.0","BE8DB153AE6C4E7D8291B5F06FC21497","BE8DB153AE6C4E7D8291B5F06FC21497","ad26c607-f412-46a9-8cad-22d7255ddcf3","8dfb86c6-d592-4b65-b168-1bfaa987a769","{""part"":""2"",""participantId"":""BE8DB153AE6C4E7D8291B5F06FC21497"",""assignmentId"":""ad26c607-f412-46a9-8cad-22d7255ddcf3"",""projectId"":""8dfb86c6-d592-4b65-b168-1bfaa987a769""}","https://test12345.live/?part=2&participantId=BE8DB153AE6C4E7D8291B5F06FC21497&assignmentId=ad26c607-f412-46a9-8cad-22d7255ddcf3&projectId=8dfb86c6-d592-4b65-b168-1bfaa987a769","BE8DB153AE6C4E7D8291B5F06FC21497-2025-05-24-02-11-45","","12961","","[""<span style=\""color: red; font-size: 24px\""> NOW RECORDING</span><p>Please say out loud all the images you saw in part 1 of the experiment, in the exact order you saw them. Try to recall as many images as you can, but remember: getting the order right is more important than the number of images you recall. </p>""]","","1","physical_activity_semantic"
"","","","","","image-button-response","43","2555631","0.0-41.0-0.0","BE8DB153AE6C4E7D8291B5F06FC21497","BE8DB153AE6C4E7D8291B5F06FC21497","ad26c607-f412-46a9-8cad-22d7255ddcf3","8dfb86c6-d592-4b65-b168-1bfaa987a769","{""part"":""2"",""participantId"":""BE8DB153AE6C4E7D8291B5F06FC21497"",""assignmentId"":""ad26c607-f412-46a9-8cad-22d7255ddcf3"",""projectId"":""8dfb86c6-d592-4b65-b168-1bfaa987a769""}","https://test12345.live/?part=2&participantId=BE8DB153AE6C4E7D8291B5F06FC21497&assignmentId=ad26c607-f412-46a9-8cad-22d7255ddcf3&projectId=8dfb86c6-d592-4b65-b168-1bfaa987a769","BE8DB153AE6C4E7D8291B5F06FC21497-2025-05-24-02-11-45","","null","","images/schematic_sequence/interview_scheme/interview_scheme_0.png","null","",""
"","","","","","html-audio-response","44","2594299","0.0-42.0","BE8DB153AE6C4E7D8291B5F06FC21497","BE8DB153AE6C4E7D8291B5F06FC21497","ad26c607-f412-46a9-8cad-22d7255ddcf3","8dfb86c6-d592-4b65-b168-1bfaa987a769","{""part"":""2"",""participantId"":""BE8DB153AE6C4E7D8291B5F06FC21497"",""assignmentId"":""ad26c607-f412-46a9-8cad-22d7255ddcf3"",""projectId"":""8dfb86c6-d592-4b65-b168-1bfaa987a769""}","https://test12345.live/?part=2&participantId=BE8DB153AE6C4E7D8291B5F06FC21497&assignmentId=ad26c607-f412-46a9-8cad-22d7255ddcf3&projectId=8dfb86c6-d592-4b65-b168-1bfaa987a769","BE8DB153AE6C4E7D8291B5F06FC21497-2025-05-24-02-11-45","","18256","","[""<span style=\""color: red; font-size: 24px\""> NOW RECORDING</span><p>Please say out loud all the images you saw in part 1 of the experiment, in the exact order you saw them. Try to recall as many images as you can, but remember: getting the order right is more important than the number of images you recall. </p>""]","","1","interview_scheme"
"","","","","","image-button-response","45","2600320","0.0-43.0-0.0","BE8DB153AE6C4E7D8291B5F06FC21497","BE8DB153AE6C4E7D8291B5F06FC21497","ad26c607-f412-46a9-8cad-22d7255ddcf3","8dfb86c6-d592-4b65-b168-1bfaa987a769","{""part"":""2"",""participantId"":""BE8DB153AE6C4E7D8291B5F06FC21497"",""assignmentId"":""ad26c607-f412-46a9-8cad-22d7255ddcf3"",""projectId"":""8dfb86c6-d592-4b65-b168-1bfaa987a769""}","https://test12345.live/?part=2&participantId=BE8DB153AE6C4E7D8291B5F06FC21497&assignmentId=ad26c607-f412-46a9-8cad-22d7255ddcf3&projectId=8dfb86c6-d592-4b65-b168-1bfaa987a769","BE8DB153AE6C4E7D8291B5F06FC21497-2025-05-24-02-11-45","","null","","images/schematic_sequence/supermarket_scheme/supermarket_scheme_0.png","null","",""
"","","","","","html-audio-response","46","2646906","0.0-44.0","BE8DB153AE6C4E7D8291B5F06FC21497","BE8DB153AE6C4E7D8291B5F06FC21497","ad26c607-f412-46a9-8cad-22d7255ddcf3","8dfb86c6-d592-4b65-b168-1bfaa987a769","{""part"":""2"",""participantId"":""BE8DB153AE6C4E7D8291B5F06FC21497"",""assignmentId"":""ad26c607-f412-46a9-8cad-22d7255ddcf3"",""projectId"":""8dfb86c6-d592-4b65-b168-1bfaa987a769""}","https://test12345.live/?part=2&participantId=BE8DB153AE6C4E7D8291B5F06FC21497&assignmentId=ad26c607-f412-46a9-8cad-22d7255ddcf3&projectId=8dfb86c6-d592-4b65-b168-1bfaa987a769","BE8DB153AE6C4E7D8291B5F06FC21497-2025-05-24-02-11-45","","9142","","[""<span style=\""color: red; font-size: 24px\""> NOW RECORDING</span><p>Please say out loud all the images you saw in part 1 of the experiment, in the exact order you saw them. Try to recall as many images as you can, but remember: getting the order right is more important than the number of images you recall. </p>""]","","1","supermarket_scheme"
"","","","","","image-button-response","47","2652922","0.0-45.0-0.0","BE8DB153AE6C4E7D8291B5F06FC21497","BE8DB153AE6C4E7D8291B5F06FC21497","ad26c607-f412-46a9-8cad-22d7255ddcf3","8dfb86c6-d592-4b65-b168-1bfaa987a769","{""part"":""2"",""participantId"":""BE8DB153AE6C4E7D8291B5F06FC21497"",""assignmentId"":""ad26c607-f412-46a9-8cad-22d7255ddcf3"",""projectId"":""8dfb86c6-d592-4b65-b168-1bfaa987a769""}","https://test12345.live/?part=2&participantId=BE8DB153AE6C4E7D8291B5F06FC21497&assignmentId=ad26c607-f412-46a9-8cad-22d7255ddcf3&projectId=8dfb86c6-d592-4b65-b168-1bfaa987a769","BE8DB153AE6C4E7D8291B5F06FC21497-2025-05-24-02-11-45","","null","","images/causal_sequence/museum_causal/museum_causal_0.png","null","",""
"","","","","","html-audio-response","48","2710878","0.0-46.0","BE8DB153AE6C4E7D8291B5F06FC21497","BE8DB153AE6C4E7D8291B5F06FC21497","ad26c607-f412-46a9-8cad-22d7255ddcf3","8dfb86c6-d592-4b65-b168-1bfaa987a769","{""part"":""2"",""participantId"":""BE8DB153AE6C4E7D8291B5F06FC21497"",""assignmentId"":""ad26c607-f412-46a9-8cad-22d7255ddcf3"",""projectId"":""8dfb86c6-d592-4b65-b168-1bfaa987a769""}","https://test12345.live/?part=2&participantId=BE8DB153AE6C4E7D8291B5F06FC21497&assignmentId=ad26c607-f412-46a9-8cad-22d7255ddcf3&projectId=8dfb86c6-d592-4b65-b168-1bfaa987a769","BE8DB153AE6C4E7D8291B5F06FC21497-2025-05-24-02-11-45","","6710","","[""<span style=\""color: red; font-size: 24px\""> NOW RECORDING</span><p>Please say out loud all the images you saw in part 1 of the experiment, in the exact order you saw them. Try to recall as many images as you can, but remember: getting the order right is more important than the number of images you recall. </p>""]","","1","museum_causal"
"","","","","","image-button-response","49","2716892","0.0-47.0-0.0","BE8DB153AE6C4E7D8291B5F06FC21497","BE8DB153AE6C4E7D8291B5F06FC21497","ad26c607-f412-46a9-8cad-22d7255ddcf3","8dfb86c6-d592-4b65-b168-1bfaa987a769","{""part"":""2"",""participantId"":""BE8DB153AE6C4E7D8291B5F06FC21497"",""assignmentId"":""ad26c607-f412-46a9-8cad-22d7255ddcf3"",""projectId"":""8dfb86c6-d592-4b65-b168-1bfaa987a769""}","https://test12345.live/?part=2&participantId=BE8DB153AE6C4E7D8291B5F06FC21497&assignmentId=ad26c607-f412-46a9-8cad-22d7255ddcf3&projectId=8dfb86c6-d592-4b65-b168-1bfaa987a769","BE8DB153AE6C4E7D8291B5F06FC21497-2025-05-24-02-11-45","","null","","images/causal_sequence/saving_a_cat_causal/saving_a_cat_causal_0.png","null","",""
"","","","","","html-audio-response","50","2796346","0.0-48.0","BE8DB153AE6C4E7D8291B5F06FC21497","BE8DB153AE6C4E7D8291B5F06FC21497","ad26c607-f412-46a9-8cad-22d7255ddcf3","8dfb86c6-d592-4b65-b168-1bfaa987a769","{""part"":""2"",""participantId"":""BE8DB153AE6C4E7D8291B5F06FC21497"",""assignmentId"":""ad26c607-f412-46a9-8cad-22d7255ddcf3"",""projectId"":""8dfb86c6-d592-4b65-b168-1bfaa987a769""}","https://test12345.live/?part=2&participantId=BE8DB153AE6C4E7D8291B5F06FC21497&assignmentId=ad26c607-f412-46a9-8cad-22d7255ddcf3&projectId=8dfb86c6-d592-4b65-b168-1bfaa987a769","BE8DB153AE6C4E7D8291B5F06FC21497-2025-05-24-02-11-45","","38563","","[""<span style=\""color: red; font-size: 24px\""> NOW RECORDING</span><p>Please say out loud all the images you saw in part 1 of the experiment, in the exact order you saw them. Try to recall as many images as you can, but remember: getting the order right is more important than the number of images you recall. </p>""]","","2","saving_a_cat_causal"
"","","","","","image-button-response","51","2802377","0.0-49.0-0.0","BE8DB153AE6C4E7D8291B5F06FC21497","BE8DB153AE6C4E7D8291B5F06FC21497","ad26c607-f412-46a9-8cad-22d7255ddcf3","8dfb86c6-d592-4b65-b168-1bfaa987a769","{""part"":""2"",""participantId"":""BE8DB153AE6C4E7D8291B5F06FC21497"",""assignmentId"":""ad26c607-f412-46a9-8cad-22d7255ddcf3"",""projectId"":""8dfb86c6-d592-4b65-b168-1bfaa987a769""}","https://test12345.live/?part=2&participantId=BE8DB153AE6C4E7D8291B5F06FC21497&assignmentId=ad26c607-f412-46a9-8cad-22d7255ddcf3&projectId=8dfb86c6-d592-4b65-b168-1bfaa987a769","BE8DB153AE6C4E7D8291B5F06FC21497-2025-05-24-02-11-45","","null","","images/schematic_sequence/restaurant_scheme/restaurant_scheme_0.png","null","",""
"","","","","","html-audio-response","52","2834452","0.0-50.0","BE8DB153AE6C4E7D8291B5F06FC21497","BE8DB153AE6C4E7D8291B5F06FC21497","ad26c607-f412-46a9-8cad-22d7255ddcf3","8dfb86c6-d592-4b65-b168-1bfaa987a769","{""part"":""2"",""participantId"":""BE8DB153AE6C4E7D8291B5F06FC21497"",""assignmentId"":""ad26c607-f412-46a9-8cad-22d7255ddcf3"",""projectId"":""8dfb86c6-d592-4b65-b168-1bfaa987a769""}","https://test12345.live/?part=2&participantId=BE8DB153AE6C4E7D8291B5F06FC21497&assignmentId=ad26c607-f412-46a9-8cad-22d7255ddcf3&projectId=8dfb86c6-d592-4b65-b168-1bfaa987a769","BE8DB153AE6C4E7D8291B5F06FC21497-2025-05-24-02-11-45","","16083","","[""<span style=\""color: red; font-size: 24px\""> NOW RECORDING</span><p>Please say out loud all the images you saw in part 1 of the experiment, in the exact order you saw them. Try to recall as many images as you can, but remember: getting the order right is more important than the number of images you recall. </p>""]","","2","restaurant_scheme"
"","","","","","image-button-response","53","2840462","0.0-51.0-0.0","BE8DB153AE6C4E7D8291B5F06FC21497","BE8DB153AE6C4E7D8291B5F06FC21497","ad26c607-f412-46a9-8cad-22d7255ddcf3","8dfb86c6-d592-4b65-b168-1bfaa987a769","{""part"":""2"",""participantId"":""BE8DB153AE6C4E7D8291B5F06FC21497"",""assignmentId"":""ad26c607-f412-46a9-8cad-22d7255ddcf3"",""projectId"":""8dfb86c6-d592-4b65-b168-1bfaa987a769""}","https://test12345.live/?part=2&participantId=BE8DB153AE6C4E7D8291B5F06FC21497&assignmentId=ad26c607-f412-46a9-8cad-22d7255ddcf3&projectId=8dfb86c6-d592-4b65-b168-1bfaa987a769","BE8DB153AE6C4E7D8291B5F06FC21497-2025-05-24-02-11-45","","null","","images/semantic_sequence/using_technology_semantic/using_technology_semantic_0.png","null","",""
"","","","","","html-audio-response","54","2872603","0.0-52.0","BE8DB153AE6C4E7D8291B5F06FC21497","BE8DB153AE6C4E7D8291B5F06FC21497","ad26c607-f412-46a9-8cad-22d7255ddcf3","8dfb86c6-d592-4b65-b168-1bfaa987a769","{""part"":""2"",""participantId"":""BE8DB153AE6C4E7D8291B5F06FC21497"",""assignmentId"":""ad26c607-f412-46a9-8cad-22d7255ddcf3"",""projectId"":""8dfb86c6-d592-4b65-b168-1bfaa987a769""}","https://test12345.live/?part=2&participantId=BE8DB153AE6C4E7D8291B5F06FC21497&assignmentId=ad26c607-f412-46a9-8cad-22d7255ddcf3&projectId=8dfb86c6-d592-4b65-b168-1bfaa987a769","BE8DB153AE6C4E7D8291B5F06FC21497-2025-05-24-02-11-45","","15108","","[""<span style=\""color: red; font-size: 24px\""> NOW RECORDING</span><p>Please say out loud all the images you saw in part 1 of the experiment, in the exact order you saw them. Try to recall as many images as you can, but remember: getting the order right is more important than the number of images you recall. </p>""]","","3","using_technology_semantic"
"","","","","","image-button-response","55","2878611","0.0-53.0-0.0","BE8DB153AE6C4E7D8291B5F06FC21497","BE8DB153AE6C4E7D8291B5F06FC21497","ad26c607-f412-46a9-8cad-22d7255ddcf3","8dfb86c6-d592-4b65-b168-1bfaa987a769","{""part"":""2"",""participantId"":""BE8DB153AE6C4E7D8291B5F06FC21497"",""assignmentId"":""ad26c607-f412-46a9-8cad-22d7255ddcf3"",""projectId"":""8dfb86c6-d592-4b65-b168-1bfaa987a769""}","https://test12345.live/?part=2&participantId=BE8DB153AE6C4E7D8291B5F06FC21497&assignmentId=ad26c607-f412-46a9-8cad-22d7255ddcf3&projectId=8dfb86c6-d592-4b65-b168-1bfaa987a769","BE8DB153AE6C4E7D8291B5F06FC21497-2025-05-24-02-11-45","","null","","images/semantic_sequence/visiting_cities_semantic/visiting_cities_semantic_0.png","null","",""
"","","","","","html-audio-response","56","2967305","0.0-54.0","BE8DB153AE6C4E7D8291B5F06FC21497","BE8DB153AE6C4E7D8291B5F06FC21497","ad26c607-f412-46a9-8cad-22d7255ddcf3","8dfb86c6-d592-4b65-b168-1bfaa987a769","{""part"":""2"",""participantId"":""BE8DB153AE6C4E7D8291B5F06FC21497"",""assignmentId"":""ad26c607-f412-46a9-8cad-22d7255ddcf3"",""projectId"":""8dfb86c6-d592-4b65-b168-1bfaa987a769""}","https://test12345.live/?part=2&participantId=BE8DB153AE6C4E7D8291B5F06FC21497&assignmentId=ad26c607-f412-46a9-8cad-22d7255ddcf3&projectId=8dfb86c6-d592-4b65-b168-1bfaa987a769","BE8DB153AE6C4E7D8291B5F06FC21497-2025-05-24-02-11-45","","14082","","[""<span style=\""color: red; font-size: 24px\""> NOW RECORDING</span><p>Please say out loud all the images you saw in part 1 of the experiment, in the exact order you saw them. Try to recall as many images as you can, but remember: getting the order right is more important than the number of images you recall. </p>""]","","1","visiting_cities_semantic"
"","","","","","image-button-response","57","2973312","0.0-55.0-0.0","BE8DB153AE6C4E7D8291B5F06FC21497","BE8DB153AE6C4E7D8291B5F06FC21497","ad26c607-f412-46a9-8cad-22d7255ddcf3","8dfb86c6-d592-4b65-b168-1bfaa987a769","{""part"":""2"",""participantId"":""BE8DB153AE6C4E7D8291B5F06FC21497"",""assignmentId"":""ad26c607-f412-46a9-8cad-22d7255ddcf3"",""projectId"":""8dfb86c6-d592-4b65-b168-1bfaa987a769""}","https://test12345.live/?part=2&participantId=BE8DB153AE6C4E7D8291B5F06FC21497&assignmentId=ad26c607-f412-46a9-8cad-22d7255ddcf3&projectId=8dfb86c6-d592-4b65-b168-1bfaa987a769","BE8DB153AE6C4E7D8291B5F06FC21497-2025-05-24-02-11-45","","null","","images/schematic_sequence/hotel_scheme/hotel_scheme_0.png","null","",""
"","","","","","html-audio-response","58","3015554","0.0-56.0","BE8DB153AE6C4E7D8291B5F06FC21497","BE8DB153AE6C4E7D8291B5F06FC21497","ad26c607-f412-46a9-8cad-22d7255ddcf3","8dfb86c6-d592-4b65-b168-1bfaa987a769","{""part"":""2"",""participantId"":""BE8DB153AE6C4E7D8291B5F06FC21497"",""assignmentId"":""ad26c607-f412-46a9-8cad-22d7255ddcf3"",""projectId"":""8dfb86c6-d592-4b65-b168-1bfaa987a769""}","https://test12345.live/?part=2&participantId=BE8DB153AE6C4E7D8291B5F06FC21497&assignmentId=ad26c607-f412-46a9-8cad-22d7255ddcf3&projectId=8dfb86c6-d592-4b65-b168-1bfaa987a769","BE8DB153AE6C4E7D8291B5F06FC21497-2025-05-24-02-11-45","","17977","","[""<span style=\""color: red; font-size: 24px\""> NOW RECORDING</span><p>Please say out loud all the images you saw in part 1 of the experiment, in the exact order you saw them. Try to recall as many images as you can, but remember: getting the order right is more important than the number of images you recall. </p>""]","","1","hotel_scheme"
"","","","","","survey-text","59","3023673","0.0-57.0","BE8DB153AE6C4E7D8291B5F06FC21497","BE8DB153AE6C4E7D8291B5F06FC21497","ad26c607-f412-46a9-8cad-22d7255ddcf3","8dfb86c6-d592-4b65-b168-1bfaa987a769","{""part"":""2"",""participantId"":""BE8DB153AE6C4E7D8291B5F06FC21497"",""assignmentId"":""ad26c607-f412-46a9-8cad-22d7255ddcf3"",""projectId"":""8dfb86c6-d592-4b65-b168-1bfaa987a769""}","https://test12345.live/?part=2&participantId=BE8DB153AE6C4E7D8291B5F06FC21497&assignmentId=ad26c607-f412-46a9-8cad-22d7255ddcf3&projectId=8dfb86c6-d592-4b65-b168-1bfaa987a769","BE8DB153AE6C4E7D8291B5F06FC21497-2025-05-24-02-11-45","","8105","","","{""Q0"":""Female"",""Q1"":""33""}","",""
"","","","","","instructions","60","3042878","0.0-58.0","BE8DB153AE6C4E7D8291B5F06FC21497","BE8DB153AE6C4E7D8291B5F06FC21497","ad26c607-f412-46a9-8cad-22d7255ddcf3","8dfb86c6-d592-4b65-b168-1bfaa987a769","{""part"":""2"",""participantId"":""BE8DB153AE6C4E7D8291B5F06FC21497"",""assignmentId"":""ad26c607-f412-46a9-8cad-22d7255ddcf3"",""projectId"":""8dfb86c6-d592-4b65-b168-1bfaa987a769""}","https://test12345.live/?part=2&participantId=BE8DB153AE6C4E7D8291B5F06FC21497&assignmentId=ad26c607-f412-46a9-8cad-22d7255ddcf3&projectId=8dfb86c6-d592-4b65-b168-1bfaa987a769","BE8DB153AE6C4E7D8291B5F06FC21497-2025-05-24-02-11-45","[{""page_index"":0,""viewing_time"":19203}]","19204","","","","",""
"","","","","","survey-text","61","3047897","0.0-59.0","BE8DB153AE6C4E7D8291B5F06FC21497","BE8DB153AE6C4E7D8291B5F06FC21497","ad26c607-f412-46a9-8cad-22d7255ddcf3","8dfb86c6-d592-4b65-b168-1bfaa987a769","{""part"":""2"",""participantId"":""BE8DB153AE6C4E7D8291B5F06FC21497"",""assignmentId"":""ad26c607-f412-46a9-8cad-22d7255ddcf3"",""projectId"":""8dfb86c6-d592-4b65-b168-1bfaa987a769""}","https://test12345.live/?part=2&participantId=BE8DB153AE6C4E7D8291B5F06FC21497&assignmentId=ad26c607-f412-46a9-8cad-22d7255ddcf3&projectId=8dfb86c6-d592-4b65-b168-1bfaa987a769","BE8DB153AE6C4E7D8291B5F06FC21497-2025-05-24-02-11-45","","5018","","","{""Q0"":""AJFHBG896""}","",""
