"success","timeout","failed_images","failed_audio","failed_video","trial_type","trial_index","time_elapsed","internal_node_id","subject","subject_id","study_id","session_id","urlvar","current_url","audio_id","view_history","rt","device_id","stimulus","response","estimated_stimulus_onset","seq_name"
"true","false","[]","[]","[]","preload","0","2099","0.0-0.0","BFAFB5FB18564AEF8D00B606A1DD8989","BFAFB5FB18564AEF8D00B606A1DD8989","92436ea2-f4b4-4a13-a300-cfff974ecaf6","e9cc2542-c7dc-4d8f-b94f-d088ad8989d1","{""part"":""2"",""participantId"":""BFAFB5FB18564AEF8D00B606A1DD8989"",""assignmentId"":""92436ea2-f4b4-4a13-a300-cfff974ecaf6"",""projectId"":""e9cc2542-c7dc-4d8f-b94f-d088ad8989d1""}","https://test12345.live/?part=2&participantId=BFAFB5FB18564AEF8D00B606A1DD8989&assignmentId=92436ea2-f4b4-4a13-a300-cfff974ecaf6&projectId=e9cc2542-c7dc-4d8f-b94f-d088ad8989d1","BFAFB5FB18564AEF8D00B606A1DD8989-2025-05-16-19-51-17","","","","","","",""
"","","","","","instructions","1","113513","0.0-1.0","BFAFB5FB18564AEF8D00B606A1DD8989","BFAFB5FB18564AEF8D00B606A1DD8989","92436ea2-f4b4-4a13-a300-cfff974ecaf6","e9cc2542-c7dc-4d8f-b94f-d088ad8989d1","{""part"":""2"",""participantId"":""BFAFB5FB18564AEF8D00B606A1DD8989"",""assignmentId"":""92436ea2-f4b4-4a13-a300-cfff974ecaf6"",""projectId"":""e9cc2542-c7dc-4d8f-b94f-d088ad8989d1""}","https://test12345.live/?part=2&participantId=BFAFB5FB18564AEF8D00B606A1DD8989&assignmentId=92436ea2-f4b4-4a13-a300-cfff974ecaf6&projectId=e9cc2542-c7dc-4d8f-b94f-d088ad8989d1","BFAFB5FB18564AEF8D00B606A1DD8989-2025-05-16-19-51-17","[{""page_index"":0,""viewing_time"":111413}]","111414","","","","",""
"","","","","","instructions","2","122144","0.0-2.0","BFAFB5FB18564AEF8D00B606A1DD8989","BFAFB5FB18564AEF8D00B606A1DD8989","92436ea2-f4b4-4a13-a300-cfff974ecaf6","e9cc2542-c7dc-4d8f-b94f-d088ad8989d1","{""part"":""2"",""participantId"":""BFAFB5FB18564AEF8D00B606A1DD8989"",""assignmentId"":""92436ea2-f4b4-4a13-a300-cfff974ecaf6"",""projectId"":""e9cc2542-c7dc-4d8f-b94f-d088ad8989d1""}","https://test12345.live/?part=2&participantId=BFAFB5FB18564AEF8D00B606A1DD8989&assignmentId=92436ea2-f4b4-4a13-a300-cfff974ecaf6&projectId=e9cc2542-c7dc-4d8f-b94f-d088ad8989d1","BFAFB5FB18564AEF8D00B606A1DD8989-2025-05-16-19-51-17","[{""page_index"":0,""viewing_time"":8631}]","8631","","","","",""
"true","","","","","fullscreen","3","125199","0.0-3.0","BFAFB5FB18564AEF8D00B606A1DD8989","BFAFB5FB18564AEF8D00B606A1DD8989","92436ea2-f4b4-4a13-a300-cfff974ecaf6","e9cc2542-c7dc-4d8f-b94f-d088ad8989d1","{""part"":""2"",""participantId"":""BFAFB5FB18564AEF8D00B606A1DD8989"",""assignmentId"":""92436ea2-f4b4-4a13-a300-cfff974ecaf6"",""projectId"":""e9cc2542-c7dc-4d8f-b94f-d088ad8989d1""}","https://test12345.live/?part=2&participantId=BFAFB5FB18564AEF8D00B606A1DD8989&assignmentId=92436ea2-f4b4-4a13-a300-cfff974ecaf6&projectId=e9cc2542-c7dc-4d8f-b94f-d088ad8989d1","BFAFB5FB18564AEF8D00B606A1DD8989-2025-05-16-19-51-17","","2040","","","","",""
"","","","","","initialize-microphone","4","133027","0.0-4.0-0.0","BFAFB5FB18564AEF8D00B606A1DD8989","BFAFB5FB18564AEF8D00B606A1DD8989","92436ea2-f4b4-4a13-a300-cfff974ecaf6","e9cc2542-c7dc-4d8f-b94f-d088ad8989d1","{""part"":""2"",""participantId"":""BFAFB5FB18564AEF8D00B606A1DD8989"",""assignmentId"":""92436ea2-f4b4-4a13-a300-cfff974ecaf6"",""projectId"":""e9cc2542-c7dc-4d8f-b94f-d088ad8989d1""}","https://test12345.live/?part=2&participantId=BFAFB5FB18564AEF8D00B606A1DD8989&assignmentId=92436ea2-f4b4-4a13-a300-cfff974ecaf6&projectId=e9cc2542-c7dc-4d8f-b94f-d088ad8989d1","BFAFB5FB18564AEF8D00B606A1DD8989-2025-05-16-19-51-17","","","0373415823df6f59de88f658684773245f2cfd306e4469c90697e388c26364d8","","","",""
"","","","","","html-audio-response","5","146089","0.0-4.0-1.0","BFAFB5FB18564AEF8D00B606A1DD8989","BFAFB5FB18564AEF8D00B606A1DD8989","92436ea2-f4b4-4a13-a300-cfff974ecaf6","e9cc2542-c7dc-4d8f-b94f-d088ad8989d1","{""part"":""2"",""participantId"":""BFAFB5FB18564AEF8D00B606A1DD8989"",""assignmentId"":""92436ea2-f4b4-4a13-a300-cfff974ecaf6"",""projectId"":""e9cc2542-c7dc-4d8f-b94f-d088ad8989d1""}","https://test12345.live/?part=2&participantId=BFAFB5FB18564AEF8D00B606A1DD8989&assignmentId=92436ea2-f4b4-4a13-a300-cfff974ecaf6&projectId=e9cc2542-c7dc-4d8f-b94f-d088ad8989d1","BFAFB5FB18564AEF8D00B606A1DD8989-2025-05-16-19-51-17","","5577","","<span style=""color: red; font-size: 24px""> NOW RECORDING</span>
        <p>Please test Microphone</p>","","2",""
"","","","","","html-button-response","6","147577","0.0-4.0-2.0","BFAFB5FB18564AEF8D00B606A1DD8989","BFAFB5FB18564AEF8D00B606A1DD8989","92436ea2-f4b4-4a13-a300-cfff974ecaf6","e9cc2542-c7dc-4d8f-b94f-d088ad8989d1","{""part"":""2"",""participantId"":""BFAFB5FB18564AEF8D00B606A1DD8989"",""assignmentId"":""92436ea2-f4b4-4a13-a300-cfff974ecaf6"",""projectId"":""e9cc2542-c7dc-4d8f-b94f-d088ad8989d1""}","https://test12345.live/?part=2&participantId=BFAFB5FB18564AEF8D00B606A1DD8989&assignmentId=92436ea2-f4b4-4a13-a300-cfff974ecaf6&projectId=e9cc2542-c7dc-4d8f-b94f-d088ad8989d1","BFAFB5FB18564AEF8D00B606A1DD8989-2025-05-16-19-51-17","","1487","","<p style=""font-size:48px; color:red;"">Is Microphone OK?</p>","1","",""
"","","","","","instructions","7","170616","0.0-5.0","BFAFB5FB18564AEF8D00B606A1DD8989","BFAFB5FB18564AEF8D00B606A1DD8989","92436ea2-f4b4-4a13-a300-cfff974ecaf6","e9cc2542-c7dc-4d8f-b94f-d088ad8989d1","{""part"":""2"",""participantId"":""BFAFB5FB18564AEF8D00B606A1DD8989"",""assignmentId"":""92436ea2-f4b4-4a13-a300-cfff974ecaf6"",""projectId"":""e9cc2542-c7dc-4d8f-b94f-d088ad8989d1""}","https://test12345.live/?part=2&participantId=BFAFB5FB18564AEF8D00B606A1DD8989&assignmentId=92436ea2-f4b4-4a13-a300-cfff974ecaf6&projectId=e9cc2542-c7dc-4d8f-b94f-d088ad8989d1","BFAFB5FB18564AEF8D00B606A1DD8989-2025-05-16-19-51-17","[{""page_index"":0,""viewing_time"":1216},{""page_index"":1,""viewing_time"":14976},{""page_index"":2,""viewing_time"":6848}]","23040","","","","",""
"","","","","","image-button-response","8","176628","0.0-6.0-0.0","BFAFB5FB18564AEF8D00B606A1DD8989","BFAFB5FB18564AEF8D00B606A1DD8989","92436ea2-f4b4-4a13-a300-cfff974ecaf6","e9cc2542-c7dc-4d8f-b94f-d088ad8989d1","{""part"":""2"",""participantId"":""BFAFB5FB18564AEF8D00B606A1DD8989"",""assignmentId"":""92436ea2-f4b4-4a13-a300-cfff974ecaf6"",""projectId"":""e9cc2542-c7dc-4d8f-b94f-d088ad8989d1""}","https://test12345.live/?part=2&participantId=BFAFB5FB18564AEF8D00B606A1DD8989&assignmentId=92436ea2-f4b4-4a13-a300-cfff974ecaf6&projectId=e9cc2542-c7dc-4d8f-b94f-d088ad8989d1","BFAFB5FB18564AEF8D00B606A1DD8989-2025-05-16-19-51-17","","null","","images/instructions/movie_0.png","null","",""
"","","","","","html-audio-response","9","234848","0.0-7.0","BFAFB5FB18564AEF8D00B606A1DD8989","BFAFB5FB18564AEF8D00B606A1DD8989","92436ea2-f4b4-4a13-a300-cfff974ecaf6","e9cc2542-c7dc-4d8f-b94f-d088ad8989d1","{""part"":""2"",""participantId"":""BFAFB5FB18564AEF8D00B606A1DD8989"",""assignmentId"":""92436ea2-f4b4-4a13-a300-cfff974ecaf6"",""projectId"":""e9cc2542-c7dc-4d8f-b94f-d088ad8989d1""}","https://test12345.live/?part=2&participantId=BFAFB5FB18564AEF8D00B606A1DD8989&assignmentId=92436ea2-f4b4-4a13-a300-cfff974ecaf6&projectId=e9cc2542-c7dc-4d8f-b94f-d088ad8989d1","BFAFB5FB18564AEF8D00B606A1DD8989-2025-05-16-19-51-17","","30497","","[""<span style=\""color: red; font-size: 24px\""> NOW RECORDING</span><p>Please say out loud all the images you saw in part 1 of the experiment, as many as you can remember. The images can be said in any order.</p>""]","","1",""
"","","","","","instructions","10","236592","0.0-8.0","BFAFB5FB18564AEF8D00B606A1DD8989","BFAFB5FB18564AEF8D00B606A1DD8989","92436ea2-f4b4-4a13-a300-cfff974ecaf6","e9cc2542-c7dc-4d8f-b94f-d088ad8989d1","{""part"":""2"",""participantId"":""BFAFB5FB18564AEF8D00B606A1DD8989"",""assignmentId"":""92436ea2-f4b4-4a13-a300-cfff974ecaf6"",""projectId"":""e9cc2542-c7dc-4d8f-b94f-d088ad8989d1""}","https://test12345.live/?part=2&participantId=BFAFB5FB18564AEF8D00B606A1DD8989&assignmentId=92436ea2-f4b4-4a13-a300-cfff974ecaf6&projectId=e9cc2542-c7dc-4d8f-b94f-d088ad8989d1","BFAFB5FB18564AEF8D00B606A1DD8989-2025-05-16-19-51-17","[{""page_index"":0,""viewing_time"":1740}]","1740","","","","",""
"","","","","","image-button-response","11","242597","0.0-9.0-0.0","BFAFB5FB18564AEF8D00B606A1DD8989","BFAFB5FB18564AEF8D00B606A1DD8989","92436ea2-f4b4-4a13-a300-cfff974ecaf6","e9cc2542-c7dc-4d8f-b94f-d088ad8989d1","{""part"":""2"",""participantId"":""BFAFB5FB18564AEF8D00B606A1DD8989"",""assignmentId"":""92436ea2-f4b4-4a13-a300-cfff974ecaf6"",""projectId"":""e9cc2542-c7dc-4d8f-b94f-d088ad8989d1""}","https://test12345.live/?part=2&participantId=BFAFB5FB18564AEF8D00B606A1DD8989&assignmentId=92436ea2-f4b4-4a13-a300-cfff974ecaf6&projectId=e9cc2542-c7dc-4d8f-b94f-d088ad8989d1","BFAFB5FB18564AEF8D00B606A1DD8989-2025-05-16-19-51-17","","null","","images/schematic_sequence/flight_scheme/flight_scheme_0.png","null","",""
"","","","","","html-audio-response","12","299720","0.0-10.0","BFAFB5FB18564AEF8D00B606A1DD8989","BFAFB5FB18564AEF8D00B606A1DD8989","92436ea2-f4b4-4a13-a300-cfff974ecaf6","e9cc2542-c7dc-4d8f-b94f-d088ad8989d1","{""part"":""2"",""participantId"":""BFAFB5FB18564AEF8D00B606A1DD8989"",""assignmentId"":""92436ea2-f4b4-4a13-a300-cfff974ecaf6"",""projectId"":""e9cc2542-c7dc-4d8f-b94f-d088ad8989d1""}","https://test12345.live/?part=2&participantId=BFAFB5FB18564AEF8D00B606A1DD8989&assignmentId=92436ea2-f4b4-4a13-a300-cfff974ecaf6&projectId=e9cc2542-c7dc-4d8f-b94f-d088ad8989d1","BFAFB5FB18564AEF8D00B606A1DD8989-2025-05-16-19-51-17","","42046","","[""<span style=\""color: red; font-size: 24px\""> NOW RECORDING</span><p>Please say out loud all the images you saw in part 1 of the experiment, as many as you can remember. The images can be said in any order.</p>""]","","1","flight_scheme"
"","","","","","image-button-response","13","305735","0.0-11.0-0.0","BFAFB5FB18564AEF8D00B606A1DD8989","BFAFB5FB18564AEF8D00B606A1DD8989","92436ea2-f4b4-4a13-a300-cfff974ecaf6","e9cc2542-c7dc-4d8f-b94f-d088ad8989d1","{""part"":""2"",""participantId"":""BFAFB5FB18564AEF8D00B606A1DD8989"",""assignmentId"":""92436ea2-f4b4-4a13-a300-cfff974ecaf6"",""projectId"":""e9cc2542-c7dc-4d8f-b94f-d088ad8989d1""}","https://test12345.live/?part=2&participantId=BFAFB5FB18564AEF8D00B606A1DD8989&assignmentId=92436ea2-f4b4-4a13-a300-cfff974ecaf6&projectId=e9cc2542-c7dc-4d8f-b94f-d088ad8989d1","BFAFB5FB18564AEF8D00B606A1DD8989-2025-05-16-19-51-17","","null","","images/schematic_sequence/restaurant_scheme/restaurant_scheme_0.png","null","",""
"","","","","","html-audio-response","14","337712","0.0-12.0","BFAFB5FB18564AEF8D00B606A1DD8989","BFAFB5FB18564AEF8D00B606A1DD8989","92436ea2-f4b4-4a13-a300-cfff974ecaf6","e9cc2542-c7dc-4d8f-b94f-d088ad8989d1","{""part"":""2"",""participantId"":""BFAFB5FB18564AEF8D00B606A1DD8989"",""assignmentId"":""92436ea2-f4b4-4a13-a300-cfff974ecaf6"",""projectId"":""e9cc2542-c7dc-4d8f-b94f-d088ad8989d1""}","https://test12345.live/?part=2&participantId=BFAFB5FB18564AEF8D00B606A1DD8989&assignmentId=92436ea2-f4b4-4a13-a300-cfff974ecaf6&projectId=e9cc2542-c7dc-4d8f-b94f-d088ad8989d1","BFAFB5FB18564AEF8D00B606A1DD8989-2025-05-16-19-51-17","","27518","","[""<span style=\""color: red; font-size: 24px\""> NOW RECORDING</span><p>Please say out loud all the images you saw in part 1 of the experiment, as many as you can remember. The images can be said in any order.</p>""]","","1","restaurant_scheme"
"","","","","","image-button-response","15","343722","0.0-13.0-0.0","BFAFB5FB18564AEF8D00B606A1DD8989","BFAFB5FB18564AEF8D00B606A1DD8989","92436ea2-f4b4-4a13-a300-cfff974ecaf6","e9cc2542-c7dc-4d8f-b94f-d088ad8989d1","{""part"":""2"",""participantId"":""BFAFB5FB18564AEF8D00B606A1DD8989"",""assignmentId"":""92436ea2-f4b4-4a13-a300-cfff974ecaf6"",""projectId"":""e9cc2542-c7dc-4d8f-b94f-d088ad8989d1""}","https://test12345.live/?part=2&participantId=BFAFB5FB18564AEF8D00B606A1DD8989&assignmentId=92436ea2-f4b4-4a13-a300-cfff974ecaf6&projectId=e9cc2542-c7dc-4d8f-b94f-d088ad8989d1","BFAFB5FB18564AEF8D00B606A1DD8989-2025-05-16-19-51-17","","null","","images/causal_sequence/coin_causal/coin_causal_0.png","null","",""
"","","","","","html-audio-response","16","464720","0.0-14.0","BFAFB5FB18564AEF8D00B606A1DD8989","BFAFB5FB18564AEF8D00B606A1DD8989","92436ea2-f4b4-4a13-a300-cfff974ecaf6","e9cc2542-c7dc-4d8f-b94f-d088ad8989d1","{""part"":""2"",""participantId"":""BFAFB5FB18564AEF8D00B606A1DD8989"",""assignmentId"":""92436ea2-f4b4-4a13-a300-cfff974ecaf6"",""projectId"":""e9cc2542-c7dc-4d8f-b94f-d088ad8989d1""}","https://test12345.live/?part=2&participantId=BFAFB5FB18564AEF8D00B606A1DD8989&assignmentId=92436ea2-f4b4-4a13-a300-cfff974ecaf6&projectId=e9cc2542-c7dc-4d8f-b94f-d088ad8989d1","BFAFB5FB18564AEF8D00B606A1DD8989-2025-05-16-19-51-17","","null","","[""<span style=\""color: red; font-size: 24px\""> NOW RECORDING</span><p>Please say out loud all the images you saw in part 1 of the experiment, as many as you can remember. The images can be said in any order.</p>""]","","1","coin_causal"
"","","","","","image-button-response","17","470736","0.0-15.0-0.0","BFAFB5FB18564AEF8D00B606A1DD8989","BFAFB5FB18564AEF8D00B606A1DD8989","92436ea2-f4b4-4a13-a300-cfff974ecaf6","e9cc2542-c7dc-4d8f-b94f-d088ad8989d1","{""part"":""2"",""participantId"":""BFAFB5FB18564AEF8D00B606A1DD8989"",""assignmentId"":""92436ea2-f4b4-4a13-a300-cfff974ecaf6"",""projectId"":""e9cc2542-c7dc-4d8f-b94f-d088ad8989d1""}","https://test12345.live/?part=2&participantId=BFAFB5FB18564AEF8D00B606A1DD8989&assignmentId=92436ea2-f4b4-4a13-a300-cfff974ecaf6&projectId=e9cc2542-c7dc-4d8f-b94f-d088ad8989d1","BFAFB5FB18564AEF8D00B606A1DD8989-2025-05-16-19-51-17","","null","","images/schematic_sequence/interview_scheme/interview_scheme_0.png","null","",""
"","","","","","html-audio-response","18","507664","0.0-16.0","BFAFB5FB18564AEF8D00B606A1DD8989","BFAFB5FB18564AEF8D00B606A1DD8989","92436ea2-f4b4-4a13-a300-cfff974ecaf6","e9cc2542-c7dc-4d8f-b94f-d088ad8989d1","{""part"":""2"",""participantId"":""BFAFB5FB18564AEF8D00B606A1DD8989"",""assignmentId"":""92436ea2-f4b4-4a13-a300-cfff974ecaf6"",""projectId"":""e9cc2542-c7dc-4d8f-b94f-d088ad8989d1""}","https://test12345.live/?part=2&participantId=BFAFB5FB18564AEF8D00B606A1DD8989&assignmentId=92436ea2-f4b4-4a13-a300-cfff974ecaf6&projectId=e9cc2542-c7dc-4d8f-b94f-d088ad8989d1","BFAFB5FB18564AEF8D00B606A1DD8989-2025-05-16-19-51-17","","31024","","[""<span style=\""color: red; font-size: 24px\""> NOW RECORDING</span><p>Please say out loud all the images you saw in part 1 of the experiment, as many as you can remember. The images can be said in any order.</p>""]","","1","interview_scheme"
"","","","","","image-button-response","19","513681","0.0-17.0-0.0","BFAFB5FB18564AEF8D00B606A1DD8989","BFAFB5FB18564AEF8D00B606A1DD8989","92436ea2-f4b4-4a13-a300-cfff974ecaf6","e9cc2542-c7dc-4d8f-b94f-d088ad8989d1","{""part"":""2"",""participantId"":""BFAFB5FB18564AEF8D00B606A1DD8989"",""assignmentId"":""92436ea2-f4b4-4a13-a300-cfff974ecaf6"",""projectId"":""e9cc2542-c7dc-4d8f-b94f-d088ad8989d1""}","https://test12345.live/?part=2&participantId=BFAFB5FB18564AEF8D00B606A1DD8989&assignmentId=92436ea2-f4b4-4a13-a300-cfff974ecaf6&projectId=e9cc2542-c7dc-4d8f-b94f-d088ad8989d1","BFAFB5FB18564AEF8D00B606A1DD8989-2025-05-16-19-51-17","","null","","images/causal_sequence/saving_a_cat_causal/saving_a_cat_causal_0.png","null","",""
"","","","","","html-audio-response","20","559592","0.0-18.0","BFAFB5FB18564AEF8D00B606A1DD8989","BFAFB5FB18564AEF8D00B606A1DD8989","92436ea2-f4b4-4a13-a300-cfff974ecaf6","e9cc2542-c7dc-4d8f-b94f-d088ad8989d1","{""part"":""2"",""participantId"":""BFAFB5FB18564AEF8D00B606A1DD8989"",""assignmentId"":""92436ea2-f4b4-4a13-a300-cfff974ecaf6"",""projectId"":""e9cc2542-c7dc-4d8f-b94f-d088ad8989d1""}","https://test12345.live/?part=2&participantId=BFAFB5FB18564AEF8D00B606A1DD8989&assignmentId=92436ea2-f4b4-4a13-a300-cfff974ecaf6&projectId=e9cc2542-c7dc-4d8f-b94f-d088ad8989d1","BFAFB5FB18564AEF8D00B606A1DD8989-2025-05-16-19-51-17","","44619","","[""<span style=\""color: red; font-size: 24px\""> NOW RECORDING</span><p>Please say out loud all the images you saw in part 1 of the experiment, as many as you can remember. The images can be said in any order.</p>""]","","1","saving_a_cat_causal"
"","","","","","image-button-response","21","565610","0.0-19.0-0.0","BFAFB5FB18564AEF8D00B606A1DD8989","BFAFB5FB18564AEF8D00B606A1DD8989","92436ea2-f4b4-4a13-a300-cfff974ecaf6","e9cc2542-c7dc-4d8f-b94f-d088ad8989d1","{""part"":""2"",""participantId"":""BFAFB5FB18564AEF8D00B606A1DD8989"",""assignmentId"":""92436ea2-f4b4-4a13-a300-cfff974ecaf6"",""projectId"":""e9cc2542-c7dc-4d8f-b94f-d088ad8989d1""}","https://test12345.live/?part=2&participantId=BFAFB5FB18564AEF8D00B606A1DD8989&assignmentId=92436ea2-f4b4-4a13-a300-cfff974ecaf6&projectId=e9cc2542-c7dc-4d8f-b94f-d088ad8989d1","BFAFB5FB18564AEF8D00B606A1DD8989-2025-05-16-19-51-17","","null","","images/semantic_sequence/using_technology_semantic/using_technology_semantic_0.png","null","",""
"","","","","","html-audio-response","22","763056","0.0-20.0","BFAFB5FB18564AEF8D00B606A1DD8989","BFAFB5FB18564AEF8D00B606A1DD8989","92436ea2-f4b4-4a13-a300-cfff974ecaf6","e9cc2542-c7dc-4d8f-b94f-d088ad8989d1","{""part"":""2"",""participantId"":""BFAFB5FB18564AEF8D00B606A1DD8989"",""assignmentId"":""92436ea2-f4b4-4a13-a300-cfff974ecaf6"",""projectId"":""e9cc2542-c7dc-4d8f-b94f-d088ad8989d1""}","https://test12345.live/?part=2&participantId=BFAFB5FB18564AEF8D00B606A1DD8989&assignmentId=92436ea2-f4b4-4a13-a300-cfff974ecaf6&projectId=e9cc2542-c7dc-4d8f-b94f-d088ad8989d1","BFAFB5FB18564AEF8D00B606A1DD8989-2025-05-16-19-51-17","","20360","","[""<span style=\""color: red; font-size: 24px\""> NOW RECORDING</span><p>Please say out loud all the images you saw in part 1 of the experiment, as many as you can remember. The images can be said in any order.</p>""]","","1","using_technology_semantic"
"","","","","","image-button-response","23","769069","0.0-21.0-0.0","BFAFB5FB18564AEF8D00B606A1DD8989","BFAFB5FB18564AEF8D00B606A1DD8989","92436ea2-f4b4-4a13-a300-cfff974ecaf6","e9cc2542-c7dc-4d8f-b94f-d088ad8989d1","{""part"":""2"",""participantId"":""BFAFB5FB18564AEF8D00B606A1DD8989"",""assignmentId"":""92436ea2-f4b4-4a13-a300-cfff974ecaf6"",""projectId"":""e9cc2542-c7dc-4d8f-b94f-d088ad8989d1""}","https://test12345.live/?part=2&participantId=BFAFB5FB18564AEF8D00B606A1DD8989&assignmentId=92436ea2-f4b4-4a13-a300-cfff974ecaf6&projectId=e9cc2542-c7dc-4d8f-b94f-d088ad8989d1","BFAFB5FB18564AEF8D00B606A1DD8989-2025-05-16-19-51-17","","null","","images/causal_sequence/the_performance_causal/the_performance_causal_0.png","null","",""
"","","","","","html-audio-response","24","827688","0.0-22.0","BFAFB5FB18564AEF8D00B606A1DD8989","BFAFB5FB18564AEF8D00B606A1DD8989","92436ea2-f4b4-4a13-a300-cfff974ecaf6","e9cc2542-c7dc-4d8f-b94f-d088ad8989d1","{""part"":""2"",""participantId"":""BFAFB5FB18564AEF8D00B606A1DD8989"",""assignmentId"":""92436ea2-f4b4-4a13-a300-cfff974ecaf6"",""projectId"":""e9cc2542-c7dc-4d8f-b94f-d088ad8989d1""}","https://test12345.live/?part=2&participantId=BFAFB5FB18564AEF8D00B606A1DD8989&assignmentId=92436ea2-f4b4-4a13-a300-cfff974ecaf6&projectId=e9cc2542-c7dc-4d8f-b94f-d088ad8989d1","BFAFB5FB18564AEF8D00B606A1DD8989-2025-05-16-19-51-17","","52316","","[""<span style=\""color: red; font-size: 24px\""> NOW RECORDING</span><p>Please say out loud all the images you saw in part 1 of the experiment, as many as you can remember. The images can be said in any order.</p>""]","","1","the_performance_causal"
"","","","","","image-button-response","25","833700","0.0-23.0-0.0","BFAFB5FB18564AEF8D00B606A1DD8989","BFAFB5FB18564AEF8D00B606A1DD8989","92436ea2-f4b4-4a13-a300-cfff974ecaf6","e9cc2542-c7dc-4d8f-b94f-d088ad8989d1","{""part"":""2"",""participantId"":""BFAFB5FB18564AEF8D00B606A1DD8989"",""assignmentId"":""92436ea2-f4b4-4a13-a300-cfff974ecaf6"",""projectId"":""e9cc2542-c7dc-4d8f-b94f-d088ad8989d1""}","https://test12345.live/?part=2&participantId=BFAFB5FB18564AEF8D00B606A1DD8989&assignmentId=92436ea2-f4b4-4a13-a300-cfff974ecaf6&projectId=e9cc2542-c7dc-4d8f-b94f-d088ad8989d1","BFAFB5FB18564AEF8D00B606A1DD8989-2025-05-16-19-51-17","","null","","images/semantic_sequence/cat_care_semantic/cat_care_semantic_0.png","null","",""
"","","","","","html-audio-response","26","875288","0.0-24.0","BFAFB5FB18564AEF8D00B606A1DD8989","BFAFB5FB18564AEF8D00B606A1DD8989","92436ea2-f4b4-4a13-a300-cfff974ecaf6","e9cc2542-c7dc-4d8f-b94f-d088ad8989d1","{""part"":""2"",""participantId"":""BFAFB5FB18564AEF8D00B606A1DD8989"",""assignmentId"":""92436ea2-f4b4-4a13-a300-cfff974ecaf6"",""projectId"":""e9cc2542-c7dc-4d8f-b94f-d088ad8989d1""}","https://test12345.live/?part=2&participantId=BFAFB5FB18564AEF8D00B606A1DD8989&assignmentId=92436ea2-f4b4-4a13-a300-cfff974ecaf6&projectId=e9cc2542-c7dc-4d8f-b94f-d088ad8989d1","BFAFB5FB18564AEF8D00B606A1DD8989-2025-05-16-19-51-17","","28167","","[""<span style=\""color: red; font-size: 24px\""> NOW RECORDING</span><p>Please say out loud all the images you saw in part 1 of the experiment, as many as you can remember. The images can be said in any order.</p>""]","","1","cat_care_semantic"
"","","","","","image-button-response","27","881300","0.0-25.0-0.0","BFAFB5FB18564AEF8D00B606A1DD8989","BFAFB5FB18564AEF8D00B606A1DD8989","92436ea2-f4b4-4a13-a300-cfff974ecaf6","e9cc2542-c7dc-4d8f-b94f-d088ad8989d1","{""part"":""2"",""participantId"":""BFAFB5FB18564AEF8D00B606A1DD8989"",""assignmentId"":""92436ea2-f4b4-4a13-a300-cfff974ecaf6"",""projectId"":""e9cc2542-c7dc-4d8f-b94f-d088ad8989d1""}","https://test12345.live/?part=2&participantId=BFAFB5FB18564AEF8D00B606A1DD8989&assignmentId=92436ea2-f4b4-4a13-a300-cfff974ecaf6&projectId=e9cc2542-c7dc-4d8f-b94f-d088ad8989d1","BFAFB5FB18564AEF8D00B606A1DD8989-2025-05-16-19-51-17","","null","","images/semantic_sequence/redecorating_semantic/redecorating_semantic_0.png","null","",""
"","","","","","html-audio-response","28","909752","0.0-26.0","BFAFB5FB18564AEF8D00B606A1DD8989","BFAFB5FB18564AEF8D00B606A1DD8989","92436ea2-f4b4-4a13-a300-cfff974ecaf6","e9cc2542-c7dc-4d8f-b94f-d088ad8989d1","{""part"":""2"",""participantId"":""BFAFB5FB18564AEF8D00B606A1DD8989"",""assignmentId"":""92436ea2-f4b4-4a13-a300-cfff974ecaf6"",""projectId"":""e9cc2542-c7dc-4d8f-b94f-d088ad8989d1""}","https://test12345.live/?part=2&participantId=BFAFB5FB18564AEF8D00B606A1DD8989&assignmentId=92436ea2-f4b4-4a13-a300-cfff974ecaf6&projectId=e9cc2542-c7dc-4d8f-b94f-d088ad8989d1","BFAFB5FB18564AEF8D00B606A1DD8989-2025-05-16-19-51-17","","20323","","[""<span style=\""color: red; font-size: 24px\""> NOW RECORDING</span><p>Please say out loud all the images you saw in part 1 of the experiment, as many as you can remember. The images can be said in any order.</p>""]","","1","redecorating_semantic"
"","","","","","image-button-response","29","915760","0.0-27.0-0.0","BFAFB5FB18564AEF8D00B606A1DD8989","BFAFB5FB18564AEF8D00B606A1DD8989","92436ea2-f4b4-4a13-a300-cfff974ecaf6","e9cc2542-c7dc-4d8f-b94f-d088ad8989d1","{""part"":""2"",""participantId"":""BFAFB5FB18564AEF8D00B606A1DD8989"",""assignmentId"":""92436ea2-f4b4-4a13-a300-cfff974ecaf6"",""projectId"":""e9cc2542-c7dc-4d8f-b94f-d088ad8989d1""}","https://test12345.live/?part=2&participantId=BFAFB5FB18564AEF8D00B606A1DD8989&assignmentId=92436ea2-f4b4-4a13-a300-cfff974ecaf6&projectId=e9cc2542-c7dc-4d8f-b94f-d088ad8989d1","BFAFB5FB18564AEF8D00B606A1DD8989-2025-05-16-19-51-17","","null","","images/semantic_sequence/creative_activities_semantic/creative_activities_semantic_0.png","null","",""
"","","","","","html-audio-response","30","944368","0.0-28.0","BFAFB5FB18564AEF8D00B606A1DD8989","BFAFB5FB18564AEF8D00B606A1DD8989","92436ea2-f4b4-4a13-a300-cfff974ecaf6","e9cc2542-c7dc-4d8f-b94f-d088ad8989d1","{""part"":""2"",""participantId"":""BFAFB5FB18564AEF8D00B606A1DD8989"",""assignmentId"":""92436ea2-f4b4-4a13-a300-cfff974ecaf6"",""projectId"":""e9cc2542-c7dc-4d8f-b94f-d088ad8989d1""}","https://test12345.live/?part=2&participantId=BFAFB5FB18564AEF8D00B606A1DD8989&assignmentId=92436ea2-f4b4-4a13-a300-cfff974ecaf6&projectId=e9cc2542-c7dc-4d8f-b94f-d088ad8989d1","BFAFB5FB18564AEF8D00B606A1DD8989-2025-05-16-19-51-17","","21808","","[""<span style=\""color: red; font-size: 24px\""> NOW RECORDING</span><p>Please say out loud all the images you saw in part 1 of the experiment, as many as you can remember. The images can be said in any order.</p>""]","","1","creative_activities_semantic"
"","","","","","image-button-response","31","950375","0.0-29.0-0.0","BFAFB5FB18564AEF8D00B606A1DD8989","BFAFB5FB18564AEF8D00B606A1DD8989","92436ea2-f4b4-4a13-a300-cfff974ecaf6","e9cc2542-c7dc-4d8f-b94f-d088ad8989d1","{""part"":""2"",""participantId"":""BFAFB5FB18564AEF8D00B606A1DD8989"",""assignmentId"":""92436ea2-f4b4-4a13-a300-cfff974ecaf6"",""projectId"":""e9cc2542-c7dc-4d8f-b94f-d088ad8989d1""}","https://test12345.live/?part=2&participantId=BFAFB5FB18564AEF8D00B606A1DD8989&assignmentId=92436ea2-f4b4-4a13-a300-cfff974ecaf6&projectId=e9cc2542-c7dc-4d8f-b94f-d088ad8989d1","BFAFB5FB18564AEF8D00B606A1DD8989-2025-05-16-19-51-17","","null","","images/semantic_sequence/visiting_cities_semantic/visiting_cities_semantic_0.png","null","",""
"","","","","","html-audio-response","32","997816","0.0-30.0","BFAFB5FB18564AEF8D00B606A1DD8989","BFAFB5FB18564AEF8D00B606A1DD8989","92436ea2-f4b4-4a13-a300-cfff974ecaf6","e9cc2542-c7dc-4d8f-b94f-d088ad8989d1","{""part"":""2"",""participantId"":""BFAFB5FB18564AEF8D00B606A1DD8989"",""assignmentId"":""92436ea2-f4b4-4a13-a300-cfff974ecaf6"",""projectId"":""e9cc2542-c7dc-4d8f-b94f-d088ad8989d1""}","https://test12345.live/?part=2&participantId=BFAFB5FB18564AEF8D00B606A1DD8989&assignmentId=92436ea2-f4b4-4a13-a300-cfff974ecaf6&projectId=e9cc2542-c7dc-4d8f-b94f-d088ad8989d1","BFAFB5FB18564AEF8D00B606A1DD8989-2025-05-16-19-51-17","","39699","","[""<span style=\""color: red; font-size: 24px\""> NOW RECORDING</span><p>Please say out loud all the images you saw in part 1 of the experiment, as many as you can remember. The images can be said in any order.</p>""]","","1","visiting_cities_semantic"
"","","","","","image-button-response","33","1003828","0.0-31.0-0.0","BFAFB5FB18564AEF8D00B606A1DD8989","BFAFB5FB18564AEF8D00B606A1DD8989","92436ea2-f4b4-4a13-a300-cfff974ecaf6","e9cc2542-c7dc-4d8f-b94f-d088ad8989d1","{""part"":""2"",""participantId"":""BFAFB5FB18564AEF8D00B606A1DD8989"",""assignmentId"":""92436ea2-f4b4-4a13-a300-cfff974ecaf6"",""projectId"":""e9cc2542-c7dc-4d8f-b94f-d088ad8989d1""}","https://test12345.live/?part=2&participantId=BFAFB5FB18564AEF8D00B606A1DD8989&assignmentId=92436ea2-f4b4-4a13-a300-cfff974ecaf6&projectId=e9cc2542-c7dc-4d8f-b94f-d088ad8989d1","BFAFB5FB18564AEF8D00B606A1DD8989-2025-05-16-19-51-17","","null","","images/semantic_sequence/exploring_nature_semantic/exploring_nature_semantic_0.png","null","",""
"","","","","","html-audio-response","34","1063272","0.0-32.0","BFAFB5FB18564AEF8D00B606A1DD8989","BFAFB5FB18564AEF8D00B606A1DD8989","92436ea2-f4b4-4a13-a300-cfff974ecaf6","e9cc2542-c7dc-4d8f-b94f-d088ad8989d1","{""part"":""2"",""participantId"":""BFAFB5FB18564AEF8D00B606A1DD8989"",""assignmentId"":""92436ea2-f4b4-4a13-a300-cfff974ecaf6"",""projectId"":""e9cc2542-c7dc-4d8f-b94f-d088ad8989d1""}","https://test12345.live/?part=2&participantId=BFAFB5FB18564AEF8D00B606A1DD8989&assignmentId=92436ea2-f4b4-4a13-a300-cfff974ecaf6&projectId=e9cc2542-c7dc-4d8f-b94f-d088ad8989d1","BFAFB5FB18564AEF8D00B606A1DD8989-2025-05-16-19-51-17","","33662","","[""<span style=\""color: red; font-size: 24px\""> NOW RECORDING</span><p>Please say out loud all the images you saw in part 1 of the experiment, as many as you can remember. The images can be said in any order.</p>""]","","1","exploring_nature_semantic"
"","","","","","image-button-response","35","1069285","0.0-33.0-0.0","BFAFB5FB18564AEF8D00B606A1DD8989","BFAFB5FB18564AEF8D00B606A1DD8989","92436ea2-f4b4-4a13-a300-cfff974ecaf6","e9cc2542-c7dc-4d8f-b94f-d088ad8989d1","{""part"":""2"",""participantId"":""BFAFB5FB18564AEF8D00B606A1DD8989"",""assignmentId"":""92436ea2-f4b4-4a13-a300-cfff974ecaf6"",""projectId"":""e9cc2542-c7dc-4d8f-b94f-d088ad8989d1""}","https://test12345.live/?part=2&participantId=BFAFB5FB18564AEF8D00B606A1DD8989&assignmentId=92436ea2-f4b4-4a13-a300-cfff974ecaf6&projectId=e9cc2542-c7dc-4d8f-b94f-d088ad8989d1","BFAFB5FB18564AEF8D00B606A1DD8989-2025-05-16-19-51-17","","null","","images/causal_sequence/museum_causal/museum_causal_0.png","null","",""
"","","","","","html-audio-response","36","1130768","0.0-34.0","BFAFB5FB18564AEF8D00B606A1DD8989","BFAFB5FB18564AEF8D00B606A1DD8989","92436ea2-f4b4-4a13-a300-cfff974ecaf6","e9cc2542-c7dc-4d8f-b94f-d088ad8989d1","{""part"":""2"",""participantId"":""BFAFB5FB18564AEF8D00B606A1DD8989"",""assignmentId"":""92436ea2-f4b4-4a13-a300-cfff974ecaf6"",""projectId"":""e9cc2542-c7dc-4d8f-b94f-d088ad8989d1""}","https://test12345.live/?part=2&participantId=BFAFB5FB18564AEF8D00B606A1DD8989&assignmentId=92436ea2-f4b4-4a13-a300-cfff974ecaf6&projectId=e9cc2542-c7dc-4d8f-b94f-d088ad8989d1","BFAFB5FB18564AEF8D00B606A1DD8989-2025-05-16-19-51-17","","54511","","[""<span style=\""color: red; font-size: 24px\""> NOW RECORDING</span><p>Please say out loud all the images you saw in part 1 of the experiment, as many as you can remember. The images can be said in any order.</p>""]","","1","museum_causal"
"","","","","","image-button-response","37","1136774","0.0-35.0-0.0","BFAFB5FB18564AEF8D00B606A1DD8989","BFAFB5FB18564AEF8D00B606A1DD8989","92436ea2-f4b4-4a13-a300-cfff974ecaf6","e9cc2542-c7dc-4d8f-b94f-d088ad8989d1","{""part"":""2"",""participantId"":""BFAFB5FB18564AEF8D00B606A1DD8989"",""assignmentId"":""92436ea2-f4b4-4a13-a300-cfff974ecaf6"",""projectId"":""e9cc2542-c7dc-4d8f-b94f-d088ad8989d1""}","https://test12345.live/?part=2&participantId=BFAFB5FB18564AEF8D00B606A1DD8989&assignmentId=92436ea2-f4b4-4a13-a300-cfff974ecaf6&projectId=e9cc2542-c7dc-4d8f-b94f-d088ad8989d1","BFAFB5FB18564AEF8D00B606A1DD8989-2025-05-16-19-51-17","","null","","images/schematic_sequence/supermarket_scheme/supermarket_scheme_0.png","null","",""
"","","","","","html-audio-response","38","1179416","0.0-36.0","BFAFB5FB18564AEF8D00B606A1DD8989","BFAFB5FB18564AEF8D00B606A1DD8989","92436ea2-f4b4-4a13-a300-cfff974ecaf6","e9cc2542-c7dc-4d8f-b94f-d088ad8989d1","{""part"":""2"",""participantId"":""BFAFB5FB18564AEF8D00B606A1DD8989"",""assignmentId"":""92436ea2-f4b4-4a13-a300-cfff974ecaf6"",""projectId"":""e9cc2542-c7dc-4d8f-b94f-d088ad8989d1""}","https://test12345.live/?part=2&participantId=BFAFB5FB18564AEF8D00B606A1DD8989&assignmentId=92436ea2-f4b4-4a13-a300-cfff974ecaf6&projectId=e9cc2542-c7dc-4d8f-b94f-d088ad8989d1","BFAFB5FB18564AEF8D00B606A1DD8989-2025-05-16-19-51-17","","35091","","[""<span style=\""color: red; font-size: 24px\""> NOW RECORDING</span><p>Please say out loud all the images you saw in part 1 of the experiment, as many as you can remember. The images can be said in any order.</p>""]","","1","supermarket_scheme"
"","","","","","image-button-response","39","1185431","0.0-37.0-0.0","BFAFB5FB18564AEF8D00B606A1DD8989","BFAFB5FB18564AEF8D00B606A1DD8989","92436ea2-f4b4-4a13-a300-cfff974ecaf6","e9cc2542-c7dc-4d8f-b94f-d088ad8989d1","{""part"":""2"",""participantId"":""BFAFB5FB18564AEF8D00B606A1DD8989"",""assignmentId"":""92436ea2-f4b4-4a13-a300-cfff974ecaf6"",""projectId"":""e9cc2542-c7dc-4d8f-b94f-d088ad8989d1""}","https://test12345.live/?part=2&participantId=BFAFB5FB18564AEF8D00B606A1DD8989&assignmentId=92436ea2-f4b4-4a13-a300-cfff974ecaf6&projectId=e9cc2542-c7dc-4d8f-b94f-d088ad8989d1","BFAFB5FB18564AEF8D00B606A1DD8989-2025-05-16-19-51-17","","null","","images/causal_sequence/dog_causal/dog_causal_0.png","null","",""
"","","","","","html-audio-response","40","1239664","0.0-38.0","BFAFB5FB18564AEF8D00B606A1DD8989","BFAFB5FB18564AEF8D00B606A1DD8989","92436ea2-f4b4-4a13-a300-cfff974ecaf6","e9cc2542-c7dc-4d8f-b94f-d088ad8989d1","{""part"":""2"",""participantId"":""BFAFB5FB18564AEF8D00B606A1DD8989"",""assignmentId"":""92436ea2-f4b4-4a13-a300-cfff974ecaf6"",""projectId"":""e9cc2542-c7dc-4d8f-b94f-d088ad8989d1""}","https://test12345.live/?part=2&participantId=BFAFB5FB18564AEF8D00B606A1DD8989&assignmentId=92436ea2-f4b4-4a13-a300-cfff974ecaf6&projectId=e9cc2542-c7dc-4d8f-b94f-d088ad8989d1","BFAFB5FB18564AEF8D00B606A1DD8989-2025-05-16-19-51-17","","53351","","[""<span style=\""color: red; font-size: 24px\""> NOW RECORDING</span><p>Please say out loud all the images you saw in part 1 of the experiment, as many as you can remember. The images can be said in any order.</p>""]","","1","dog_causal"
"","","","","","image-button-response","41","1245683","0.0-39.0-0.0","BFAFB5FB18564AEF8D00B606A1DD8989","BFAFB5FB18564AEF8D00B606A1DD8989","92436ea2-f4b4-4a13-a300-cfff974ecaf6","e9cc2542-c7dc-4d8f-b94f-d088ad8989d1","{""part"":""2"",""participantId"":""BFAFB5FB18564AEF8D00B606A1DD8989"",""assignmentId"":""92436ea2-f4b4-4a13-a300-cfff974ecaf6"",""projectId"":""e9cc2542-c7dc-4d8f-b94f-d088ad8989d1""}","https://test12345.live/?part=2&participantId=BFAFB5FB18564AEF8D00B606A1DD8989&assignmentId=92436ea2-f4b4-4a13-a300-cfff974ecaf6&projectId=e9cc2542-c7dc-4d8f-b94f-d088ad8989d1","BFAFB5FB18564AEF8D00B606A1DD8989-2025-05-16-19-51-17","","null","","images/semantic_sequence/housework_semantic/housework_semantic_0.png","null","",""
"","","","","","html-audio-response","42","1271840","0.0-40.0","BFAFB5FB18564AEF8D00B606A1DD8989","BFAFB5FB18564AEF8D00B606A1DD8989","92436ea2-f4b4-4a13-a300-cfff974ecaf6","e9cc2542-c7dc-4d8f-b94f-d088ad8989d1","{""part"":""2"",""participantId"":""BFAFB5FB18564AEF8D00B606A1DD8989"",""assignmentId"":""92436ea2-f4b4-4a13-a300-cfff974ecaf6"",""projectId"":""e9cc2542-c7dc-4d8f-b94f-d088ad8989d1""}","https://test12345.live/?part=2&participantId=BFAFB5FB18564AEF8D00B606A1DD8989&assignmentId=92436ea2-f4b4-4a13-a300-cfff974ecaf6&projectId=e9cc2542-c7dc-4d8f-b94f-d088ad8989d1","BFAFB5FB18564AEF8D00B606A1DD8989-2025-05-16-19-51-17","","25179","","[""<span style=\""color: red; font-size: 24px\""> NOW RECORDING</span><p>Please say out loud all the images you saw in part 1 of the experiment, as many as you can remember. The images can be said in any order.</p>""]","","0","housework_semantic"
"","","","","","image-button-response","43","1277847","0.0-41.0-0.0","BFAFB5FB18564AEF8D00B606A1DD8989","BFAFB5FB18564AEF8D00B606A1DD8989","92436ea2-f4b4-4a13-a300-cfff974ecaf6","e9cc2542-c7dc-4d8f-b94f-d088ad8989d1","{""part"":""2"",""participantId"":""BFAFB5FB18564AEF8D00B606A1DD8989"",""assignmentId"":""92436ea2-f4b4-4a13-a300-cfff974ecaf6"",""projectId"":""e9cc2542-c7dc-4d8f-b94f-d088ad8989d1""}","https://test12345.live/?part=2&participantId=BFAFB5FB18564AEF8D00B606A1DD8989&assignmentId=92436ea2-f4b4-4a13-a300-cfff974ecaf6&projectId=e9cc2542-c7dc-4d8f-b94f-d088ad8989d1","BFAFB5FB18564AEF8D00B606A1DD8989-2025-05-16-19-51-17","","null","","images/semantic_sequence/kitchen_operations_semantic/kitchen_operations_semantic_0.png","null","",""
"","","","","","html-audio-response","44","1302056","0.0-42.0","BFAFB5FB18564AEF8D00B606A1DD8989","BFAFB5FB18564AEF8D00B606A1DD8989","92436ea2-f4b4-4a13-a300-cfff974ecaf6","e9cc2542-c7dc-4d8f-b94f-d088ad8989d1","{""part"":""2"",""participantId"":""BFAFB5FB18564AEF8D00B606A1DD8989"",""assignmentId"":""92436ea2-f4b4-4a13-a300-cfff974ecaf6"",""projectId"":""e9cc2542-c7dc-4d8f-b94f-d088ad8989d1""}","https://test12345.live/?part=2&participantId=BFAFB5FB18564AEF8D00B606A1DD8989&assignmentId=92436ea2-f4b4-4a13-a300-cfff974ecaf6&projectId=e9cc2542-c7dc-4d8f-b94f-d088ad8989d1","BFAFB5FB18564AEF8D00B606A1DD8989-2025-05-16-19-51-17","","23321","","[""<span style=\""color: red; font-size: 24px\""> NOW RECORDING</span><p>Please say out loud all the images you saw in part 1 of the experiment, as many as you can remember. The images can be said in any order.</p>""]","","1","kitchen_operations_semantic"
"","","","","","image-button-response","45","1308062","0.0-43.0-0.0","BFAFB5FB18564AEF8D00B606A1DD8989","BFAFB5FB18564AEF8D00B606A1DD8989","92436ea2-f4b4-4a13-a300-cfff974ecaf6","e9cc2542-c7dc-4d8f-b94f-d088ad8989d1","{""part"":""2"",""participantId"":""BFAFB5FB18564AEF8D00B606A1DD8989"",""assignmentId"":""92436ea2-f4b4-4a13-a300-cfff974ecaf6"",""projectId"":""e9cc2542-c7dc-4d8f-b94f-d088ad8989d1""}","https://test12345.live/?part=2&participantId=BFAFB5FB18564AEF8D00B606A1DD8989&assignmentId=92436ea2-f4b4-4a13-a300-cfff974ecaf6&projectId=e9cc2542-c7dc-4d8f-b94f-d088ad8989d1","BFAFB5FB18564AEF8D00B606A1DD8989-2025-05-16-19-51-17","","null","","images/semantic_sequence/maintaining_a_car_semantic/maintaining_a_car_semantic_0.png","null","",""
"","","","","","html-audio-response","46","1360896","0.0-44.0","BFAFB5FB18564AEF8D00B606A1DD8989","BFAFB5FB18564AEF8D00B606A1DD8989","92436ea2-f4b4-4a13-a300-cfff974ecaf6","e9cc2542-c7dc-4d8f-b94f-d088ad8989d1","{""part"":""2"",""participantId"":""BFAFB5FB18564AEF8D00B606A1DD8989"",""assignmentId"":""92436ea2-f4b4-4a13-a300-cfff974ecaf6"",""projectId"":""e9cc2542-c7dc-4d8f-b94f-d088ad8989d1""}","https://test12345.live/?part=2&participantId=BFAFB5FB18564AEF8D00B606A1DD8989&assignmentId=92436ea2-f4b4-4a13-a300-cfff974ecaf6&projectId=e9cc2542-c7dc-4d8f-b94f-d088ad8989d1","BFAFB5FB18564AEF8D00B606A1DD8989-2025-05-16-19-51-17","","52047","","[""<span style=\""color: red; font-size: 24px\""> NOW RECORDING</span><p>Please say out loud all the images you saw in part 1 of the experiment, as many as you can remember. The images can be said in any order.</p>""]","","1","maintaining_a_car_semantic"
"","","","","","image-button-response","47","1366904","0.0-45.0-0.0","BFAFB5FB18564AEF8D00B606A1DD8989","BFAFB5FB18564AEF8D00B606A1DD8989","92436ea2-f4b4-4a13-a300-cfff974ecaf6","e9cc2542-c7dc-4d8f-b94f-d088ad8989d1","{""part"":""2"",""participantId"":""BFAFB5FB18564AEF8D00B606A1DD8989"",""assignmentId"":""92436ea2-f4b4-4a13-a300-cfff974ecaf6"",""projectId"":""e9cc2542-c7dc-4d8f-b94f-d088ad8989d1""}","https://test12345.live/?part=2&participantId=BFAFB5FB18564AEF8D00B606A1DD8989&assignmentId=92436ea2-f4b4-4a13-a300-cfff974ecaf6&projectId=e9cc2542-c7dc-4d8f-b94f-d088ad8989d1","BFAFB5FB18564AEF8D00B606A1DD8989-2025-05-16-19-51-17","","null","","images/semantic_sequence/market_semantic/market_semantic_0.png","null","",""
"","","","","","html-audio-response","48","1408408","0.0-46.0","BFAFB5FB18564AEF8D00B606A1DD8989","BFAFB5FB18564AEF8D00B606A1DD8989","92436ea2-f4b4-4a13-a300-cfff974ecaf6","e9cc2542-c7dc-4d8f-b94f-d088ad8989d1","{""part"":""2"",""participantId"":""BFAFB5FB18564AEF8D00B606A1DD8989"",""assignmentId"":""92436ea2-f4b4-4a13-a300-cfff974ecaf6"",""projectId"":""e9cc2542-c7dc-4d8f-b94f-d088ad8989d1""}","https://test12345.live/?part=2&participantId=BFAFB5FB18564AEF8D00B606A1DD8989&assignmentId=92436ea2-f4b4-4a13-a300-cfff974ecaf6&projectId=e9cc2542-c7dc-4d8f-b94f-d088ad8989d1","BFAFB5FB18564AEF8D00B606A1DD8989-2025-05-16-19-51-17","","31301","","[""<span style=\""color: red; font-size: 24px\""> NOW RECORDING</span><p>Please say out loud all the images you saw in part 1 of the experiment, as many as you can remember. The images can be said in any order.</p>""]","","1","market_semantic"
"","","","","","image-button-response","49","1414422","0.0-47.0-0.0","BFAFB5FB18564AEF8D00B606A1DD8989","BFAFB5FB18564AEF8D00B606A1DD8989","92436ea2-f4b4-4a13-a300-cfff974ecaf6","e9cc2542-c7dc-4d8f-b94f-d088ad8989d1","{""part"":""2"",""participantId"":""BFAFB5FB18564AEF8D00B606A1DD8989"",""assignmentId"":""92436ea2-f4b4-4a13-a300-cfff974ecaf6"",""projectId"":""e9cc2542-c7dc-4d8f-b94f-d088ad8989d1""}","https://test12345.live/?part=2&participantId=BFAFB5FB18564AEF8D00B606A1DD8989&assignmentId=92436ea2-f4b4-4a13-a300-cfff974ecaf6&projectId=e9cc2542-c7dc-4d8f-b94f-d088ad8989d1","BFAFB5FB18564AEF8D00B606A1DD8989-2025-05-16-19-51-17","","null","","images/causal_sequence/package_causal/package_causal_0.png","null","",""
"","","","","","html-audio-response","50","1482312","0.0-48.0","BFAFB5FB18564AEF8D00B606A1DD8989","BFAFB5FB18564AEF8D00B606A1DD8989","92436ea2-f4b4-4a13-a300-cfff974ecaf6","e9cc2542-c7dc-4d8f-b94f-d088ad8989d1","{""part"":""2"",""participantId"":""BFAFB5FB18564AEF8D00B606A1DD8989"",""assignmentId"":""92436ea2-f4b4-4a13-a300-cfff974ecaf6"",""projectId"":""e9cc2542-c7dc-4d8f-b94f-d088ad8989d1""}","https://test12345.live/?part=2&participantId=BFAFB5FB18564AEF8D00B606A1DD8989&assignmentId=92436ea2-f4b4-4a13-a300-cfff974ecaf6&projectId=e9cc2542-c7dc-4d8f-b94f-d088ad8989d1","BFAFB5FB18564AEF8D00B606A1DD8989-2025-05-16-19-51-17","","42027","","[""<span style=\""color: red; font-size: 24px\""> NOW RECORDING</span><p>Please say out loud all the images you saw in part 1 of the experiment, as many as you can remember. The images can be said in any order.</p>""]","","1","package_causal"
"","","","","","image-button-response","51","1488324","0.0-49.0-0.0","BFAFB5FB18564AEF8D00B606A1DD8989","BFAFB5FB18564AEF8D00B606A1DD8989","92436ea2-f4b4-4a13-a300-cfff974ecaf6","e9cc2542-c7dc-4d8f-b94f-d088ad8989d1","{""part"":""2"",""participantId"":""BFAFB5FB18564AEF8D00B606A1DD8989"",""assignmentId"":""92436ea2-f4b4-4a13-a300-cfff974ecaf6"",""projectId"":""e9cc2542-c7dc-4d8f-b94f-d088ad8989d1""}","https://test12345.live/?part=2&participantId=BFAFB5FB18564AEF8D00B606A1DD8989&assignmentId=92436ea2-f4b4-4a13-a300-cfff974ecaf6&projectId=e9cc2542-c7dc-4d8f-b94f-d088ad8989d1","BFAFB5FB18564AEF8D00B606A1DD8989-2025-05-16-19-51-17","","null","","images/semantic_sequence/physical_activity_semantic/physical_activity_semantic_0.png","null","",""
"","","","","","html-audio-response","52","1517752","0.0-50.0","BFAFB5FB18564AEF8D00B606A1DD8989","BFAFB5FB18564AEF8D00B606A1DD8989","92436ea2-f4b4-4a13-a300-cfff974ecaf6","e9cc2542-c7dc-4d8f-b94f-d088ad8989d1","{""part"":""2"",""participantId"":""BFAFB5FB18564AEF8D00B606A1DD8989"",""assignmentId"":""92436ea2-f4b4-4a13-a300-cfff974ecaf6"",""projectId"":""e9cc2542-c7dc-4d8f-b94f-d088ad8989d1""}","https://test12345.live/?part=2&participantId=BFAFB5FB18564AEF8D00B606A1DD8989&assignmentId=92436ea2-f4b4-4a13-a300-cfff974ecaf6&projectId=e9cc2542-c7dc-4d8f-b94f-d088ad8989d1","BFAFB5FB18564AEF8D00B606A1DD8989-2025-05-16-19-51-17","","28210","","[""<span style=\""color: red; font-size: 24px\""> NOW RECORDING</span><p>Please say out loud all the images you saw in part 1 of the experiment, as many as you can remember. The images can be said in any order.</p>""]","","1","physical_activity_semantic"
"","","","","","image-button-response","53","1523757","0.0-51.0-0.0","BFAFB5FB18564AEF8D00B606A1DD8989","BFAFB5FB18564AEF8D00B606A1DD8989","92436ea2-f4b4-4a13-a300-cfff974ecaf6","e9cc2542-c7dc-4d8f-b94f-d088ad8989d1","{""part"":""2"",""participantId"":""BFAFB5FB18564AEF8D00B606A1DD8989"",""assignmentId"":""92436ea2-f4b4-4a13-a300-cfff974ecaf6"",""projectId"":""e9cc2542-c7dc-4d8f-b94f-d088ad8989d1""}","https://test12345.live/?part=2&participantId=BFAFB5FB18564AEF8D00B606A1DD8989&assignmentId=92436ea2-f4b4-4a13-a300-cfff974ecaf6&projectId=e9cc2542-c7dc-4d8f-b94f-d088ad8989d1","BFAFB5FB18564AEF8D00B606A1DD8989-2025-05-16-19-51-17","","null","","images/schematic_sequence/hotel_scheme/hotel_scheme_0.png","null","",""
"","","","","","html-audio-response","54","1566136","0.0-52.0","BFAFB5FB18564AEF8D00B606A1DD8989","BFAFB5FB18564AEF8D00B606A1DD8989","92436ea2-f4b4-4a13-a300-cfff974ecaf6","e9cc2542-c7dc-4d8f-b94f-d088ad8989d1","{""part"":""2"",""participantId"":""BFAFB5FB18564AEF8D00B606A1DD8989"",""assignmentId"":""92436ea2-f4b4-4a13-a300-cfff974ecaf6"",""projectId"":""e9cc2542-c7dc-4d8f-b94f-d088ad8989d1""}","https://test12345.live/?part=2&participantId=BFAFB5FB18564AEF8D00B606A1DD8989&assignmentId=92436ea2-f4b4-4a13-a300-cfff974ecaf6&projectId=e9cc2542-c7dc-4d8f-b94f-d088ad8989d1","BFAFB5FB18564AEF8D00B606A1DD8989-2025-05-16-19-51-17","","38792","","[""<span style=\""color: red; font-size: 24px\""> NOW RECORDING</span><p>Please say out loud all the images you saw in part 1 of the experiment, as many as you can remember. The images can be said in any order.</p>""]","","1","hotel_scheme"
"","","","","","image-button-response","55","1572152","0.0-53.0-0.0","BFAFB5FB18564AEF8D00B606A1DD8989","BFAFB5FB18564AEF8D00B606A1DD8989","92436ea2-f4b4-4a13-a300-cfff974ecaf6","e9cc2542-c7dc-4d8f-b94f-d088ad8989d1","{""part"":""2"",""participantId"":""BFAFB5FB18564AEF8D00B606A1DD8989"",""assignmentId"":""92436ea2-f4b4-4a13-a300-cfff974ecaf6"",""projectId"":""e9cc2542-c7dc-4d8f-b94f-d088ad8989d1""}","https://test12345.live/?part=2&participantId=BFAFB5FB18564AEF8D00B606A1DD8989&assignmentId=92436ea2-f4b4-4a13-a300-cfff974ecaf6&projectId=e9cc2542-c7dc-4d8f-b94f-d088ad8989d1","BFAFB5FB18564AEF8D00B606A1DD8989-2025-05-16-19-51-17","","null","","images/semantic_sequence/self_care_activities_semantic/self_care_activities_semantic_0.png","null","",""
"","","","","","html-audio-response","56","1603488","0.0-54.0","BFAFB5FB18564AEF8D00B606A1DD8989","BFAFB5FB18564AEF8D00B606A1DD8989","92436ea2-f4b4-4a13-a300-cfff974ecaf6","e9cc2542-c7dc-4d8f-b94f-d088ad8989d1","{""part"":""2"",""participantId"":""BFAFB5FB18564AEF8D00B606A1DD8989"",""assignmentId"":""92436ea2-f4b4-4a13-a300-cfff974ecaf6"",""projectId"":""e9cc2542-c7dc-4d8f-b94f-d088ad8989d1""}","https://test12345.live/?part=2&participantId=BFAFB5FB18564AEF8D00B606A1DD8989&assignmentId=92436ea2-f4b4-4a13-a300-cfff974ecaf6&projectId=e9cc2542-c7dc-4d8f-b94f-d088ad8989d1","BFAFB5FB18564AEF8D00B606A1DD8989-2025-05-16-19-51-17","","25788","","[""<span style=\""color: red; font-size: 24px\""> NOW RECORDING</span><p>Please say out loud all the images you saw in part 1 of the experiment, as many as you can remember. The images can be said in any order.</p>""]","","1","self_care_activities_semantic"
"","","","","","image-button-response","57","1609501","0.0-55.0-0.0","BFAFB5FB18564AEF8D00B606A1DD8989","BFAFB5FB18564AEF8D00B606A1DD8989","92436ea2-f4b4-4a13-a300-cfff974ecaf6","e9cc2542-c7dc-4d8f-b94f-d088ad8989d1","{""part"":""2"",""participantId"":""BFAFB5FB18564AEF8D00B606A1DD8989"",""assignmentId"":""92436ea2-f4b4-4a13-a300-cfff974ecaf6"",""projectId"":""e9cc2542-c7dc-4d8f-b94f-d088ad8989d1""}","https://test12345.live/?part=2&participantId=BFAFB5FB18564AEF8D00B606A1DD8989&assignmentId=92436ea2-f4b4-4a13-a300-cfff974ecaf6&projectId=e9cc2542-c7dc-4d8f-b94f-d088ad8989d1","BFAFB5FB18564AEF8D00B606A1DD8989-2025-05-16-19-51-17","","null","","images/schematic_sequence/dinner_party_scheme/dinner_party_scheme_0.png","null","",""
"","","","","","html-audio-response","58","1656912","0.0-56.0","BFAFB5FB18564AEF8D00B606A1DD8989","BFAFB5FB18564AEF8D00B606A1DD8989","92436ea2-f4b4-4a13-a300-cfff974ecaf6","e9cc2542-c7dc-4d8f-b94f-d088ad8989d1","{""part"":""2"",""participantId"":""BFAFB5FB18564AEF8D00B606A1DD8989"",""assignmentId"":""92436ea2-f4b4-4a13-a300-cfff974ecaf6"",""projectId"":""e9cc2542-c7dc-4d8f-b94f-d088ad8989d1""}","https://test12345.live/?part=2&participantId=BFAFB5FB18564AEF8D00B606A1DD8989&assignmentId=92436ea2-f4b4-4a13-a300-cfff974ecaf6&projectId=e9cc2542-c7dc-4d8f-b94f-d088ad8989d1","BFAFB5FB18564AEF8D00B606A1DD8989-2025-05-16-19-51-17","","42815","","[""<span style=\""color: red; font-size: 24px\""> NOW RECORDING</span><p>Please say out loud all the images you saw in part 1 of the experiment, as many as you can remember. The images can be said in any order.</p>""]","","1","dinner_party_scheme"
"","","","","","survey-text","59","1662577","0.0-57.0","BFAFB5FB18564AEF8D00B606A1DD8989","BFAFB5FB18564AEF8D00B606A1DD8989","92436ea2-f4b4-4a13-a300-cfff974ecaf6","e9cc2542-c7dc-4d8f-b94f-d088ad8989d1","{""part"":""2"",""participantId"":""BFAFB5FB18564AEF8D00B606A1DD8989"",""assignmentId"":""92436ea2-f4b4-4a13-a300-cfff974ecaf6"",""projectId"":""e9cc2542-c7dc-4d8f-b94f-d088ad8989d1""}","https://test12345.live/?part=2&participantId=BFAFB5FB18564AEF8D00B606A1DD8989&assignmentId=92436ea2-f4b4-4a13-a300-cfff974ecaf6&projectId=e9cc2542-c7dc-4d8f-b94f-d088ad8989d1","BFAFB5FB18564AEF8D00B606A1DD8989-2025-05-16-19-51-17","","5659","","","{""Q0"":""FEMALE"",""Q1"":""25""}","",""
"","","","","","instructions","60","1666408","0.0-58.0","BFAFB5FB18564AEF8D00B606A1DD8989","BFAFB5FB18564AEF8D00B606A1DD8989","92436ea2-f4b4-4a13-a300-cfff974ecaf6","e9cc2542-c7dc-4d8f-b94f-d088ad8989d1","{""part"":""2"",""participantId"":""BFAFB5FB18564AEF8D00B606A1DD8989"",""assignmentId"":""92436ea2-f4b4-4a13-a300-cfff974ecaf6"",""projectId"":""e9cc2542-c7dc-4d8f-b94f-d088ad8989d1""}","https://test12345.live/?part=2&participantId=BFAFB5FB18564AEF8D00B606A1DD8989&assignmentId=92436ea2-f4b4-4a13-a300-cfff974ecaf6&projectId=e9cc2542-c7dc-4d8f-b94f-d088ad8989d1","BFAFB5FB18564AEF8D00B606A1DD8989-2025-05-16-19-51-17","[{""page_index"":0,""viewing_time"":3831}]","3831","","","","",""
"","","","","","survey-text","61","1668104","0.0-59.0","BFAFB5FB18564AEF8D00B606A1DD8989","BFAFB5FB18564AEF8D00B606A1DD8989","92436ea2-f4b4-4a13-a300-cfff974ecaf6","e9cc2542-c7dc-4d8f-b94f-d088ad8989d1","{""part"":""2"",""participantId"":""BFAFB5FB18564AEF8D00B606A1DD8989"",""assignmentId"":""92436ea2-f4b4-4a13-a300-cfff974ecaf6"",""projectId"":""e9cc2542-c7dc-4d8f-b94f-d088ad8989d1""}","https://test12345.live/?part=2&participantId=BFAFB5FB18564AEF8D00B606A1DD8989&assignmentId=92436ea2-f4b4-4a13-a300-cfff974ecaf6&projectId=e9cc2542-c7dc-4d8f-b94f-d088ad8989d1","BFAFB5FB18564AEF8D00B606A1DD8989-2025-05-16-19-51-17","","1695","","","{""Q0"":""AJFHBG896""}","",""
