"success","timeout","failed_images","failed_audio","failed_video","trial_type","trial_index","time_elapsed","internal_node_id","subject","subject_id","study_id","session_id","urlvar","current_url","audio_id","view_history","rt","device_id","stimulus","response","estimated_stimulus_onset","seq_name"
"true","false","[]","[]","[]","preload","0","15732","0.0-0.0","C083122313ED412FA4EB27591D1A7887","C083122313ED412FA4EB27591D1A7887","5724778a-e1ce-441e-a85c-c9e79665f030","3ce68dc4-89da-4770-948e-944f675a4a4c","{""part"":""2"",""participantId"":""C083122313ED412FA4EB27591D1A7887"",""assignmentId"":""5724778a-e1ce-441e-a85c-c9e79665f030"",""projectId"":""3ce68dc4-89da-4770-948e-944f675a4a4c""}","https://test12345.live/?part=2&participantId=C083122313ED412FA4EB27591D1A7887&assignmentId=5724778a-e1ce-441e-a85c-c9e79665f030&projectId=3ce68dc4-89da-4770-948e-944f675a4a4c","C083122313ED412FA4EB27591D1A7887-2025-05-28-15-53-05","","","","","","",""
"","","","","","instructions","1","61851","0.0-1.0","C083122313ED412FA4EB27591D1A7887","C083122313ED412FA4EB27591D1A7887","5724778a-e1ce-441e-a85c-c9e79665f030","3ce68dc4-89da-4770-948e-944f675a4a4c","{""part"":""2"",""participantId"":""C083122313ED412FA4EB27591D1A7887"",""assignmentId"":""5724778a-e1ce-441e-a85c-c9e79665f030"",""projectId"":""3ce68dc4-89da-4770-948e-944f675a4a4c""}","https://test12345.live/?part=2&participantId=C083122313ED412FA4EB27591D1A7887&assignmentId=5724778a-e1ce-441e-a85c-c9e79665f030&projectId=3ce68dc4-89da-4770-948e-944f675a4a4c","C083122313ED412FA4EB27591D1A7887-2025-05-28-15-53-05","[{""page_index"":0,""viewing_time"":46118}]","46119","","","","",""
"","","","","","instructions","2","66162","0.0-2.0","C083122313ED412FA4EB27591D1A7887","C083122313ED412FA4EB27591D1A7887","5724778a-e1ce-441e-a85c-c9e79665f030","3ce68dc4-89da-4770-948e-944f675a4a4c","{""part"":""2"",""participantId"":""C083122313ED412FA4EB27591D1A7887"",""assignmentId"":""5724778a-e1ce-441e-a85c-c9e79665f030"",""projectId"":""3ce68dc4-89da-4770-948e-944f675a4a4c""}","https://test12345.live/?part=2&participantId=C083122313ED412FA4EB27591D1A7887&assignmentId=5724778a-e1ce-441e-a85c-c9e79665f030&projectId=3ce68dc4-89da-4770-948e-944f675a4a4c","C083122313ED412FA4EB27591D1A7887-2025-05-28-15-53-05","[{""page_index"":0,""viewing_time"":4310}]","4311","","","","",""
"true","","","","","fullscreen","3","69617","0.0-3.0","C083122313ED412FA4EB27591D1A7887","C083122313ED412FA4EB27591D1A7887","5724778a-e1ce-441e-a85c-c9e79665f030","3ce68dc4-89da-4770-948e-944f675a4a4c","{""part"":""2"",""participantId"":""C083122313ED412FA4EB27591D1A7887"",""assignmentId"":""5724778a-e1ce-441e-a85c-c9e79665f030"",""projectId"":""3ce68dc4-89da-4770-948e-944f675a4a4c""}","https://test12345.live/?part=2&participantId=C083122313ED412FA4EB27591D1A7887&assignmentId=5724778a-e1ce-441e-a85c-c9e79665f030&projectId=3ce68dc4-89da-4770-948e-944f675a4a4c","C083122313ED412FA4EB27591D1A7887-2025-05-28-15-53-05","","2434","","","","",""
"","","","","","initialize-microphone","4","74669","0.0-4.0-0.0","C083122313ED412FA4EB27591D1A7887","C083122313ED412FA4EB27591D1A7887","5724778a-e1ce-441e-a85c-c9e79665f030","3ce68dc4-89da-4770-948e-944f675a4a4c","{""part"":""2"",""participantId"":""C083122313ED412FA4EB27591D1A7887"",""assignmentId"":""5724778a-e1ce-441e-a85c-c9e79665f030"",""projectId"":""3ce68dc4-89da-4770-948e-944f675a4a4c""}","https://test12345.live/?part=2&participantId=C083122313ED412FA4EB27591D1A7887&assignmentId=5724778a-e1ce-441e-a85c-c9e79665f030&projectId=3ce68dc4-89da-4770-948e-944f675a4a4c","C083122313ED412FA4EB27591D1A7887-2025-05-28-15-53-05","","","c3c0e259ae5932d4c327cf2765f31d7bd13dff0bcd977f93fcfa810ab9d85cd5","","","",""
"","","","","","html-audio-response","5","82712","0.0-4.0-1.0","C083122313ED412FA4EB27591D1A7887","C083122313ED412FA4EB27591D1A7887","5724778a-e1ce-441e-a85c-c9e79665f030","3ce68dc4-89da-4770-948e-944f675a4a4c","{""part"":""2"",""participantId"":""C083122313ED412FA4EB27591D1A7887"",""assignmentId"":""5724778a-e1ce-441e-a85c-c9e79665f030"",""projectId"":""3ce68dc4-89da-4770-948e-944f675a4a4c""}","https://test12345.live/?part=2&participantId=C083122313ED412FA4EB27591D1A7887&assignmentId=5724778a-e1ce-441e-a85c-c9e79665f030&projectId=3ce68dc4-89da-4770-948e-944f675a4a4c","C083122313ED412FA4EB27591D1A7887-2025-05-28-15-53-05","","2845","","<span style=""color: red; font-size: 24px""> NOW RECORDING</span>
        <p>Please test Microphone</p>","","3",""
"","","","","","html-button-response","6","99051","0.0-4.0-2.0","C083122313ED412FA4EB27591D1A7887","C083122313ED412FA4EB27591D1A7887","5724778a-e1ce-441e-a85c-c9e79665f030","3ce68dc4-89da-4770-948e-944f675a4a4c","{""part"":""2"",""participantId"":""C083122313ED412FA4EB27591D1A7887"",""assignmentId"":""5724778a-e1ce-441e-a85c-c9e79665f030"",""projectId"":""3ce68dc4-89da-4770-948e-944f675a4a4c""}","https://test12345.live/?part=2&participantId=C083122313ED412FA4EB27591D1A7887&assignmentId=5724778a-e1ce-441e-a85c-c9e79665f030&projectId=3ce68dc4-89da-4770-948e-944f675a4a4c","C083122313ED412FA4EB27591D1A7887-2025-05-28-15-53-05","","16337","","<p style=""font-size:48px; color:red;"">Is Microphone OK?</p>","1","",""
"","","","","","instructions","7","113933","0.0-5.0","C083122313ED412FA4EB27591D1A7887","C083122313ED412FA4EB27591D1A7887","5724778a-e1ce-441e-a85c-c9e79665f030","3ce68dc4-89da-4770-948e-944f675a4a4c","{""part"":""2"",""participantId"":""C083122313ED412FA4EB27591D1A7887"",""assignmentId"":""5724778a-e1ce-441e-a85c-c9e79665f030"",""projectId"":""3ce68dc4-89da-4770-948e-944f675a4a4c""}","https://test12345.live/?part=2&participantId=C083122313ED412FA4EB27591D1A7887&assignmentId=5724778a-e1ce-441e-a85c-c9e79665f030&projectId=3ce68dc4-89da-4770-948e-944f675a4a4c","C083122313ED412FA4EB27591D1A7887-2025-05-28-15-53-05","[{""page_index"":0,""viewing_time"":1712},{""page_index"":1,""viewing_time"":6253},{""page_index"":2,""viewing_time"":6916}]","14881","","","","",""
"","","","","","image-button-response","8","119940","0.0-6.0-0.0","C083122313ED412FA4EB27591D1A7887","C083122313ED412FA4EB27591D1A7887","5724778a-e1ce-441e-a85c-c9e79665f030","3ce68dc4-89da-4770-948e-944f675a4a4c","{""part"":""2"",""participantId"":""C083122313ED412FA4EB27591D1A7887"",""assignmentId"":""5724778a-e1ce-441e-a85c-c9e79665f030"",""projectId"":""3ce68dc4-89da-4770-948e-944f675a4a4c""}","https://test12345.live/?part=2&participantId=C083122313ED412FA4EB27591D1A7887&assignmentId=5724778a-e1ce-441e-a85c-c9e79665f030&projectId=3ce68dc4-89da-4770-948e-944f675a4a4c","C083122313ED412FA4EB27591D1A7887-2025-05-28-15-53-05","","null","","images/instructions/movie_0.png","null","",""
"","","","","","html-audio-response","9","207984","0.0-7.0","C083122313ED412FA4EB27591D1A7887","C083122313ED412FA4EB27591D1A7887","5724778a-e1ce-441e-a85c-c9e79665f030","3ce68dc4-89da-4770-948e-944f675a4a4c","{""part"":""2"",""participantId"":""C083122313ED412FA4EB27591D1A7887"",""assignmentId"":""5724778a-e1ce-441e-a85c-c9e79665f030"",""projectId"":""3ce68dc4-89da-4770-948e-944f675a4a4c""}","https://test12345.live/?part=2&participantId=C083122313ED412FA4EB27591D1A7887&assignmentId=5724778a-e1ce-441e-a85c-c9e79665f030&projectId=3ce68dc4-89da-4770-948e-944f675a4a4c","C083122313ED412FA4EB27591D1A7887-2025-05-28-15-53-05","","29858","","[""<span style=\""color: red; font-size: 24px\""> NOW RECORDING</span><p>Please say out loud all the images you saw in part 1 of the experiment, in the exact order you saw them. Try to recall as many images as you can, but remember: getting the order right is more important than the number of images you recall.</p>""]","","3",""
"","","","","","instructions","10","220466","0.0-8.0","C083122313ED412FA4EB27591D1A7887","C083122313ED412FA4EB27591D1A7887","5724778a-e1ce-441e-a85c-c9e79665f030","3ce68dc4-89da-4770-948e-944f675a4a4c","{""part"":""2"",""participantId"":""C083122313ED412FA4EB27591D1A7887"",""assignmentId"":""5724778a-e1ce-441e-a85c-c9e79665f030"",""projectId"":""3ce68dc4-89da-4770-948e-944f675a4a4c""}","https://test12345.live/?part=2&participantId=C083122313ED412FA4EB27591D1A7887&assignmentId=5724778a-e1ce-441e-a85c-c9e79665f030&projectId=3ce68dc4-89da-4770-948e-944f675a4a4c","C083122313ED412FA4EB27591D1A7887-2025-05-28-15-53-05","[{""page_index"":0,""viewing_time"":12470}]","12471","","","","",""
"","","","","","image-button-response","11","226475","0.0-9.0-0.0","C083122313ED412FA4EB27591D1A7887","C083122313ED412FA4EB27591D1A7887","5724778a-e1ce-441e-a85c-c9e79665f030","3ce68dc4-89da-4770-948e-944f675a4a4c","{""part"":""2"",""participantId"":""C083122313ED412FA4EB27591D1A7887"",""assignmentId"":""5724778a-e1ce-441e-a85c-c9e79665f030"",""projectId"":""3ce68dc4-89da-4770-948e-944f675a4a4c""}","https://test12345.live/?part=2&participantId=C083122313ED412FA4EB27591D1A7887&assignmentId=5724778a-e1ce-441e-a85c-c9e79665f030&projectId=3ce68dc4-89da-4770-948e-944f675a4a4c","C083122313ED412FA4EB27591D1A7887-2025-05-28-15-53-05","","null","","images/semantic_sequence/self_care_activities_semantic/self_care_activities_semantic_0.png","null","",""
"","","","","","html-audio-response","12","242852","0.0-10.0","C083122313ED412FA4EB27591D1A7887","C083122313ED412FA4EB27591D1A7887","5724778a-e1ce-441e-a85c-c9e79665f030","3ce68dc4-89da-4770-948e-944f675a4a4c","{""part"":""2"",""participantId"":""C083122313ED412FA4EB27591D1A7887"",""assignmentId"":""5724778a-e1ce-441e-a85c-c9e79665f030"",""projectId"":""3ce68dc4-89da-4770-948e-944f675a4a4c""}","https://test12345.live/?part=2&participantId=C083122313ED412FA4EB27591D1A7887&assignmentId=5724778a-e1ce-441e-a85c-c9e79665f030&projectId=3ce68dc4-89da-4770-948e-944f675a4a4c","C083122313ED412FA4EB27591D1A7887-2025-05-28-15-53-05","","14981","","[""<span style=\""color: red; font-size: 24px\""> NOW RECORDING</span><p>Please say out loud all the images you saw in part 1 of the experiment, in the exact order you saw them. Try to recall as many images as you can, but remember: getting the order right is more important than the number of images you recall. </p>""]","","2","self_care_activities_semantic"
"","","","","","image-button-response","13","248867","0.0-11.0-0.0","C083122313ED412FA4EB27591D1A7887","C083122313ED412FA4EB27591D1A7887","5724778a-e1ce-441e-a85c-c9e79665f030","3ce68dc4-89da-4770-948e-944f675a4a4c","{""part"":""2"",""participantId"":""C083122313ED412FA4EB27591D1A7887"",""assignmentId"":""5724778a-e1ce-441e-a85c-c9e79665f030"",""projectId"":""3ce68dc4-89da-4770-948e-944f675a4a4c""}","https://test12345.live/?part=2&participantId=C083122313ED412FA4EB27591D1A7887&assignmentId=5724778a-e1ce-441e-a85c-c9e79665f030&projectId=3ce68dc4-89da-4770-948e-944f675a4a4c","C083122313ED412FA4EB27591D1A7887-2025-05-28-15-53-05","","null","","images/causal_sequence/saving_a_cat_causal/saving_a_cat_causal_0.png","null","",""
"","","","","","html-audio-response","14","322202","0.0-12.0","C083122313ED412FA4EB27591D1A7887","C083122313ED412FA4EB27591D1A7887","5724778a-e1ce-441e-a85c-c9e79665f030","3ce68dc4-89da-4770-948e-944f675a4a4c","{""part"":""2"",""participantId"":""C083122313ED412FA4EB27591D1A7887"",""assignmentId"":""5724778a-e1ce-441e-a85c-c9e79665f030"",""projectId"":""3ce68dc4-89da-4770-948e-944f675a4a4c""}","https://test12345.live/?part=2&participantId=C083122313ED412FA4EB27591D1A7887&assignmentId=5724778a-e1ce-441e-a85c-c9e79665f030&projectId=3ce68dc4-89da-4770-948e-944f675a4a4c","C083122313ED412FA4EB27591D1A7887-2025-05-28-15-53-05","","27060","","[""<span style=\""color: red; font-size: 24px\""> NOW RECORDING</span><p>Please say out loud all the images you saw in part 1 of the experiment, in the exact order you saw them. Try to recall as many images as you can, but remember: getting the order right is more important than the number of images you recall. </p>""]","","3","saving_a_cat_causal"
"","","","","","image-button-response","15","328230","0.0-13.0-0.0","C083122313ED412FA4EB27591D1A7887","C083122313ED412FA4EB27591D1A7887","5724778a-e1ce-441e-a85c-c9e79665f030","3ce68dc4-89da-4770-948e-944f675a4a4c","{""part"":""2"",""participantId"":""C083122313ED412FA4EB27591D1A7887"",""assignmentId"":""5724778a-e1ce-441e-a85c-c9e79665f030"",""projectId"":""3ce68dc4-89da-4770-948e-944f675a4a4c""}","https://test12345.live/?part=2&participantId=C083122313ED412FA4EB27591D1A7887&assignmentId=5724778a-e1ce-441e-a85c-c9e79665f030&projectId=3ce68dc4-89da-4770-948e-944f675a4a4c","C083122313ED412FA4EB27591D1A7887-2025-05-28-15-53-05","","null","","images/semantic_sequence/maintaining_a_car_semantic/maintaining_a_car_semantic_0.png","null","",""
"","","","","","html-audio-response","16","351784","0.0-14.0","C083122313ED412FA4EB27591D1A7887","C083122313ED412FA4EB27591D1A7887","5724778a-e1ce-441e-a85c-c9e79665f030","3ce68dc4-89da-4770-948e-944f675a4a4c","{""part"":""2"",""participantId"":""C083122313ED412FA4EB27591D1A7887"",""assignmentId"":""5724778a-e1ce-441e-a85c-c9e79665f030"",""projectId"":""3ce68dc4-89da-4770-948e-944f675a4a4c""}","https://test12345.live/?part=2&participantId=C083122313ED412FA4EB27591D1A7887&assignmentId=5724778a-e1ce-441e-a85c-c9e79665f030&projectId=3ce68dc4-89da-4770-948e-944f675a4a4c","C083122313ED412FA4EB27591D1A7887-2025-05-28-15-53-05","","22341","","[""<span style=\""color: red; font-size: 24px\""> NOW RECORDING</span><p>Please say out loud all the images you saw in part 1 of the experiment, in the exact order you saw them. Try to recall as many images as you can, but remember: getting the order right is more important than the number of images you recall. </p>""]","","2","maintaining_a_car_semantic"
"","","","","","image-button-response","17","357809","0.0-15.0-0.0","C083122313ED412FA4EB27591D1A7887","C083122313ED412FA4EB27591D1A7887","5724778a-e1ce-441e-a85c-c9e79665f030","3ce68dc4-89da-4770-948e-944f675a4a4c","{""part"":""2"",""participantId"":""C083122313ED412FA4EB27591D1A7887"",""assignmentId"":""5724778a-e1ce-441e-a85c-c9e79665f030"",""projectId"":""3ce68dc4-89da-4770-948e-944f675a4a4c""}","https://test12345.live/?part=2&participantId=C083122313ED412FA4EB27591D1A7887&assignmentId=5724778a-e1ce-441e-a85c-c9e79665f030&projectId=3ce68dc4-89da-4770-948e-944f675a4a4c","C083122313ED412FA4EB27591D1A7887-2025-05-28-15-53-05","","null","","images/semantic_sequence/housework_semantic/housework_semantic_0.png","null","",""
"","","","","","html-audio-response","18","379803","0.0-16.0","C083122313ED412FA4EB27591D1A7887","C083122313ED412FA4EB27591D1A7887","5724778a-e1ce-441e-a85c-c9e79665f030","3ce68dc4-89da-4770-948e-944f675a4a4c","{""part"":""2"",""participantId"":""C083122313ED412FA4EB27591D1A7887"",""assignmentId"":""5724778a-e1ce-441e-a85c-c9e79665f030"",""projectId"":""3ce68dc4-89da-4770-948e-944f675a4a4c""}","https://test12345.live/?part=2&participantId=C083122313ED412FA4EB27591D1A7887&assignmentId=5724778a-e1ce-441e-a85c-c9e79665f030&projectId=3ce68dc4-89da-4770-948e-944f675a4a4c","C083122313ED412FA4EB27591D1A7887-2025-05-28-15-53-05","","21031","","[""<span style=\""color: red; font-size: 24px\""> NOW RECORDING</span><p>Please say out loud all the images you saw in part 1 of the experiment, in the exact order you saw them. Try to recall as many images as you can, but remember: getting the order right is more important than the number of images you recall. </p>""]","","1","housework_semantic"
"","","","","","image-button-response","19","385829","0.0-17.0-0.0","C083122313ED412FA4EB27591D1A7887","C083122313ED412FA4EB27591D1A7887","5724778a-e1ce-441e-a85c-c9e79665f030","3ce68dc4-89da-4770-948e-944f675a4a4c","{""part"":""2"",""participantId"":""C083122313ED412FA4EB27591D1A7887"",""assignmentId"":""5724778a-e1ce-441e-a85c-c9e79665f030"",""projectId"":""3ce68dc4-89da-4770-948e-944f675a4a4c""}","https://test12345.live/?part=2&participantId=C083122313ED412FA4EB27591D1A7887&assignmentId=5724778a-e1ce-441e-a85c-c9e79665f030&projectId=3ce68dc4-89da-4770-948e-944f675a4a4c","C083122313ED412FA4EB27591D1A7887-2025-05-28-15-53-05","","null","","images/semantic_sequence/visiting_cities_semantic/visiting_cities_semantic_0.png","null","",""
"","","","","","html-audio-response","20","401452","0.0-18.0","C083122313ED412FA4EB27591D1A7887","C083122313ED412FA4EB27591D1A7887","5724778a-e1ce-441e-a85c-c9e79665f030","3ce68dc4-89da-4770-948e-944f675a4a4c","{""part"":""2"",""participantId"":""C083122313ED412FA4EB27591D1A7887"",""assignmentId"":""5724778a-e1ce-441e-a85c-c9e79665f030"",""projectId"":""3ce68dc4-89da-4770-948e-944f675a4a4c""}","https://test12345.live/?part=2&participantId=C083122313ED412FA4EB27591D1A7887&assignmentId=5724778a-e1ce-441e-a85c-c9e79665f030&projectId=3ce68dc4-89da-4770-948e-944f675a4a4c","C083122313ED412FA4EB27591D1A7887-2025-05-28-15-53-05","","14692","","[""<span style=\""color: red; font-size: 24px\""> NOW RECORDING</span><p>Please say out loud all the images you saw in part 1 of the experiment, in the exact order you saw them. Try to recall as many images as you can, but remember: getting the order right is more important than the number of images you recall. </p>""]","","2","visiting_cities_semantic"
"","","","","","image-button-response","21","407462","0.0-19.0-0.0","C083122313ED412FA4EB27591D1A7887","C083122313ED412FA4EB27591D1A7887","5724778a-e1ce-441e-a85c-c9e79665f030","3ce68dc4-89da-4770-948e-944f675a4a4c","{""part"":""2"",""participantId"":""C083122313ED412FA4EB27591D1A7887"",""assignmentId"":""5724778a-e1ce-441e-a85c-c9e79665f030"",""projectId"":""3ce68dc4-89da-4770-948e-944f675a4a4c""}","https://test12345.live/?part=2&participantId=C083122313ED412FA4EB27591D1A7887&assignmentId=5724778a-e1ce-441e-a85c-c9e79665f030&projectId=3ce68dc4-89da-4770-948e-944f675a4a4c","C083122313ED412FA4EB27591D1A7887-2025-05-28-15-53-05","","null","","images/semantic_sequence/cat_care_semantic/cat_care_semantic_0.png","null","",""
"","","","","","html-audio-response","22","429667","0.0-20.0","C083122313ED412FA4EB27591D1A7887","C083122313ED412FA4EB27591D1A7887","5724778a-e1ce-441e-a85c-c9e79665f030","3ce68dc4-89da-4770-948e-944f675a4a4c","{""part"":""2"",""participantId"":""C083122313ED412FA4EB27591D1A7887"",""assignmentId"":""5724778a-e1ce-441e-a85c-c9e79665f030"",""projectId"":""3ce68dc4-89da-4770-948e-944f675a4a4c""}","https://test12345.live/?part=2&participantId=C083122313ED412FA4EB27591D1A7887&assignmentId=5724778a-e1ce-441e-a85c-c9e79665f030&projectId=3ce68dc4-89da-4770-948e-944f675a4a4c","C083122313ED412FA4EB27591D1A7887-2025-05-28-15-53-05","","19711","","[""<span style=\""color: red; font-size: 24px\""> NOW RECORDING</span><p>Please say out loud all the images you saw in part 1 of the experiment, in the exact order you saw them. Try to recall as many images as you can, but remember: getting the order right is more important than the number of images you recall. </p>""]","","3","cat_care_semantic"
"","","","","","image-button-response","23","435690","0.0-21.0-0.0","C083122313ED412FA4EB27591D1A7887","C083122313ED412FA4EB27591D1A7887","5724778a-e1ce-441e-a85c-c9e79665f030","3ce68dc4-89da-4770-948e-944f675a4a4c","{""part"":""2"",""participantId"":""C083122313ED412FA4EB27591D1A7887"",""assignmentId"":""5724778a-e1ce-441e-a85c-c9e79665f030"",""projectId"":""3ce68dc4-89da-4770-948e-944f675a4a4c""}","https://test12345.live/?part=2&participantId=C083122313ED412FA4EB27591D1A7887&assignmentId=5724778a-e1ce-441e-a85c-c9e79665f030&projectId=3ce68dc4-89da-4770-948e-944f675a4a4c","C083122313ED412FA4EB27591D1A7887-2025-05-28-15-53-05","","null","","images/schematic_sequence/supermarket_scheme/supermarket_scheme_0.png","null","",""
"","","","","","html-audio-response","24","488067","0.0-22.0","C083122313ED412FA4EB27591D1A7887","C083122313ED412FA4EB27591D1A7887","5724778a-e1ce-441e-a85c-c9e79665f030","3ce68dc4-89da-4770-948e-944f675a4a4c","{""part"":""2"",""participantId"":""C083122313ED412FA4EB27591D1A7887"",""assignmentId"":""5724778a-e1ce-441e-a85c-c9e79665f030"",""projectId"":""3ce68dc4-89da-4770-948e-944f675a4a4c""}","https://test12345.live/?part=2&participantId=C083122313ED412FA4EB27591D1A7887&assignmentId=5724778a-e1ce-441e-a85c-c9e79665f030&projectId=3ce68dc4-89da-4770-948e-944f675a4a4c","C083122313ED412FA4EB27591D1A7887-2025-05-28-15-53-05","","28908","","[""<span style=\""color: red; font-size: 24px\""> NOW RECORDING</span><p>Please say out loud all the images you saw in part 1 of the experiment, in the exact order you saw them. Try to recall as many images as you can, but remember: getting the order right is more important than the number of images you recall. </p>""]","","3","supermarket_scheme"
"","","","","","image-button-response","25","494082","0.0-23.0-0.0","C083122313ED412FA4EB27591D1A7887","C083122313ED412FA4EB27591D1A7887","5724778a-e1ce-441e-a85c-c9e79665f030","3ce68dc4-89da-4770-948e-944f675a4a4c","{""part"":""2"",""participantId"":""C083122313ED412FA4EB27591D1A7887"",""assignmentId"":""5724778a-e1ce-441e-a85c-c9e79665f030"",""projectId"":""3ce68dc4-89da-4770-948e-944f675a4a4c""}","https://test12345.live/?part=2&participantId=C083122313ED412FA4EB27591D1A7887&assignmentId=5724778a-e1ce-441e-a85c-c9e79665f030&projectId=3ce68dc4-89da-4770-948e-944f675a4a4c","C083122313ED412FA4EB27591D1A7887-2025-05-28-15-53-05","","null","","images/causal_sequence/dog_causal/dog_causal_0.png","null","",""
"","","","","","html-audio-response","26","526802","0.0-24.0","C083122313ED412FA4EB27591D1A7887","C083122313ED412FA4EB27591D1A7887","5724778a-e1ce-441e-a85c-c9e79665f030","3ce68dc4-89da-4770-948e-944f675a4a4c","{""part"":""2"",""participantId"":""C083122313ED412FA4EB27591D1A7887"",""assignmentId"":""5724778a-e1ce-441e-a85c-c9e79665f030"",""projectId"":""3ce68dc4-89da-4770-948e-944f675a4a4c""}","https://test12345.live/?part=2&participantId=C083122313ED412FA4EB27591D1A7887&assignmentId=5724778a-e1ce-441e-a85c-c9e79665f030&projectId=3ce68dc4-89da-4770-948e-944f675a4a4c","C083122313ED412FA4EB27591D1A7887-2025-05-28-15-53-05","","31675","","[""<span style=\""color: red; font-size: 24px\""> NOW RECORDING</span><p>Please say out loud all the images you saw in part 1 of the experiment, in the exact order you saw them. Try to recall as many images as you can, but remember: getting the order right is more important than the number of images you recall. </p>""]","","2","dog_causal"
"","","","","","image-button-response","27","532822","0.0-25.0-0.0","C083122313ED412FA4EB27591D1A7887","C083122313ED412FA4EB27591D1A7887","5724778a-e1ce-441e-a85c-c9e79665f030","3ce68dc4-89da-4770-948e-944f675a4a4c","{""part"":""2"",""participantId"":""C083122313ED412FA4EB27591D1A7887"",""assignmentId"":""5724778a-e1ce-441e-a85c-c9e79665f030"",""projectId"":""3ce68dc4-89da-4770-948e-944f675a4a4c""}","https://test12345.live/?part=2&participantId=C083122313ED412FA4EB27591D1A7887&assignmentId=5724778a-e1ce-441e-a85c-c9e79665f030&projectId=3ce68dc4-89da-4770-948e-944f675a4a4c","C083122313ED412FA4EB27591D1A7887-2025-05-28-15-53-05","","null","","images/semantic_sequence/redecorating_semantic/redecorating_semantic_0.png","null","",""
"","","","","","html-audio-response","28","558566","0.0-26.0","C083122313ED412FA4EB27591D1A7887","C083122313ED412FA4EB27591D1A7887","5724778a-e1ce-441e-a85c-c9e79665f030","3ce68dc4-89da-4770-948e-944f675a4a4c","{""part"":""2"",""participantId"":""C083122313ED412FA4EB27591D1A7887"",""assignmentId"":""5724778a-e1ce-441e-a85c-c9e79665f030"",""projectId"":""3ce68dc4-89da-4770-948e-944f675a4a4c""}","https://test12345.live/?part=2&participantId=C083122313ED412FA4EB27591D1A7887&assignmentId=5724778a-e1ce-441e-a85c-c9e79665f030&projectId=3ce68dc4-89da-4770-948e-944f675a4a4c","C083122313ED412FA4EB27591D1A7887-2025-05-28-15-53-05","","24878","","[""<span style=\""color: red; font-size: 24px\""> NOW RECORDING</span><p>Please say out loud all the images you saw in part 1 of the experiment, in the exact order you saw them. Try to recall as many images as you can, but remember: getting the order right is more important than the number of images you recall. </p>""]","","11","redecorating_semantic"
"","","","","","image-button-response","29","564592","0.0-27.0-0.0","C083122313ED412FA4EB27591D1A7887","C083122313ED412FA4EB27591D1A7887","5724778a-e1ce-441e-a85c-c9e79665f030","3ce68dc4-89da-4770-948e-944f675a4a4c","{""part"":""2"",""participantId"":""C083122313ED412FA4EB27591D1A7887"",""assignmentId"":""5724778a-e1ce-441e-a85c-c9e79665f030"",""projectId"":""3ce68dc4-89da-4770-948e-944f675a4a4c""}","https://test12345.live/?part=2&participantId=C083122313ED412FA4EB27591D1A7887&assignmentId=5724778a-e1ce-441e-a85c-c9e79665f030&projectId=3ce68dc4-89da-4770-948e-944f675a4a4c","C083122313ED412FA4EB27591D1A7887-2025-05-28-15-53-05","","null","","images/causal_sequence/package_causal/package_causal_0.png","null","",""
"","","","","","html-audio-response","30","628325","0.0-28.0","C083122313ED412FA4EB27591D1A7887","C083122313ED412FA4EB27591D1A7887","5724778a-e1ce-441e-a85c-c9e79665f030","3ce68dc4-89da-4770-948e-944f675a4a4c","{""part"":""2"",""participantId"":""C083122313ED412FA4EB27591D1A7887"",""assignmentId"":""5724778a-e1ce-441e-a85c-c9e79665f030"",""projectId"":""3ce68dc4-89da-4770-948e-944f675a4a4c""}","https://test12345.live/?part=2&participantId=C083122313ED412FA4EB27591D1A7887&assignmentId=5724778a-e1ce-441e-a85c-c9e79665f030&projectId=3ce68dc4-89da-4770-948e-944f675a4a4c","C083122313ED412FA4EB27591D1A7887-2025-05-28-15-53-05","","28049","","[""<span style=\""color: red; font-size: 24px\""> NOW RECORDING</span><p>Please say out loud all the images you saw in part 1 of the experiment, in the exact order you saw them. Try to recall as many images as you can, but remember: getting the order right is more important than the number of images you recall. </p>""]","","2","package_causal"
"","","","","","image-button-response","31","634343","0.0-29.0-0.0","C083122313ED412FA4EB27591D1A7887","C083122313ED412FA4EB27591D1A7887","5724778a-e1ce-441e-a85c-c9e79665f030","3ce68dc4-89da-4770-948e-944f675a4a4c","{""part"":""2"",""participantId"":""C083122313ED412FA4EB27591D1A7887"",""assignmentId"":""5724778a-e1ce-441e-a85c-c9e79665f030"",""projectId"":""3ce68dc4-89da-4770-948e-944f675a4a4c""}","https://test12345.live/?part=2&participantId=C083122313ED412FA4EB27591D1A7887&assignmentId=5724778a-e1ce-441e-a85c-c9e79665f030&projectId=3ce68dc4-89da-4770-948e-944f675a4a4c","C083122313ED412FA4EB27591D1A7887-2025-05-28-15-53-05","","null","","images/semantic_sequence/kitchen_operations_semantic/kitchen_operations_semantic_0.png","null","",""
"","","","","","html-audio-response","32","655169","0.0-30.0","C083122313ED412FA4EB27591D1A7887","C083122313ED412FA4EB27591D1A7887","5724778a-e1ce-441e-a85c-c9e79665f030","3ce68dc4-89da-4770-948e-944f675a4a4c","{""part"":""2"",""participantId"":""C083122313ED412FA4EB27591D1A7887"",""assignmentId"":""5724778a-e1ce-441e-a85c-c9e79665f030"",""projectId"":""3ce68dc4-89da-4770-948e-944f675a4a4c""}","https://test12345.live/?part=2&participantId=C083122313ED412FA4EB27591D1A7887&assignmentId=5724778a-e1ce-441e-a85c-c9e79665f030&projectId=3ce68dc4-89da-4770-948e-944f675a4a4c","C083122313ED412FA4EB27591D1A7887-2025-05-28-15-53-05","","18630","","[""<span style=\""color: red; font-size: 24px\""> NOW RECORDING</span><p>Please say out loud all the images you saw in part 1 of the experiment, in the exact order you saw them. Try to recall as many images as you can, but remember: getting the order right is more important than the number of images you recall. </p>""]","","2","kitchen_operations_semantic"
"","","","","","image-button-response","33","661193","0.0-31.0-0.0","C083122313ED412FA4EB27591D1A7887","C083122313ED412FA4EB27591D1A7887","5724778a-e1ce-441e-a85c-c9e79665f030","3ce68dc4-89da-4770-948e-944f675a4a4c","{""part"":""2"",""participantId"":""C083122313ED412FA4EB27591D1A7887"",""assignmentId"":""5724778a-e1ce-441e-a85c-c9e79665f030"",""projectId"":""3ce68dc4-89da-4770-948e-944f675a4a4c""}","https://test12345.live/?part=2&participantId=C083122313ED412FA4EB27591D1A7887&assignmentId=5724778a-e1ce-441e-a85c-c9e79665f030&projectId=3ce68dc4-89da-4770-948e-944f675a4a4c","C083122313ED412FA4EB27591D1A7887-2025-05-28-15-53-05","","null","","images/causal_sequence/museum_causal/museum_causal_0.png","null","",""
"","","","","","html-audio-response","34","684402","0.0-32.0","C083122313ED412FA4EB27591D1A7887","C083122313ED412FA4EB27591D1A7887","5724778a-e1ce-441e-a85c-c9e79665f030","3ce68dc4-89da-4770-948e-944f675a4a4c","{""part"":""2"",""participantId"":""C083122313ED412FA4EB27591D1A7887"",""assignmentId"":""5724778a-e1ce-441e-a85c-c9e79665f030"",""projectId"":""3ce68dc4-89da-4770-948e-944f675a4a4c""}","https://test12345.live/?part=2&participantId=C083122313ED412FA4EB27591D1A7887&assignmentId=5724778a-e1ce-441e-a85c-c9e79665f030&projectId=3ce68dc4-89da-4770-948e-944f675a4a4c","C083122313ED412FA4EB27591D1A7887-2025-05-28-15-53-05","","20075","","[""<span style=\""color: red; font-size: 24px\""> NOW RECORDING</span><p>Please say out loud all the images you saw in part 1 of the experiment, in the exact order you saw them. Try to recall as many images as you can, but remember: getting the order right is more important than the number of images you recall. </p>""]","","7","museum_causal"
"","","","","","image-button-response","35","690425","0.0-33.0-0.0","C083122313ED412FA4EB27591D1A7887","C083122313ED412FA4EB27591D1A7887","5724778a-e1ce-441e-a85c-c9e79665f030","3ce68dc4-89da-4770-948e-944f675a4a4c","{""part"":""2"",""participantId"":""C083122313ED412FA4EB27591D1A7887"",""assignmentId"":""5724778a-e1ce-441e-a85c-c9e79665f030"",""projectId"":""3ce68dc4-89da-4770-948e-944f675a4a4c""}","https://test12345.live/?part=2&participantId=C083122313ED412FA4EB27591D1A7887&assignmentId=5724778a-e1ce-441e-a85c-c9e79665f030&projectId=3ce68dc4-89da-4770-948e-944f675a4a4c","C083122313ED412FA4EB27591D1A7887-2025-05-28-15-53-05","","null","","images/semantic_sequence/physical_activity_semantic/physical_activity_semantic_0.png","null","",""
"","","","","","html-audio-response","36","719118","0.0-34.0","C083122313ED412FA4EB27591D1A7887","C083122313ED412FA4EB27591D1A7887","5724778a-e1ce-441e-a85c-c9e79665f030","3ce68dc4-89da-4770-948e-944f675a4a4c","{""part"":""2"",""participantId"":""C083122313ED412FA4EB27591D1A7887"",""assignmentId"":""5724778a-e1ce-441e-a85c-c9e79665f030"",""projectId"":""3ce68dc4-89da-4770-948e-944f675a4a4c""}","https://test12345.live/?part=2&participantId=C083122313ED412FA4EB27591D1A7887&assignmentId=5724778a-e1ce-441e-a85c-c9e79665f030&projectId=3ce68dc4-89da-4770-948e-944f675a4a4c","C083122313ED412FA4EB27591D1A7887-2025-05-28-15-53-05","","18485","","[""<span style=\""color: red; font-size: 24px\""> NOW RECORDING</span><p>Please say out loud all the images you saw in part 1 of the experiment, in the exact order you saw them. Try to recall as many images as you can, but remember: getting the order right is more important than the number of images you recall. </p>""]","","2","physical_activity_semantic"
"","","","","","instructions","37","724835","0.0-35.0","C083122313ED412FA4EB27591D1A7887","C083122313ED412FA4EB27591D1A7887","5724778a-e1ce-441e-a85c-c9e79665f030","3ce68dc4-89da-4770-948e-944f675a4a4c","{""part"":""2"",""participantId"":""C083122313ED412FA4EB27591D1A7887"",""assignmentId"":""5724778a-e1ce-441e-a85c-c9e79665f030"",""projectId"":""3ce68dc4-89da-4770-948e-944f675a4a4c""}","https://test12345.live/?part=2&participantId=C083122313ED412FA4EB27591D1A7887&assignmentId=5724778a-e1ce-441e-a85c-c9e79665f030&projectId=3ce68dc4-89da-4770-948e-944f675a4a4c","C083122313ED412FA4EB27591D1A7887-2025-05-28-15-53-05","[{""page_index"":0,""viewing_time"":5708}]","5709","","","","",""
"","","","","","image-button-response","38","730839","0.0-36.0-0.0","C083122313ED412FA4EB27591D1A7887","C083122313ED412FA4EB27591D1A7887","5724778a-e1ce-441e-a85c-c9e79665f030","3ce68dc4-89da-4770-948e-944f675a4a4c","{""part"":""2"",""participantId"":""C083122313ED412FA4EB27591D1A7887"",""assignmentId"":""5724778a-e1ce-441e-a85c-c9e79665f030"",""projectId"":""3ce68dc4-89da-4770-948e-944f675a4a4c""}","https://test12345.live/?part=2&participantId=C083122313ED412FA4EB27591D1A7887&assignmentId=5724778a-e1ce-441e-a85c-c9e79665f030&projectId=3ce68dc4-89da-4770-948e-944f675a4a4c","C083122313ED412FA4EB27591D1A7887-2025-05-28-15-53-05","","null","","images/schematic_sequence/flight_scheme/flight_scheme_0.png","null","",""
"","","","","","html-audio-response","39","747853","0.0-37.0","C083122313ED412FA4EB27591D1A7887","C083122313ED412FA4EB27591D1A7887","5724778a-e1ce-441e-a85c-c9e79665f030","3ce68dc4-89da-4770-948e-944f675a4a4c","{""part"":""2"",""participantId"":""C083122313ED412FA4EB27591D1A7887"",""assignmentId"":""5724778a-e1ce-441e-a85c-c9e79665f030"",""projectId"":""3ce68dc4-89da-4770-948e-944f675a4a4c""}","https://test12345.live/?part=2&participantId=C083122313ED412FA4EB27591D1A7887&assignmentId=5724778a-e1ce-441e-a85c-c9e79665f030&projectId=3ce68dc4-89da-4770-948e-944f675a4a4c","C083122313ED412FA4EB27591D1A7887-2025-05-28-15-53-05","","16324","","[""<span style=\""color: red; font-size: 24px\""> NOW RECORDING</span><p>Please say out loud all the images you saw in part 1 of the experiment, in the exact order you saw them. Try to recall as many images as you can, but remember: getting the order right is more important than the number of images you recall. </p>""]","","9","flight_scheme"
"","","","","","image-button-response","40","753862","0.0-38.0-0.0","C083122313ED412FA4EB27591D1A7887","C083122313ED412FA4EB27591D1A7887","5724778a-e1ce-441e-a85c-c9e79665f030","3ce68dc4-89da-4770-948e-944f675a4a4c","{""part"":""2"",""participantId"":""C083122313ED412FA4EB27591D1A7887"",""assignmentId"":""5724778a-e1ce-441e-a85c-c9e79665f030"",""projectId"":""3ce68dc4-89da-4770-948e-944f675a4a4c""}","https://test12345.live/?part=2&participantId=C083122313ED412FA4EB27591D1A7887&assignmentId=5724778a-e1ce-441e-a85c-c9e79665f030&projectId=3ce68dc4-89da-4770-948e-944f675a4a4c","C083122313ED412FA4EB27591D1A7887-2025-05-28-15-53-05","","null","","images/semantic_sequence/exploring_nature_semantic/exploring_nature_semantic_0.png","null","",""
"","","","","","html-audio-response","41","772169","0.0-39.0","C083122313ED412FA4EB27591D1A7887","C083122313ED412FA4EB27591D1A7887","5724778a-e1ce-441e-a85c-c9e79665f030","3ce68dc4-89da-4770-948e-944f675a4a4c","{""part"":""2"",""participantId"":""C083122313ED412FA4EB27591D1A7887"",""assignmentId"":""5724778a-e1ce-441e-a85c-c9e79665f030"",""projectId"":""3ce68dc4-89da-4770-948e-944f675a4a4c""}","https://test12345.live/?part=2&participantId=C083122313ED412FA4EB27591D1A7887&assignmentId=5724778a-e1ce-441e-a85c-c9e79665f030&projectId=3ce68dc4-89da-4770-948e-944f675a4a4c","C083122313ED412FA4EB27591D1A7887-2025-05-28-15-53-05","","17380","","[""<span style=\""color: red; font-size: 24px\""> NOW RECORDING</span><p>Please say out loud all the images you saw in part 1 of the experiment, in the exact order you saw them. Try to recall as many images as you can, but remember: getting the order right is more important than the number of images you recall. </p>""]","","2","exploring_nature_semantic"
"","","","","","image-button-response","42","778192","0.0-40.0-0.0","C083122313ED412FA4EB27591D1A7887","C083122313ED412FA4EB27591D1A7887","5724778a-e1ce-441e-a85c-c9e79665f030","3ce68dc4-89da-4770-948e-944f675a4a4c","{""part"":""2"",""participantId"":""C083122313ED412FA4EB27591D1A7887"",""assignmentId"":""5724778a-e1ce-441e-a85c-c9e79665f030"",""projectId"":""3ce68dc4-89da-4770-948e-944f675a4a4c""}","https://test12345.live/?part=2&participantId=C083122313ED412FA4EB27591D1A7887&assignmentId=5724778a-e1ce-441e-a85c-c9e79665f030&projectId=3ce68dc4-89da-4770-948e-944f675a4a4c","C083122313ED412FA4EB27591D1A7887-2025-05-28-15-53-05","","null","","images/semantic_sequence/market_semantic/market_semantic_0.png","null","",""
"","","","","","html-audio-response","43","799068","0.0-41.0","C083122313ED412FA4EB27591D1A7887","C083122313ED412FA4EB27591D1A7887","5724778a-e1ce-441e-a85c-c9e79665f030","3ce68dc4-89da-4770-948e-944f675a4a4c","{""part"":""2"",""participantId"":""C083122313ED412FA4EB27591D1A7887"",""assignmentId"":""5724778a-e1ce-441e-a85c-c9e79665f030"",""projectId"":""3ce68dc4-89da-4770-948e-944f675a4a4c""}","https://test12345.live/?part=2&participantId=C083122313ED412FA4EB27591D1A7887&assignmentId=5724778a-e1ce-441e-a85c-c9e79665f030&projectId=3ce68dc4-89da-4770-948e-944f675a4a4c","C083122313ED412FA4EB27591D1A7887-2025-05-28-15-53-05","","19864","","[""<span style=\""color: red; font-size: 24px\""> NOW RECORDING</span><p>Please say out loud all the images you saw in part 1 of the experiment, in the exact order you saw them. Try to recall as many images as you can, but remember: getting the order right is more important than the number of images you recall. </p>""]","","2","market_semantic"
"","","","","","image-button-response","44","805090","0.0-42.0-0.0","C083122313ED412FA4EB27591D1A7887","C083122313ED412FA4EB27591D1A7887","5724778a-e1ce-441e-a85c-c9e79665f030","3ce68dc4-89da-4770-948e-944f675a4a4c","{""part"":""2"",""participantId"":""C083122313ED412FA4EB27591D1A7887"",""assignmentId"":""5724778a-e1ce-441e-a85c-c9e79665f030"",""projectId"":""3ce68dc4-89da-4770-948e-944f675a4a4c""}","https://test12345.live/?part=2&participantId=C083122313ED412FA4EB27591D1A7887&assignmentId=5724778a-e1ce-441e-a85c-c9e79665f030&projectId=3ce68dc4-89da-4770-948e-944f675a4a4c","C083122313ED412FA4EB27591D1A7887-2025-05-28-15-53-05","","null","","images/semantic_sequence/using_technology_semantic/using_technology_semantic_0.png","null","",""
"","","","","","html-audio-response","45","825487","0.0-43.0","C083122313ED412FA4EB27591D1A7887","C083122313ED412FA4EB27591D1A7887","5724778a-e1ce-441e-a85c-c9e79665f030","3ce68dc4-89da-4770-948e-944f675a4a4c","{""part"":""2"",""participantId"":""C083122313ED412FA4EB27591D1A7887"",""assignmentId"":""5724778a-e1ce-441e-a85c-c9e79665f030"",""projectId"":""3ce68dc4-89da-4770-948e-944f675a4a4c""}","https://test12345.live/?part=2&participantId=C083122313ED412FA4EB27591D1A7887&assignmentId=5724778a-e1ce-441e-a85c-c9e79665f030&projectId=3ce68dc4-89da-4770-948e-944f675a4a4c","C083122313ED412FA4EB27591D1A7887-2025-05-28-15-53-05","","18243","","[""<span style=\""color: red; font-size: 24px\""> NOW RECORDING</span><p>Please say out loud all the images you saw in part 1 of the experiment, in the exact order you saw them. Try to recall as many images as you can, but remember: getting the order right is more important than the number of images you recall. </p>""]","","8","using_technology_semantic"
"","","","","","image-button-response","46","831500","0.0-44.0-0.0","C083122313ED412FA4EB27591D1A7887","C083122313ED412FA4EB27591D1A7887","5724778a-e1ce-441e-a85c-c9e79665f030","3ce68dc4-89da-4770-948e-944f675a4a4c","{""part"":""2"",""participantId"":""C083122313ED412FA4EB27591D1A7887"",""assignmentId"":""5724778a-e1ce-441e-a85c-c9e79665f030"",""projectId"":""3ce68dc4-89da-4770-948e-944f675a4a4c""}","https://test12345.live/?part=2&participantId=C083122313ED412FA4EB27591D1A7887&assignmentId=5724778a-e1ce-441e-a85c-c9e79665f030&projectId=3ce68dc4-89da-4770-948e-944f675a4a4c","C083122313ED412FA4EB27591D1A7887-2025-05-28-15-53-05","","null","","images/schematic_sequence/dinner_party_scheme/dinner_party_scheme_0.png","null","",""
"","","","","","html-audio-response","47","850150","0.0-45.0","C083122313ED412FA4EB27591D1A7887","C083122313ED412FA4EB27591D1A7887","5724778a-e1ce-441e-a85c-c9e79665f030","3ce68dc4-89da-4770-948e-944f675a4a4c","{""part"":""2"",""participantId"":""C083122313ED412FA4EB27591D1A7887"",""assignmentId"":""5724778a-e1ce-441e-a85c-c9e79665f030"",""projectId"":""3ce68dc4-89da-4770-948e-944f675a4a4c""}","https://test12345.live/?part=2&participantId=C083122313ED412FA4EB27591D1A7887&assignmentId=5724778a-e1ce-441e-a85c-c9e79665f030&projectId=3ce68dc4-89da-4770-948e-944f675a4a4c","C083122313ED412FA4EB27591D1A7887-2025-05-28-15-53-05","","17505","","[""<span style=\""color: red; font-size: 24px\""> NOW RECORDING</span><p>Please say out loud all the images you saw in part 1 of the experiment, in the exact order you saw them. Try to recall as many images as you can, but remember: getting the order right is more important than the number of images you recall. </p>""]","","3","dinner_party_scheme"
"","","","","","image-button-response","48","856173","0.0-46.0-0.0","C083122313ED412FA4EB27591D1A7887","C083122313ED412FA4EB27591D1A7887","5724778a-e1ce-441e-a85c-c9e79665f030","3ce68dc4-89da-4770-948e-944f675a4a4c","{""part"":""2"",""participantId"":""C083122313ED412FA4EB27591D1A7887"",""assignmentId"":""5724778a-e1ce-441e-a85c-c9e79665f030"",""projectId"":""3ce68dc4-89da-4770-948e-944f675a4a4c""}","https://test12345.live/?part=2&participantId=C083122313ED412FA4EB27591D1A7887&assignmentId=5724778a-e1ce-441e-a85c-c9e79665f030&projectId=3ce68dc4-89da-4770-948e-944f675a4a4c","C083122313ED412FA4EB27591D1A7887-2025-05-28-15-53-05","","null","","images/causal_sequence/the_performance_causal/the_performance_causal_0.png","null","",""
"","","","","","html-audio-response","49","889984","0.0-47.0","C083122313ED412FA4EB27591D1A7887","C083122313ED412FA4EB27591D1A7887","5724778a-e1ce-441e-a85c-c9e79665f030","3ce68dc4-89da-4770-948e-944f675a4a4c","{""part"":""2"",""participantId"":""C083122313ED412FA4EB27591D1A7887"",""assignmentId"":""5724778a-e1ce-441e-a85c-c9e79665f030"",""projectId"":""3ce68dc4-89da-4770-948e-944f675a4a4c""}","https://test12345.live/?part=2&participantId=C083122313ED412FA4EB27591D1A7887&assignmentId=5724778a-e1ce-441e-a85c-c9e79665f030&projectId=3ce68dc4-89da-4770-948e-944f675a4a4c","C083122313ED412FA4EB27591D1A7887-2025-05-28-15-53-05","","32576","","[""<span style=\""color: red; font-size: 24px\""> NOW RECORDING</span><p>Please say out loud all the images you saw in part 1 of the experiment, in the exact order you saw them. Try to recall as many images as you can, but remember: getting the order right is more important than the number of images you recall. </p>""]","","11","the_performance_causal"
"","","","","","image-button-response","50","896007","0.0-48.0-0.0","C083122313ED412FA4EB27591D1A7887","C083122313ED412FA4EB27591D1A7887","5724778a-e1ce-441e-a85c-c9e79665f030","3ce68dc4-89da-4770-948e-944f675a4a4c","{""part"":""2"",""participantId"":""C083122313ED412FA4EB27591D1A7887"",""assignmentId"":""5724778a-e1ce-441e-a85c-c9e79665f030"",""projectId"":""3ce68dc4-89da-4770-948e-944f675a4a4c""}","https://test12345.live/?part=2&participantId=C083122313ED412FA4EB27591D1A7887&assignmentId=5724778a-e1ce-441e-a85c-c9e79665f030&projectId=3ce68dc4-89da-4770-948e-944f675a4a4c","C083122313ED412FA4EB27591D1A7887-2025-05-28-15-53-05","","null","","images/schematic_sequence/interview_scheme/interview_scheme_0.png","null","",""
"","","","","","html-audio-response","51","918952","0.0-49.0","C083122313ED412FA4EB27591D1A7887","C083122313ED412FA4EB27591D1A7887","5724778a-e1ce-441e-a85c-c9e79665f030","3ce68dc4-89da-4770-948e-944f675a4a4c","{""part"":""2"",""participantId"":""C083122313ED412FA4EB27591D1A7887"",""assignmentId"":""5724778a-e1ce-441e-a85c-c9e79665f030"",""projectId"":""3ce68dc4-89da-4770-948e-944f675a4a4c""}","https://test12345.live/?part=2&participantId=C083122313ED412FA4EB27591D1A7887&assignmentId=5724778a-e1ce-441e-a85c-c9e79665f030&projectId=3ce68dc4-89da-4770-948e-944f675a4a4c","C083122313ED412FA4EB27591D1A7887-2025-05-28-15-53-05","","18190","","[""<span style=\""color: red; font-size: 24px\""> NOW RECORDING</span><p>Please say out loud all the images you saw in part 1 of the experiment, in the exact order you saw them. Try to recall as many images as you can, but remember: getting the order right is more important than the number of images you recall. </p>""]","","2","interview_scheme"
"","","","","","image-button-response","52","924973","0.0-50.0-0.0","C083122313ED412FA4EB27591D1A7887","C083122313ED412FA4EB27591D1A7887","5724778a-e1ce-441e-a85c-c9e79665f030","3ce68dc4-89da-4770-948e-944f675a4a4c","{""part"":""2"",""participantId"":""C083122313ED412FA4EB27591D1A7887"",""assignmentId"":""5724778a-e1ce-441e-a85c-c9e79665f030"",""projectId"":""3ce68dc4-89da-4770-948e-944f675a4a4c""}","https://test12345.live/?part=2&participantId=C083122313ED412FA4EB27591D1A7887&assignmentId=5724778a-e1ce-441e-a85c-c9e79665f030&projectId=3ce68dc4-89da-4770-948e-944f675a4a4c","C083122313ED412FA4EB27591D1A7887-2025-05-28-15-53-05","","null","","images/causal_sequence/coin_causal/coin_causal_0.png","null","",""
"","","","","","html-audio-response","53","950335","0.0-51.0","C083122313ED412FA4EB27591D1A7887","C083122313ED412FA4EB27591D1A7887","5724778a-e1ce-441e-a85c-c9e79665f030","3ce68dc4-89da-4770-948e-944f675a4a4c","{""part"":""2"",""participantId"":""C083122313ED412FA4EB27591D1A7887"",""assignmentId"":""5724778a-e1ce-441e-a85c-c9e79665f030"",""projectId"":""3ce68dc4-89da-4770-948e-944f675a4a4c""}","https://test12345.live/?part=2&participantId=C083122313ED412FA4EB27591D1A7887&assignmentId=5724778a-e1ce-441e-a85c-c9e79665f030&projectId=3ce68dc4-89da-4770-948e-944f675a4a4c","C083122313ED412FA4EB27591D1A7887-2025-05-28-15-53-05","","24343","","[""<span style=\""color: red; font-size: 24px\""> NOW RECORDING</span><p>Please say out loud all the images you saw in part 1 of the experiment, in the exact order you saw them. Try to recall as many images as you can, but remember: getting the order right is more important than the number of images you recall. </p>""]","","12","coin_causal"
"","","","","","image-button-response","54","956352","0.0-52.0-0.0","C083122313ED412FA4EB27591D1A7887","C083122313ED412FA4EB27591D1A7887","5724778a-e1ce-441e-a85c-c9e79665f030","3ce68dc4-89da-4770-948e-944f675a4a4c","{""part"":""2"",""participantId"":""C083122313ED412FA4EB27591D1A7887"",""assignmentId"":""5724778a-e1ce-441e-a85c-c9e79665f030"",""projectId"":""3ce68dc4-89da-4770-948e-944f675a4a4c""}","https://test12345.live/?part=2&participantId=C083122313ED412FA4EB27591D1A7887&assignmentId=5724778a-e1ce-441e-a85c-c9e79665f030&projectId=3ce68dc4-89da-4770-948e-944f675a4a4c","C083122313ED412FA4EB27591D1A7887-2025-05-28-15-53-05","","null","","images/schematic_sequence/hotel_scheme/hotel_scheme_0.png","null","",""
"","","","","","html-audio-response","55","971219","0.0-53.0","C083122313ED412FA4EB27591D1A7887","C083122313ED412FA4EB27591D1A7887","5724778a-e1ce-441e-a85c-c9e79665f030","3ce68dc4-89da-4770-948e-944f675a4a4c","{""part"":""2"",""participantId"":""C083122313ED412FA4EB27591D1A7887"",""assignmentId"":""5724778a-e1ce-441e-a85c-c9e79665f030"",""projectId"":""3ce68dc4-89da-4770-948e-944f675a4a4c""}","https://test12345.live/?part=2&participantId=C083122313ED412FA4EB27591D1A7887&assignmentId=5724778a-e1ce-441e-a85c-c9e79665f030&projectId=3ce68dc4-89da-4770-948e-944f675a4a4c","C083122313ED412FA4EB27591D1A7887-2025-05-28-15-53-05","","13720","","[""<span style=\""color: red; font-size: 24px\""> NOW RECORDING</span><p>Please say out loud all the images you saw in part 1 of the experiment, in the exact order you saw them. Try to recall as many images as you can, but remember: getting the order right is more important than the number of images you recall. </p>""]","","2","hotel_scheme"
"","","","","","image-button-response","56","977237","0.0-54.0-0.0","C083122313ED412FA4EB27591D1A7887","C083122313ED412FA4EB27591D1A7887","5724778a-e1ce-441e-a85c-c9e79665f030","3ce68dc4-89da-4770-948e-944f675a4a4c","{""part"":""2"",""participantId"":""C083122313ED412FA4EB27591D1A7887"",""assignmentId"":""5724778a-e1ce-441e-a85c-c9e79665f030"",""projectId"":""3ce68dc4-89da-4770-948e-944f675a4a4c""}","https://test12345.live/?part=2&participantId=C083122313ED412FA4EB27591D1A7887&assignmentId=5724778a-e1ce-441e-a85c-c9e79665f030&projectId=3ce68dc4-89da-4770-948e-944f675a4a4c","C083122313ED412FA4EB27591D1A7887-2025-05-28-15-53-05","","null","","images/schematic_sequence/restaurant_scheme/restaurant_scheme_0.png","null","",""
"","","","","","html-audio-response","57","997585","0.0-55.0","C083122313ED412FA4EB27591D1A7887","C083122313ED412FA4EB27591D1A7887","5724778a-e1ce-441e-a85c-c9e79665f030","3ce68dc4-89da-4770-948e-944f675a4a4c","{""part"":""2"",""participantId"":""C083122313ED412FA4EB27591D1A7887"",""assignmentId"":""5724778a-e1ce-441e-a85c-c9e79665f030"",""projectId"":""3ce68dc4-89da-4770-948e-944f675a4a4c""}","https://test12345.live/?part=2&participantId=C083122313ED412FA4EB27591D1A7887&assignmentId=5724778a-e1ce-441e-a85c-c9e79665f030&projectId=3ce68dc4-89da-4770-948e-944f675a4a4c","C083122313ED412FA4EB27591D1A7887-2025-05-28-15-53-05","","19425","","[""<span style=\""color: red; font-size: 24px\""> NOW RECORDING</span><p>Please say out loud all the images you saw in part 1 of the experiment, in the exact order you saw them. Try to recall as many images as you can, but remember: getting the order right is more important than the number of images you recall. </p>""]","","2","restaurant_scheme"
"","","","","","image-button-response","58","1003607","0.0-56.0-0.0","C083122313ED412FA4EB27591D1A7887","C083122313ED412FA4EB27591D1A7887","5724778a-e1ce-441e-a85c-c9e79665f030","3ce68dc4-89da-4770-948e-944f675a4a4c","{""part"":""2"",""participantId"":""C083122313ED412FA4EB27591D1A7887"",""assignmentId"":""5724778a-e1ce-441e-a85c-c9e79665f030"",""projectId"":""3ce68dc4-89da-4770-948e-944f675a4a4c""}","https://test12345.live/?part=2&participantId=C083122313ED412FA4EB27591D1A7887&assignmentId=5724778a-e1ce-441e-a85c-c9e79665f030&projectId=3ce68dc4-89da-4770-948e-944f675a4a4c","C083122313ED412FA4EB27591D1A7887-2025-05-28-15-53-05","","null","","images/semantic_sequence/creative_activities_semantic/creative_activities_semantic_0.png","null","",""
"","","","","","html-audio-response","59","1019318","0.0-57.0","C083122313ED412FA4EB27591D1A7887","C083122313ED412FA4EB27591D1A7887","5724778a-e1ce-441e-a85c-c9e79665f030","3ce68dc4-89da-4770-948e-944f675a4a4c","{""part"":""2"",""participantId"":""C083122313ED412FA4EB27591D1A7887"",""assignmentId"":""5724778a-e1ce-441e-a85c-c9e79665f030"",""projectId"":""3ce68dc4-89da-4770-948e-944f675a4a4c""}","https://test12345.live/?part=2&participantId=C083122313ED412FA4EB27591D1A7887&assignmentId=5724778a-e1ce-441e-a85c-c9e79665f030&projectId=3ce68dc4-89da-4770-948e-944f675a4a4c","C083122313ED412FA4EB27591D1A7887-2025-05-28-15-53-05","","14475","","[""<span style=\""color: red; font-size: 24px\""> NOW RECORDING</span><p>Please say out loud all the images you saw in part 1 of the experiment, in the exact order you saw them. Try to recall as many images as you can, but remember: getting the order right is more important than the number of images you recall. </p>""]","","6","creative_activities_semantic"
"","","","","","survey-text","60","1027590","0.0-58.0","C083122313ED412FA4EB27591D1A7887","C083122313ED412FA4EB27591D1A7887","5724778a-e1ce-441e-a85c-c9e79665f030","3ce68dc4-89da-4770-948e-944f675a4a4c","{""part"":""2"",""participantId"":""C083122313ED412FA4EB27591D1A7887"",""assignmentId"":""5724778a-e1ce-441e-a85c-c9e79665f030"",""projectId"":""3ce68dc4-89da-4770-948e-944f675a4a4c""}","https://test12345.live/?part=2&participantId=C083122313ED412FA4EB27591D1A7887&assignmentId=5724778a-e1ce-441e-a85c-c9e79665f030&projectId=3ce68dc4-89da-4770-948e-944f675a4a4c","C083122313ED412FA4EB27591D1A7887-2025-05-28-15-53-05","","8259","","","{""Q0"":""MALE"",""Q1"":""22""}","",""
"","","","","","instructions","61","1034202","0.0-59.0","C083122313ED412FA4EB27591D1A7887","C083122313ED412FA4EB27591D1A7887","5724778a-e1ce-441e-a85c-c9e79665f030","3ce68dc4-89da-4770-948e-944f675a4a4c","{""part"":""2"",""participantId"":""C083122313ED412FA4EB27591D1A7887"",""assignmentId"":""5724778a-e1ce-441e-a85c-c9e79665f030"",""projectId"":""3ce68dc4-89da-4770-948e-944f675a4a4c""}","https://test12345.live/?part=2&participantId=C083122313ED412FA4EB27591D1A7887&assignmentId=5724778a-e1ce-441e-a85c-c9e79665f030&projectId=3ce68dc4-89da-4770-948e-944f675a4a4c","C083122313ED412FA4EB27591D1A7887-2025-05-28-15-53-05","[{""page_index"":0,""viewing_time"":6610}]","6610","","","","",""
"","","","","","survey-text","62","1038490","0.0-60.0","C083122313ED412FA4EB27591D1A7887","C083122313ED412FA4EB27591D1A7887","5724778a-e1ce-441e-a85c-c9e79665f030","3ce68dc4-89da-4770-948e-944f675a4a4c","{""part"":""2"",""participantId"":""C083122313ED412FA4EB27591D1A7887"",""assignmentId"":""5724778a-e1ce-441e-a85c-c9e79665f030"",""projectId"":""3ce68dc4-89da-4770-948e-944f675a4a4c""}","https://test12345.live/?part=2&participantId=C083122313ED412FA4EB27591D1A7887&assignmentId=5724778a-e1ce-441e-a85c-c9e79665f030&projectId=3ce68dc4-89da-4770-948e-944f675a4a4c","C083122313ED412FA4EB27591D1A7887-2025-05-28-15-53-05","","4277","","","{""Q0"":""AJFHBG896""}","",""
