"success","timeout","failed_images","failed_audio","failed_video","trial_type","trial_index","time_elapsed","internal_node_id","subject","subject_id","study_id","session_id","urlvar","current_url","audio_id","view_history","rt","device_id","stimulus","response","estimated_stimulus_onset","seq_name"
"true","false","[]","[]","[]","preload","0","3811","0.0-0.0","C2201E74145C4EDE80DB10155B4E631C","C2201E74145C4EDE80DB10155B4E631C","0198c328-1613-71a5-91d1-7632fc5a2f07","0198c320-653a-770c-93e4-41e10e7faa5f","{""num_scrambled_semantic"":""8"",""num_scrambled_causal"":""4"",""num_scrambled_schematic"":""4"",""participantId"":""C2201E74145C4EDE80DB10155B4E631C"",""assignmentId"":""0198c328-1613-71a5-91d1-7632fc5a2f07"",""projectId"":""0198c320-653a-770c-93e4-41e10e7faa5f""}","https://test12345.live/?num_scrambled_semantic=8&num_scrambled_causal=4&num_scrambled_schematic=4&participantId=C2201E74145C4EDE80DB10155B4E631C&assignmentId=0198c328-1613-71a5-91d1-7632fc5a2f07&projectId=0198c320-653a-770c-93e4-41e10e7faa5f","C2201E74145C4EDE80DB10155B4E631C-2025-08-19-16-32-51","","","","","","",""
"","","","","","instructions","1","15646","0.0-1.0","C2201E74145C4EDE80DB10155B4E631C","C2201E74145C4EDE80DB10155B4E631C","0198c328-1613-71a5-91d1-7632fc5a2f07","0198c320-653a-770c-93e4-41e10e7faa5f","{""num_scrambled_semantic"":""8"",""num_scrambled_causal"":""4"",""num_scrambled_schematic"":""4"",""participantId"":""C2201E74145C4EDE80DB10155B4E631C"",""assignmentId"":""0198c328-1613-71a5-91d1-7632fc5a2f07"",""projectId"":""0198c320-653a-770c-93e4-41e10e7faa5f""}","https://test12345.live/?num_scrambled_semantic=8&num_scrambled_causal=4&num_scrambled_schematic=4&participantId=C2201E74145C4EDE80DB10155B4E631C&assignmentId=0198c328-1613-71a5-91d1-7632fc5a2f07&projectId=0198c320-653a-770c-93e4-41e10e7faa5f","C2201E74145C4EDE80DB10155B4E631C-2025-08-19-16-32-51","[{""page_index"":0,""viewing_time"":11835}]","11835","","","","",""
"","","","","","instructions","2","18613","0.0-2.0","C2201E74145C4EDE80DB10155B4E631C","C2201E74145C4EDE80DB10155B4E631C","0198c328-1613-71a5-91d1-7632fc5a2f07","0198c320-653a-770c-93e4-41e10e7faa5f","{""num_scrambled_semantic"":""8"",""num_scrambled_causal"":""4"",""num_scrambled_schematic"":""4"",""participantId"":""C2201E74145C4EDE80DB10155B4E631C"",""assignmentId"":""0198c328-1613-71a5-91d1-7632fc5a2f07"",""projectId"":""0198c320-653a-770c-93e4-41e10e7faa5f""}","https://test12345.live/?num_scrambled_semantic=8&num_scrambled_causal=4&num_scrambled_schematic=4&participantId=C2201E74145C4EDE80DB10155B4E631C&assignmentId=0198c328-1613-71a5-91d1-7632fc5a2f07&projectId=0198c320-653a-770c-93e4-41e10e7faa5f","C2201E74145C4EDE80DB10155B4E631C-2025-08-19-16-32-51","[{""page_index"":0,""viewing_time"":2965}]","2965","","","","",""
"true","","","","","fullscreen","3","20948","0.0-3.0","C2201E74145C4EDE80DB10155B4E631C","C2201E74145C4EDE80DB10155B4E631C","0198c328-1613-71a5-91d1-7632fc5a2f07","0198c320-653a-770c-93e4-41e10e7faa5f","{""num_scrambled_semantic"":""8"",""num_scrambled_causal"":""4"",""num_scrambled_schematic"":""4"",""participantId"":""C2201E74145C4EDE80DB10155B4E631C"",""assignmentId"":""0198c328-1613-71a5-91d1-7632fc5a2f07"",""projectId"":""0198c320-653a-770c-93e4-41e10e7faa5f""}","https://test12345.live/?num_scrambled_semantic=8&num_scrambled_causal=4&num_scrambled_schematic=4&participantId=C2201E74145C4EDE80DB10155B4E631C&assignmentId=0198c328-1613-71a5-91d1-7632fc5a2f07&projectId=0198c320-653a-770c-93e4-41e10e7faa5f","C2201E74145C4EDE80DB10155B4E631C-2025-08-19-16-32-51","","1326","","","","",""
"","","","","","initialize-microphone","4","23452","0.0-4.0-0.0","C2201E74145C4EDE80DB10155B4E631C","C2201E74145C4EDE80DB10155B4E631C","0198c328-1613-71a5-91d1-7632fc5a2f07","0198c320-653a-770c-93e4-41e10e7faa5f","{""num_scrambled_semantic"":""8"",""num_scrambled_causal"":""4"",""num_scrambled_schematic"":""4"",""participantId"":""C2201E74145C4EDE80DB10155B4E631C"",""assignmentId"":""0198c328-1613-71a5-91d1-7632fc5a2f07"",""projectId"":""0198c320-653a-770c-93e4-41e10e7faa5f""}","https://test12345.live/?num_scrambled_semantic=8&num_scrambled_causal=4&num_scrambled_schematic=4&participantId=C2201E74145C4EDE80DB10155B4E631C&assignmentId=0198c328-1613-71a5-91d1-7632fc5a2f07&projectId=0198c320-653a-770c-93e4-41e10e7faa5f","C2201E74145C4EDE80DB10155B4E631C-2025-08-19-16-32-51","","","76090a2be8246eab652fcb747c35e708640d87f550335106f8701f14fb86b971","","","",""
"","","","","","html-audio-response","5","27163","0.0-4.0-1.0","C2201E74145C4EDE80DB10155B4E631C","C2201E74145C4EDE80DB10155B4E631C","0198c328-1613-71a5-91d1-7632fc5a2f07","0198c320-653a-770c-93e4-41e10e7faa5f","{""num_scrambled_semantic"":""8"",""num_scrambled_causal"":""4"",""num_scrambled_schematic"":""4"",""participantId"":""C2201E74145C4EDE80DB10155B4E631C"",""assignmentId"":""0198c328-1613-71a5-91d1-7632fc5a2f07"",""projectId"":""0198c320-653a-770c-93e4-41e10e7faa5f""}","https://test12345.live/?num_scrambled_semantic=8&num_scrambled_causal=4&num_scrambled_schematic=4&participantId=C2201E74145C4EDE80DB10155B4E631C&assignmentId=0198c328-1613-71a5-91d1-7632fc5a2f07&projectId=0198c320-653a-770c-93e4-41e10e7faa5f","C2201E74145C4EDE80DB10155B4E631C-2025-08-19-16-32-51","","2703","","<span style=""color: red; font-size: 24px""> NOW RECORDING</span>
        <p>Please test Microphone</p>","","1",""
"","","","","","html-button-response","6","28614","0.0-4.0-2.0","C2201E74145C4EDE80DB10155B4E631C","C2201E74145C4EDE80DB10155B4E631C","0198c328-1613-71a5-91d1-7632fc5a2f07","0198c320-653a-770c-93e4-41e10e7faa5f","{""num_scrambled_semantic"":""8"",""num_scrambled_causal"":""4"",""num_scrambled_schematic"":""4"",""participantId"":""C2201E74145C4EDE80DB10155B4E631C"",""assignmentId"":""0198c328-1613-71a5-91d1-7632fc5a2f07"",""projectId"":""0198c320-653a-770c-93e4-41e10e7faa5f""}","https://test12345.live/?num_scrambled_semantic=8&num_scrambled_causal=4&num_scrambled_schematic=4&participantId=C2201E74145C4EDE80DB10155B4E631C&assignmentId=0198c328-1613-71a5-91d1-7632fc5a2f07&projectId=0198c320-653a-770c-93e4-41e10e7faa5f","C2201E74145C4EDE80DB10155B4E631C-2025-08-19-16-32-51","","1448","","<p style=""font-size:48px; color:red;"">Is Microphone OK?</p>","1","",""
"","","","","","instructions","7","59979","0.0-5.0","C2201E74145C4EDE80DB10155B4E631C","C2201E74145C4EDE80DB10155B4E631C","0198c328-1613-71a5-91d1-7632fc5a2f07","0198c320-653a-770c-93e4-41e10e7faa5f","{""num_scrambled_semantic"":""8"",""num_scrambled_causal"":""4"",""num_scrambled_schematic"":""4"",""participantId"":""C2201E74145C4EDE80DB10155B4E631C"",""assignmentId"":""0198c328-1613-71a5-91d1-7632fc5a2f07"",""projectId"":""0198c320-653a-770c-93e4-41e10e7faa5f""}","https://test12345.live/?num_scrambled_semantic=8&num_scrambled_causal=4&num_scrambled_schematic=4&participantId=C2201E74145C4EDE80DB10155B4E631C&assignmentId=0198c328-1613-71a5-91d1-7632fc5a2f07&projectId=0198c320-653a-770c-93e4-41e10e7faa5f","C2201E74145C4EDE80DB10155B4E631C-2025-08-19-16-32-51","[{""page_index"":0,""viewing_time"":13564},{""page_index"":1,""viewing_time"":9367},{""page_index"":2,""viewing_time"":8433}]","31365","","","","",""
"","","","","","image-button-response","8","65988","0.0-6.0-0.0","C2201E74145C4EDE80DB10155B4E631C","C2201E74145C4EDE80DB10155B4E631C","0198c328-1613-71a5-91d1-7632fc5a2f07","0198c320-653a-770c-93e4-41e10e7faa5f","{""num_scrambled_semantic"":""8"",""num_scrambled_causal"":""4"",""num_scrambled_schematic"":""4"",""participantId"":""C2201E74145C4EDE80DB10155B4E631C"",""assignmentId"":""0198c328-1613-71a5-91d1-7632fc5a2f07"",""projectId"":""0198c320-653a-770c-93e4-41e10e7faa5f""}","https://test12345.live/?num_scrambled_semantic=8&num_scrambled_causal=4&num_scrambled_schematic=4&participantId=C2201E74145C4EDE80DB10155B4E631C&assignmentId=0198c328-1613-71a5-91d1-7632fc5a2f07&projectId=0198c320-653a-770c-93e4-41e10e7faa5f","C2201E74145C4EDE80DB10155B4E631C-2025-08-19-16-32-51","","null","","images/instructions/movie_0.png","null","",""
"","","","","","html-audio-response","9","75662","0.0-7.0","C2201E74145C4EDE80DB10155B4E631C","C2201E74145C4EDE80DB10155B4E631C","0198c328-1613-71a5-91d1-7632fc5a2f07","0198c320-653a-770c-93e4-41e10e7faa5f","{""num_scrambled_semantic"":""8"",""num_scrambled_causal"":""4"",""num_scrambled_schematic"":""4"",""participantId"":""C2201E74145C4EDE80DB10155B4E631C"",""assignmentId"":""0198c328-1613-71a5-91d1-7632fc5a2f07"",""projectId"":""0198c320-653a-770c-93e4-41e10e7faa5f""}","https://test12345.live/?num_scrambled_semantic=8&num_scrambled_causal=4&num_scrambled_schematic=4&participantId=C2201E74145C4EDE80DB10155B4E631C&assignmentId=0198c328-1613-71a5-91d1-7632fc5a2f07&projectId=0198c320-653a-770c-93e4-41e10e7faa5f","C2201E74145C4EDE80DB10155B4E631C-2025-08-19-16-32-51","","8563","","[""<span style=\""color: red; font-size: 24px\""> NOW RECORDING</span><p>Please say out loud all the images you saw in part 1 of the experiment, as many as you can remember. The images can be said in any order.</p>""]","","2",""
"","","","","","instructions","10","78012","0.0-8.0","C2201E74145C4EDE80DB10155B4E631C","C2201E74145C4EDE80DB10155B4E631C","0198c328-1613-71a5-91d1-7632fc5a2f07","0198c320-653a-770c-93e4-41e10e7faa5f","{""num_scrambled_semantic"":""8"",""num_scrambled_causal"":""4"",""num_scrambled_schematic"":""4"",""participantId"":""C2201E74145C4EDE80DB10155B4E631C"",""assignmentId"":""0198c328-1613-71a5-91d1-7632fc5a2f07"",""projectId"":""0198c320-653a-770c-93e4-41e10e7faa5f""}","https://test12345.live/?num_scrambled_semantic=8&num_scrambled_causal=4&num_scrambled_schematic=4&participantId=C2201E74145C4EDE80DB10155B4E631C&assignmentId=0198c328-1613-71a5-91d1-7632fc5a2f07&projectId=0198c320-653a-770c-93e4-41e10e7faa5f","C2201E74145C4EDE80DB10155B4E631C-2025-08-19-16-32-51","[{""page_index"":0,""viewing_time"":2346}]","2346","","","","",""
"","","","","","image-button-response","11","84018","0.0-9.0-0.0","C2201E74145C4EDE80DB10155B4E631C","C2201E74145C4EDE80DB10155B4E631C","0198c328-1613-71a5-91d1-7632fc5a2f07","0198c320-653a-770c-93e4-41e10e7faa5f","{""num_scrambled_semantic"":""8"",""num_scrambled_causal"":""4"",""num_scrambled_schematic"":""4"",""participantId"":""C2201E74145C4EDE80DB10155B4E631C"",""assignmentId"":""0198c328-1613-71a5-91d1-7632fc5a2f07"",""projectId"":""0198c320-653a-770c-93e4-41e10e7faa5f""}","https://test12345.live/?num_scrambled_semantic=8&num_scrambled_causal=4&num_scrambled_schematic=4&participantId=C2201E74145C4EDE80DB10155B4E631C&assignmentId=0198c328-1613-71a5-91d1-7632fc5a2f07&projectId=0198c320-653a-770c-93e4-41e10e7faa5f","C2201E74145C4EDE80DB10155B4E631C-2025-08-19-16-32-51","","null","","images/causal_sequence/saving_a_cat_causal/saving_a_cat_causal_0.png","null","",""
"","","","","","html-audio-response","12","91279","0.0-10.0","C2201E74145C4EDE80DB10155B4E631C","C2201E74145C4EDE80DB10155B4E631C","0198c328-1613-71a5-91d1-7632fc5a2f07","0198c320-653a-770c-93e4-41e10e7faa5f","{""num_scrambled_semantic"":""8"",""num_scrambled_causal"":""4"",""num_scrambled_schematic"":""4"",""participantId"":""C2201E74145C4EDE80DB10155B4E631C"",""assignmentId"":""0198c328-1613-71a5-91d1-7632fc5a2f07"",""projectId"":""0198c320-653a-770c-93e4-41e10e7faa5f""}","https://test12345.live/?num_scrambled_semantic=8&num_scrambled_causal=4&num_scrambled_schematic=4&participantId=C2201E74145C4EDE80DB10155B4E631C&assignmentId=0198c328-1613-71a5-91d1-7632fc5a2f07&projectId=0198c320-653a-770c-93e4-41e10e7faa5f","C2201E74145C4EDE80DB10155B4E631C-2025-08-19-16-32-51","","6266","","[""<span style=\""color: red; font-size: 24px\""> NOW RECORDING</span><p>Please say out loud all the images you saw in part 1 of the experiment, as many as you can remember. The images can be said in any order.</p>""]","","2","saving_a_cat_causal"
"","","","","","image-button-response","13","97289","0.0-11.0-0.0","C2201E74145C4EDE80DB10155B4E631C","C2201E74145C4EDE80DB10155B4E631C","0198c328-1613-71a5-91d1-7632fc5a2f07","0198c320-653a-770c-93e4-41e10e7faa5f","{""num_scrambled_semantic"":""8"",""num_scrambled_causal"":""4"",""num_scrambled_schematic"":""4"",""participantId"":""C2201E74145C4EDE80DB10155B4E631C"",""assignmentId"":""0198c328-1613-71a5-91d1-7632fc5a2f07"",""projectId"":""0198c320-653a-770c-93e4-41e10e7faa5f""}","https://test12345.live/?num_scrambled_semantic=8&num_scrambled_causal=4&num_scrambled_schematic=4&participantId=C2201E74145C4EDE80DB10155B4E631C&assignmentId=0198c328-1613-71a5-91d1-7632fc5a2f07&projectId=0198c320-653a-770c-93e4-41e10e7faa5f","C2201E74145C4EDE80DB10155B4E631C-2025-08-19-16-32-51","","null","","images/causal_sequence/museum_causal/museum_causal_0.png","null","",""
"","","","","","html-audio-response","14","119781","0.0-12.0","C2201E74145C4EDE80DB10155B4E631C","C2201E74145C4EDE80DB10155B4E631C","0198c328-1613-71a5-91d1-7632fc5a2f07","0198c320-653a-770c-93e4-41e10e7faa5f","{""num_scrambled_semantic"":""8"",""num_scrambled_causal"":""4"",""num_scrambled_schematic"":""4"",""participantId"":""C2201E74145C4EDE80DB10155B4E631C"",""assignmentId"":""0198c328-1613-71a5-91d1-7632fc5a2f07"",""projectId"":""0198c320-653a-770c-93e4-41e10e7faa5f""}","https://test12345.live/?num_scrambled_semantic=8&num_scrambled_causal=4&num_scrambled_schematic=4&participantId=C2201E74145C4EDE80DB10155B4E631C&assignmentId=0198c328-1613-71a5-91d1-7632fc5a2f07&projectId=0198c320-653a-770c-93e4-41e10e7faa5f","C2201E74145C4EDE80DB10155B4E631C-2025-08-19-16-32-51","","21746","","[""<span style=\""color: red; font-size: 24px\""> NOW RECORDING</span><p>Please say out loud all the images you saw in part 1 of the experiment, as many as you can remember. The images can be said in any order.</p>""]","","3","museum_causal"
"","","","","","image-button-response","15","125788","0.0-13.0-0.0","C2201E74145C4EDE80DB10155B4E631C","C2201E74145C4EDE80DB10155B4E631C","0198c328-1613-71a5-91d1-7632fc5a2f07","0198c320-653a-770c-93e4-41e10e7faa5f","{""num_scrambled_semantic"":""8"",""num_scrambled_causal"":""4"",""num_scrambled_schematic"":""4"",""participantId"":""C2201E74145C4EDE80DB10155B4E631C"",""assignmentId"":""0198c328-1613-71a5-91d1-7632fc5a2f07"",""projectId"":""0198c320-653a-770c-93e4-41e10e7faa5f""}","https://test12345.live/?num_scrambled_semantic=8&num_scrambled_causal=4&num_scrambled_schematic=4&participantId=C2201E74145C4EDE80DB10155B4E631C&assignmentId=0198c328-1613-71a5-91d1-7632fc5a2f07&projectId=0198c320-653a-770c-93e4-41e10e7faa5f","C2201E74145C4EDE80DB10155B4E631C-2025-08-19-16-32-51","","null","","images/semantic_sequence/housework_semantic/housework_semantic_0.png","null","",""
"","","","","","html-audio-response","16","141230","0.0-14.0","C2201E74145C4EDE80DB10155B4E631C","C2201E74145C4EDE80DB10155B4E631C","0198c328-1613-71a5-91d1-7632fc5a2f07","0198c320-653a-770c-93e4-41e10e7faa5f","{""num_scrambled_semantic"":""8"",""num_scrambled_causal"":""4"",""num_scrambled_schematic"":""4"",""participantId"":""C2201E74145C4EDE80DB10155B4E631C"",""assignmentId"":""0198c328-1613-71a5-91d1-7632fc5a2f07"",""projectId"":""0198c320-653a-770c-93e4-41e10e7faa5f""}","https://test12345.live/?num_scrambled_semantic=8&num_scrambled_causal=4&num_scrambled_schematic=4&participantId=C2201E74145C4EDE80DB10155B4E631C&assignmentId=0198c328-1613-71a5-91d1-7632fc5a2f07&projectId=0198c320-653a-770c-93e4-41e10e7faa5f","C2201E74145C4EDE80DB10155B4E631C-2025-08-19-16-32-51","","14731","","[""<span style=\""color: red; font-size: 24px\""> NOW RECORDING</span><p>Please say out loud all the images you saw in part 1 of the experiment, as many as you can remember. The images can be said in any order.</p>""]","","2","housework_semantic"
"","","","","","image-button-response","17","147237","0.0-15.0-0.0","C2201E74145C4EDE80DB10155B4E631C","C2201E74145C4EDE80DB10155B4E631C","0198c328-1613-71a5-91d1-7632fc5a2f07","0198c320-653a-770c-93e4-41e10e7faa5f","{""num_scrambled_semantic"":""8"",""num_scrambled_causal"":""4"",""num_scrambled_schematic"":""4"",""participantId"":""C2201E74145C4EDE80DB10155B4E631C"",""assignmentId"":""0198c328-1613-71a5-91d1-7632fc5a2f07"",""projectId"":""0198c320-653a-770c-93e4-41e10e7faa5f""}","https://test12345.live/?num_scrambled_semantic=8&num_scrambled_causal=4&num_scrambled_schematic=4&participantId=C2201E74145C4EDE80DB10155B4E631C&assignmentId=0198c328-1613-71a5-91d1-7632fc5a2f07&projectId=0198c320-653a-770c-93e4-41e10e7faa5f","C2201E74145C4EDE80DB10155B4E631C-2025-08-19-16-32-51","","null","","images/semantic_sequence/redecorating_semantic/redecorating_semantic_0.png","null","",""
"","","","","","html-audio-response","18","157250","0.0-16.0","C2201E74145C4EDE80DB10155B4E631C","C2201E74145C4EDE80DB10155B4E631C","0198c328-1613-71a5-91d1-7632fc5a2f07","0198c320-653a-770c-93e4-41e10e7faa5f","{""num_scrambled_semantic"":""8"",""num_scrambled_causal"":""4"",""num_scrambled_schematic"":""4"",""participantId"":""C2201E74145C4EDE80DB10155B4E631C"",""assignmentId"":""0198c328-1613-71a5-91d1-7632fc5a2f07"",""projectId"":""0198c320-653a-770c-93e4-41e10e7faa5f""}","https://test12345.live/?num_scrambled_semantic=8&num_scrambled_causal=4&num_scrambled_schematic=4&participantId=C2201E74145C4EDE80DB10155B4E631C&assignmentId=0198c328-1613-71a5-91d1-7632fc5a2f07&projectId=0198c320-653a-770c-93e4-41e10e7faa5f","C2201E74145C4EDE80DB10155B4E631C-2025-08-19-16-32-51","","9282","","[""<span style=\""color: red; font-size: 24px\""> NOW RECORDING</span><p>Please say out loud all the images you saw in part 1 of the experiment, as many as you can remember. The images can be said in any order.</p>""]","","2","redecorating_semantic"
"","","","","","image-button-response","19","163254","0.0-17.0-0.0","C2201E74145C4EDE80DB10155B4E631C","C2201E74145C4EDE80DB10155B4E631C","0198c328-1613-71a5-91d1-7632fc5a2f07","0198c320-653a-770c-93e4-41e10e7faa5f","{""num_scrambled_semantic"":""8"",""num_scrambled_causal"":""4"",""num_scrambled_schematic"":""4"",""participantId"":""C2201E74145C4EDE80DB10155B4E631C"",""assignmentId"":""0198c328-1613-71a5-91d1-7632fc5a2f07"",""projectId"":""0198c320-653a-770c-93e4-41e10e7faa5f""}","https://test12345.live/?num_scrambled_semantic=8&num_scrambled_causal=4&num_scrambled_schematic=4&participantId=C2201E74145C4EDE80DB10155B4E631C&assignmentId=0198c328-1613-71a5-91d1-7632fc5a2f07&projectId=0198c320-653a-770c-93e4-41e10e7faa5f","C2201E74145C4EDE80DB10155B4E631C-2025-08-19-16-32-51","","null","","images/semantic_sequence/cat_care_semantic/cat_care_semantic_0.png","null","",""
"","","","","","html-audio-response","20","174132","0.0-18.0","C2201E74145C4EDE80DB10155B4E631C","C2201E74145C4EDE80DB10155B4E631C","0198c328-1613-71a5-91d1-7632fc5a2f07","0198c320-653a-770c-93e4-41e10e7faa5f","{""num_scrambled_semantic"":""8"",""num_scrambled_causal"":""4"",""num_scrambled_schematic"":""4"",""participantId"":""C2201E74145C4EDE80DB10155B4E631C"",""assignmentId"":""0198c328-1613-71a5-91d1-7632fc5a2f07"",""projectId"":""0198c320-653a-770c-93e4-41e10e7faa5f""}","https://test12345.live/?num_scrambled_semantic=8&num_scrambled_causal=4&num_scrambled_schematic=4&participantId=C2201E74145C4EDE80DB10155B4E631C&assignmentId=0198c328-1613-71a5-91d1-7632fc5a2f07&projectId=0198c320-653a-770c-93e4-41e10e7faa5f","C2201E74145C4EDE80DB10155B4E631C-2025-08-19-16-32-51","","9962","","[""<span style=\""color: red; font-size: 24px\""> NOW RECORDING</span><p>Please say out loud all the images you saw in part 1 of the experiment, as many as you can remember. The images can be said in any order.</p>""]","","2","cat_care_semantic"
"","","","","","image-button-response","21","180139","0.0-19.0-0.0","C2201E74145C4EDE80DB10155B4E631C","C2201E74145C4EDE80DB10155B4E631C","0198c328-1613-71a5-91d1-7632fc5a2f07","0198c320-653a-770c-93e4-41e10e7faa5f","{""num_scrambled_semantic"":""8"",""num_scrambled_causal"":""4"",""num_scrambled_schematic"":""4"",""participantId"":""C2201E74145C4EDE80DB10155B4E631C"",""assignmentId"":""0198c328-1613-71a5-91d1-7632fc5a2f07"",""projectId"":""0198c320-653a-770c-93e4-41e10e7faa5f""}","https://test12345.live/?num_scrambled_semantic=8&num_scrambled_causal=4&num_scrambled_schematic=4&participantId=C2201E74145C4EDE80DB10155B4E631C&assignmentId=0198c328-1613-71a5-91d1-7632fc5a2f07&projectId=0198c320-653a-770c-93e4-41e10e7faa5f","C2201E74145C4EDE80DB10155B4E631C-2025-08-19-16-32-51","","null","","images/semantic_sequence/physical_activity_semantic/physical_activity_semantic_0.png","null","",""
"","","","","","html-audio-response","22","196481","0.0-20.0","C2201E74145C4EDE80DB10155B4E631C","C2201E74145C4EDE80DB10155B4E631C","0198c328-1613-71a5-91d1-7632fc5a2f07","0198c320-653a-770c-93e4-41e10e7faa5f","{""num_scrambled_semantic"":""8"",""num_scrambled_causal"":""4"",""num_scrambled_schematic"":""4"",""participantId"":""C2201E74145C4EDE80DB10155B4E631C"",""assignmentId"":""0198c328-1613-71a5-91d1-7632fc5a2f07"",""projectId"":""0198c320-653a-770c-93e4-41e10e7faa5f""}","https://test12345.live/?num_scrambled_semantic=8&num_scrambled_causal=4&num_scrambled_schematic=4&participantId=C2201E74145C4EDE80DB10155B4E631C&assignmentId=0198c328-1613-71a5-91d1-7632fc5a2f07&projectId=0198c320-653a-770c-93e4-41e10e7faa5f","C2201E74145C4EDE80DB10155B4E631C-2025-08-19-16-32-51","","15068","","[""<span style=\""color: red; font-size: 24px\""> NOW RECORDING</span><p>Please say out loud all the images you saw in part 1 of the experiment, as many as you can remember. The images can be said in any order.</p>""]","","1","physical_activity_semantic"
"","","","","","image-button-response","23","202491","0.0-21.0-0.0","C2201E74145C4EDE80DB10155B4E631C","C2201E74145C4EDE80DB10155B4E631C","0198c328-1613-71a5-91d1-7632fc5a2f07","0198c320-653a-770c-93e4-41e10e7faa5f","{""num_scrambled_semantic"":""8"",""num_scrambled_causal"":""4"",""num_scrambled_schematic"":""4"",""participantId"":""C2201E74145C4EDE80DB10155B4E631C"",""assignmentId"":""0198c328-1613-71a5-91d1-7632fc5a2f07"",""projectId"":""0198c320-653a-770c-93e4-41e10e7faa5f""}","https://test12345.live/?num_scrambled_semantic=8&num_scrambled_causal=4&num_scrambled_schematic=4&participantId=C2201E74145C4EDE80DB10155B4E631C&assignmentId=0198c328-1613-71a5-91d1-7632fc5a2f07&projectId=0198c320-653a-770c-93e4-41e10e7faa5f","C2201E74145C4EDE80DB10155B4E631C-2025-08-19-16-32-51","","null","","images/causal_sequence/the_performance_causal/the_performance_causal_0.png","null","",""
"","","","","","html-audio-response","24","219148","0.0-22.0","C2201E74145C4EDE80DB10155B4E631C","C2201E74145C4EDE80DB10155B4E631C","0198c328-1613-71a5-91d1-7632fc5a2f07","0198c320-653a-770c-93e4-41e10e7faa5f","{""num_scrambled_semantic"":""8"",""num_scrambled_causal"":""4"",""num_scrambled_schematic"":""4"",""participantId"":""C2201E74145C4EDE80DB10155B4E631C"",""assignmentId"":""0198c328-1613-71a5-91d1-7632fc5a2f07"",""projectId"":""0198c320-653a-770c-93e4-41e10e7faa5f""}","https://test12345.live/?num_scrambled_semantic=8&num_scrambled_causal=4&num_scrambled_schematic=4&participantId=C2201E74145C4EDE80DB10155B4E631C&assignmentId=0198c328-1613-71a5-91d1-7632fc5a2f07&projectId=0198c320-653a-770c-93e4-41e10e7faa5f","C2201E74145C4EDE80DB10155B4E631C-2025-08-19-16-32-51","","15830","","[""<span style=\""color: red; font-size: 24px\""> NOW RECORDING</span><p>Please say out loud all the images you saw in part 1 of the experiment, as many as you can remember. The images can be said in any order.</p>""]","","6","the_performance_causal"
"","","","","","image-button-response","25","225159","0.0-23.0-0.0","C2201E74145C4EDE80DB10155B4E631C","C2201E74145C4EDE80DB10155B4E631C","0198c328-1613-71a5-91d1-7632fc5a2f07","0198c320-653a-770c-93e4-41e10e7faa5f","{""num_scrambled_semantic"":""8"",""num_scrambled_causal"":""4"",""num_scrambled_schematic"":""4"",""participantId"":""C2201E74145C4EDE80DB10155B4E631C"",""assignmentId"":""0198c328-1613-71a5-91d1-7632fc5a2f07"",""projectId"":""0198c320-653a-770c-93e4-41e10e7faa5f""}","https://test12345.live/?num_scrambled_semantic=8&num_scrambled_causal=4&num_scrambled_schematic=4&participantId=C2201E74145C4EDE80DB10155B4E631C&assignmentId=0198c328-1613-71a5-91d1-7632fc5a2f07&projectId=0198c320-653a-770c-93e4-41e10e7faa5f","C2201E74145C4EDE80DB10155B4E631C-2025-08-19-16-32-51","","null","","images/causal_sequence/package_causal/package_causal_0.png","null","",""
"","","","","","html-audio-response","26","238716","0.0-24.0","C2201E74145C4EDE80DB10155B4E631C","C2201E74145C4EDE80DB10155B4E631C","0198c328-1613-71a5-91d1-7632fc5a2f07","0198c320-653a-770c-93e4-41e10e7faa5f","{""num_scrambled_semantic"":""8"",""num_scrambled_causal"":""4"",""num_scrambled_schematic"":""4"",""participantId"":""C2201E74145C4EDE80DB10155B4E631C"",""assignmentId"":""0198c328-1613-71a5-91d1-7632fc5a2f07"",""projectId"":""0198c320-653a-770c-93e4-41e10e7faa5f""}","https://test12345.live/?num_scrambled_semantic=8&num_scrambled_causal=4&num_scrambled_schematic=4&participantId=C2201E74145C4EDE80DB10155B4E631C&assignmentId=0198c328-1613-71a5-91d1-7632fc5a2f07&projectId=0198c320-653a-770c-93e4-41e10e7faa5f","C2201E74145C4EDE80DB10155B4E631C-2025-08-19-16-32-51","","12763","","[""<span style=\""color: red; font-size: 24px\""> NOW RECORDING</span><p>Please say out loud all the images you saw in part 1 of the experiment, as many as you can remember. The images can be said in any order.</p>""]","","3","package_causal"
"","","","","","image-button-response","27","244724","0.0-25.0-0.0","C2201E74145C4EDE80DB10155B4E631C","C2201E74145C4EDE80DB10155B4E631C","0198c328-1613-71a5-91d1-7632fc5a2f07","0198c320-653a-770c-93e4-41e10e7faa5f","{""num_scrambled_semantic"":""8"",""num_scrambled_causal"":""4"",""num_scrambled_schematic"":""4"",""participantId"":""C2201E74145C4EDE80DB10155B4E631C"",""assignmentId"":""0198c328-1613-71a5-91d1-7632fc5a2f07"",""projectId"":""0198c320-653a-770c-93e4-41e10e7faa5f""}","https://test12345.live/?num_scrambled_semantic=8&num_scrambled_causal=4&num_scrambled_schematic=4&participantId=C2201E74145C4EDE80DB10155B4E631C&assignmentId=0198c328-1613-71a5-91d1-7632fc5a2f07&projectId=0198c320-653a-770c-93e4-41e10e7faa5f","C2201E74145C4EDE80DB10155B4E631C-2025-08-19-16-32-51","","null","","images/causal_sequence/coin_causal/coin_causal_0.png","null","",""
"","","","","","html-audio-response","28","262682","0.0-26.0","C2201E74145C4EDE80DB10155B4E631C","C2201E74145C4EDE80DB10155B4E631C","0198c328-1613-71a5-91d1-7632fc5a2f07","0198c320-653a-770c-93e4-41e10e7faa5f","{""num_scrambled_semantic"":""8"",""num_scrambled_causal"":""4"",""num_scrambled_schematic"":""4"",""participantId"":""C2201E74145C4EDE80DB10155B4E631C"",""assignmentId"":""0198c328-1613-71a5-91d1-7632fc5a2f07"",""projectId"":""0198c320-653a-770c-93e4-41e10e7faa5f""}","https://test12345.live/?num_scrambled_semantic=8&num_scrambled_causal=4&num_scrambled_schematic=4&participantId=C2201E74145C4EDE80DB10155B4E631C&assignmentId=0198c328-1613-71a5-91d1-7632fc5a2f07&projectId=0198c320-653a-770c-93e4-41e10e7faa5f","C2201E74145C4EDE80DB10155B4E631C-2025-08-19-16-32-51","","17062","","[""<span style=\""color: red; font-size: 24px\""> NOW RECORDING</span><p>Please say out loud all the images you saw in part 1 of the experiment, as many as you can remember. The images can be said in any order.</p>""]","","2","coin_causal"
"","","","","","image-button-response","29","268692","0.0-27.0-0.0","C2201E74145C4EDE80DB10155B4E631C","C2201E74145C4EDE80DB10155B4E631C","0198c328-1613-71a5-91d1-7632fc5a2f07","0198c320-653a-770c-93e4-41e10e7faa5f","{""num_scrambled_semantic"":""8"",""num_scrambled_causal"":""4"",""num_scrambled_schematic"":""4"",""participantId"":""C2201E74145C4EDE80DB10155B4E631C"",""assignmentId"":""0198c328-1613-71a5-91d1-7632fc5a2f07"",""projectId"":""0198c320-653a-770c-93e4-41e10e7faa5f""}","https://test12345.live/?num_scrambled_semantic=8&num_scrambled_causal=4&num_scrambled_schematic=4&participantId=C2201E74145C4EDE80DB10155B4E631C&assignmentId=0198c328-1613-71a5-91d1-7632fc5a2f07&projectId=0198c320-653a-770c-93e4-41e10e7faa5f","C2201E74145C4EDE80DB10155B4E631C-2025-08-19-16-32-51","","null","","images/causal_sequence/dog_causal/dog_causal_0.png","null","",""
"","","","","","html-audio-response","30","291197","0.0-28.0","C2201E74145C4EDE80DB10155B4E631C","C2201E74145C4EDE80DB10155B4E631C","0198c328-1613-71a5-91d1-7632fc5a2f07","0198c320-653a-770c-93e4-41e10e7faa5f","{""num_scrambled_semantic"":""8"",""num_scrambled_causal"":""4"",""num_scrambled_schematic"":""4"",""participantId"":""C2201E74145C4EDE80DB10155B4E631C"",""assignmentId"":""0198c328-1613-71a5-91d1-7632fc5a2f07"",""projectId"":""0198c320-653a-770c-93e4-41e10e7faa5f""}","https://test12345.live/?num_scrambled_semantic=8&num_scrambled_causal=4&num_scrambled_schematic=4&participantId=C2201E74145C4EDE80DB10155B4E631C&assignmentId=0198c328-1613-71a5-91d1-7632fc5a2f07&projectId=0198c320-653a-770c-93e4-41e10e7faa5f","C2201E74145C4EDE80DB10155B4E631C-2025-08-19-16-32-51","","21659","","[""<span style=\""color: red; font-size: 24px\""> NOW RECORDING</span><p>Please say out loud all the images you saw in part 1 of the experiment, as many as you can remember. The images can be said in any order.</p>""]","","2","dog_causal"
"","","","","","image-button-response","31","297204","0.0-29.0-0.0","C2201E74145C4EDE80DB10155B4E631C","C2201E74145C4EDE80DB10155B4E631C","0198c328-1613-71a5-91d1-7632fc5a2f07","0198c320-653a-770c-93e4-41e10e7faa5f","{""num_scrambled_semantic"":""8"",""num_scrambled_causal"":""4"",""num_scrambled_schematic"":""4"",""participantId"":""C2201E74145C4EDE80DB10155B4E631C"",""assignmentId"":""0198c328-1613-71a5-91d1-7632fc5a2f07"",""projectId"":""0198c320-653a-770c-93e4-41e10e7faa5f""}","https://test12345.live/?num_scrambled_semantic=8&num_scrambled_causal=4&num_scrambled_schematic=4&participantId=C2201E74145C4EDE80DB10155B4E631C&assignmentId=0198c328-1613-71a5-91d1-7632fc5a2f07&projectId=0198c320-653a-770c-93e4-41e10e7faa5f","C2201E74145C4EDE80DB10155B4E631C-2025-08-19-16-32-51","","null","","images/semantic_sequence/using_technology_semantic/using_technology_semantic_0.png","null","",""
"","","","","","html-audio-response","32","300216","0.0-30.0","C2201E74145C4EDE80DB10155B4E631C","C2201E74145C4EDE80DB10155B4E631C","0198c328-1613-71a5-91d1-7632fc5a2f07","0198c320-653a-770c-93e4-41e10e7faa5f","{""num_scrambled_semantic"":""8"",""num_scrambled_causal"":""4"",""num_scrambled_schematic"":""4"",""participantId"":""C2201E74145C4EDE80DB10155B4E631C"",""assignmentId"":""0198c328-1613-71a5-91d1-7632fc5a2f07"",""projectId"":""0198c320-653a-770c-93e4-41e10e7faa5f""}","https://test12345.live/?num_scrambled_semantic=8&num_scrambled_causal=4&num_scrambled_schematic=4&participantId=C2201E74145C4EDE80DB10155B4E631C&assignmentId=0198c328-1613-71a5-91d1-7632fc5a2f07&projectId=0198c320-653a-770c-93e4-41e10e7faa5f","C2201E74145C4EDE80DB10155B4E631C-2025-08-19-16-32-51","","2216","","[""<span style=\""color: red; font-size: 24px\""> NOW RECORDING</span><p>Please say out loud all the images you saw in part 1 of the experiment, as many as you can remember. The images can be said in any order.</p>""]","","2","using_technology_semantic"
"","","","","","image-button-response","33","306222","0.0-31.0-0.0","C2201E74145C4EDE80DB10155B4E631C","C2201E74145C4EDE80DB10155B4E631C","0198c328-1613-71a5-91d1-7632fc5a2f07","0198c320-653a-770c-93e4-41e10e7faa5f","{""num_scrambled_semantic"":""8"",""num_scrambled_causal"":""4"",""num_scrambled_schematic"":""4"",""participantId"":""C2201E74145C4EDE80DB10155B4E631C"",""assignmentId"":""0198c328-1613-71a5-91d1-7632fc5a2f07"",""projectId"":""0198c320-653a-770c-93e4-41e10e7faa5f""}","https://test12345.live/?num_scrambled_semantic=8&num_scrambled_causal=4&num_scrambled_schematic=4&participantId=C2201E74145C4EDE80DB10155B4E631C&assignmentId=0198c328-1613-71a5-91d1-7632fc5a2f07&projectId=0198c320-653a-770c-93e4-41e10e7faa5f","C2201E74145C4EDE80DB10155B4E631C-2025-08-19-16-32-51","","null","","images/semantic_sequence/creative_activities_semantic/creative_activities_semantic_0.png","null","",""
"","","","","","html-audio-response","34","319499","0.0-32.0","C2201E74145C4EDE80DB10155B4E631C","C2201E74145C4EDE80DB10155B4E631C","0198c328-1613-71a5-91d1-7632fc5a2f07","0198c320-653a-770c-93e4-41e10e7faa5f","{""num_scrambled_semantic"":""8"",""num_scrambled_causal"":""4"",""num_scrambled_schematic"":""4"",""participantId"":""C2201E74145C4EDE80DB10155B4E631C"",""assignmentId"":""0198c328-1613-71a5-91d1-7632fc5a2f07"",""projectId"":""0198c320-653a-770c-93e4-41e10e7faa5f""}","https://test12345.live/?num_scrambled_semantic=8&num_scrambled_causal=4&num_scrambled_schematic=4&participantId=C2201E74145C4EDE80DB10155B4E631C&assignmentId=0198c328-1613-71a5-91d1-7632fc5a2f07&projectId=0198c320-653a-770c-93e4-41e10e7faa5f","C2201E74145C4EDE80DB10155B4E631C-2025-08-19-16-32-51","","12580","","[""<span style=\""color: red; font-size: 24px\""> NOW RECORDING</span><p>Please say out loud all the images you saw in part 1 of the experiment, as many as you can remember. The images can be said in any order.</p>""]","","2","creative_activities_semantic"
"","","","","","image-button-response","35","325508","0.0-33.0-0.0","C2201E74145C4EDE80DB10155B4E631C","C2201E74145C4EDE80DB10155B4E631C","0198c328-1613-71a5-91d1-7632fc5a2f07","0198c320-653a-770c-93e4-41e10e7faa5f","{""num_scrambled_semantic"":""8"",""num_scrambled_causal"":""4"",""num_scrambled_schematic"":""4"",""participantId"":""C2201E74145C4EDE80DB10155B4E631C"",""assignmentId"":""0198c328-1613-71a5-91d1-7632fc5a2f07"",""projectId"":""0198c320-653a-770c-93e4-41e10e7faa5f""}","https://test12345.live/?num_scrambled_semantic=8&num_scrambled_causal=4&num_scrambled_schematic=4&participantId=C2201E74145C4EDE80DB10155B4E631C&assignmentId=0198c328-1613-71a5-91d1-7632fc5a2f07&projectId=0198c320-653a-770c-93e4-41e10e7faa5f","C2201E74145C4EDE80DB10155B4E631C-2025-08-19-16-32-51","","null","","images/semantic_sequence/maintaining_a_car_semantic/maintaining_a_car_semantic_0.png","null","",""
"","","","","","html-audio-response","36","327766","0.0-34.0","C2201E74145C4EDE80DB10155B4E631C","C2201E74145C4EDE80DB10155B4E631C","0198c328-1613-71a5-91d1-7632fc5a2f07","0198c320-653a-770c-93e4-41e10e7faa5f","{""num_scrambled_semantic"":""8"",""num_scrambled_causal"":""4"",""num_scrambled_schematic"":""4"",""participantId"":""C2201E74145C4EDE80DB10155B4E631C"",""assignmentId"":""0198c328-1613-71a5-91d1-7632fc5a2f07"",""projectId"":""0198c320-653a-770c-93e4-41e10e7faa5f""}","https://test12345.live/?num_scrambled_semantic=8&num_scrambled_causal=4&num_scrambled_schematic=4&participantId=C2201E74145C4EDE80DB10155B4E631C&assignmentId=0198c328-1613-71a5-91d1-7632fc5a2f07&projectId=0198c320-653a-770c-93e4-41e10e7faa5f","C2201E74145C4EDE80DB10155B4E631C-2025-08-19-16-32-51","","1683","","[""<span style=\""color: red; font-size: 24px\""> NOW RECORDING</span><p>Please say out loud all the images you saw in part 1 of the experiment, as many as you can remember. The images can be said in any order.</p>""]","","2","maintaining_a_car_semantic"
"","","","","","survey-text","37","332583","0.0-35.0","C2201E74145C4EDE80DB10155B4E631C","C2201E74145C4EDE80DB10155B4E631C","0198c328-1613-71a5-91d1-7632fc5a2f07","0198c320-653a-770c-93e4-41e10e7faa5f","{""num_scrambled_semantic"":""8"",""num_scrambled_causal"":""4"",""num_scrambled_schematic"":""4"",""participantId"":""C2201E74145C4EDE80DB10155B4E631C"",""assignmentId"":""0198c328-1613-71a5-91d1-7632fc5a2f07"",""projectId"":""0198c320-653a-770c-93e4-41e10e7faa5f""}","https://test12345.live/?num_scrambled_semantic=8&num_scrambled_causal=4&num_scrambled_schematic=4&participantId=C2201E74145C4EDE80DB10155B4E631C&assignmentId=0198c328-1613-71a5-91d1-7632fc5a2f07&projectId=0198c320-653a-770c-93e4-41e10e7faa5f","C2201E74145C4EDE80DB10155B4E631C-2025-08-19-16-32-51","","4813","","","{""Q0"":""MALE"",""Q1"":""31""}","",""
"","","","","","instructions","38","336482","0.0-36.0","C2201E74145C4EDE80DB10155B4E631C","C2201E74145C4EDE80DB10155B4E631C","0198c328-1613-71a5-91d1-7632fc5a2f07","0198c320-653a-770c-93e4-41e10e7faa5f","{""num_scrambled_semantic"":""8"",""num_scrambled_causal"":""4"",""num_scrambled_schematic"":""4"",""participantId"":""C2201E74145C4EDE80DB10155B4E631C"",""assignmentId"":""0198c328-1613-71a5-91d1-7632fc5a2f07"",""projectId"":""0198c320-653a-770c-93e4-41e10e7faa5f""}","https://test12345.live/?num_scrambled_semantic=8&num_scrambled_causal=4&num_scrambled_schematic=4&participantId=C2201E74145C4EDE80DB10155B4E631C&assignmentId=0198c328-1613-71a5-91d1-7632fc5a2f07&projectId=0198c320-653a-770c-93e4-41e10e7faa5f","C2201E74145C4EDE80DB10155B4E631C-2025-08-19-16-32-51","[{""page_index"":0,""viewing_time"":3898}]","3899","","","","",""
"","","","","","survey-text","39","338817","0.0-37.0","C2201E74145C4EDE80DB10155B4E631C","C2201E74145C4EDE80DB10155B4E631C","0198c328-1613-71a5-91d1-7632fc5a2f07","0198c320-653a-770c-93e4-41e10e7faa5f","{""num_scrambled_semantic"":""8"",""num_scrambled_causal"":""4"",""num_scrambled_schematic"":""4"",""participantId"":""C2201E74145C4EDE80DB10155B4E631C"",""assignmentId"":""0198c328-1613-71a5-91d1-7632fc5a2f07"",""projectId"":""0198c320-653a-770c-93e4-41e10e7faa5f""}","https://test12345.live/?num_scrambled_semantic=8&num_scrambled_causal=4&num_scrambled_schematic=4&participantId=C2201E74145C4EDE80DB10155B4E631C&assignmentId=0198c328-1613-71a5-91d1-7632fc5a2f07&projectId=0198c320-653a-770c-93e4-41e10e7faa5f","C2201E74145C4EDE80DB10155B4E631C-2025-08-19-16-32-51","","2333","","","{""Q0"":""AJFHBG896""}","",""
