"success","timeout","failed_images","failed_audio","failed_video","trial_type","trial_index","time_elapsed","internal_node_id","subject","subject_id","study_id","session_id","urlvar","current_url","audio_id","view_history","rt","device_id","stimulus","response","estimated_stimulus_onset","seq_name"
"true","false","[]","[]","[]","preload","0","38395","0.0-0.0","C31D4B38E6704E90AC16A6AD72180BD2","C31D4B38E6704E90AC16A6AD72180BD2","b29c8d1a-b2de-4ed4-988e-b80e99da2e6f","81dd14e9-200e-48d1-afc5-b6c2b3ebd11b","{""part"":""2"",""participantId"":""C31D4B38E6704E90AC16A6AD72180BD2"",""assignmentId"":""b29c8d1a-b2de-4ed4-988e-b80e99da2e6f"",""projectId"":""81dd14e9-200e-48d1-afc5-b6c2b3ebd11b""}","https://test12345.live/?part=2&participantId=C31D4B38E6704E90AC16A6AD72180BD2&assignmentId=b29c8d1a-b2de-4ed4-988e-b80e99da2e6f&projectId=81dd14e9-200e-48d1-afc5-b6c2b3ebd11b","C31D4B38E6704E90AC16A6AD72180BD2-2025-05-15-14-50-47","","","","","","",""
"","","","","","instructions","1","89746","0.0-1.0","C31D4B38E6704E90AC16A6AD72180BD2","C31D4B38E6704E90AC16A6AD72180BD2","b29c8d1a-b2de-4ed4-988e-b80e99da2e6f","81dd14e9-200e-48d1-afc5-b6c2b3ebd11b","{""part"":""2"",""participantId"":""C31D4B38E6704E90AC16A6AD72180BD2"",""assignmentId"":""b29c8d1a-b2de-4ed4-988e-b80e99da2e6f"",""projectId"":""81dd14e9-200e-48d1-afc5-b6c2b3ebd11b""}","https://test12345.live/?part=2&participantId=C31D4B38E6704E90AC16A6AD72180BD2&assignmentId=b29c8d1a-b2de-4ed4-988e-b80e99da2e6f&projectId=81dd14e9-200e-48d1-afc5-b6c2b3ebd11b","C31D4B38E6704E90AC16A6AD72180BD2-2025-05-15-14-50-47","[{""page_index"":0,""viewing_time"":51350}]","51350","","","","",""
"","","","","","instructions","2","111660","0.0-2.0","C31D4B38E6704E90AC16A6AD72180BD2","C31D4B38E6704E90AC16A6AD72180BD2","b29c8d1a-b2de-4ed4-988e-b80e99da2e6f","81dd14e9-200e-48d1-afc5-b6c2b3ebd11b","{""part"":""2"",""participantId"":""C31D4B38E6704E90AC16A6AD72180BD2"",""assignmentId"":""b29c8d1a-b2de-4ed4-988e-b80e99da2e6f"",""projectId"":""81dd14e9-200e-48d1-afc5-b6c2b3ebd11b""}","https://test12345.live/?part=2&participantId=C31D4B38E6704E90AC16A6AD72180BD2&assignmentId=b29c8d1a-b2de-4ed4-988e-b80e99da2e6f&projectId=81dd14e9-200e-48d1-afc5-b6c2b3ebd11b","C31D4B38E6704E90AC16A6AD72180BD2-2025-05-15-14-50-47","[{""page_index"":0,""viewing_time"":21913}]","21913","","","","",""
"true","","","","","fullscreen","3","114977","0.0-3.0","C31D4B38E6704E90AC16A6AD72180BD2","C31D4B38E6704E90AC16A6AD72180BD2","b29c8d1a-b2de-4ed4-988e-b80e99da2e6f","81dd14e9-200e-48d1-afc5-b6c2b3ebd11b","{""part"":""2"",""participantId"":""C31D4B38E6704E90AC16A6AD72180BD2"",""assignmentId"":""b29c8d1a-b2de-4ed4-988e-b80e99da2e6f"",""projectId"":""81dd14e9-200e-48d1-afc5-b6c2b3ebd11b""}","https://test12345.live/?part=2&participantId=C31D4B38E6704E90AC16A6AD72180BD2&assignmentId=b29c8d1a-b2de-4ed4-988e-b80e99da2e6f&projectId=81dd14e9-200e-48d1-afc5-b6c2b3ebd11b","C31D4B38E6704E90AC16A6AD72180BD2-2025-05-15-14-50-47","","2306","","","","",""
"","","","","","initialize-microphone","4","124994","0.0-4.0-0.0","C31D4B38E6704E90AC16A6AD72180BD2","C31D4B38E6704E90AC16A6AD72180BD2","b29c8d1a-b2de-4ed4-988e-b80e99da2e6f","81dd14e9-200e-48d1-afc5-b6c2b3ebd11b","{""part"":""2"",""participantId"":""C31D4B38E6704E90AC16A6AD72180BD2"",""assignmentId"":""b29c8d1a-b2de-4ed4-988e-b80e99da2e6f"",""projectId"":""81dd14e9-200e-48d1-afc5-b6c2b3ebd11b""}","https://test12345.live/?part=2&participantId=C31D4B38E6704E90AC16A6AD72180BD2&assignmentId=b29c8d1a-b2de-4ed4-988e-b80e99da2e6f&projectId=81dd14e9-200e-48d1-afc5-b6c2b3ebd11b","C31D4B38E6704E90AC16A6AD72180BD2-2025-05-15-14-50-47","","","9d77cf9f56e598b01cd2a30d345375df995c0c6e31b02e639b150b2a84e6dfd9","","","",""
"","","","","","html-audio-response","5","133211","0.0-4.0-1.0","C31D4B38E6704E90AC16A6AD72180BD2","C31D4B38E6704E90AC16A6AD72180BD2","b29c8d1a-b2de-4ed4-988e-b80e99da2e6f","81dd14e9-200e-48d1-afc5-b6c2b3ebd11b","{""part"":""2"",""participantId"":""C31D4B38E6704E90AC16A6AD72180BD2"",""assignmentId"":""b29c8d1a-b2de-4ed4-988e-b80e99da2e6f"",""projectId"":""81dd14e9-200e-48d1-afc5-b6c2b3ebd11b""}","https://test12345.live/?part=2&participantId=C31D4B38E6704E90AC16A6AD72180BD2&assignmentId=b29c8d1a-b2de-4ed4-988e-b80e99da2e6f&projectId=81dd14e9-200e-48d1-afc5-b6c2b3ebd11b","C31D4B38E6704E90AC16A6AD72180BD2-2025-05-15-14-50-47","","1635","","<span style=""color: red; font-size: 24px""> NOW RECORDING</span>
        <p>Please test Microphone</p>","","2",""
"","","","","","html-button-response","6","135166","0.0-4.0-2.0","C31D4B38E6704E90AC16A6AD72180BD2","C31D4B38E6704E90AC16A6AD72180BD2","b29c8d1a-b2de-4ed4-988e-b80e99da2e6f","81dd14e9-200e-48d1-afc5-b6c2b3ebd11b","{""part"":""2"",""participantId"":""C31D4B38E6704E90AC16A6AD72180BD2"",""assignmentId"":""b29c8d1a-b2de-4ed4-988e-b80e99da2e6f"",""projectId"":""81dd14e9-200e-48d1-afc5-b6c2b3ebd11b""}","https://test12345.live/?part=2&participantId=C31D4B38E6704E90AC16A6AD72180BD2&assignmentId=b29c8d1a-b2de-4ed4-988e-b80e99da2e6f&projectId=81dd14e9-200e-48d1-afc5-b6c2b3ebd11b","C31D4B38E6704E90AC16A6AD72180BD2-2025-05-15-14-50-47","","1954","","<p style=""font-size:48px; color:red;"">Is Microphone OK?</p>","1","",""
"","","","","","instructions","7","160759","0.0-5.0","C31D4B38E6704E90AC16A6AD72180BD2","C31D4B38E6704E90AC16A6AD72180BD2","b29c8d1a-b2de-4ed4-988e-b80e99da2e6f","81dd14e9-200e-48d1-afc5-b6c2b3ebd11b","{""part"":""2"",""participantId"":""C31D4B38E6704E90AC16A6AD72180BD2"",""assignmentId"":""b29c8d1a-b2de-4ed4-988e-b80e99da2e6f"",""projectId"":""81dd14e9-200e-48d1-afc5-b6c2b3ebd11b""}","https://test12345.live/?part=2&participantId=C31D4B38E6704E90AC16A6AD72180BD2&assignmentId=b29c8d1a-b2de-4ed4-988e-b80e99da2e6f&projectId=81dd14e9-200e-48d1-afc5-b6c2b3ebd11b","C31D4B38E6704E90AC16A6AD72180BD2-2025-05-15-14-50-47","[{""page_index"":0,""viewing_time"":1827},{""page_index"":1,""viewing_time"":15668},{""page_index"":2,""viewing_time"":8098}]","25593","","","","",""
"","","","","","image-button-response","8","166764","0.0-6.0-0.0","C31D4B38E6704E90AC16A6AD72180BD2","C31D4B38E6704E90AC16A6AD72180BD2","b29c8d1a-b2de-4ed4-988e-b80e99da2e6f","81dd14e9-200e-48d1-afc5-b6c2b3ebd11b","{""part"":""2"",""participantId"":""C31D4B38E6704E90AC16A6AD72180BD2"",""assignmentId"":""b29c8d1a-b2de-4ed4-988e-b80e99da2e6f"",""projectId"":""81dd14e9-200e-48d1-afc5-b6c2b3ebd11b""}","https://test12345.live/?part=2&participantId=C31D4B38E6704E90AC16A6AD72180BD2&assignmentId=b29c8d1a-b2de-4ed4-988e-b80e99da2e6f&projectId=81dd14e9-200e-48d1-afc5-b6c2b3ebd11b","C31D4B38E6704E90AC16A6AD72180BD2-2025-05-15-14-50-47","","null","","images/instructions/movie_0.png","null","",""
"","","","","","html-audio-response","9","190839","0.0-7.0","C31D4B38E6704E90AC16A6AD72180BD2","C31D4B38E6704E90AC16A6AD72180BD2","b29c8d1a-b2de-4ed4-988e-b80e99da2e6f","81dd14e9-200e-48d1-afc5-b6c2b3ebd11b","{""part"":""2"",""participantId"":""C31D4B38E6704E90AC16A6AD72180BD2"",""assignmentId"":""b29c8d1a-b2de-4ed4-988e-b80e99da2e6f"",""projectId"":""81dd14e9-200e-48d1-afc5-b6c2b3ebd11b""}","https://test12345.live/?part=2&participantId=C31D4B38E6704E90AC16A6AD72180BD2&assignmentId=b29c8d1a-b2de-4ed4-988e-b80e99da2e6f&projectId=81dd14e9-200e-48d1-afc5-b6c2b3ebd11b","C31D4B38E6704E90AC16A6AD72180BD2-2025-05-15-14-50-47","","22669","","[""<span style=\""color: red; font-size: 24px\""> NOW RECORDING</span><p>Please say out loud all the images you saw in part 1 of the experiment, as many as you can remember. The images can be said in any order.</p>""]","","2",""
"","","","","","instructions","10","193086","0.0-8.0","C31D4B38E6704E90AC16A6AD72180BD2","C31D4B38E6704E90AC16A6AD72180BD2","b29c8d1a-b2de-4ed4-988e-b80e99da2e6f","81dd14e9-200e-48d1-afc5-b6c2b3ebd11b","{""part"":""2"",""participantId"":""C31D4B38E6704E90AC16A6AD72180BD2"",""assignmentId"":""b29c8d1a-b2de-4ed4-988e-b80e99da2e6f"",""projectId"":""81dd14e9-200e-48d1-afc5-b6c2b3ebd11b""}","https://test12345.live/?part=2&participantId=C31D4B38E6704E90AC16A6AD72180BD2&assignmentId=b29c8d1a-b2de-4ed4-988e-b80e99da2e6f&projectId=81dd14e9-200e-48d1-afc5-b6c2b3ebd11b","C31D4B38E6704E90AC16A6AD72180BD2-2025-05-15-14-50-47","[{""page_index"":0,""viewing_time"":2241}]","2241","","","","",""
"","","","","","image-button-response","11","199094","0.0-9.0-0.0","C31D4B38E6704E90AC16A6AD72180BD2","C31D4B38E6704E90AC16A6AD72180BD2","b29c8d1a-b2de-4ed4-988e-b80e99da2e6f","81dd14e9-200e-48d1-afc5-b6c2b3ebd11b","{""part"":""2"",""participantId"":""C31D4B38E6704E90AC16A6AD72180BD2"",""assignmentId"":""b29c8d1a-b2de-4ed4-988e-b80e99da2e6f"",""projectId"":""81dd14e9-200e-48d1-afc5-b6c2b3ebd11b""}","https://test12345.live/?part=2&participantId=C31D4B38E6704E90AC16A6AD72180BD2&assignmentId=b29c8d1a-b2de-4ed4-988e-b80e99da2e6f&projectId=81dd14e9-200e-48d1-afc5-b6c2b3ebd11b","C31D4B38E6704E90AC16A6AD72180BD2-2025-05-15-14-50-47","","null","","images/semantic_sequence/market_semantic/market_semantic_0.png","null","",""
"","","","","","html-audio-response","12","240766","0.0-10.0","C31D4B38E6704E90AC16A6AD72180BD2","C31D4B38E6704E90AC16A6AD72180BD2","b29c8d1a-b2de-4ed4-988e-b80e99da2e6f","81dd14e9-200e-48d1-afc5-b6c2b3ebd11b","{""part"":""2"",""participantId"":""C31D4B38E6704E90AC16A6AD72180BD2"",""assignmentId"":""b29c8d1a-b2de-4ed4-988e-b80e99da2e6f"",""projectId"":""81dd14e9-200e-48d1-afc5-b6c2b3ebd11b""}","https://test12345.live/?part=2&participantId=C31D4B38E6704E90AC16A6AD72180BD2&assignmentId=b29c8d1a-b2de-4ed4-988e-b80e99da2e6f&projectId=81dd14e9-200e-48d1-afc5-b6c2b3ebd11b","C31D4B38E6704E90AC16A6AD72180BD2-2025-05-15-14-50-47","","40289","","[""<span style=\""color: red; font-size: 24px\""> NOW RECORDING</span><p>Please say out loud all the images you saw in part 1 of the experiment, as many as you can remember. The images can be said in any order.</p>""]","","1","market_semantic"
"","","","","","image-button-response","13","246775","0.0-11.0-0.0","C31D4B38E6704E90AC16A6AD72180BD2","C31D4B38E6704E90AC16A6AD72180BD2","b29c8d1a-b2de-4ed4-988e-b80e99da2e6f","81dd14e9-200e-48d1-afc5-b6c2b3ebd11b","{""part"":""2"",""participantId"":""C31D4B38E6704E90AC16A6AD72180BD2"",""assignmentId"":""b29c8d1a-b2de-4ed4-988e-b80e99da2e6f"",""projectId"":""81dd14e9-200e-48d1-afc5-b6c2b3ebd11b""}","https://test12345.live/?part=2&participantId=C31D4B38E6704E90AC16A6AD72180BD2&assignmentId=b29c8d1a-b2de-4ed4-988e-b80e99da2e6f&projectId=81dd14e9-200e-48d1-afc5-b6c2b3ebd11b","C31D4B38E6704E90AC16A6AD72180BD2-2025-05-15-14-50-47","","null","","images/semantic_sequence/physical_activity_semantic/physical_activity_semantic_0.png","null","",""
"","","","","","html-audio-response","14","281377","0.0-12.0","C31D4B38E6704E90AC16A6AD72180BD2","C31D4B38E6704E90AC16A6AD72180BD2","b29c8d1a-b2de-4ed4-988e-b80e99da2e6f","81dd14e9-200e-48d1-afc5-b6c2b3ebd11b","{""part"":""2"",""participantId"":""C31D4B38E6704E90AC16A6AD72180BD2"",""assignmentId"":""b29c8d1a-b2de-4ed4-988e-b80e99da2e6f"",""projectId"":""81dd14e9-200e-48d1-afc5-b6c2b3ebd11b""}","https://test12345.live/?part=2&participantId=C31D4B38E6704E90AC16A6AD72180BD2&assignmentId=b29c8d1a-b2de-4ed4-988e-b80e99da2e6f&projectId=81dd14e9-200e-48d1-afc5-b6c2b3ebd11b","C31D4B38E6704E90AC16A6AD72180BD2-2025-05-15-14-50-47","","33669","","[""<span style=\""color: red; font-size: 24px\""> NOW RECORDING</span><p>Please say out loud all the images you saw in part 1 of the experiment, as many as you can remember. The images can be said in any order.</p>""]","","1","physical_activity_semantic"
"","","","","","image-button-response","15","287386","0.0-13.0-0.0","C31D4B38E6704E90AC16A6AD72180BD2","C31D4B38E6704E90AC16A6AD72180BD2","b29c8d1a-b2de-4ed4-988e-b80e99da2e6f","81dd14e9-200e-48d1-afc5-b6c2b3ebd11b","{""part"":""2"",""participantId"":""C31D4B38E6704E90AC16A6AD72180BD2"",""assignmentId"":""b29c8d1a-b2de-4ed4-988e-b80e99da2e6f"",""projectId"":""81dd14e9-200e-48d1-afc5-b6c2b3ebd11b""}","https://test12345.live/?part=2&participantId=C31D4B38E6704E90AC16A6AD72180BD2&assignmentId=b29c8d1a-b2de-4ed4-988e-b80e99da2e6f&projectId=81dd14e9-200e-48d1-afc5-b6c2b3ebd11b","C31D4B38E6704E90AC16A6AD72180BD2-2025-05-15-14-50-47","","null","","images/semantic_sequence/self_care_activities_semantic/self_care_activities_semantic_0.png","null","",""
"","","","","","html-audio-response","16","318719","0.0-14.0","C31D4B38E6704E90AC16A6AD72180BD2","C31D4B38E6704E90AC16A6AD72180BD2","b29c8d1a-b2de-4ed4-988e-b80e99da2e6f","81dd14e9-200e-48d1-afc5-b6c2b3ebd11b","{""part"":""2"",""participantId"":""C31D4B38E6704E90AC16A6AD72180BD2"",""assignmentId"":""b29c8d1a-b2de-4ed4-988e-b80e99da2e6f"",""projectId"":""81dd14e9-200e-48d1-afc5-b6c2b3ebd11b""}","https://test12345.live/?part=2&participantId=C31D4B38E6704E90AC16A6AD72180BD2&assignmentId=b29c8d1a-b2de-4ed4-988e-b80e99da2e6f&projectId=81dd14e9-200e-48d1-afc5-b6c2b3ebd11b","C31D4B38E6704E90AC16A6AD72180BD2-2025-05-15-14-50-47","","30500","","[""<span style=\""color: red; font-size: 24px\""> NOW RECORDING</span><p>Please say out loud all the images you saw in part 1 of the experiment, as many as you can remember. The images can be said in any order.</p>""]","","1","self_care_activities_semantic"
"","","","","","image-button-response","17","324732","0.0-15.0-0.0","C31D4B38E6704E90AC16A6AD72180BD2","C31D4B38E6704E90AC16A6AD72180BD2","b29c8d1a-b2de-4ed4-988e-b80e99da2e6f","81dd14e9-200e-48d1-afc5-b6c2b3ebd11b","{""part"":""2"",""participantId"":""C31D4B38E6704E90AC16A6AD72180BD2"",""assignmentId"":""b29c8d1a-b2de-4ed4-988e-b80e99da2e6f"",""projectId"":""81dd14e9-200e-48d1-afc5-b6c2b3ebd11b""}","https://test12345.live/?part=2&participantId=C31D4B38E6704E90AC16A6AD72180BD2&assignmentId=b29c8d1a-b2de-4ed4-988e-b80e99da2e6f&projectId=81dd14e9-200e-48d1-afc5-b6c2b3ebd11b","C31D4B38E6704E90AC16A6AD72180BD2-2025-05-15-14-50-47","","null","","images/semantic_sequence/maintaining_a_car_semantic/maintaining_a_car_semantic_0.png","null","",""
"","","","","","html-audio-response","18","364145","0.0-16.0","C31D4B38E6704E90AC16A6AD72180BD2","C31D4B38E6704E90AC16A6AD72180BD2","b29c8d1a-b2de-4ed4-988e-b80e99da2e6f","81dd14e9-200e-48d1-afc5-b6c2b3ebd11b","{""part"":""2"",""participantId"":""C31D4B38E6704E90AC16A6AD72180BD2"",""assignmentId"":""b29c8d1a-b2de-4ed4-988e-b80e99da2e6f"",""projectId"":""81dd14e9-200e-48d1-afc5-b6c2b3ebd11b""}","https://test12345.live/?part=2&participantId=C31D4B38E6704E90AC16A6AD72180BD2&assignmentId=b29c8d1a-b2de-4ed4-988e-b80e99da2e6f&projectId=81dd14e9-200e-48d1-afc5-b6c2b3ebd11b","C31D4B38E6704E90AC16A6AD72180BD2-2025-05-15-14-50-47","","38380","","[""<span style=\""color: red; font-size: 24px\""> NOW RECORDING</span><p>Please say out loud all the images you saw in part 1 of the experiment, as many as you can remember. The images can be said in any order.</p>""]","","1","maintaining_a_car_semantic"
"","","","","","image-button-response","19","370156","0.0-17.0-0.0","C31D4B38E6704E90AC16A6AD72180BD2","C31D4B38E6704E90AC16A6AD72180BD2","b29c8d1a-b2de-4ed4-988e-b80e99da2e6f","81dd14e9-200e-48d1-afc5-b6c2b3ebd11b","{""part"":""2"",""participantId"":""C31D4B38E6704E90AC16A6AD72180BD2"",""assignmentId"":""b29c8d1a-b2de-4ed4-988e-b80e99da2e6f"",""projectId"":""81dd14e9-200e-48d1-afc5-b6c2b3ebd11b""}","https://test12345.live/?part=2&participantId=C31D4B38E6704E90AC16A6AD72180BD2&assignmentId=b29c8d1a-b2de-4ed4-988e-b80e99da2e6f&projectId=81dd14e9-200e-48d1-afc5-b6c2b3ebd11b","C31D4B38E6704E90AC16A6AD72180BD2-2025-05-15-14-50-47","","null","","images/schematic_sequence/dinner_party_scheme/dinner_party_scheme_0.png","null","",""
"","","","","","html-audio-response","20","448898","0.0-18.0","C31D4B38E6704E90AC16A6AD72180BD2","C31D4B38E6704E90AC16A6AD72180BD2","b29c8d1a-b2de-4ed4-988e-b80e99da2e6f","81dd14e9-200e-48d1-afc5-b6c2b3ebd11b","{""part"":""2"",""participantId"":""C31D4B38E6704E90AC16A6AD72180BD2"",""assignmentId"":""b29c8d1a-b2de-4ed4-988e-b80e99da2e6f"",""projectId"":""81dd14e9-200e-48d1-afc5-b6c2b3ebd11b""}","https://test12345.live/?part=2&participantId=C31D4B38E6704E90AC16A6AD72180BD2&assignmentId=b29c8d1a-b2de-4ed4-988e-b80e99da2e6f&projectId=81dd14e9-200e-48d1-afc5-b6c2b3ebd11b","C31D4B38E6704E90AC16A6AD72180BD2-2025-05-15-14-50-47","","19193","","[""<span style=\""color: red; font-size: 24px\""> NOW RECORDING</span><p>Please say out loud all the images you saw in part 1 of the experiment, as many as you can remember. The images can be said in any order.</p>""]","","2","dinner_party_scheme"
"","","","","","image-button-response","21","454918","0.0-19.0-0.0","C31D4B38E6704E90AC16A6AD72180BD2","C31D4B38E6704E90AC16A6AD72180BD2","b29c8d1a-b2de-4ed4-988e-b80e99da2e6f","81dd14e9-200e-48d1-afc5-b6c2b3ebd11b","{""part"":""2"",""participantId"":""C31D4B38E6704E90AC16A6AD72180BD2"",""assignmentId"":""b29c8d1a-b2de-4ed4-988e-b80e99da2e6f"",""projectId"":""81dd14e9-200e-48d1-afc5-b6c2b3ebd11b""}","https://test12345.live/?part=2&participantId=C31D4B38E6704E90AC16A6AD72180BD2&assignmentId=b29c8d1a-b2de-4ed4-988e-b80e99da2e6f&projectId=81dd14e9-200e-48d1-afc5-b6c2b3ebd11b","C31D4B38E6704E90AC16A6AD72180BD2-2025-05-15-14-50-47","","null","","images/causal_sequence/package_causal/package_causal_0.png","null","",""
"","","","","","html-audio-response","22","486785","0.0-20.0","C31D4B38E6704E90AC16A6AD72180BD2","C31D4B38E6704E90AC16A6AD72180BD2","b29c8d1a-b2de-4ed4-988e-b80e99da2e6f","81dd14e9-200e-48d1-afc5-b6c2b3ebd11b","{""part"":""2"",""participantId"":""C31D4B38E6704E90AC16A6AD72180BD2"",""assignmentId"":""b29c8d1a-b2de-4ed4-988e-b80e99da2e6f"",""projectId"":""81dd14e9-200e-48d1-afc5-b6c2b3ebd11b""}","https://test12345.live/?part=2&participantId=C31D4B38E6704E90AC16A6AD72180BD2&assignmentId=b29c8d1a-b2de-4ed4-988e-b80e99da2e6f&projectId=81dd14e9-200e-48d1-afc5-b6c2b3ebd11b","C31D4B38E6704E90AC16A6AD72180BD2-2025-05-15-14-50-47","","31179","","[""<span style=\""color: red; font-size: 24px\""> NOW RECORDING</span><p>Please say out loud all the images you saw in part 1 of the experiment, as many as you can remember. The images can be said in any order.</p>""]","","1","package_causal"
"","","","","","image-button-response","23","492796","0.0-21.0-0.0","C31D4B38E6704E90AC16A6AD72180BD2","C31D4B38E6704E90AC16A6AD72180BD2","b29c8d1a-b2de-4ed4-988e-b80e99da2e6f","81dd14e9-200e-48d1-afc5-b6c2b3ebd11b","{""part"":""2"",""participantId"":""C31D4B38E6704E90AC16A6AD72180BD2"",""assignmentId"":""b29c8d1a-b2de-4ed4-988e-b80e99da2e6f"",""projectId"":""81dd14e9-200e-48d1-afc5-b6c2b3ebd11b""}","https://test12345.live/?part=2&participantId=C31D4B38E6704E90AC16A6AD72180BD2&assignmentId=b29c8d1a-b2de-4ed4-988e-b80e99da2e6f&projectId=81dd14e9-200e-48d1-afc5-b6c2b3ebd11b","C31D4B38E6704E90AC16A6AD72180BD2-2025-05-15-14-50-47","","null","","images/semantic_sequence/kitchen_operations_semantic/kitchen_operations_semantic_0.png","null","",""
"","","","","","html-audio-response","24","529479","0.0-22.0","C31D4B38E6704E90AC16A6AD72180BD2","C31D4B38E6704E90AC16A6AD72180BD2","b29c8d1a-b2de-4ed4-988e-b80e99da2e6f","81dd14e9-200e-48d1-afc5-b6c2b3ebd11b","{""part"":""2"",""participantId"":""C31D4B38E6704E90AC16A6AD72180BD2"",""assignmentId"":""b29c8d1a-b2de-4ed4-988e-b80e99da2e6f"",""projectId"":""81dd14e9-200e-48d1-afc5-b6c2b3ebd11b""}","https://test12345.live/?part=2&participantId=C31D4B38E6704E90AC16A6AD72180BD2&assignmentId=b29c8d1a-b2de-4ed4-988e-b80e99da2e6f&projectId=81dd14e9-200e-48d1-afc5-b6c2b3ebd11b","C31D4B38E6704E90AC16A6AD72180BD2-2025-05-15-14-50-47","","27024","","[""<span style=\""color: red; font-size: 24px\""> NOW RECORDING</span><p>Please say out loud all the images you saw in part 1 of the experiment, as many as you can remember. The images can be said in any order.</p>""]","","1","kitchen_operations_semantic"
"","","","","","image-button-response","25","535489","0.0-23.0-0.0","C31D4B38E6704E90AC16A6AD72180BD2","C31D4B38E6704E90AC16A6AD72180BD2","b29c8d1a-b2de-4ed4-988e-b80e99da2e6f","81dd14e9-200e-48d1-afc5-b6c2b3ebd11b","{""part"":""2"",""participantId"":""C31D4B38E6704E90AC16A6AD72180BD2"",""assignmentId"":""b29c8d1a-b2de-4ed4-988e-b80e99da2e6f"",""projectId"":""81dd14e9-200e-48d1-afc5-b6c2b3ebd11b""}","https://test12345.live/?part=2&participantId=C31D4B38E6704E90AC16A6AD72180BD2&assignmentId=b29c8d1a-b2de-4ed4-988e-b80e99da2e6f&projectId=81dd14e9-200e-48d1-afc5-b6c2b3ebd11b","C31D4B38E6704E90AC16A6AD72180BD2-2025-05-15-14-50-47","","null","","images/causal_sequence/saving_a_cat_causal/saving_a_cat_causal_0.png","null","",""
"","","","","","html-audio-response","26","565554","0.0-24.0","C31D4B38E6704E90AC16A6AD72180BD2","C31D4B38E6704E90AC16A6AD72180BD2","b29c8d1a-b2de-4ed4-988e-b80e99da2e6f","81dd14e9-200e-48d1-afc5-b6c2b3ebd11b","{""part"":""2"",""participantId"":""C31D4B38E6704E90AC16A6AD72180BD2"",""assignmentId"":""b29c8d1a-b2de-4ed4-988e-b80e99da2e6f"",""projectId"":""81dd14e9-200e-48d1-afc5-b6c2b3ebd11b""}","https://test12345.live/?part=2&participantId=C31D4B38E6704E90AC16A6AD72180BD2&assignmentId=b29c8d1a-b2de-4ed4-988e-b80e99da2e6f&projectId=81dd14e9-200e-48d1-afc5-b6c2b3ebd11b","C31D4B38E6704E90AC16A6AD72180BD2-2025-05-15-14-50-47","","28956","","[""<span style=\""color: red; font-size: 24px\""> NOW RECORDING</span><p>Please say out loud all the images you saw in part 1 of the experiment, as many as you can remember. The images can be said in any order.</p>""]","","14","saving_a_cat_causal"
"","","","","","image-button-response","27","571572","0.0-25.0-0.0","C31D4B38E6704E90AC16A6AD72180BD2","C31D4B38E6704E90AC16A6AD72180BD2","b29c8d1a-b2de-4ed4-988e-b80e99da2e6f","81dd14e9-200e-48d1-afc5-b6c2b3ebd11b","{""part"":""2"",""participantId"":""C31D4B38E6704E90AC16A6AD72180BD2"",""assignmentId"":""b29c8d1a-b2de-4ed4-988e-b80e99da2e6f"",""projectId"":""81dd14e9-200e-48d1-afc5-b6c2b3ebd11b""}","https://test12345.live/?part=2&participantId=C31D4B38E6704E90AC16A6AD72180BD2&assignmentId=b29c8d1a-b2de-4ed4-988e-b80e99da2e6f&projectId=81dd14e9-200e-48d1-afc5-b6c2b3ebd11b","C31D4B38E6704E90AC16A6AD72180BD2-2025-05-15-14-50-47","","null","","images/semantic_sequence/visiting_cities_semantic/visiting_cities_semantic_0.png","null","",""
"","","","","","html-audio-response","28","597624","0.0-26.0","C31D4B38E6704E90AC16A6AD72180BD2","C31D4B38E6704E90AC16A6AD72180BD2","b29c8d1a-b2de-4ed4-988e-b80e99da2e6f","81dd14e9-200e-48d1-afc5-b6c2b3ebd11b","{""part"":""2"",""participantId"":""C31D4B38E6704E90AC16A6AD72180BD2"",""assignmentId"":""b29c8d1a-b2de-4ed4-988e-b80e99da2e6f"",""projectId"":""81dd14e9-200e-48d1-afc5-b6c2b3ebd11b""}","https://test12345.live/?part=2&participantId=C31D4B38E6704E90AC16A6AD72180BD2&assignmentId=b29c8d1a-b2de-4ed4-988e-b80e99da2e6f&projectId=81dd14e9-200e-48d1-afc5-b6c2b3ebd11b","C31D4B38E6704E90AC16A6AD72180BD2-2025-05-15-14-50-47","","24211","","[""<span style=\""color: red; font-size: 24px\""> NOW RECORDING</span><p>Please say out loud all the images you saw in part 1 of the experiment, as many as you can remember. The images can be said in any order.</p>""]","","1","visiting_cities_semantic"
"","","","","","image-button-response","29","603641","0.0-27.0-0.0","C31D4B38E6704E90AC16A6AD72180BD2","C31D4B38E6704E90AC16A6AD72180BD2","b29c8d1a-b2de-4ed4-988e-b80e99da2e6f","81dd14e9-200e-48d1-afc5-b6c2b3ebd11b","{""part"":""2"",""participantId"":""C31D4B38E6704E90AC16A6AD72180BD2"",""assignmentId"":""b29c8d1a-b2de-4ed4-988e-b80e99da2e6f"",""projectId"":""81dd14e9-200e-48d1-afc5-b6c2b3ebd11b""}","https://test12345.live/?part=2&participantId=C31D4B38E6704E90AC16A6AD72180BD2&assignmentId=b29c8d1a-b2de-4ed4-988e-b80e99da2e6f&projectId=81dd14e9-200e-48d1-afc5-b6c2b3ebd11b","C31D4B38E6704E90AC16A6AD72180BD2-2025-05-15-14-50-47","","null","","images/causal_sequence/museum_causal/museum_causal_0.png","null","",""
"","","","","","html-audio-response","30","641984","0.0-28.0","C31D4B38E6704E90AC16A6AD72180BD2","C31D4B38E6704E90AC16A6AD72180BD2","b29c8d1a-b2de-4ed4-988e-b80e99da2e6f","81dd14e9-200e-48d1-afc5-b6c2b3ebd11b","{""part"":""2"",""participantId"":""C31D4B38E6704E90AC16A6AD72180BD2"",""assignmentId"":""b29c8d1a-b2de-4ed4-988e-b80e99da2e6f"",""projectId"":""81dd14e9-200e-48d1-afc5-b6c2b3ebd11b""}","https://test12345.live/?part=2&participantId=C31D4B38E6704E90AC16A6AD72180BD2&assignmentId=b29c8d1a-b2de-4ed4-988e-b80e99da2e6f&projectId=81dd14e9-200e-48d1-afc5-b6c2b3ebd11b","C31D4B38E6704E90AC16A6AD72180BD2-2025-05-15-14-50-47","","37045","","[""<span style=\""color: red; font-size: 24px\""> NOW RECORDING</span><p>Please say out loud all the images you saw in part 1 of the experiment, as many as you can remember. The images can be said in any order.</p>""]","","1","museum_causal"
"","","","","","image-button-response","31","647998","0.0-29.0-0.0","C31D4B38E6704E90AC16A6AD72180BD2","C31D4B38E6704E90AC16A6AD72180BD2","b29c8d1a-b2de-4ed4-988e-b80e99da2e6f","81dd14e9-200e-48d1-afc5-b6c2b3ebd11b","{""part"":""2"",""participantId"":""C31D4B38E6704E90AC16A6AD72180BD2"",""assignmentId"":""b29c8d1a-b2de-4ed4-988e-b80e99da2e6f"",""projectId"":""81dd14e9-200e-48d1-afc5-b6c2b3ebd11b""}","https://test12345.live/?part=2&participantId=C31D4B38E6704E90AC16A6AD72180BD2&assignmentId=b29c8d1a-b2de-4ed4-988e-b80e99da2e6f&projectId=81dd14e9-200e-48d1-afc5-b6c2b3ebd11b","C31D4B38E6704E90AC16A6AD72180BD2-2025-05-15-14-50-47","","null","","images/schematic_sequence/restaurant_scheme/restaurant_scheme_0.png","null","",""
"","","","","","html-audio-response","32","685925","0.0-30.0","C31D4B38E6704E90AC16A6AD72180BD2","C31D4B38E6704E90AC16A6AD72180BD2","b29c8d1a-b2de-4ed4-988e-b80e99da2e6f","81dd14e9-200e-48d1-afc5-b6c2b3ebd11b","{""part"":""2"",""participantId"":""C31D4B38E6704E90AC16A6AD72180BD2"",""assignmentId"":""b29c8d1a-b2de-4ed4-988e-b80e99da2e6f"",""projectId"":""81dd14e9-200e-48d1-afc5-b6c2b3ebd11b""}","https://test12345.live/?part=2&participantId=C31D4B38E6704E90AC16A6AD72180BD2&assignmentId=b29c8d1a-b2de-4ed4-988e-b80e99da2e6f&projectId=81dd14e9-200e-48d1-afc5-b6c2b3ebd11b","C31D4B38E6704E90AC16A6AD72180BD2-2025-05-15-14-50-47","","36985","","[""<span style=\""color: red; font-size: 24px\""> NOW RECORDING</span><p>Please say out loud all the images you saw in part 1 of the experiment, as many as you can remember. The images can be said in any order.</p>""]","","1","restaurant_scheme"
"","","","","","image-button-response","33","691943","0.0-31.0-0.0","C31D4B38E6704E90AC16A6AD72180BD2","C31D4B38E6704E90AC16A6AD72180BD2","b29c8d1a-b2de-4ed4-988e-b80e99da2e6f","81dd14e9-200e-48d1-afc5-b6c2b3ebd11b","{""part"":""2"",""participantId"":""C31D4B38E6704E90AC16A6AD72180BD2"",""assignmentId"":""b29c8d1a-b2de-4ed4-988e-b80e99da2e6f"",""projectId"":""81dd14e9-200e-48d1-afc5-b6c2b3ebd11b""}","https://test12345.live/?part=2&participantId=C31D4B38E6704E90AC16A6AD72180BD2&assignmentId=b29c8d1a-b2de-4ed4-988e-b80e99da2e6f&projectId=81dd14e9-200e-48d1-afc5-b6c2b3ebd11b","C31D4B38E6704E90AC16A6AD72180BD2-2025-05-15-14-50-47","","null","","images/causal_sequence/the_performance_causal/the_performance_causal_0.png","null","",""
"","","","","","html-audio-response","34","703264","0.0-32.0","C31D4B38E6704E90AC16A6AD72180BD2","C31D4B38E6704E90AC16A6AD72180BD2","b29c8d1a-b2de-4ed4-988e-b80e99da2e6f","81dd14e9-200e-48d1-afc5-b6c2b3ebd11b","{""part"":""2"",""participantId"":""C31D4B38E6704E90AC16A6AD72180BD2"",""assignmentId"":""b29c8d1a-b2de-4ed4-988e-b80e99da2e6f"",""projectId"":""81dd14e9-200e-48d1-afc5-b6c2b3ebd11b""}","https://test12345.live/?part=2&participantId=C31D4B38E6704E90AC16A6AD72180BD2&assignmentId=b29c8d1a-b2de-4ed4-988e-b80e99da2e6f&projectId=81dd14e9-200e-48d1-afc5-b6c2b3ebd11b","C31D4B38E6704E90AC16A6AD72180BD2-2025-05-15-14-50-47","","9901","","[""<span style=\""color: red; font-size: 24px\""> NOW RECORDING</span><p>Please say out loud all the images you saw in part 1 of the experiment, as many as you can remember. The images can be said in any order.</p>""]","","2","the_performance_causal"
"","","","","","image-button-response","35","709281","0.0-33.0-0.0","C31D4B38E6704E90AC16A6AD72180BD2","C31D4B38E6704E90AC16A6AD72180BD2","b29c8d1a-b2de-4ed4-988e-b80e99da2e6f","81dd14e9-200e-48d1-afc5-b6c2b3ebd11b","{""part"":""2"",""participantId"":""C31D4B38E6704E90AC16A6AD72180BD2"",""assignmentId"":""b29c8d1a-b2de-4ed4-988e-b80e99da2e6f"",""projectId"":""81dd14e9-200e-48d1-afc5-b6c2b3ebd11b""}","https://test12345.live/?part=2&participantId=C31D4B38E6704E90AC16A6AD72180BD2&assignmentId=b29c8d1a-b2de-4ed4-988e-b80e99da2e6f&projectId=81dd14e9-200e-48d1-afc5-b6c2b3ebd11b","C31D4B38E6704E90AC16A6AD72180BD2-2025-05-15-14-50-47","","null","","images/semantic_sequence/using_technology_semantic/using_technology_semantic_0.png","null","",""
"","","","","","html-audio-response","36","737300","0.0-34.0","C31D4B38E6704E90AC16A6AD72180BD2","C31D4B38E6704E90AC16A6AD72180BD2","b29c8d1a-b2de-4ed4-988e-b80e99da2e6f","81dd14e9-200e-48d1-afc5-b6c2b3ebd11b","{""part"":""2"",""participantId"":""C31D4B38E6704E90AC16A6AD72180BD2"",""assignmentId"":""b29c8d1a-b2de-4ed4-988e-b80e99da2e6f"",""projectId"":""81dd14e9-200e-48d1-afc5-b6c2b3ebd11b""}","https://test12345.live/?part=2&participantId=C31D4B38E6704E90AC16A6AD72180BD2&assignmentId=b29c8d1a-b2de-4ed4-988e-b80e99da2e6f&projectId=81dd14e9-200e-48d1-afc5-b6c2b3ebd11b","C31D4B38E6704E90AC16A6AD72180BD2-2025-05-15-14-50-47","","27150","","[""<span style=\""color: red; font-size: 24px\""> NOW RECORDING</span><p>Please say out loud all the images you saw in part 1 of the experiment, as many as you can remember. The images can be said in any order.</p>""]","","1","using_technology_semantic"
"","","","","","image-button-response","37","743309","0.0-35.0-0.0","C31D4B38E6704E90AC16A6AD72180BD2","C31D4B38E6704E90AC16A6AD72180BD2","b29c8d1a-b2de-4ed4-988e-b80e99da2e6f","81dd14e9-200e-48d1-afc5-b6c2b3ebd11b","{""part"":""2"",""participantId"":""C31D4B38E6704E90AC16A6AD72180BD2"",""assignmentId"":""b29c8d1a-b2de-4ed4-988e-b80e99da2e6f"",""projectId"":""81dd14e9-200e-48d1-afc5-b6c2b3ebd11b""}","https://test12345.live/?part=2&participantId=C31D4B38E6704E90AC16A6AD72180BD2&assignmentId=b29c8d1a-b2de-4ed4-988e-b80e99da2e6f&projectId=81dd14e9-200e-48d1-afc5-b6c2b3ebd11b","C31D4B38E6704E90AC16A6AD72180BD2-2025-05-15-14-50-47","","null","","images/semantic_sequence/creative_activities_semantic/creative_activities_semantic_0.png","null","",""
"","","","","","html-audio-response","38","783846","0.0-36.0","C31D4B38E6704E90AC16A6AD72180BD2","C31D4B38E6704E90AC16A6AD72180BD2","b29c8d1a-b2de-4ed4-988e-b80e99da2e6f","81dd14e9-200e-48d1-afc5-b6c2b3ebd11b","{""part"":""2"",""participantId"":""C31D4B38E6704E90AC16A6AD72180BD2"",""assignmentId"":""b29c8d1a-b2de-4ed4-988e-b80e99da2e6f"",""projectId"":""81dd14e9-200e-48d1-afc5-b6c2b3ebd11b""}","https://test12345.live/?part=2&participantId=C31D4B38E6704E90AC16A6AD72180BD2&assignmentId=b29c8d1a-b2de-4ed4-988e-b80e99da2e6f&projectId=81dd14e9-200e-48d1-afc5-b6c2b3ebd11b","C31D4B38E6704E90AC16A6AD72180BD2-2025-05-15-14-50-47","","39449","","[""<span style=\""color: red; font-size: 24px\""> NOW RECORDING</span><p>Please say out loud all the images you saw in part 1 of the experiment, as many as you can remember. The images can be said in any order.</p>""]","","1","creative_activities_semantic"
"","","","","","image-button-response","39","789861","0.0-37.0-0.0","C31D4B38E6704E90AC16A6AD72180BD2","C31D4B38E6704E90AC16A6AD72180BD2","b29c8d1a-b2de-4ed4-988e-b80e99da2e6f","81dd14e9-200e-48d1-afc5-b6c2b3ebd11b","{""part"":""2"",""participantId"":""C31D4B38E6704E90AC16A6AD72180BD2"",""assignmentId"":""b29c8d1a-b2de-4ed4-988e-b80e99da2e6f"",""projectId"":""81dd14e9-200e-48d1-afc5-b6c2b3ebd11b""}","https://test12345.live/?part=2&participantId=C31D4B38E6704E90AC16A6AD72180BD2&assignmentId=b29c8d1a-b2de-4ed4-988e-b80e99da2e6f&projectId=81dd14e9-200e-48d1-afc5-b6c2b3ebd11b","C31D4B38E6704E90AC16A6AD72180BD2-2025-05-15-14-50-47","","null","","images/schematic_sequence/supermarket_scheme/supermarket_scheme_0.png","null","",""
"","","","","","html-audio-response","40","816756","0.0-38.0","C31D4B38E6704E90AC16A6AD72180BD2","C31D4B38E6704E90AC16A6AD72180BD2","b29c8d1a-b2de-4ed4-988e-b80e99da2e6f","81dd14e9-200e-48d1-afc5-b6c2b3ebd11b","{""part"":""2"",""participantId"":""C31D4B38E6704E90AC16A6AD72180BD2"",""assignmentId"":""b29c8d1a-b2de-4ed4-988e-b80e99da2e6f"",""projectId"":""81dd14e9-200e-48d1-afc5-b6c2b3ebd11b""}","https://test12345.live/?part=2&participantId=C31D4B38E6704E90AC16A6AD72180BD2&assignmentId=b29c8d1a-b2de-4ed4-988e-b80e99da2e6f&projectId=81dd14e9-200e-48d1-afc5-b6c2b3ebd11b","C31D4B38E6704E90AC16A6AD72180BD2-2025-05-15-14-50-47","","25227","","[""<span style=\""color: red; font-size: 24px\""> NOW RECORDING</span><p>Please say out loud all the images you saw in part 1 of the experiment, as many as you can remember. The images can be said in any order.</p>""]","","1","supermarket_scheme"
"","","","","","image-button-response","41","822775","0.0-39.0-0.0","C31D4B38E6704E90AC16A6AD72180BD2","C31D4B38E6704E90AC16A6AD72180BD2","b29c8d1a-b2de-4ed4-988e-b80e99da2e6f","81dd14e9-200e-48d1-afc5-b6c2b3ebd11b","{""part"":""2"",""participantId"":""C31D4B38E6704E90AC16A6AD72180BD2"",""assignmentId"":""b29c8d1a-b2de-4ed4-988e-b80e99da2e6f"",""projectId"":""81dd14e9-200e-48d1-afc5-b6c2b3ebd11b""}","https://test12345.live/?part=2&participantId=C31D4B38E6704E90AC16A6AD72180BD2&assignmentId=b29c8d1a-b2de-4ed4-988e-b80e99da2e6f&projectId=81dd14e9-200e-48d1-afc5-b6c2b3ebd11b","C31D4B38E6704E90AC16A6AD72180BD2-2025-05-15-14-50-47","","null","","images/semantic_sequence/exploring_nature_semantic/exploring_nature_semantic_0.png","null","",""
"","","","","","html-audio-response","42","840918","0.0-40.0","C31D4B38E6704E90AC16A6AD72180BD2","C31D4B38E6704E90AC16A6AD72180BD2","b29c8d1a-b2de-4ed4-988e-b80e99da2e6f","81dd14e9-200e-48d1-afc5-b6c2b3ebd11b","{""part"":""2"",""participantId"":""C31D4B38E6704E90AC16A6AD72180BD2"",""assignmentId"":""b29c8d1a-b2de-4ed4-988e-b80e99da2e6f"",""projectId"":""81dd14e9-200e-48d1-afc5-b6c2b3ebd11b""}","https://test12345.live/?part=2&participantId=C31D4B38E6704E90AC16A6AD72180BD2&assignmentId=b29c8d1a-b2de-4ed4-988e-b80e99da2e6f&projectId=81dd14e9-200e-48d1-afc5-b6c2b3ebd11b","C31D4B38E6704E90AC16A6AD72180BD2-2025-05-15-14-50-47","","17250","","[""<span style=\""color: red; font-size: 24px\""> NOW RECORDING</span><p>Please say out loud all the images you saw in part 1 of the experiment, as many as you can remember. The images can be said in any order.</p>""]","","1","exploring_nature_semantic"
"","","","","","image-button-response","43","846926","0.0-41.0-0.0","C31D4B38E6704E90AC16A6AD72180BD2","C31D4B38E6704E90AC16A6AD72180BD2","b29c8d1a-b2de-4ed4-988e-b80e99da2e6f","81dd14e9-200e-48d1-afc5-b6c2b3ebd11b","{""part"":""2"",""participantId"":""C31D4B38E6704E90AC16A6AD72180BD2"",""assignmentId"":""b29c8d1a-b2de-4ed4-988e-b80e99da2e6f"",""projectId"":""81dd14e9-200e-48d1-afc5-b6c2b3ebd11b""}","https://test12345.live/?part=2&participantId=C31D4B38E6704E90AC16A6AD72180BD2&assignmentId=b29c8d1a-b2de-4ed4-988e-b80e99da2e6f&projectId=81dd14e9-200e-48d1-afc5-b6c2b3ebd11b","C31D4B38E6704E90AC16A6AD72180BD2-2025-05-15-14-50-47","","null","","images/schematic_sequence/hotel_scheme/hotel_scheme_0.png","null","",""
"","","","","","html-audio-response","44","875610","0.0-42.0","C31D4B38E6704E90AC16A6AD72180BD2","C31D4B38E6704E90AC16A6AD72180BD2","b29c8d1a-b2de-4ed4-988e-b80e99da2e6f","81dd14e9-200e-48d1-afc5-b6c2b3ebd11b","{""part"":""2"",""participantId"":""C31D4B38E6704E90AC16A6AD72180BD2"",""assignmentId"":""b29c8d1a-b2de-4ed4-988e-b80e99da2e6f"",""projectId"":""81dd14e9-200e-48d1-afc5-b6c2b3ebd11b""}","https://test12345.live/?part=2&participantId=C31D4B38E6704E90AC16A6AD72180BD2&assignmentId=b29c8d1a-b2de-4ed4-988e-b80e99da2e6f&projectId=81dd14e9-200e-48d1-afc5-b6c2b3ebd11b","C31D4B38E6704E90AC16A6AD72180BD2-2025-05-15-14-50-47","","27615","","[""<span style=\""color: red; font-size: 24px\""> NOW RECORDING</span><p>Please say out loud all the images you saw in part 1 of the experiment, as many as you can remember. The images can be said in any order.</p>""]","","1","hotel_scheme"
"","","","","","image-button-response","45","881631","0.0-43.0-0.0","C31D4B38E6704E90AC16A6AD72180BD2","C31D4B38E6704E90AC16A6AD72180BD2","b29c8d1a-b2de-4ed4-988e-b80e99da2e6f","81dd14e9-200e-48d1-afc5-b6c2b3ebd11b","{""part"":""2"",""participantId"":""C31D4B38E6704E90AC16A6AD72180BD2"",""assignmentId"":""b29c8d1a-b2de-4ed4-988e-b80e99da2e6f"",""projectId"":""81dd14e9-200e-48d1-afc5-b6c2b3ebd11b""}","https://test12345.live/?part=2&participantId=C31D4B38E6704E90AC16A6AD72180BD2&assignmentId=b29c8d1a-b2de-4ed4-988e-b80e99da2e6f&projectId=81dd14e9-200e-48d1-afc5-b6c2b3ebd11b","C31D4B38E6704E90AC16A6AD72180BD2-2025-05-15-14-50-47","","null","","images/causal_sequence/coin_causal/coin_causal_0.png","null","",""
"","","","","","html-audio-response","46","923800","0.0-44.0","C31D4B38E6704E90AC16A6AD72180BD2","C31D4B38E6704E90AC16A6AD72180BD2","b29c8d1a-b2de-4ed4-988e-b80e99da2e6f","81dd14e9-200e-48d1-afc5-b6c2b3ebd11b","{""part"":""2"",""participantId"":""C31D4B38E6704E90AC16A6AD72180BD2"",""assignmentId"":""b29c8d1a-b2de-4ed4-988e-b80e99da2e6f"",""projectId"":""81dd14e9-200e-48d1-afc5-b6c2b3ebd11b""}","https://test12345.live/?part=2&participantId=C31D4B38E6704E90AC16A6AD72180BD2&assignmentId=b29c8d1a-b2de-4ed4-988e-b80e99da2e6f&projectId=81dd14e9-200e-48d1-afc5-b6c2b3ebd11b","C31D4B38E6704E90AC16A6AD72180BD2-2025-05-15-14-50-47","","2249","","[""<span style=\""color: red; font-size: 24px\""> NOW RECORDING</span><p>Please say out loud all the images you saw in part 1 of the experiment, as many as you can remember. The images can be said in any order.</p>""]","","1","coin_causal"
"","","","","","image-button-response","47","929812","0.0-45.0-0.0","C31D4B38E6704E90AC16A6AD72180BD2","C31D4B38E6704E90AC16A6AD72180BD2","b29c8d1a-b2de-4ed4-988e-b80e99da2e6f","81dd14e9-200e-48d1-afc5-b6c2b3ebd11b","{""part"":""2"",""participantId"":""C31D4B38E6704E90AC16A6AD72180BD2"",""assignmentId"":""b29c8d1a-b2de-4ed4-988e-b80e99da2e6f"",""projectId"":""81dd14e9-200e-48d1-afc5-b6c2b3ebd11b""}","https://test12345.live/?part=2&participantId=C31D4B38E6704E90AC16A6AD72180BD2&assignmentId=b29c8d1a-b2de-4ed4-988e-b80e99da2e6f&projectId=81dd14e9-200e-48d1-afc5-b6c2b3ebd11b","C31D4B38E6704E90AC16A6AD72180BD2-2025-05-15-14-50-47","","null","","images/schematic_sequence/flight_scheme/flight_scheme_0.png","null","",""
"","","","","","html-audio-response","48","961375","0.0-46.0","C31D4B38E6704E90AC16A6AD72180BD2","C31D4B38E6704E90AC16A6AD72180BD2","b29c8d1a-b2de-4ed4-988e-b80e99da2e6f","81dd14e9-200e-48d1-afc5-b6c2b3ebd11b","{""part"":""2"",""participantId"":""C31D4B38E6704E90AC16A6AD72180BD2"",""assignmentId"":""b29c8d1a-b2de-4ed4-988e-b80e99da2e6f"",""projectId"":""81dd14e9-200e-48d1-afc5-b6c2b3ebd11b""}","https://test12345.live/?part=2&participantId=C31D4B38E6704E90AC16A6AD72180BD2&assignmentId=b29c8d1a-b2de-4ed4-988e-b80e99da2e6f&projectId=81dd14e9-200e-48d1-afc5-b6c2b3ebd11b","C31D4B38E6704E90AC16A6AD72180BD2-2025-05-15-14-50-47","","30420","","[""<span style=\""color: red; font-size: 24px\""> NOW RECORDING</span><p>Please say out loud all the images you saw in part 1 of the experiment, as many as you can remember. The images can be said in any order.</p>""]","","1","flight_scheme"
"","","","","","image-button-response","49","967388","0.0-47.0-0.0","C31D4B38E6704E90AC16A6AD72180BD2","C31D4B38E6704E90AC16A6AD72180BD2","b29c8d1a-b2de-4ed4-988e-b80e99da2e6f","81dd14e9-200e-48d1-afc5-b6c2b3ebd11b","{""part"":""2"",""participantId"":""C31D4B38E6704E90AC16A6AD72180BD2"",""assignmentId"":""b29c8d1a-b2de-4ed4-988e-b80e99da2e6f"",""projectId"":""81dd14e9-200e-48d1-afc5-b6c2b3ebd11b""}","https://test12345.live/?part=2&participantId=C31D4B38E6704E90AC16A6AD72180BD2&assignmentId=b29c8d1a-b2de-4ed4-988e-b80e99da2e6f&projectId=81dd14e9-200e-48d1-afc5-b6c2b3ebd11b","C31D4B38E6704E90AC16A6AD72180BD2-2025-05-15-14-50-47","","null","","images/schematic_sequence/interview_scheme/interview_scheme_0.png","null","",""
"","","","","","html-audio-response","50","991116","0.0-48.0","C31D4B38E6704E90AC16A6AD72180BD2","C31D4B38E6704E90AC16A6AD72180BD2","b29c8d1a-b2de-4ed4-988e-b80e99da2e6f","81dd14e9-200e-48d1-afc5-b6c2b3ebd11b","{""part"":""2"",""participantId"":""C31D4B38E6704E90AC16A6AD72180BD2"",""assignmentId"":""b29c8d1a-b2de-4ed4-988e-b80e99da2e6f"",""projectId"":""81dd14e9-200e-48d1-afc5-b6c2b3ebd11b""}","https://test12345.live/?part=2&participantId=C31D4B38E6704E90AC16A6AD72180BD2&assignmentId=b29c8d1a-b2de-4ed4-988e-b80e99da2e6f&projectId=81dd14e9-200e-48d1-afc5-b6c2b3ebd11b","C31D4B38E6704E90AC16A6AD72180BD2-2025-05-15-14-50-47","","22714","","[""<span style=\""color: red; font-size: 24px\""> NOW RECORDING</span><p>Please say out loud all the images you saw in part 1 of the experiment, as many as you can remember. The images can be said in any order.</p>""]","","18","interview_scheme"
"","","","","","image-button-response","51","997135","0.0-49.0-0.0","C31D4B38E6704E90AC16A6AD72180BD2","C31D4B38E6704E90AC16A6AD72180BD2","b29c8d1a-b2de-4ed4-988e-b80e99da2e6f","81dd14e9-200e-48d1-afc5-b6c2b3ebd11b","{""part"":""2"",""participantId"":""C31D4B38E6704E90AC16A6AD72180BD2"",""assignmentId"":""b29c8d1a-b2de-4ed4-988e-b80e99da2e6f"",""projectId"":""81dd14e9-200e-48d1-afc5-b6c2b3ebd11b""}","https://test12345.live/?part=2&participantId=C31D4B38E6704E90AC16A6AD72180BD2&assignmentId=b29c8d1a-b2de-4ed4-988e-b80e99da2e6f&projectId=81dd14e9-200e-48d1-afc5-b6c2b3ebd11b","C31D4B38E6704E90AC16A6AD72180BD2-2025-05-15-14-50-47","","null","","images/semantic_sequence/housework_semantic/housework_semantic_0.png","null","",""
"","","","","","html-audio-response","52","1030099","0.0-50.0","C31D4B38E6704E90AC16A6AD72180BD2","C31D4B38E6704E90AC16A6AD72180BD2","b29c8d1a-b2de-4ed4-988e-b80e99da2e6f","81dd14e9-200e-48d1-afc5-b6c2b3ebd11b","{""part"":""2"",""participantId"":""C31D4B38E6704E90AC16A6AD72180BD2"",""assignmentId"":""b29c8d1a-b2de-4ed4-988e-b80e99da2e6f"",""projectId"":""81dd14e9-200e-48d1-afc5-b6c2b3ebd11b""}","https://test12345.live/?part=2&participantId=C31D4B38E6704E90AC16A6AD72180BD2&assignmentId=b29c8d1a-b2de-4ed4-988e-b80e99da2e6f&projectId=81dd14e9-200e-48d1-afc5-b6c2b3ebd11b","C31D4B38E6704E90AC16A6AD72180BD2-2025-05-15-14-50-47","","32121","","[""<span style=\""color: red; font-size: 24px\""> NOW RECORDING</span><p>Please say out loud all the images you saw in part 1 of the experiment, as many as you can remember. The images can be said in any order.</p>""]","","1","housework_semantic"
"","","","","","image-button-response","53","1036113","0.0-51.0-0.0","C31D4B38E6704E90AC16A6AD72180BD2","C31D4B38E6704E90AC16A6AD72180BD2","b29c8d1a-b2de-4ed4-988e-b80e99da2e6f","81dd14e9-200e-48d1-afc5-b6c2b3ebd11b","{""part"":""2"",""participantId"":""C31D4B38E6704E90AC16A6AD72180BD2"",""assignmentId"":""b29c8d1a-b2de-4ed4-988e-b80e99da2e6f"",""projectId"":""81dd14e9-200e-48d1-afc5-b6c2b3ebd11b""}","https://test12345.live/?part=2&participantId=C31D4B38E6704E90AC16A6AD72180BD2&assignmentId=b29c8d1a-b2de-4ed4-988e-b80e99da2e6f&projectId=81dd14e9-200e-48d1-afc5-b6c2b3ebd11b","C31D4B38E6704E90AC16A6AD72180BD2-2025-05-15-14-50-47","","null","","images/semantic_sequence/cat_care_semantic/cat_care_semantic_0.png","null","",""
"","","","","","html-audio-response","54","1058586","0.0-52.0","C31D4B38E6704E90AC16A6AD72180BD2","C31D4B38E6704E90AC16A6AD72180BD2","b29c8d1a-b2de-4ed4-988e-b80e99da2e6f","81dd14e9-200e-48d1-afc5-b6c2b3ebd11b","{""part"":""2"",""participantId"":""C31D4B38E6704E90AC16A6AD72180BD2"",""assignmentId"":""b29c8d1a-b2de-4ed4-988e-b80e99da2e6f"",""projectId"":""81dd14e9-200e-48d1-afc5-b6c2b3ebd11b""}","https://test12345.live/?part=2&participantId=C31D4B38E6704E90AC16A6AD72180BD2&assignmentId=b29c8d1a-b2de-4ed4-988e-b80e99da2e6f&projectId=81dd14e9-200e-48d1-afc5-b6c2b3ebd11b","C31D4B38E6704E90AC16A6AD72180BD2-2025-05-15-14-50-47","","21435","","[""<span style=\""color: red; font-size: 24px\""> NOW RECORDING</span><p>Please say out loud all the images you saw in part 1 of the experiment, as many as you can remember. The images can be said in any order.</p>""]","","1","cat_care_semantic"
"","","","","","image-button-response","55","1064593","0.0-53.0-0.0","C31D4B38E6704E90AC16A6AD72180BD2","C31D4B38E6704E90AC16A6AD72180BD2","b29c8d1a-b2de-4ed4-988e-b80e99da2e6f","81dd14e9-200e-48d1-afc5-b6c2b3ebd11b","{""part"":""2"",""participantId"":""C31D4B38E6704E90AC16A6AD72180BD2"",""assignmentId"":""b29c8d1a-b2de-4ed4-988e-b80e99da2e6f"",""projectId"":""81dd14e9-200e-48d1-afc5-b6c2b3ebd11b""}","https://test12345.live/?part=2&participantId=C31D4B38E6704E90AC16A6AD72180BD2&assignmentId=b29c8d1a-b2de-4ed4-988e-b80e99da2e6f&projectId=81dd14e9-200e-48d1-afc5-b6c2b3ebd11b","C31D4B38E6704E90AC16A6AD72180BD2-2025-05-15-14-50-47","","null","","images/semantic_sequence/redecorating_semantic/redecorating_semantic_0.png","null","",""
"","","","","","html-audio-response","56","1088668","0.0-54.0","C31D4B38E6704E90AC16A6AD72180BD2","C31D4B38E6704E90AC16A6AD72180BD2","b29c8d1a-b2de-4ed4-988e-b80e99da2e6f","81dd14e9-200e-48d1-afc5-b6c2b3ebd11b","{""part"":""2"",""participantId"":""C31D4B38E6704E90AC16A6AD72180BD2"",""assignmentId"":""b29c8d1a-b2de-4ed4-988e-b80e99da2e6f"",""projectId"":""81dd14e9-200e-48d1-afc5-b6c2b3ebd11b""}","https://test12345.live/?part=2&participantId=C31D4B38E6704E90AC16A6AD72180BD2&assignmentId=b29c8d1a-b2de-4ed4-988e-b80e99da2e6f&projectId=81dd14e9-200e-48d1-afc5-b6c2b3ebd11b","C31D4B38E6704E90AC16A6AD72180BD2-2025-05-15-14-50-47","","23417","","[""<span style=\""color: red; font-size: 24px\""> NOW RECORDING</span><p>Please say out loud all the images you saw in part 1 of the experiment, as many as you can remember. The images can be said in any order.</p>""]","","1","redecorating_semantic"
"","","","","","image-button-response","57","1094682","0.0-55.0-0.0","C31D4B38E6704E90AC16A6AD72180BD2","C31D4B38E6704E90AC16A6AD72180BD2","b29c8d1a-b2de-4ed4-988e-b80e99da2e6f","81dd14e9-200e-48d1-afc5-b6c2b3ebd11b","{""part"":""2"",""participantId"":""C31D4B38E6704E90AC16A6AD72180BD2"",""assignmentId"":""b29c8d1a-b2de-4ed4-988e-b80e99da2e6f"",""projectId"":""81dd14e9-200e-48d1-afc5-b6c2b3ebd11b""}","https://test12345.live/?part=2&participantId=C31D4B38E6704E90AC16A6AD72180BD2&assignmentId=b29c8d1a-b2de-4ed4-988e-b80e99da2e6f&projectId=81dd14e9-200e-48d1-afc5-b6c2b3ebd11b","C31D4B38E6704E90AC16A6AD72180BD2-2025-05-15-14-50-47","","null","","images/causal_sequence/dog_causal/dog_causal_0.png","null","",""
"","","","","","html-audio-response","58","1110196","0.0-56.0","C31D4B38E6704E90AC16A6AD72180BD2","C31D4B38E6704E90AC16A6AD72180BD2","b29c8d1a-b2de-4ed4-988e-b80e99da2e6f","81dd14e9-200e-48d1-afc5-b6c2b3ebd11b","{""part"":""2"",""participantId"":""C31D4B38E6704E90AC16A6AD72180BD2"",""assignmentId"":""b29c8d1a-b2de-4ed4-988e-b80e99da2e6f"",""projectId"":""81dd14e9-200e-48d1-afc5-b6c2b3ebd11b""}","https://test12345.live/?part=2&participantId=C31D4B38E6704E90AC16A6AD72180BD2&assignmentId=b29c8d1a-b2de-4ed4-988e-b80e99da2e6f&projectId=81dd14e9-200e-48d1-afc5-b6c2b3ebd11b","C31D4B38E6704E90AC16A6AD72180BD2-2025-05-15-14-50-47","","14742","","[""<span style=\""color: red; font-size: 24px\""> NOW RECORDING</span><p>Please say out loud all the images you saw in part 1 of the experiment, as many as you can remember. The images can be said in any order.</p>""]","","1","dog_causal"
"","","","","","survey-text","59","1116337","0.0-57.0","C31D4B38E6704E90AC16A6AD72180BD2","C31D4B38E6704E90AC16A6AD72180BD2","b29c8d1a-b2de-4ed4-988e-b80e99da2e6f","81dd14e9-200e-48d1-afc5-b6c2b3ebd11b","{""part"":""2"",""participantId"":""C31D4B38E6704E90AC16A6AD72180BD2"",""assignmentId"":""b29c8d1a-b2de-4ed4-988e-b80e99da2e6f"",""projectId"":""81dd14e9-200e-48d1-afc5-b6c2b3ebd11b""}","https://test12345.live/?part=2&participantId=C31D4B38E6704E90AC16A6AD72180BD2&assignmentId=b29c8d1a-b2de-4ed4-988e-b80e99da2e6f&projectId=81dd14e9-200e-48d1-afc5-b6c2b3ebd11b","C31D4B38E6704E90AC16A6AD72180BD2-2025-05-15-14-50-47","","6133","","","{""Q0"":""FEMALE"",""Q1"":""31""}","",""
"","","","","","instructions","60","1119564","0.0-58.0","C31D4B38E6704E90AC16A6AD72180BD2","C31D4B38E6704E90AC16A6AD72180BD2","b29c8d1a-b2de-4ed4-988e-b80e99da2e6f","81dd14e9-200e-48d1-afc5-b6c2b3ebd11b","{""part"":""2"",""participantId"":""C31D4B38E6704E90AC16A6AD72180BD2"",""assignmentId"":""b29c8d1a-b2de-4ed4-988e-b80e99da2e6f"",""projectId"":""81dd14e9-200e-48d1-afc5-b6c2b3ebd11b""}","https://test12345.live/?part=2&participantId=C31D4B38E6704E90AC16A6AD72180BD2&assignmentId=b29c8d1a-b2de-4ed4-988e-b80e99da2e6f&projectId=81dd14e9-200e-48d1-afc5-b6c2b3ebd11b","C31D4B38E6704E90AC16A6AD72180BD2-2025-05-15-14-50-47","[{""page_index"":0,""viewing_time"":3227}]","3227","","","","",""
"","","","","","survey-text","61","1121848","0.0-59.0","C31D4B38E6704E90AC16A6AD72180BD2","C31D4B38E6704E90AC16A6AD72180BD2","b29c8d1a-b2de-4ed4-988e-b80e99da2e6f","81dd14e9-200e-48d1-afc5-b6c2b3ebd11b","{""part"":""2"",""participantId"":""C31D4B38E6704E90AC16A6AD72180BD2"",""assignmentId"":""b29c8d1a-b2de-4ed4-988e-b80e99da2e6f"",""projectId"":""81dd14e9-200e-48d1-afc5-b6c2b3ebd11b""}","https://test12345.live/?part=2&participantId=C31D4B38E6704E90AC16A6AD72180BD2&assignmentId=b29c8d1a-b2de-4ed4-988e-b80e99da2e6f&projectId=81dd14e9-200e-48d1-afc5-b6c2b3ebd11b","C31D4B38E6704E90AC16A6AD72180BD2-2025-05-15-14-50-47","","2282","","","{""Q0"":""AJFHBG896""}","",""
