"success","timeout","failed_images","failed_audio","failed_video","trial_type","trial_index","time_elapsed","internal_node_id","subject","subject_id","study_id","session_id","urlvar","current_url","audio_id","view_history","rt","device_id","stimulus","response","estimated_stimulus_onset","seq_name"
"true","false","[]","[]","[]","preload","0","19842","0.0-0.0","C6C57035021645E38F43495607B44726","C6C57035021645E38F43495607B44726","5b1b41ed-0cd2-4bcb-9efe-228c2e00ef18","3ce68dc4-89da-4770-948e-944f675a4a4c","{""part"":""2"",""participantId"":""C6C57035021645E38F43495607B44726"",""assignmentId"":""5b1b41ed-0cd2-4bcb-9efe-228c2e00ef18"",""projectId"":""3ce68dc4-89da-4770-948e-944f675a4a4c""}","https://test12345.live/?part=2&participantId=C6C57035021645E38F43495607B44726&assignmentId=5b1b41ed-0cd2-4bcb-9efe-228c2e00ef18&projectId=3ce68dc4-89da-4770-948e-944f675a4a4c","C6C57035021645E38F43495607B44726-2025-05-28-16-56-13","","","","","","",""
"","","","","","instructions","1","34719","0.0-1.0","C6C57035021645E38F43495607B44726","C6C57035021645E38F43495607B44726","5b1b41ed-0cd2-4bcb-9efe-228c2e00ef18","3ce68dc4-89da-4770-948e-944f675a4a4c","{""part"":""2"",""participantId"":""C6C57035021645E38F43495607B44726"",""assignmentId"":""5b1b41ed-0cd2-4bcb-9efe-228c2e00ef18"",""projectId"":""3ce68dc4-89da-4770-948e-944f675a4a4c""}","https://test12345.live/?part=2&participantId=C6C57035021645E38F43495607B44726&assignmentId=5b1b41ed-0cd2-4bcb-9efe-228c2e00ef18&projectId=3ce68dc4-89da-4770-948e-944f675a4a4c","C6C57035021645E38F43495607B44726-2025-05-28-16-56-13","[{""page_index"":0,""viewing_time"":14873}]","14875","","","","",""
"","","","","","instructions","2","44517","0.0-2.0","C6C57035021645E38F43495607B44726","C6C57035021645E38F43495607B44726","5b1b41ed-0cd2-4bcb-9efe-228c2e00ef18","3ce68dc4-89da-4770-948e-944f675a4a4c","{""part"":""2"",""participantId"":""C6C57035021645E38F43495607B44726"",""assignmentId"":""5b1b41ed-0cd2-4bcb-9efe-228c2e00ef18"",""projectId"":""3ce68dc4-89da-4770-948e-944f675a4a4c""}","https://test12345.live/?part=2&participantId=C6C57035021645E38F43495607B44726&assignmentId=5b1b41ed-0cd2-4bcb-9efe-228c2e00ef18&projectId=3ce68dc4-89da-4770-948e-944f675a4a4c","C6C57035021645E38F43495607B44726-2025-05-28-16-56-13","[{""page_index"":0,""viewing_time"":9795}]","9796","","","","",""
"true","","","","","fullscreen","3","47331","0.0-3.0","C6C57035021645E38F43495607B44726","C6C57035021645E38F43495607B44726","5b1b41ed-0cd2-4bcb-9efe-228c2e00ef18","3ce68dc4-89da-4770-948e-944f675a4a4c","{""part"":""2"",""participantId"":""C6C57035021645E38F43495607B44726"",""assignmentId"":""5b1b41ed-0cd2-4bcb-9efe-228c2e00ef18"",""projectId"":""3ce68dc4-89da-4770-948e-944f675a4a4c""}","https://test12345.live/?part=2&participantId=C6C57035021645E38F43495607B44726&assignmentId=5b1b41ed-0cd2-4bcb-9efe-228c2e00ef18&projectId=3ce68dc4-89da-4770-948e-944f675a4a4c","C6C57035021645E38F43495607B44726-2025-05-28-16-56-13","","1796","","","","",""
"","","","","","initialize-microphone","4","70571","0.0-4.0-0.0","C6C57035021645E38F43495607B44726","C6C57035021645E38F43495607B44726","5b1b41ed-0cd2-4bcb-9efe-228c2e00ef18","3ce68dc4-89da-4770-948e-944f675a4a4c","{""part"":""2"",""participantId"":""C6C57035021645E38F43495607B44726"",""assignmentId"":""5b1b41ed-0cd2-4bcb-9efe-228c2e00ef18"",""projectId"":""3ce68dc4-89da-4770-948e-944f675a4a4c""}","https://test12345.live/?part=2&participantId=C6C57035021645E38F43495607B44726&assignmentId=5b1b41ed-0cd2-4bcb-9efe-228c2e00ef18&projectId=3ce68dc4-89da-4770-948e-944f675a4a4c","C6C57035021645E38F43495607B44726-2025-05-28-16-56-13","","","b8345f69f06ca62917fcc944bf6ae30d3038a1fb63bd9e4873ac17b31e82cd68","","","",""
"","","","","","html-audio-response","5","78797","0.0-4.0-1.0","C6C57035021645E38F43495607B44726","C6C57035021645E38F43495607B44726","5b1b41ed-0cd2-4bcb-9efe-228c2e00ef18","3ce68dc4-89da-4770-948e-944f675a4a4c","{""part"":""2"",""participantId"":""C6C57035021645E38F43495607B44726"",""assignmentId"":""5b1b41ed-0cd2-4bcb-9efe-228c2e00ef18"",""projectId"":""3ce68dc4-89da-4770-948e-944f675a4a4c""}","https://test12345.live/?part=2&participantId=C6C57035021645E38F43495607B44726&assignmentId=5b1b41ed-0cd2-4bcb-9efe-228c2e00ef18&projectId=3ce68dc4-89da-4770-948e-944f675a4a4c","C6C57035021645E38F43495607B44726-2025-05-28-16-56-13","","3520","","<span style=""color: red; font-size: 24px""> NOW RECORDING</span>
        <p>Please test Microphone</p>","","25",""
"","","","","","html-button-response","6","80164","0.0-4.0-2.0","C6C57035021645E38F43495607B44726","C6C57035021645E38F43495607B44726","5b1b41ed-0cd2-4bcb-9efe-228c2e00ef18","3ce68dc4-89da-4770-948e-944f675a4a4c","{""part"":""2"",""participantId"":""C6C57035021645E38F43495607B44726"",""assignmentId"":""5b1b41ed-0cd2-4bcb-9efe-228c2e00ef18"",""projectId"":""3ce68dc4-89da-4770-948e-944f675a4a4c""}","https://test12345.live/?part=2&participantId=C6C57035021645E38F43495607B44726&assignmentId=5b1b41ed-0cd2-4bcb-9efe-228c2e00ef18&projectId=3ce68dc4-89da-4770-948e-944f675a4a4c","C6C57035021645E38F43495607B44726-2025-05-28-16-56-13","","1364","","<p style=""font-size:48px; color:red;"">Is Microphone OK?</p>","1","",""
"","","","","","instructions","7","119639","0.0-5.0","C6C57035021645E38F43495607B44726","C6C57035021645E38F43495607B44726","5b1b41ed-0cd2-4bcb-9efe-228c2e00ef18","3ce68dc4-89da-4770-948e-944f675a4a4c","{""part"":""2"",""participantId"":""C6C57035021645E38F43495607B44726"",""assignmentId"":""5b1b41ed-0cd2-4bcb-9efe-228c2e00ef18"",""projectId"":""3ce68dc4-89da-4770-948e-944f675a4a4c""}","https://test12345.live/?part=2&participantId=C6C57035021645E38F43495607B44726&assignmentId=5b1b41ed-0cd2-4bcb-9efe-228c2e00ef18&projectId=3ce68dc4-89da-4770-948e-944f675a4a4c","C6C57035021645E38F43495607B44726-2025-05-28-16-56-13","[{""page_index"":0,""viewing_time"":1650},{""page_index"":1,""viewing_time"":10386},{""page_index"":2,""viewing_time"":27438}]","39474","","","","",""
"","","","","","image-button-response","8","125651","0.0-6.0-0.0","C6C57035021645E38F43495607B44726","C6C57035021645E38F43495607B44726","5b1b41ed-0cd2-4bcb-9efe-228c2e00ef18","3ce68dc4-89da-4770-948e-944f675a4a4c","{""part"":""2"",""participantId"":""C6C57035021645E38F43495607B44726"",""assignmentId"":""5b1b41ed-0cd2-4bcb-9efe-228c2e00ef18"",""projectId"":""3ce68dc4-89da-4770-948e-944f675a4a4c""}","https://test12345.live/?part=2&participantId=C6C57035021645E38F43495607B44726&assignmentId=5b1b41ed-0cd2-4bcb-9efe-228c2e00ef18&projectId=3ce68dc4-89da-4770-948e-944f675a4a4c","C6C57035021645E38F43495607B44726-2025-05-28-16-56-13","","null","","images/instructions/movie_0.png","null","",""
"","","","","","html-audio-response","9","160866","0.0-7.0","C6C57035021645E38F43495607B44726","C6C57035021645E38F43495607B44726","5b1b41ed-0cd2-4bcb-9efe-228c2e00ef18","3ce68dc4-89da-4770-948e-944f675a4a4c","{""part"":""2"",""participantId"":""C6C57035021645E38F43495607B44726"",""assignmentId"":""5b1b41ed-0cd2-4bcb-9efe-228c2e00ef18"",""projectId"":""3ce68dc4-89da-4770-948e-944f675a4a4c""}","https://test12345.live/?part=2&participantId=C6C57035021645E38F43495607B44726&assignmentId=5b1b41ed-0cd2-4bcb-9efe-228c2e00ef18&projectId=3ce68dc4-89da-4770-948e-944f675a4a4c","C6C57035021645E38F43495607B44726-2025-05-28-16-56-13","","34150","","[""<span style=\""color: red; font-size: 24px\""> NOW RECORDING</span><p>Please say out loud all the images you saw in part 1 of the experiment, in the exact order you saw them. Try to recall as many images as you can, but remember: getting the order right is more important than the number of images you recall.</p>""]","","4",""
"","","","","","instructions","10","162254","0.0-8.0","C6C57035021645E38F43495607B44726","C6C57035021645E38F43495607B44726","5b1b41ed-0cd2-4bcb-9efe-228c2e00ef18","3ce68dc4-89da-4770-948e-944f675a4a4c","{""part"":""2"",""participantId"":""C6C57035021645E38F43495607B44726"",""assignmentId"":""5b1b41ed-0cd2-4bcb-9efe-228c2e00ef18"",""projectId"":""3ce68dc4-89da-4770-948e-944f675a4a4c""}","https://test12345.live/?part=2&participantId=C6C57035021645E38F43495607B44726&assignmentId=5b1b41ed-0cd2-4bcb-9efe-228c2e00ef18&projectId=3ce68dc4-89da-4770-948e-944f675a4a4c","C6C57035021645E38F43495607B44726-2025-05-28-16-56-13","[{""page_index"":0,""viewing_time"":1362}]","1363","","","","",""
"","","","","","image-button-response","11","168261","0.0-9.0-0.0","C6C57035021645E38F43495607B44726","C6C57035021645E38F43495607B44726","5b1b41ed-0cd2-4bcb-9efe-228c2e00ef18","3ce68dc4-89da-4770-948e-944f675a4a4c","{""part"":""2"",""participantId"":""C6C57035021645E38F43495607B44726"",""assignmentId"":""5b1b41ed-0cd2-4bcb-9efe-228c2e00ef18"",""projectId"":""3ce68dc4-89da-4770-948e-944f675a4a4c""}","https://test12345.live/?part=2&participantId=C6C57035021645E38F43495607B44726&assignmentId=5b1b41ed-0cd2-4bcb-9efe-228c2e00ef18&projectId=3ce68dc4-89da-4770-948e-944f675a4a4c","C6C57035021645E38F43495607B44726-2025-05-28-16-56-13","","null","","images/semantic_sequence/redecorating_semantic/redecorating_semantic_0.png","null","",""
"","","","","","html-audio-response","12","273318","0.0-10.0","C6C57035021645E38F43495607B44726","C6C57035021645E38F43495607B44726","5b1b41ed-0cd2-4bcb-9efe-228c2e00ef18","3ce68dc4-89da-4770-948e-944f675a4a4c","{""part"":""2"",""participantId"":""C6C57035021645E38F43495607B44726"",""assignmentId"":""5b1b41ed-0cd2-4bcb-9efe-228c2e00ef18"",""projectId"":""3ce68dc4-89da-4770-948e-944f675a4a4c""}","https://test12345.live/?part=2&participantId=C6C57035021645E38F43495607B44726&assignmentId=5b1b41ed-0cd2-4bcb-9efe-228c2e00ef18&projectId=3ce68dc4-89da-4770-948e-944f675a4a4c","C6C57035021645E38F43495607B44726-2025-05-28-16-56-13","","17717","","[""<span style=\""color: red; font-size: 24px\""> NOW RECORDING</span><p>Please say out loud all the images you saw in part 1 of the experiment, in the exact order you saw them. Try to recall as many images as you can, but remember: getting the order right is more important than the number of images you recall. </p>""]","","14","redecorating_semantic"
"","","","","","image-button-response","13","279341","0.0-11.0-0.0","C6C57035021645E38F43495607B44726","C6C57035021645E38F43495607B44726","5b1b41ed-0cd2-4bcb-9efe-228c2e00ef18","3ce68dc4-89da-4770-948e-944f675a4a4c","{""part"":""2"",""participantId"":""C6C57035021645E38F43495607B44726"",""assignmentId"":""5b1b41ed-0cd2-4bcb-9efe-228c2e00ef18"",""projectId"":""3ce68dc4-89da-4770-948e-944f675a4a4c""}","https://test12345.live/?part=2&participantId=C6C57035021645E38F43495607B44726&assignmentId=5b1b41ed-0cd2-4bcb-9efe-228c2e00ef18&projectId=3ce68dc4-89da-4770-948e-944f675a4a4c","C6C57035021645E38F43495607B44726-2025-05-28-16-56-13","","null","","images/semantic_sequence/housework_semantic/housework_semantic_0.png","null","",""
"","","","","","html-audio-response","14","390147","0.0-12.0","C6C57035021645E38F43495607B44726","C6C57035021645E38F43495607B44726","5b1b41ed-0cd2-4bcb-9efe-228c2e00ef18","3ce68dc4-89da-4770-948e-944f675a4a4c","{""part"":""2"",""participantId"":""C6C57035021645E38F43495607B44726"",""assignmentId"":""5b1b41ed-0cd2-4bcb-9efe-228c2e00ef18"",""projectId"":""3ce68dc4-89da-4770-948e-944f675a4a4c""}","https://test12345.live/?part=2&participantId=C6C57035021645E38F43495607B44726&assignmentId=5b1b41ed-0cd2-4bcb-9efe-228c2e00ef18&projectId=3ce68dc4-89da-4770-948e-944f675a4a4c","C6C57035021645E38F43495607B44726-2025-05-28-16-56-13","","20116","","[""<span style=\""color: red; font-size: 24px\""> NOW RECORDING</span><p>Please say out loud all the images you saw in part 1 of the experiment, in the exact order you saw them. Try to recall as many images as you can, but remember: getting the order right is more important than the number of images you recall. </p>""]","","7","housework_semantic"
"","","","","","image-button-response","15","396171","0.0-13.0-0.0","C6C57035021645E38F43495607B44726","C6C57035021645E38F43495607B44726","5b1b41ed-0cd2-4bcb-9efe-228c2e00ef18","3ce68dc4-89da-4770-948e-944f675a4a4c","{""part"":""2"",""participantId"":""C6C57035021645E38F43495607B44726"",""assignmentId"":""5b1b41ed-0cd2-4bcb-9efe-228c2e00ef18"",""projectId"":""3ce68dc4-89da-4770-948e-944f675a4a4c""}","https://test12345.live/?part=2&participantId=C6C57035021645E38F43495607B44726&assignmentId=5b1b41ed-0cd2-4bcb-9efe-228c2e00ef18&projectId=3ce68dc4-89da-4770-948e-944f675a4a4c","C6C57035021645E38F43495607B44726-2025-05-28-16-56-13","","null","","images/causal_sequence/the_performance_causal/the_performance_causal_0.png","null","",""
"","","","","","html-audio-response","16","423958","0.0-14.0","C6C57035021645E38F43495607B44726","C6C57035021645E38F43495607B44726","5b1b41ed-0cd2-4bcb-9efe-228c2e00ef18","3ce68dc4-89da-4770-948e-944f675a4a4c","{""part"":""2"",""participantId"":""C6C57035021645E38F43495607B44726"",""assignmentId"":""5b1b41ed-0cd2-4bcb-9efe-228c2e00ef18"",""projectId"":""3ce68dc4-89da-4770-948e-944f675a4a4c""}","https://test12345.live/?part=2&participantId=C6C57035021645E38F43495607B44726&assignmentId=5b1b41ed-0cd2-4bcb-9efe-228c2e00ef18&projectId=3ce68dc4-89da-4770-948e-944f675a4a4c","C6C57035021645E38F43495607B44726-2025-05-28-16-56-13","","26537","","[""<span style=\""color: red; font-size: 24px\""> NOW RECORDING</span><p>Please say out loud all the images you saw in part 1 of the experiment, in the exact order you saw them. Try to recall as many images as you can, but remember: getting the order right is more important than the number of images you recall. </p>""]","","2","the_performance_causal"
"","","","","","image-button-response","17","429991","0.0-15.0-0.0","C6C57035021645E38F43495607B44726","C6C57035021645E38F43495607B44726","5b1b41ed-0cd2-4bcb-9efe-228c2e00ef18","3ce68dc4-89da-4770-948e-944f675a4a4c","{""part"":""2"",""participantId"":""C6C57035021645E38F43495607B44726"",""assignmentId"":""5b1b41ed-0cd2-4bcb-9efe-228c2e00ef18"",""projectId"":""3ce68dc4-89da-4770-948e-944f675a4a4c""}","https://test12345.live/?part=2&participantId=C6C57035021645E38F43495607B44726&assignmentId=5b1b41ed-0cd2-4bcb-9efe-228c2e00ef18&projectId=3ce68dc4-89da-4770-948e-944f675a4a4c","C6C57035021645E38F43495607B44726-2025-05-28-16-56-13","","null","","images/causal_sequence/saving_a_cat_causal/saving_a_cat_causal_0.png","null","",""
"","","","","","html-audio-response","18","466432","0.0-16.0","C6C57035021645E38F43495607B44726","C6C57035021645E38F43495607B44726","5b1b41ed-0cd2-4bcb-9efe-228c2e00ef18","3ce68dc4-89da-4770-948e-944f675a4a4c","{""part"":""2"",""participantId"":""C6C57035021645E38F43495607B44726"",""assignmentId"":""5b1b41ed-0cd2-4bcb-9efe-228c2e00ef18"",""projectId"":""3ce68dc4-89da-4770-948e-944f675a4a4c""}","https://test12345.live/?part=2&participantId=C6C57035021645E38F43495607B44726&assignmentId=5b1b41ed-0cd2-4bcb-9efe-228c2e00ef18&projectId=3ce68dc4-89da-4770-948e-944f675a4a4c","C6C57035021645E38F43495607B44726-2025-05-28-16-56-13","","33388","","[""<span style=\""color: red; font-size: 24px\""> NOW RECORDING</span><p>Please say out loud all the images you saw in part 1 of the experiment, in the exact order you saw them. Try to recall as many images as you can, but remember: getting the order right is more important than the number of images you recall. </p>""]","","2","saving_a_cat_causal"
"","","","","","image-button-response","19","472472","0.0-17.0-0.0","C6C57035021645E38F43495607B44726","C6C57035021645E38F43495607B44726","5b1b41ed-0cd2-4bcb-9efe-228c2e00ef18","3ce68dc4-89da-4770-948e-944f675a4a4c","{""part"":""2"",""participantId"":""C6C57035021645E38F43495607B44726"",""assignmentId"":""5b1b41ed-0cd2-4bcb-9efe-228c2e00ef18"",""projectId"":""3ce68dc4-89da-4770-948e-944f675a4a4c""}","https://test12345.live/?part=2&participantId=C6C57035021645E38F43495607B44726&assignmentId=5b1b41ed-0cd2-4bcb-9efe-228c2e00ef18&projectId=3ce68dc4-89da-4770-948e-944f675a4a4c","C6C57035021645E38F43495607B44726-2025-05-28-16-56-13","","null","","images/semantic_sequence/market_semantic/market_semantic_0.png","null","",""
"","","","","","html-audio-response","20","564404","0.0-18.0","C6C57035021645E38F43495607B44726","C6C57035021645E38F43495607B44726","5b1b41ed-0cd2-4bcb-9efe-228c2e00ef18","3ce68dc4-89da-4770-948e-944f675a4a4c","{""part"":""2"",""participantId"":""C6C57035021645E38F43495607B44726"",""assignmentId"":""5b1b41ed-0cd2-4bcb-9efe-228c2e00ef18"",""projectId"":""3ce68dc4-89da-4770-948e-944f675a4a4c""}","https://test12345.live/?part=2&participantId=C6C57035021645E38F43495607B44726&assignmentId=5b1b41ed-0cd2-4bcb-9efe-228c2e00ef18&projectId=3ce68dc4-89da-4770-948e-944f675a4a4c","C6C57035021645E38F43495607B44726-2025-05-28-16-56-13","","27775","","[""<span style=\""color: red; font-size: 24px\""> NOW RECORDING</span><p>Please say out loud all the images you saw in part 1 of the experiment, in the exact order you saw them. Try to recall as many images as you can, but remember: getting the order right is more important than the number of images you recall. </p>""]","","6","market_semantic"
"","","","","","image-button-response","21","570440","0.0-19.0-0.0","C6C57035021645E38F43495607B44726","C6C57035021645E38F43495607B44726","5b1b41ed-0cd2-4bcb-9efe-228c2e00ef18","3ce68dc4-89da-4770-948e-944f675a4a4c","{""part"":""2"",""participantId"":""C6C57035021645E38F43495607B44726"",""assignmentId"":""5b1b41ed-0cd2-4bcb-9efe-228c2e00ef18"",""projectId"":""3ce68dc4-89da-4770-948e-944f675a4a4c""}","https://test12345.live/?part=2&participantId=C6C57035021645E38F43495607B44726&assignmentId=5b1b41ed-0cd2-4bcb-9efe-228c2e00ef18&projectId=3ce68dc4-89da-4770-948e-944f675a4a4c","C6C57035021645E38F43495607B44726-2025-05-28-16-56-13","","null","","images/causal_sequence/dog_causal/dog_causal_0.png","null","",""
"","","","","","html-audio-response","22","605615","0.0-20.0","C6C57035021645E38F43495607B44726","C6C57035021645E38F43495607B44726","5b1b41ed-0cd2-4bcb-9efe-228c2e00ef18","3ce68dc4-89da-4770-948e-944f675a4a4c","{""part"":""2"",""participantId"":""C6C57035021645E38F43495607B44726"",""assignmentId"":""5b1b41ed-0cd2-4bcb-9efe-228c2e00ef18"",""projectId"":""3ce68dc4-89da-4770-948e-944f675a4a4c""}","https://test12345.live/?part=2&participantId=C6C57035021645E38F43495607B44726&assignmentId=5b1b41ed-0cd2-4bcb-9efe-228c2e00ef18&projectId=3ce68dc4-89da-4770-948e-944f675a4a4c","C6C57035021645E38F43495607B44726-2025-05-28-16-56-13","","30927","","[""<span style=\""color: red; font-size: 24px\""> NOW RECORDING</span><p>Please say out loud all the images you saw in part 1 of the experiment, in the exact order you saw them. Try to recall as many images as you can, but remember: getting the order right is more important than the number of images you recall. </p>""]","","2","dog_causal"
"","","","","","image-button-response","23","611650","0.0-21.0-0.0","C6C57035021645E38F43495607B44726","C6C57035021645E38F43495607B44726","5b1b41ed-0cd2-4bcb-9efe-228c2e00ef18","3ce68dc4-89da-4770-948e-944f675a4a4c","{""part"":""2"",""participantId"":""C6C57035021645E38F43495607B44726"",""assignmentId"":""5b1b41ed-0cd2-4bcb-9efe-228c2e00ef18"",""projectId"":""3ce68dc4-89da-4770-948e-944f675a4a4c""}","https://test12345.live/?part=2&participantId=C6C57035021645E38F43495607B44726&assignmentId=5b1b41ed-0cd2-4bcb-9efe-228c2e00ef18&projectId=3ce68dc4-89da-4770-948e-944f675a4a4c","C6C57035021645E38F43495607B44726-2025-05-28-16-56-13","","null","","images/semantic_sequence/exploring_nature_semantic/exploring_nature_semantic_0.png","null","",""
"","","","","","html-audio-response","24","683088","0.0-22.0","C6C57035021645E38F43495607B44726","C6C57035021645E38F43495607B44726","5b1b41ed-0cd2-4bcb-9efe-228c2e00ef18","3ce68dc4-89da-4770-948e-944f675a4a4c","{""part"":""2"",""participantId"":""C6C57035021645E38F43495607B44726"",""assignmentId"":""5b1b41ed-0cd2-4bcb-9efe-228c2e00ef18"",""projectId"":""3ce68dc4-89da-4770-948e-944f675a4a4c""}","https://test12345.live/?part=2&participantId=C6C57035021645E38F43495607B44726&assignmentId=5b1b41ed-0cd2-4bcb-9efe-228c2e00ef18&projectId=3ce68dc4-89da-4770-948e-944f675a4a4c","C6C57035021645E38F43495607B44726-2025-05-28-16-56-13","","13100","","[""<span style=\""color: red; font-size: 24px\""> NOW RECORDING</span><p>Please say out loud all the images you saw in part 1 of the experiment, in the exact order you saw them. Try to recall as many images as you can, but remember: getting the order right is more important than the number of images you recall. </p>""]","","13","exploring_nature_semantic"
"","","","","","image-button-response","25","689120","0.0-23.0-0.0","C6C57035021645E38F43495607B44726","C6C57035021645E38F43495607B44726","5b1b41ed-0cd2-4bcb-9efe-228c2e00ef18","3ce68dc4-89da-4770-948e-944f675a4a4c","{""part"":""2"",""participantId"":""C6C57035021645E38F43495607B44726"",""assignmentId"":""5b1b41ed-0cd2-4bcb-9efe-228c2e00ef18"",""projectId"":""3ce68dc4-89da-4770-948e-944f675a4a4c""}","https://test12345.live/?part=2&participantId=C6C57035021645E38F43495607B44726&assignmentId=5b1b41ed-0cd2-4bcb-9efe-228c2e00ef18&projectId=3ce68dc4-89da-4770-948e-944f675a4a4c","C6C57035021645E38F43495607B44726-2025-05-28-16-56-13","","null","","images/causal_sequence/coin_causal/coin_causal_0.png","null","",""
"","","","","","html-audio-response","26","741808","0.0-24.0","C6C57035021645E38F43495607B44726","C6C57035021645E38F43495607B44726","5b1b41ed-0cd2-4bcb-9efe-228c2e00ef18","3ce68dc4-89da-4770-948e-944f675a4a4c","{""part"":""2"",""participantId"":""C6C57035021645E38F43495607B44726"",""assignmentId"":""5b1b41ed-0cd2-4bcb-9efe-228c2e00ef18"",""projectId"":""3ce68dc4-89da-4770-948e-944f675a4a4c""}","https://test12345.live/?part=2&participantId=C6C57035021645E38F43495607B44726&assignmentId=5b1b41ed-0cd2-4bcb-9efe-228c2e00ef18&projectId=3ce68dc4-89da-4770-948e-944f675a4a4c","C6C57035021645E38F43495607B44726-2025-05-28-16-56-13","","36500","","[""<span style=\""color: red; font-size: 24px\""> NOW RECORDING</span><p>Please say out loud all the images you saw in part 1 of the experiment, in the exact order you saw them. Try to recall as many images as you can, but remember: getting the order right is more important than the number of images you recall. </p>""]","","3","coin_causal"
"","","","","","image-button-response","27","747850","0.0-25.0-0.0","C6C57035021645E38F43495607B44726","C6C57035021645E38F43495607B44726","5b1b41ed-0cd2-4bcb-9efe-228c2e00ef18","3ce68dc4-89da-4770-948e-944f675a4a4c","{""part"":""2"",""participantId"":""C6C57035021645E38F43495607B44726"",""assignmentId"":""5b1b41ed-0cd2-4bcb-9efe-228c2e00ef18"",""projectId"":""3ce68dc4-89da-4770-948e-944f675a4a4c""}","https://test12345.live/?part=2&participantId=C6C57035021645E38F43495607B44726&assignmentId=5b1b41ed-0cd2-4bcb-9efe-228c2e00ef18&projectId=3ce68dc4-89da-4770-948e-944f675a4a4c","C6C57035021645E38F43495607B44726-2025-05-28-16-56-13","","null","","images/schematic_sequence/restaurant_scheme/restaurant_scheme_0.png","null","",""
"","","","","","html-audio-response","28","785673","0.0-26.0","C6C57035021645E38F43495607B44726","C6C57035021645E38F43495607B44726","5b1b41ed-0cd2-4bcb-9efe-228c2e00ef18","3ce68dc4-89da-4770-948e-944f675a4a4c","{""part"":""2"",""participantId"":""C6C57035021645E38F43495607B44726"",""assignmentId"":""5b1b41ed-0cd2-4bcb-9efe-228c2e00ef18"",""projectId"":""3ce68dc4-89da-4770-948e-944f675a4a4c""}","https://test12345.live/?part=2&participantId=C6C57035021645E38F43495607B44726&assignmentId=5b1b41ed-0cd2-4bcb-9efe-228c2e00ef18&projectId=3ce68dc4-89da-4770-948e-944f675a4a4c","C6C57035021645E38F43495607B44726-2025-05-28-16-56-13","","20330","","[""<span style=\""color: red; font-size: 24px\""> NOW RECORDING</span><p>Please say out loud all the images you saw in part 1 of the experiment, in the exact order you saw them. Try to recall as many images as you can, but remember: getting the order right is more important than the number of images you recall. </p>""]","","14","restaurant_scheme"
"","","","","","image-button-response","29","791700","0.0-27.0-0.0","C6C57035021645E38F43495607B44726","C6C57035021645E38F43495607B44726","5b1b41ed-0cd2-4bcb-9efe-228c2e00ef18","3ce68dc4-89da-4770-948e-944f675a4a4c","{""part"":""2"",""participantId"":""C6C57035021645E38F43495607B44726"",""assignmentId"":""5b1b41ed-0cd2-4bcb-9efe-228c2e00ef18"",""projectId"":""3ce68dc4-89da-4770-948e-944f675a4a4c""}","https://test12345.live/?part=2&participantId=C6C57035021645E38F43495607B44726&assignmentId=5b1b41ed-0cd2-4bcb-9efe-228c2e00ef18&projectId=3ce68dc4-89da-4770-948e-944f675a4a4c","C6C57035021645E38F43495607B44726-2025-05-28-16-56-13","","null","","images/causal_sequence/museum_causal/museum_causal_0.png","null","",""
"","","","","","html-audio-response","30","847675","0.0-28.0","C6C57035021645E38F43495607B44726","C6C57035021645E38F43495607B44726","5b1b41ed-0cd2-4bcb-9efe-228c2e00ef18","3ce68dc4-89da-4770-948e-944f675a4a4c","{""part"":""2"",""participantId"":""C6C57035021645E38F43495607B44726"",""assignmentId"":""5b1b41ed-0cd2-4bcb-9efe-228c2e00ef18"",""projectId"":""3ce68dc4-89da-4770-948e-944f675a4a4c""}","https://test12345.live/?part=2&participantId=C6C57035021645E38F43495607B44726&assignmentId=5b1b41ed-0cd2-4bcb-9efe-228c2e00ef18&projectId=3ce68dc4-89da-4770-948e-944f675a4a4c","C6C57035021645E38F43495607B44726-2025-05-28-16-56-13","","12870","","[""<span style=\""color: red; font-size: 24px\""> NOW RECORDING</span><p>Please say out loud all the images you saw in part 1 of the experiment, in the exact order you saw them. Try to recall as many images as you can, but remember: getting the order right is more important than the number of images you recall. </p>""]","","3","museum_causal"
"","","","","","image-button-response","31","853700","0.0-29.0-0.0","C6C57035021645E38F43495607B44726","C6C57035021645E38F43495607B44726","5b1b41ed-0cd2-4bcb-9efe-228c2e00ef18","3ce68dc4-89da-4770-948e-944f675a4a4c","{""part"":""2"",""participantId"":""C6C57035021645E38F43495607B44726"",""assignmentId"":""5b1b41ed-0cd2-4bcb-9efe-228c2e00ef18"",""projectId"":""3ce68dc4-89da-4770-948e-944f675a4a4c""}","https://test12345.live/?part=2&participantId=C6C57035021645E38F43495607B44726&assignmentId=5b1b41ed-0cd2-4bcb-9efe-228c2e00ef18&projectId=3ce68dc4-89da-4770-948e-944f675a4a4c","C6C57035021645E38F43495607B44726-2025-05-28-16-56-13","","null","","images/schematic_sequence/dinner_party_scheme/dinner_party_scheme_0.png","null","",""
"","","","","","html-audio-response","32","880241","0.0-30.0","C6C57035021645E38F43495607B44726","C6C57035021645E38F43495607B44726","5b1b41ed-0cd2-4bcb-9efe-228c2e00ef18","3ce68dc4-89da-4770-948e-944f675a4a4c","{""part"":""2"",""participantId"":""C6C57035021645E38F43495607B44726"",""assignmentId"":""5b1b41ed-0cd2-4bcb-9efe-228c2e00ef18"",""projectId"":""3ce68dc4-89da-4770-948e-944f675a4a4c""}","https://test12345.live/?part=2&participantId=C6C57035021645E38F43495607B44726&assignmentId=5b1b41ed-0cd2-4bcb-9efe-228c2e00ef18&projectId=3ce68dc4-89da-4770-948e-944f675a4a4c","C6C57035021645E38F43495607B44726-2025-05-28-16-56-13","","23610","","[""<span style=\""color: red; font-size: 24px\""> NOW RECORDING</span><p>Please say out loud all the images you saw in part 1 of the experiment, in the exact order you saw them. Try to recall as many images as you can, but remember: getting the order right is more important than the number of images you recall. </p>""]","","12","dinner_party_scheme"
"","","","","","image-button-response","33","886272","0.0-31.0-0.0","C6C57035021645E38F43495607B44726","C6C57035021645E38F43495607B44726","5b1b41ed-0cd2-4bcb-9efe-228c2e00ef18","3ce68dc4-89da-4770-948e-944f675a4a4c","{""part"":""2"",""participantId"":""C6C57035021645E38F43495607B44726"",""assignmentId"":""5b1b41ed-0cd2-4bcb-9efe-228c2e00ef18"",""projectId"":""3ce68dc4-89da-4770-948e-944f675a4a4c""}","https://test12345.live/?part=2&participantId=C6C57035021645E38F43495607B44726&assignmentId=5b1b41ed-0cd2-4bcb-9efe-228c2e00ef18&projectId=3ce68dc4-89da-4770-948e-944f675a4a4c","C6C57035021645E38F43495607B44726-2025-05-28-16-56-13","","null","","images/semantic_sequence/self_care_activities_semantic/self_care_activities_semantic_0.png","null","",""
"","","","","","html-audio-response","34","938649","0.0-32.0","C6C57035021645E38F43495607B44726","C6C57035021645E38F43495607B44726","5b1b41ed-0cd2-4bcb-9efe-228c2e00ef18","3ce68dc4-89da-4770-948e-944f675a4a4c","{""part"":""2"",""participantId"":""C6C57035021645E38F43495607B44726"",""assignmentId"":""5b1b41ed-0cd2-4bcb-9efe-228c2e00ef18"",""projectId"":""3ce68dc4-89da-4770-948e-944f675a4a4c""}","https://test12345.live/?part=2&participantId=C6C57035021645E38F43495607B44726&assignmentId=5b1b41ed-0cd2-4bcb-9efe-228c2e00ef18&projectId=3ce68dc4-89da-4770-948e-944f675a4a4c","C6C57035021645E38F43495607B44726-2025-05-28-16-56-13","","22644","","[""<span style=\""color: red; font-size: 24px\""> NOW RECORDING</span><p>Please say out loud all the images you saw in part 1 of the experiment, in the exact order you saw them. Try to recall as many images as you can, but remember: getting the order right is more important than the number of images you recall. </p>""]","","14","self_care_activities_semantic"
"","","","","","image-button-response","35","944678","0.0-33.0-0.0","C6C57035021645E38F43495607B44726","C6C57035021645E38F43495607B44726","5b1b41ed-0cd2-4bcb-9efe-228c2e00ef18","3ce68dc4-89da-4770-948e-944f675a4a4c","{""part"":""2"",""participantId"":""C6C57035021645E38F43495607B44726"",""assignmentId"":""5b1b41ed-0cd2-4bcb-9efe-228c2e00ef18"",""projectId"":""3ce68dc4-89da-4770-948e-944f675a4a4c""}","https://test12345.live/?part=2&participantId=C6C57035021645E38F43495607B44726&assignmentId=5b1b41ed-0cd2-4bcb-9efe-228c2e00ef18&projectId=3ce68dc4-89da-4770-948e-944f675a4a4c","C6C57035021645E38F43495607B44726-2025-05-28-16-56-13","","null","","images/causal_sequence/package_causal/package_causal_0.png","null","",""
"","","","","","html-audio-response","36","968113","0.0-34.0","C6C57035021645E38F43495607B44726","C6C57035021645E38F43495607B44726","5b1b41ed-0cd2-4bcb-9efe-228c2e00ef18","3ce68dc4-89da-4770-948e-944f675a4a4c","{""part"":""2"",""participantId"":""C6C57035021645E38F43495607B44726"",""assignmentId"":""5b1b41ed-0cd2-4bcb-9efe-228c2e00ef18"",""projectId"":""3ce68dc4-89da-4770-948e-944f675a4a4c""}","https://test12345.live/?part=2&participantId=C6C57035021645E38F43495607B44726&assignmentId=5b1b41ed-0cd2-4bcb-9efe-228c2e00ef18&projectId=3ce68dc4-89da-4770-948e-944f675a4a4c","C6C57035021645E38F43495607B44726-2025-05-28-16-56-13","","12076","","[""<span style=\""color: red; font-size: 24px\""> NOW RECORDING</span><p>Please say out loud all the images you saw in part 1 of the experiment, in the exact order you saw them. Try to recall as many images as you can, but remember: getting the order right is more important than the number of images you recall. </p>""]","","4","package_causal"
"","","","","","instructions","37","971144","0.0-35.0","C6C57035021645E38F43495607B44726","C6C57035021645E38F43495607B44726","5b1b41ed-0cd2-4bcb-9efe-228c2e00ef18","3ce68dc4-89da-4770-948e-944f675a4a4c","{""part"":""2"",""participantId"":""C6C57035021645E38F43495607B44726"",""assignmentId"":""5b1b41ed-0cd2-4bcb-9efe-228c2e00ef18"",""projectId"":""3ce68dc4-89da-4770-948e-944f675a4a4c""}","https://test12345.live/?part=2&participantId=C6C57035021645E38F43495607B44726&assignmentId=5b1b41ed-0cd2-4bcb-9efe-228c2e00ef18&projectId=3ce68dc4-89da-4770-948e-944f675a4a4c","C6C57035021645E38F43495607B44726-2025-05-28-16-56-13","[{""page_index"":0,""viewing_time"":3020}]","3021","","","","",""
"","","","","","image-button-response","38","977160","0.0-36.0-0.0","C6C57035021645E38F43495607B44726","C6C57035021645E38F43495607B44726","5b1b41ed-0cd2-4bcb-9efe-228c2e00ef18","3ce68dc4-89da-4770-948e-944f675a4a4c","{""part"":""2"",""participantId"":""C6C57035021645E38F43495607B44726"",""assignmentId"":""5b1b41ed-0cd2-4bcb-9efe-228c2e00ef18"",""projectId"":""3ce68dc4-89da-4770-948e-944f675a4a4c""}","https://test12345.live/?part=2&participantId=C6C57035021645E38F43495607B44726&assignmentId=5b1b41ed-0cd2-4bcb-9efe-228c2e00ef18&projectId=3ce68dc4-89da-4770-948e-944f675a4a4c","C6C57035021645E38F43495607B44726-2025-05-28-16-56-13","","null","","images/semantic_sequence/visiting_cities_semantic/visiting_cities_semantic_0.png","null","",""
"","","","","","html-audio-response","39","1003600","0.0-37.0","C6C57035021645E38F43495607B44726","C6C57035021645E38F43495607B44726","5b1b41ed-0cd2-4bcb-9efe-228c2e00ef18","3ce68dc4-89da-4770-948e-944f675a4a4c","{""part"":""2"",""participantId"":""C6C57035021645E38F43495607B44726"",""assignmentId"":""5b1b41ed-0cd2-4bcb-9efe-228c2e00ef18"",""projectId"":""3ce68dc4-89da-4770-948e-944f675a4a4c""}","https://test12345.live/?part=2&participantId=C6C57035021645E38F43495607B44726&assignmentId=5b1b41ed-0cd2-4bcb-9efe-228c2e00ef18&projectId=3ce68dc4-89da-4770-948e-944f675a4a4c","C6C57035021645E38F43495607B44726-2025-05-28-16-56-13","","20962","","[""<span style=\""color: red; font-size: 24px\""> NOW RECORDING</span><p>Please say out loud all the images you saw in part 1 of the experiment, in the exact order you saw them. Try to recall as many images as you can, but remember: getting the order right is more important than the number of images you recall. </p>""]","","2","visiting_cities_semantic"
"","","","","","image-button-response","40","1009620","0.0-38.0-0.0","C6C57035021645E38F43495607B44726","C6C57035021645E38F43495607B44726","5b1b41ed-0cd2-4bcb-9efe-228c2e00ef18","3ce68dc4-89da-4770-948e-944f675a4a4c","{""part"":""2"",""participantId"":""C6C57035021645E38F43495607B44726"",""assignmentId"":""5b1b41ed-0cd2-4bcb-9efe-228c2e00ef18"",""projectId"":""3ce68dc4-89da-4770-948e-944f675a4a4c""}","https://test12345.live/?part=2&participantId=C6C57035021645E38F43495607B44726&assignmentId=5b1b41ed-0cd2-4bcb-9efe-228c2e00ef18&projectId=3ce68dc4-89da-4770-948e-944f675a4a4c","C6C57035021645E38F43495607B44726-2025-05-28-16-56-13","","null","","images/schematic_sequence/hotel_scheme/hotel_scheme_0.png","null","",""
"","","","","","html-audio-response","41","1048982","0.0-39.0","C6C57035021645E38F43495607B44726","C6C57035021645E38F43495607B44726","5b1b41ed-0cd2-4bcb-9efe-228c2e00ef18","3ce68dc4-89da-4770-948e-944f675a4a4c","{""part"":""2"",""participantId"":""C6C57035021645E38F43495607B44726"",""assignmentId"":""5b1b41ed-0cd2-4bcb-9efe-228c2e00ef18"",""projectId"":""3ce68dc4-89da-4770-948e-944f675a4a4c""}","https://test12345.live/?part=2&participantId=C6C57035021645E38F43495607B44726&assignmentId=5b1b41ed-0cd2-4bcb-9efe-228c2e00ef18&projectId=3ce68dc4-89da-4770-948e-944f675a4a4c","C6C57035021645E38F43495607B44726-2025-05-28-16-56-13","","27418","","[""<span style=\""color: red; font-size: 24px\""> NOW RECORDING</span><p>Please say out loud all the images you saw in part 1 of the experiment, in the exact order you saw them. Try to recall as many images as you can, but remember: getting the order right is more important than the number of images you recall. </p>""]","","6","hotel_scheme"
"","","","","","image-button-response","42","1055020","0.0-40.0-0.0","C6C57035021645E38F43495607B44726","C6C57035021645E38F43495607B44726","5b1b41ed-0cd2-4bcb-9efe-228c2e00ef18","3ce68dc4-89da-4770-948e-944f675a4a4c","{""part"":""2"",""participantId"":""C6C57035021645E38F43495607B44726"",""assignmentId"":""5b1b41ed-0cd2-4bcb-9efe-228c2e00ef18"",""projectId"":""3ce68dc4-89da-4770-948e-944f675a4a4c""}","https://test12345.live/?part=2&participantId=C6C57035021645E38F43495607B44726&assignmentId=5b1b41ed-0cd2-4bcb-9efe-228c2e00ef18&projectId=3ce68dc4-89da-4770-948e-944f675a4a4c","C6C57035021645E38F43495607B44726-2025-05-28-16-56-13","","null","","images/semantic_sequence/maintaining_a_car_semantic/maintaining_a_car_semantic_0.png","null","",""
"","","","","","html-audio-response","43","1076716","0.0-41.0","C6C57035021645E38F43495607B44726","C6C57035021645E38F43495607B44726","5b1b41ed-0cd2-4bcb-9efe-228c2e00ef18","3ce68dc4-89da-4770-948e-944f675a4a4c","{""part"":""2"",""participantId"":""C6C57035021645E38F43495607B44726"",""assignmentId"":""5b1b41ed-0cd2-4bcb-9efe-228c2e00ef18"",""projectId"":""3ce68dc4-89da-4770-948e-944f675a4a4c""}","https://test12345.live/?part=2&participantId=C6C57035021645E38F43495607B44726&assignmentId=5b1b41ed-0cd2-4bcb-9efe-228c2e00ef18&projectId=3ce68dc4-89da-4770-948e-944f675a4a4c","C6C57035021645E38F43495607B44726-2025-05-28-16-56-13","","20509","","[""<span style=\""color: red; font-size: 24px\""> NOW RECORDING</span><p>Please say out loud all the images you saw in part 1 of the experiment, in the exact order you saw them. Try to recall as many images as you can, but remember: getting the order right is more important than the number of images you recall. </p>""]","","4","maintaining_a_car_semantic"
"","","","","","image-button-response","44","1082750","0.0-42.0-0.0","C6C57035021645E38F43495607B44726","C6C57035021645E38F43495607B44726","5b1b41ed-0cd2-4bcb-9efe-228c2e00ef18","3ce68dc4-89da-4770-948e-944f675a4a4c","{""part"":""2"",""participantId"":""C6C57035021645E38F43495607B44726"",""assignmentId"":""5b1b41ed-0cd2-4bcb-9efe-228c2e00ef18"",""projectId"":""3ce68dc4-89da-4770-948e-944f675a4a4c""}","https://test12345.live/?part=2&participantId=C6C57035021645E38F43495607B44726&assignmentId=5b1b41ed-0cd2-4bcb-9efe-228c2e00ef18&projectId=3ce68dc4-89da-4770-948e-944f675a4a4c","C6C57035021645E38F43495607B44726-2025-05-28-16-56-13","","null","","images/semantic_sequence/using_technology_semantic/using_technology_semantic_0.png","null","",""
"","","","","","html-audio-response","45","1111942","0.0-43.0","C6C57035021645E38F43495607B44726","C6C57035021645E38F43495607B44726","5b1b41ed-0cd2-4bcb-9efe-228c2e00ef18","3ce68dc4-89da-4770-948e-944f675a4a4c","{""part"":""2"",""participantId"":""C6C57035021645E38F43495607B44726"",""assignmentId"":""5b1b41ed-0cd2-4bcb-9efe-228c2e00ef18"",""projectId"":""3ce68dc4-89da-4770-948e-944f675a4a4c""}","https://test12345.live/?part=2&participantId=C6C57035021645E38F43495607B44726&assignmentId=5b1b41ed-0cd2-4bcb-9efe-228c2e00ef18&projectId=3ce68dc4-89da-4770-948e-944f675a4a4c","C6C57035021645E38F43495607B44726-2025-05-28-16-56-13","","25399","","[""<span style=\""color: red; font-size: 24px\""> NOW RECORDING</span><p>Please say out loud all the images you saw in part 1 of the experiment, in the exact order you saw them. Try to recall as many images as you can, but remember: getting the order right is more important than the number of images you recall. </p>""]","","2","using_technology_semantic"
"","","","","","image-button-response","46","1117960","0.0-44.0-0.0","C6C57035021645E38F43495607B44726","C6C57035021645E38F43495607B44726","5b1b41ed-0cd2-4bcb-9efe-228c2e00ef18","3ce68dc4-89da-4770-948e-944f675a4a4c","{""part"":""2"",""participantId"":""C6C57035021645E38F43495607B44726"",""assignmentId"":""5b1b41ed-0cd2-4bcb-9efe-228c2e00ef18"",""projectId"":""3ce68dc4-89da-4770-948e-944f675a4a4c""}","https://test12345.live/?part=2&participantId=C6C57035021645E38F43495607B44726&assignmentId=5b1b41ed-0cd2-4bcb-9efe-228c2e00ef18&projectId=3ce68dc4-89da-4770-948e-944f675a4a4c","C6C57035021645E38F43495607B44726-2025-05-28-16-56-13","","null","","images/schematic_sequence/interview_scheme/interview_scheme_0.png","null","",""
"","","","","","html-audio-response","47","1156956","0.0-45.0","C6C57035021645E38F43495607B44726","C6C57035021645E38F43495607B44726","5b1b41ed-0cd2-4bcb-9efe-228c2e00ef18","3ce68dc4-89da-4770-948e-944f675a4a4c","{""part"":""2"",""participantId"":""C6C57035021645E38F43495607B44726"",""assignmentId"":""5b1b41ed-0cd2-4bcb-9efe-228c2e00ef18"",""projectId"":""3ce68dc4-89da-4770-948e-944f675a4a4c""}","https://test12345.live/?part=2&participantId=C6C57035021645E38F43495607B44726&assignmentId=5b1b41ed-0cd2-4bcb-9efe-228c2e00ef18&projectId=3ce68dc4-89da-4770-948e-944f675a4a4c","C6C57035021645E38F43495607B44726-2025-05-28-16-56-13","","31442","","[""<span style=\""color: red; font-size: 24px\""> NOW RECORDING</span><p>Please say out loud all the images you saw in part 1 of the experiment, in the exact order you saw them. Try to recall as many images as you can, but remember: getting the order right is more important than the number of images you recall. </p>""]","","2","interview_scheme"
"","","","","","image-button-response","48","1162985","0.0-46.0-0.0","C6C57035021645E38F43495607B44726","C6C57035021645E38F43495607B44726","5b1b41ed-0cd2-4bcb-9efe-228c2e00ef18","3ce68dc4-89da-4770-948e-944f675a4a4c","{""part"":""2"",""participantId"":""C6C57035021645E38F43495607B44726"",""assignmentId"":""5b1b41ed-0cd2-4bcb-9efe-228c2e00ef18"",""projectId"":""3ce68dc4-89da-4770-948e-944f675a4a4c""}","https://test12345.live/?part=2&participantId=C6C57035021645E38F43495607B44726&assignmentId=5b1b41ed-0cd2-4bcb-9efe-228c2e00ef18&projectId=3ce68dc4-89da-4770-948e-944f675a4a4c","C6C57035021645E38F43495607B44726-2025-05-28-16-56-13","","null","","images/schematic_sequence/flight_scheme/flight_scheme_0.png","null","",""
"","","","","","html-audio-response","49","1209105","0.0-47.0","C6C57035021645E38F43495607B44726","C6C57035021645E38F43495607B44726","5b1b41ed-0cd2-4bcb-9efe-228c2e00ef18","3ce68dc4-89da-4770-948e-944f675a4a4c","{""part"":""2"",""participantId"":""C6C57035021645E38F43495607B44726"",""assignmentId"":""5b1b41ed-0cd2-4bcb-9efe-228c2e00ef18"",""projectId"":""3ce68dc4-89da-4770-948e-944f675a4a4c""}","https://test12345.live/?part=2&participantId=C6C57035021645E38F43495607B44726&assignmentId=5b1b41ed-0cd2-4bcb-9efe-228c2e00ef18&projectId=3ce68dc4-89da-4770-948e-944f675a4a4c","C6C57035021645E38F43495607B44726-2025-05-28-16-56-13","","18407","","[""<span style=\""color: red; font-size: 24px\""> NOW RECORDING</span><p>Please say out loud all the images you saw in part 1 of the experiment, in the exact order you saw them. Try to recall as many images as you can, but remember: getting the order right is more important than the number of images you recall. </p>""]","","13","flight_scheme"
"","","","","","image-button-response","50","1215120","0.0-48.0-0.0","C6C57035021645E38F43495607B44726","C6C57035021645E38F43495607B44726","5b1b41ed-0cd2-4bcb-9efe-228c2e00ef18","3ce68dc4-89da-4770-948e-944f675a4a4c","{""part"":""2"",""participantId"":""C6C57035021645E38F43495607B44726"",""assignmentId"":""5b1b41ed-0cd2-4bcb-9efe-228c2e00ef18"",""projectId"":""3ce68dc4-89da-4770-948e-944f675a4a4c""}","https://test12345.live/?part=2&participantId=C6C57035021645E38F43495607B44726&assignmentId=5b1b41ed-0cd2-4bcb-9efe-228c2e00ef18&projectId=3ce68dc4-89da-4770-948e-944f675a4a4c","C6C57035021645E38F43495607B44726-2025-05-28-16-56-13","","null","","images/semantic_sequence/physical_activity_semantic/physical_activity_semantic_0.png","null","",""
"","","","","","html-audio-response","51","1267731","0.0-49.0","C6C57035021645E38F43495607B44726","C6C57035021645E38F43495607B44726","5b1b41ed-0cd2-4bcb-9efe-228c2e00ef18","3ce68dc4-89da-4770-948e-944f675a4a4c","{""part"":""2"",""participantId"":""C6C57035021645E38F43495607B44726"",""assignmentId"":""5b1b41ed-0cd2-4bcb-9efe-228c2e00ef18"",""projectId"":""3ce68dc4-89da-4770-948e-944f675a4a4c""}","https://test12345.live/?part=2&participantId=C6C57035021645E38F43495607B44726&assignmentId=5b1b41ed-0cd2-4bcb-9efe-228c2e00ef18&projectId=3ce68dc4-89da-4770-948e-944f675a4a4c","C6C57035021645E38F43495607B44726-2025-05-28-16-56-13","","28033","","[""<span style=\""color: red; font-size: 24px\""> NOW RECORDING</span><p>Please say out loud all the images you saw in part 1 of the experiment, in the exact order you saw them. Try to recall as many images as you can, but remember: getting the order right is more important than the number of images you recall. </p>""]","","4","physical_activity_semantic"
"","","","","","image-button-response","52","1273770","0.0-50.0-0.0","C6C57035021645E38F43495607B44726","C6C57035021645E38F43495607B44726","5b1b41ed-0cd2-4bcb-9efe-228c2e00ef18","3ce68dc4-89da-4770-948e-944f675a4a4c","{""part"":""2"",""participantId"":""C6C57035021645E38F43495607B44726"",""assignmentId"":""5b1b41ed-0cd2-4bcb-9efe-228c2e00ef18"",""projectId"":""3ce68dc4-89da-4770-948e-944f675a4a4c""}","https://test12345.live/?part=2&participantId=C6C57035021645E38F43495607B44726&assignmentId=5b1b41ed-0cd2-4bcb-9efe-228c2e00ef18&projectId=3ce68dc4-89da-4770-948e-944f675a4a4c","C6C57035021645E38F43495607B44726-2025-05-28-16-56-13","","null","","images/semantic_sequence/cat_care_semantic/cat_care_semantic_0.png","null","",""
"","","","","","html-audio-response","53","1298470","0.0-51.0","C6C57035021645E38F43495607B44726","C6C57035021645E38F43495607B44726","5b1b41ed-0cd2-4bcb-9efe-228c2e00ef18","3ce68dc4-89da-4770-948e-944f675a4a4c","{""part"":""2"",""participantId"":""C6C57035021645E38F43495607B44726"",""assignmentId"":""5b1b41ed-0cd2-4bcb-9efe-228c2e00ef18"",""projectId"":""3ce68dc4-89da-4770-948e-944f675a4a4c""}","https://test12345.live/?part=2&participantId=C6C57035021645E38F43495607B44726&assignmentId=5b1b41ed-0cd2-4bcb-9efe-228c2e00ef18&projectId=3ce68dc4-89da-4770-948e-944f675a4a4c","C6C57035021645E38F43495607B44726-2025-05-28-16-56-13","","21979","","[""<span style=\""color: red; font-size: 24px\""> NOW RECORDING</span><p>Please say out loud all the images you saw in part 1 of the experiment, in the exact order you saw them. Try to recall as many images as you can, but remember: getting the order right is more important than the number of images you recall. </p>""]","","2","cat_care_semantic"
"","","","","","image-button-response","54","1304500","0.0-52.0-0.0","C6C57035021645E38F43495607B44726","C6C57035021645E38F43495607B44726","5b1b41ed-0cd2-4bcb-9efe-228c2e00ef18","3ce68dc4-89da-4770-948e-944f675a4a4c","{""part"":""2"",""participantId"":""C6C57035021645E38F43495607B44726"",""assignmentId"":""5b1b41ed-0cd2-4bcb-9efe-228c2e00ef18"",""projectId"":""3ce68dc4-89da-4770-948e-944f675a4a4c""}","https://test12345.live/?part=2&participantId=C6C57035021645E38F43495607B44726&assignmentId=5b1b41ed-0cd2-4bcb-9efe-228c2e00ef18&projectId=3ce68dc4-89da-4770-948e-944f675a4a4c","C6C57035021645E38F43495607B44726-2025-05-28-16-56-13","","null","","images/semantic_sequence/creative_activities_semantic/creative_activities_semantic_0.png","null","",""
"","","","","","html-audio-response","55","1339376","0.0-53.0","C6C57035021645E38F43495607B44726","C6C57035021645E38F43495607B44726","5b1b41ed-0cd2-4bcb-9efe-228c2e00ef18","3ce68dc4-89da-4770-948e-944f675a4a4c","{""part"":""2"",""participantId"":""C6C57035021645E38F43495607B44726"",""assignmentId"":""5b1b41ed-0cd2-4bcb-9efe-228c2e00ef18"",""projectId"":""3ce68dc4-89da-4770-948e-944f675a4a4c""}","https://test12345.live/?part=2&participantId=C6C57035021645E38F43495607B44726&assignmentId=5b1b41ed-0cd2-4bcb-9efe-228c2e00ef18&projectId=3ce68dc4-89da-4770-948e-944f675a4a4c","C6C57035021645E38F43495607B44726-2025-05-28-16-56-13","","10886","","[""<span style=\""color: red; font-size: 24px\""> NOW RECORDING</span><p>Please say out loud all the images you saw in part 1 of the experiment, in the exact order you saw them. Try to recall as many images as you can, but remember: getting the order right is more important than the number of images you recall. </p>""]","","17","creative_activities_semantic"
"","","","","","image-button-response","56","1345401","0.0-54.0-0.0","C6C57035021645E38F43495607B44726","C6C57035021645E38F43495607B44726","5b1b41ed-0cd2-4bcb-9efe-228c2e00ef18","3ce68dc4-89da-4770-948e-944f675a4a4c","{""part"":""2"",""participantId"":""C6C57035021645E38F43495607B44726"",""assignmentId"":""5b1b41ed-0cd2-4bcb-9efe-228c2e00ef18"",""projectId"":""3ce68dc4-89da-4770-948e-944f675a4a4c""}","https://test12345.live/?part=2&participantId=C6C57035021645E38F43495607B44726&assignmentId=5b1b41ed-0cd2-4bcb-9efe-228c2e00ef18&projectId=3ce68dc4-89da-4770-948e-944f675a4a4c","C6C57035021645E38F43495607B44726-2025-05-28-16-56-13","","null","","images/schematic_sequence/supermarket_scheme/supermarket_scheme_0.png","null","",""
"","","","","","html-audio-response","57","1380246","0.0-55.0","C6C57035021645E38F43495607B44726","C6C57035021645E38F43495607B44726","5b1b41ed-0cd2-4bcb-9efe-228c2e00ef18","3ce68dc4-89da-4770-948e-944f675a4a4c","{""part"":""2"",""participantId"":""C6C57035021645E38F43495607B44726"",""assignmentId"":""5b1b41ed-0cd2-4bcb-9efe-228c2e00ef18"",""projectId"":""3ce68dc4-89da-4770-948e-944f675a4a4c""}","https://test12345.live/?part=2&participantId=C6C57035021645E38F43495607B44726&assignmentId=5b1b41ed-0cd2-4bcb-9efe-228c2e00ef18&projectId=3ce68dc4-89da-4770-948e-944f675a4a4c","C6C57035021645E38F43495607B44726-2025-05-28-16-56-13","","34002","","[""<span style=\""color: red; font-size: 24px\""> NOW RECORDING</span><p>Please say out loud all the images you saw in part 1 of the experiment, in the exact order you saw them. Try to recall as many images as you can, but remember: getting the order right is more important than the number of images you recall. </p>""]","","2","supermarket_scheme"
"","","","","","image-button-response","58","1386280","0.0-56.0-0.0","C6C57035021645E38F43495607B44726","C6C57035021645E38F43495607B44726","5b1b41ed-0cd2-4bcb-9efe-228c2e00ef18","3ce68dc4-89da-4770-948e-944f675a4a4c","{""part"":""2"",""participantId"":""C6C57035021645E38F43495607B44726"",""assignmentId"":""5b1b41ed-0cd2-4bcb-9efe-228c2e00ef18"",""projectId"":""3ce68dc4-89da-4770-948e-944f675a4a4c""}","https://test12345.live/?part=2&participantId=C6C57035021645E38F43495607B44726&assignmentId=5b1b41ed-0cd2-4bcb-9efe-228c2e00ef18&projectId=3ce68dc4-89da-4770-948e-944f675a4a4c","C6C57035021645E38F43495607B44726-2025-05-28-16-56-13","","null","","images/semantic_sequence/kitchen_operations_semantic/kitchen_operations_semantic_0.png","null","",""
"","","","","","html-audio-response","59","1411095","0.0-57.0","C6C57035021645E38F43495607B44726","C6C57035021645E38F43495607B44726","5b1b41ed-0cd2-4bcb-9efe-228c2e00ef18","3ce68dc4-89da-4770-948e-944f675a4a4c","{""part"":""2"",""participantId"":""C6C57035021645E38F43495607B44726"",""assignmentId"":""5b1b41ed-0cd2-4bcb-9efe-228c2e00ef18"",""projectId"":""3ce68dc4-89da-4770-948e-944f675a4a4c""}","https://test12345.live/?part=2&participantId=C6C57035021645E38F43495607B44726&assignmentId=5b1b41ed-0cd2-4bcb-9efe-228c2e00ef18&projectId=3ce68dc4-89da-4770-948e-944f675a4a4c","C6C57035021645E38F43495607B44726-2025-05-28-16-56-13","","23919","","[""<span style=\""color: red; font-size: 24px\""> NOW RECORDING</span><p>Please say out loud all the images you saw in part 1 of the experiment, in the exact order you saw them. Try to recall as many images as you can, but remember: getting the order right is more important than the number of images you recall. </p>""]","","2","kitchen_operations_semantic"
"","","","","","survey-text","60","1420145","0.0-58.0","C6C57035021645E38F43495607B44726","C6C57035021645E38F43495607B44726","5b1b41ed-0cd2-4bcb-9efe-228c2e00ef18","3ce68dc4-89da-4770-948e-944f675a4a4c","{""part"":""2"",""participantId"":""C6C57035021645E38F43495607B44726"",""assignmentId"":""5b1b41ed-0cd2-4bcb-9efe-228c2e00ef18"",""projectId"":""3ce68dc4-89da-4770-948e-944f675a4a4c""}","https://test12345.live/?part=2&participantId=C6C57035021645E38F43495607B44726&assignmentId=5b1b41ed-0cd2-4bcb-9efe-228c2e00ef18&projectId=3ce68dc4-89da-4770-948e-944f675a4a4c","C6C57035021645E38F43495607B44726-2025-05-28-16-56-13","","9007","","","{""Q0"":""Male"",""Q1"":""32""}","",""
"","","","","","instructions","61","1433258","0.0-59.0","C6C57035021645E38F43495607B44726","C6C57035021645E38F43495607B44726","5b1b41ed-0cd2-4bcb-9efe-228c2e00ef18","3ce68dc4-89da-4770-948e-944f675a4a4c","{""part"":""2"",""participantId"":""C6C57035021645E38F43495607B44726"",""assignmentId"":""5b1b41ed-0cd2-4bcb-9efe-228c2e00ef18"",""projectId"":""3ce68dc4-89da-4770-948e-944f675a4a4c""}","https://test12345.live/?part=2&participantId=C6C57035021645E38F43495607B44726&assignmentId=5b1b41ed-0cd2-4bcb-9efe-228c2e00ef18&projectId=3ce68dc4-89da-4770-948e-944f675a4a4c","C6C57035021645E38F43495607B44726-2025-05-28-16-56-13","[{""page_index"":0,""viewing_time"":13112}]","13112","","","","",""
"","","","","","survey-text","62","1436055","0.0-60.0","C6C57035021645E38F43495607B44726","C6C57035021645E38F43495607B44726","5b1b41ed-0cd2-4bcb-9efe-228c2e00ef18","3ce68dc4-89da-4770-948e-944f675a4a4c","{""part"":""2"",""participantId"":""C6C57035021645E38F43495607B44726"",""assignmentId"":""5b1b41ed-0cd2-4bcb-9efe-228c2e00ef18"",""projectId"":""3ce68dc4-89da-4770-948e-944f675a4a4c""}","https://test12345.live/?part=2&participantId=C6C57035021645E38F43495607B44726&assignmentId=5b1b41ed-0cd2-4bcb-9efe-228c2e00ef18&projectId=3ce68dc4-89da-4770-948e-944f675a4a4c","C6C57035021645E38F43495607B44726-2025-05-28-16-56-13","","2792","","","{""Q0"":""AJFHBG896""}","",""
