"success","timeout","failed_images","failed_audio","failed_video","trial_type","trial_index","time_elapsed","internal_node_id","subject","subject_id","study_id","session_id","urlvar","current_url","audio_id","view_history","rt","device_id","stimulus","response","estimated_stimulus_onset","seq_name"
"true","false","[]","[]","[]","preload","0","3965","0.0-0.0","C79E8002797D479487A51EDC4B03077C","C79E8002797D479487A51EDC4B03077C","db4c5c3d-9633-4efa-a54f-5e71a13c9bf8","a647230e-5c99-4b66-bf2f-966bf482667d","{""part"":""2"",""participantId"":""C79E8002797D479487A51EDC4B03077C"",""assignmentId"":""db4c5c3d-9633-4efa-a54f-5e71a13c9bf8"",""projectId"":""a647230e-5c99-4b66-bf2f-966bf482667d""}","https://test12345.live/?part=2&participantId=C79E8002797D479487A51EDC4B03077C&assignmentId=db4c5c3d-9633-4efa-a54f-5e71a13c9bf8&projectId=a647230e-5c99-4b66-bf2f-966bf482667d","C79E8002797D479487A51EDC4B03077C-2025-05-16-17-45-22","","","","","","",""
"","","","","","instructions","1","53102","0.0-1.0","C79E8002797D479487A51EDC4B03077C","C79E8002797D479487A51EDC4B03077C","db4c5c3d-9633-4efa-a54f-5e71a13c9bf8","a647230e-5c99-4b66-bf2f-966bf482667d","{""part"":""2"",""participantId"":""C79E8002797D479487A51EDC4B03077C"",""assignmentId"":""db4c5c3d-9633-4efa-a54f-5e71a13c9bf8"",""projectId"":""a647230e-5c99-4b66-bf2f-966bf482667d""}","https://test12345.live/?part=2&participantId=C79E8002797D479487A51EDC4B03077C&assignmentId=db4c5c3d-9633-4efa-a54f-5e71a13c9bf8&projectId=a647230e-5c99-4b66-bf2f-966bf482667d","C79E8002797D479487A51EDC4B03077C-2025-05-16-17-45-22","[{""page_index"":0,""viewing_time"":49135}]","49136","","","","",""
"","","","","","instructions","2","93526","0.0-2.0","C79E8002797D479487A51EDC4B03077C","C79E8002797D479487A51EDC4B03077C","db4c5c3d-9633-4efa-a54f-5e71a13c9bf8","a647230e-5c99-4b66-bf2f-966bf482667d","{""part"":""2"",""participantId"":""C79E8002797D479487A51EDC4B03077C"",""assignmentId"":""db4c5c3d-9633-4efa-a54f-5e71a13c9bf8"",""projectId"":""a647230e-5c99-4b66-bf2f-966bf482667d""}","https://test12345.live/?part=2&participantId=C79E8002797D479487A51EDC4B03077C&assignmentId=db4c5c3d-9633-4efa-a54f-5e71a13c9bf8&projectId=a647230e-5c99-4b66-bf2f-966bf482667d","C79E8002797D479487A51EDC4B03077C-2025-05-16-17-45-22","[{""page_index"":0,""viewing_time"":40422}]","40422","","","","",""
"true","","","","","fullscreen","3","96029","0.0-3.0","C79E8002797D479487A51EDC4B03077C","C79E8002797D479487A51EDC4B03077C","db4c5c3d-9633-4efa-a54f-5e71a13c9bf8","a647230e-5c99-4b66-bf2f-966bf482667d","{""part"":""2"",""participantId"":""C79E8002797D479487A51EDC4B03077C"",""assignmentId"":""db4c5c3d-9633-4efa-a54f-5e71a13c9bf8"",""projectId"":""a647230e-5c99-4b66-bf2f-966bf482667d""}","https://test12345.live/?part=2&participantId=C79E8002797D479487A51EDC4B03077C&assignmentId=db4c5c3d-9633-4efa-a54f-5e71a13c9bf8&projectId=a647230e-5c99-4b66-bf2f-966bf482667d","C79E8002797D479487A51EDC4B03077C-2025-05-16-17-45-22","","1498","","","","",""
"","","","","","initialize-microphone","4","104910","0.0-4.0-0.0","C79E8002797D479487A51EDC4B03077C","C79E8002797D479487A51EDC4B03077C","db4c5c3d-9633-4efa-a54f-5e71a13c9bf8","a647230e-5c99-4b66-bf2f-966bf482667d","{""part"":""2"",""participantId"":""C79E8002797D479487A51EDC4B03077C"",""assignmentId"":""db4c5c3d-9633-4efa-a54f-5e71a13c9bf8"",""projectId"":""a647230e-5c99-4b66-bf2f-966bf482667d""}","https://test12345.live/?part=2&participantId=C79E8002797D479487A51EDC4B03077C&assignmentId=db4c5c3d-9633-4efa-a54f-5e71a13c9bf8&projectId=a647230e-5c99-4b66-bf2f-966bf482667d","C79E8002797D479487A51EDC4B03077C-2025-05-16-17-45-22","","","60fafa2b704335685a0365238c1a89c0ea5c5d78785f53c4a1e01301315501ed","","","",""
"","","","","","html-audio-response","5","126044","0.0-4.0-1.0","C79E8002797D479487A51EDC4B03077C","C79E8002797D479487A51EDC4B03077C","db4c5c3d-9633-4efa-a54f-5e71a13c9bf8","a647230e-5c99-4b66-bf2f-966bf482667d","{""part"":""2"",""participantId"":""C79E8002797D479487A51EDC4B03077C"",""assignmentId"":""db4c5c3d-9633-4efa-a54f-5e71a13c9bf8"",""projectId"":""a647230e-5c99-4b66-bf2f-966bf482667d""}","https://test12345.live/?part=2&participantId=C79E8002797D479487A51EDC4B03077C&assignmentId=db4c5c3d-9633-4efa-a54f-5e71a13c9bf8&projectId=a647230e-5c99-4b66-bf2f-966bf482667d","C79E8002797D479487A51EDC4B03077C-2025-05-16-17-45-22","","4443","","<span style=""color: red; font-size: 24px""> NOW RECORDING</span>
        <p>Please test Microphone</p>","","4",""
"","","","","","html-button-response","6","128970","0.0-4.0-2.0","C79E8002797D479487A51EDC4B03077C","C79E8002797D479487A51EDC4B03077C","db4c5c3d-9633-4efa-a54f-5e71a13c9bf8","a647230e-5c99-4b66-bf2f-966bf482667d","{""part"":""2"",""participantId"":""C79E8002797D479487A51EDC4B03077C"",""assignmentId"":""db4c5c3d-9633-4efa-a54f-5e71a13c9bf8"",""projectId"":""a647230e-5c99-4b66-bf2f-966bf482667d""}","https://test12345.live/?part=2&participantId=C79E8002797D479487A51EDC4B03077C&assignmentId=db4c5c3d-9633-4efa-a54f-5e71a13c9bf8&projectId=a647230e-5c99-4b66-bf2f-966bf482667d","C79E8002797D479487A51EDC4B03077C-2025-05-16-17-45-22","","2923","","<p style=""font-size:48px; color:red;"">Is Microphone OK?</p>","1","",""
"","","","","","instructions","7","139516","0.0-5.0","C79E8002797D479487A51EDC4B03077C","C79E8002797D479487A51EDC4B03077C","db4c5c3d-9633-4efa-a54f-5e71a13c9bf8","a647230e-5c99-4b66-bf2f-966bf482667d","{""part"":""2"",""participantId"":""C79E8002797D479487A51EDC4B03077C"",""assignmentId"":""db4c5c3d-9633-4efa-a54f-5e71a13c9bf8"",""projectId"":""a647230e-5c99-4b66-bf2f-966bf482667d""}","https://test12345.live/?part=2&participantId=C79E8002797D479487A51EDC4B03077C&assignmentId=db4c5c3d-9633-4efa-a54f-5e71a13c9bf8&projectId=a647230e-5c99-4b66-bf2f-966bf482667d","C79E8002797D479487A51EDC4B03077C-2025-05-16-17-45-22","[{""page_index"":0,""viewing_time"":1352},{""page_index"":1,""viewing_time"":3030},{""page_index"":2,""viewing_time"":6162}]","10544","","","","",""
"","","","","","image-button-response","8","145520","0.0-6.0-0.0","C79E8002797D479487A51EDC4B03077C","C79E8002797D479487A51EDC4B03077C","db4c5c3d-9633-4efa-a54f-5e71a13c9bf8","a647230e-5c99-4b66-bf2f-966bf482667d","{""part"":""2"",""participantId"":""C79E8002797D479487A51EDC4B03077C"",""assignmentId"":""db4c5c3d-9633-4efa-a54f-5e71a13c9bf8"",""projectId"":""a647230e-5c99-4b66-bf2f-966bf482667d""}","https://test12345.live/?part=2&participantId=C79E8002797D479487A51EDC4B03077C&assignmentId=db4c5c3d-9633-4efa-a54f-5e71a13c9bf8&projectId=a647230e-5c99-4b66-bf2f-966bf482667d","C79E8002797D479487A51EDC4B03077C-2025-05-16-17-45-22","","null","","images/instructions/movie_0.png","null","",""
"","","","","","html-audio-response","9","165570","0.0-7.0","C79E8002797D479487A51EDC4B03077C","C79E8002797D479487A51EDC4B03077C","db4c5c3d-9633-4efa-a54f-5e71a13c9bf8","a647230e-5c99-4b66-bf2f-966bf482667d","{""part"":""2"",""participantId"":""C79E8002797D479487A51EDC4B03077C"",""assignmentId"":""db4c5c3d-9633-4efa-a54f-5e71a13c9bf8"",""projectId"":""a647230e-5c99-4b66-bf2f-966bf482667d""}","https://test12345.live/?part=2&participantId=C79E8002797D479487A51EDC4B03077C&assignmentId=db4c5c3d-9633-4efa-a54f-5e71a13c9bf8&projectId=a647230e-5c99-4b66-bf2f-966bf482667d","C79E8002797D479487A51EDC4B03077C-2025-05-16-17-45-22","","9223","","[""<span style=\""color: red; font-size: 24px\""> NOW RECORDING</span><p>Please say out loud all the images you saw in part 1 of the experiment, as many as you can remember. The images can be said in any order.</p>""]","","4",""
"","","","","","instructions","10","166734","0.0-8.0","C79E8002797D479487A51EDC4B03077C","C79E8002797D479487A51EDC4B03077C","db4c5c3d-9633-4efa-a54f-5e71a13c9bf8","a647230e-5c99-4b66-bf2f-966bf482667d","{""part"":""2"",""participantId"":""C79E8002797D479487A51EDC4B03077C"",""assignmentId"":""db4c5c3d-9633-4efa-a54f-5e71a13c9bf8"",""projectId"":""a647230e-5c99-4b66-bf2f-966bf482667d""}","https://test12345.live/?part=2&participantId=C79E8002797D479487A51EDC4B03077C&assignmentId=db4c5c3d-9633-4efa-a54f-5e71a13c9bf8&projectId=a647230e-5c99-4b66-bf2f-966bf482667d","C79E8002797D479487A51EDC4B03077C-2025-05-16-17-45-22","[{""page_index"":0,""viewing_time"":1157}]","1157","","","","",""
"","","","","","image-button-response","11","172736","0.0-9.0-0.0","C79E8002797D479487A51EDC4B03077C","C79E8002797D479487A51EDC4B03077C","db4c5c3d-9633-4efa-a54f-5e71a13c9bf8","a647230e-5c99-4b66-bf2f-966bf482667d","{""part"":""2"",""participantId"":""C79E8002797D479487A51EDC4B03077C"",""assignmentId"":""db4c5c3d-9633-4efa-a54f-5e71a13c9bf8"",""projectId"":""a647230e-5c99-4b66-bf2f-966bf482667d""}","https://test12345.live/?part=2&participantId=C79E8002797D479487A51EDC4B03077C&assignmentId=db4c5c3d-9633-4efa-a54f-5e71a13c9bf8&projectId=a647230e-5c99-4b66-bf2f-966bf482667d","C79E8002797D479487A51EDC4B03077C-2025-05-16-17-45-22","","null","","images/causal_sequence/saving_a_cat_causal/saving_a_cat_causal_0.png","null","",""
"","","","","","html-audio-response","12","179878","0.0-10.0","C79E8002797D479487A51EDC4B03077C","C79E8002797D479487A51EDC4B03077C","db4c5c3d-9633-4efa-a54f-5e71a13c9bf8","a647230e-5c99-4b66-bf2f-966bf482667d","{""part"":""2"",""participantId"":""C79E8002797D479487A51EDC4B03077C"",""assignmentId"":""db4c5c3d-9633-4efa-a54f-5e71a13c9bf8"",""projectId"":""a647230e-5c99-4b66-bf2f-966bf482667d""}","https://test12345.live/?part=2&participantId=C79E8002797D479487A51EDC4B03077C&assignmentId=db4c5c3d-9633-4efa-a54f-5e71a13c9bf8&projectId=a647230e-5c99-4b66-bf2f-966bf482667d","C79E8002797D479487A51EDC4B03077C-2025-05-16-17-45-22","","3063","","[""<span style=\""color: red; font-size: 24px\""> NOW RECORDING</span><p>Please say out loud all the images you saw in part 1 of the experiment, as many as you can remember. The images can be said in any order.</p>""]","","4","saving_a_cat_causal"
"","","","","","image-button-response","13","185884","0.0-11.0-0.0","C79E8002797D479487A51EDC4B03077C","C79E8002797D479487A51EDC4B03077C","db4c5c3d-9633-4efa-a54f-5e71a13c9bf8","a647230e-5c99-4b66-bf2f-966bf482667d","{""part"":""2"",""participantId"":""C79E8002797D479487A51EDC4B03077C"",""assignmentId"":""db4c5c3d-9633-4efa-a54f-5e71a13c9bf8"",""projectId"":""a647230e-5c99-4b66-bf2f-966bf482667d""}","https://test12345.live/?part=2&participantId=C79E8002797D479487A51EDC4B03077C&assignmentId=db4c5c3d-9633-4efa-a54f-5e71a13c9bf8&projectId=a647230e-5c99-4b66-bf2f-966bf482667d","C79E8002797D479487A51EDC4B03077C-2025-05-16-17-45-22","","null","","images/semantic_sequence/exploring_nature_semantic/exploring_nature_semantic_0.png","null","",""
"","","","","","html-audio-response","14","194444","0.0-12.0","C79E8002797D479487A51EDC4B03077C","C79E8002797D479487A51EDC4B03077C","db4c5c3d-9633-4efa-a54f-5e71a13c9bf8","a647230e-5c99-4b66-bf2f-966bf482667d","{""part"":""2"",""participantId"":""C79E8002797D479487A51EDC4B03077C"",""assignmentId"":""db4c5c3d-9633-4efa-a54f-5e71a13c9bf8"",""projectId"":""a647230e-5c99-4b66-bf2f-966bf482667d""}","https://test12345.live/?part=2&participantId=C79E8002797D479487A51EDC4B03077C&assignmentId=db4c5c3d-9633-4efa-a54f-5e71a13c9bf8&projectId=a647230e-5c99-4b66-bf2f-966bf482667d","C79E8002797D479487A51EDC4B03077C-2025-05-16-17-45-22","","2678","","[""<span style=\""color: red; font-size: 24px\""> NOW RECORDING</span><p>Please say out loud all the images you saw in part 1 of the experiment, as many as you can remember. The images can be said in any order.</p>""]","","2","exploring_nature_semantic"
"","","","","","image-button-response","15","200448","0.0-13.0-0.0","C79E8002797D479487A51EDC4B03077C","C79E8002797D479487A51EDC4B03077C","db4c5c3d-9633-4efa-a54f-5e71a13c9bf8","a647230e-5c99-4b66-bf2f-966bf482667d","{""part"":""2"",""participantId"":""C79E8002797D479487A51EDC4B03077C"",""assignmentId"":""db4c5c3d-9633-4efa-a54f-5e71a13c9bf8"",""projectId"":""a647230e-5c99-4b66-bf2f-966bf482667d""}","https://test12345.live/?part=2&participantId=C79E8002797D479487A51EDC4B03077C&assignmentId=db4c5c3d-9633-4efa-a54f-5e71a13c9bf8&projectId=a647230e-5c99-4b66-bf2f-966bf482667d","C79E8002797D479487A51EDC4B03077C-2025-05-16-17-45-22","","null","","images/causal_sequence/the_performance_causal/the_performance_causal_0.png","null","",""
"","","","","","html-audio-response","16","242189","0.0-14.0","C79E8002797D479487A51EDC4B03077C","C79E8002797D479487A51EDC4B03077C","db4c5c3d-9633-4efa-a54f-5e71a13c9bf8","a647230e-5c99-4b66-bf2f-966bf482667d","{""part"":""2"",""participantId"":""C79E8002797D479487A51EDC4B03077C"",""assignmentId"":""db4c5c3d-9633-4efa-a54f-5e71a13c9bf8"",""projectId"":""a647230e-5c99-4b66-bf2f-966bf482667d""}","https://test12345.live/?part=2&participantId=C79E8002797D479487A51EDC4B03077C&assignmentId=db4c5c3d-9633-4efa-a54f-5e71a13c9bf8&projectId=a647230e-5c99-4b66-bf2f-966bf482667d","C79E8002797D479487A51EDC4B03077C-2025-05-16-17-45-22","","20644","","[""<span style=\""color: red; font-size: 24px\""> NOW RECORDING</span><p>Please say out loud all the images you saw in part 1 of the experiment, as many as you can remember. The images can be said in any order.</p>""]","","2","the_performance_causal"
"","","","","","image-button-response","17","248199","0.0-15.0-0.0","C79E8002797D479487A51EDC4B03077C","C79E8002797D479487A51EDC4B03077C","db4c5c3d-9633-4efa-a54f-5e71a13c9bf8","a647230e-5c99-4b66-bf2f-966bf482667d","{""part"":""2"",""participantId"":""C79E8002797D479487A51EDC4B03077C"",""assignmentId"":""db4c5c3d-9633-4efa-a54f-5e71a13c9bf8"",""projectId"":""a647230e-5c99-4b66-bf2f-966bf482667d""}","https://test12345.live/?part=2&participantId=C79E8002797D479487A51EDC4B03077C&assignmentId=db4c5c3d-9633-4efa-a54f-5e71a13c9bf8&projectId=a647230e-5c99-4b66-bf2f-966bf482667d","C79E8002797D479487A51EDC4B03077C-2025-05-16-17-45-22","","null","","images/causal_sequence/coin_causal/coin_causal_0.png","null","",""
"","","","","","html-audio-response","18","269855","0.0-16.0","C79E8002797D479487A51EDC4B03077C","C79E8002797D479487A51EDC4B03077C","db4c5c3d-9633-4efa-a54f-5e71a13c9bf8","a647230e-5c99-4b66-bf2f-966bf482667d","{""part"":""2"",""participantId"":""C79E8002797D479487A51EDC4B03077C"",""assignmentId"":""db4c5c3d-9633-4efa-a54f-5e71a13c9bf8"",""projectId"":""a647230e-5c99-4b66-bf2f-966bf482667d""}","https://test12345.live/?part=2&participantId=C79E8002797D479487A51EDC4B03077C&assignmentId=db4c5c3d-9633-4efa-a54f-5e71a13c9bf8&projectId=a647230e-5c99-4b66-bf2f-966bf482667d","C79E8002797D479487A51EDC4B03077C-2025-05-16-17-45-22","","9821","","[""<span style=\""color: red; font-size: 24px\""> NOW RECORDING</span><p>Please say out loud all the images you saw in part 1 of the experiment, as many as you can remember. The images can be said in any order.</p>""]","","2","coin_causal"
"","","","","","image-button-response","19","275862","0.0-17.0-0.0","C79E8002797D479487A51EDC4B03077C","C79E8002797D479487A51EDC4B03077C","db4c5c3d-9633-4efa-a54f-5e71a13c9bf8","a647230e-5c99-4b66-bf2f-966bf482667d","{""part"":""2"",""participantId"":""C79E8002797D479487A51EDC4B03077C"",""assignmentId"":""db4c5c3d-9633-4efa-a54f-5e71a13c9bf8"",""projectId"":""a647230e-5c99-4b66-bf2f-966bf482667d""}","https://test12345.live/?part=2&participantId=C79E8002797D479487A51EDC4B03077C&assignmentId=db4c5c3d-9633-4efa-a54f-5e71a13c9bf8&projectId=a647230e-5c99-4b66-bf2f-966bf482667d","C79E8002797D479487A51EDC4B03077C-2025-05-16-17-45-22","","null","","images/semantic_sequence/cat_care_semantic/cat_care_semantic_0.png","null","",""
"","","","","","html-audio-response","20","303391","0.0-18.0","C79E8002797D479487A51EDC4B03077C","C79E8002797D479487A51EDC4B03077C","db4c5c3d-9633-4efa-a54f-5e71a13c9bf8","a647230e-5c99-4b66-bf2f-966bf482667d","{""part"":""2"",""participantId"":""C79E8002797D479487A51EDC4B03077C"",""assignmentId"":""db4c5c3d-9633-4efa-a54f-5e71a13c9bf8"",""projectId"":""a647230e-5c99-4b66-bf2f-966bf482667d""}","https://test12345.live/?part=2&participantId=C79E8002797D479487A51EDC4B03077C&assignmentId=db4c5c3d-9633-4efa-a54f-5e71a13c9bf8&projectId=a647230e-5c99-4b66-bf2f-966bf482667d","C79E8002797D479487A51EDC4B03077C-2025-05-16-17-45-22","","12049","","[""<span style=\""color: red; font-size: 24px\""> NOW RECORDING</span><p>Please say out loud all the images you saw in part 1 of the experiment, as many as you can remember. The images can be said in any order.</p>""]","","2","cat_care_semantic"
"","","","","","image-button-response","21","309399","0.0-19.0-0.0","C79E8002797D479487A51EDC4B03077C","C79E8002797D479487A51EDC4B03077C","db4c5c3d-9633-4efa-a54f-5e71a13c9bf8","a647230e-5c99-4b66-bf2f-966bf482667d","{""part"":""2"",""participantId"":""C79E8002797D479487A51EDC4B03077C"",""assignmentId"":""db4c5c3d-9633-4efa-a54f-5e71a13c9bf8"",""projectId"":""a647230e-5c99-4b66-bf2f-966bf482667d""}","https://test12345.live/?part=2&participantId=C79E8002797D479487A51EDC4B03077C&assignmentId=db4c5c3d-9633-4efa-a54f-5e71a13c9bf8&projectId=a647230e-5c99-4b66-bf2f-966bf482667d","C79E8002797D479487A51EDC4B03077C-2025-05-16-17-45-22","","null","","images/schematic_sequence/interview_scheme/interview_scheme_0.png","null","",""
"","","","","","html-audio-response","22","332846","0.0-20.0","C79E8002797D479487A51EDC4B03077C","C79E8002797D479487A51EDC4B03077C","db4c5c3d-9633-4efa-a54f-5e71a13c9bf8","a647230e-5c99-4b66-bf2f-966bf482667d","{""part"":""2"",""participantId"":""C79E8002797D479487A51EDC4B03077C"",""assignmentId"":""db4c5c3d-9633-4efa-a54f-5e71a13c9bf8"",""projectId"":""a647230e-5c99-4b66-bf2f-966bf482667d""}","https://test12345.live/?part=2&participantId=C79E8002797D479487A51EDC4B03077C&assignmentId=db4c5c3d-9633-4efa-a54f-5e71a13c9bf8&projectId=a647230e-5c99-4b66-bf2f-966bf482667d","C79E8002797D479487A51EDC4B03077C-2025-05-16-17-45-22","","10924","","[""<span style=\""color: red; font-size: 24px\""> NOW RECORDING</span><p>Please say out loud all the images you saw in part 1 of the experiment, as many as you can remember. The images can be said in any order.</p>""]","","2","interview_scheme"
"","","","","","image-button-response","23","338853","0.0-21.0-0.0","C79E8002797D479487A51EDC4B03077C","C79E8002797D479487A51EDC4B03077C","db4c5c3d-9633-4efa-a54f-5e71a13c9bf8","a647230e-5c99-4b66-bf2f-966bf482667d","{""part"":""2"",""participantId"":""C79E8002797D479487A51EDC4B03077C"",""assignmentId"":""db4c5c3d-9633-4efa-a54f-5e71a13c9bf8"",""projectId"":""a647230e-5c99-4b66-bf2f-966bf482667d""}","https://test12345.live/?part=2&participantId=C79E8002797D479487A51EDC4B03077C&assignmentId=db4c5c3d-9633-4efa-a54f-5e71a13c9bf8&projectId=a647230e-5c99-4b66-bf2f-966bf482667d","C79E8002797D479487A51EDC4B03077C-2025-05-16-17-45-22","","null","","images/schematic_sequence/supermarket_scheme/supermarket_scheme_0.png","null","",""
"","","","","","html-audio-response","24","360281","0.0-22.0","C79E8002797D479487A51EDC4B03077C","C79E8002797D479487A51EDC4B03077C","db4c5c3d-9633-4efa-a54f-5e71a13c9bf8","a647230e-5c99-4b66-bf2f-966bf482667d","{""part"":""2"",""participantId"":""C79E8002797D479487A51EDC4B03077C"",""assignmentId"":""db4c5c3d-9633-4efa-a54f-5e71a13c9bf8"",""projectId"":""a647230e-5c99-4b66-bf2f-966bf482667d""}","https://test12345.live/?part=2&participantId=C79E8002797D479487A51EDC4B03077C&assignmentId=db4c5c3d-9633-4efa-a54f-5e71a13c9bf8&projectId=a647230e-5c99-4b66-bf2f-966bf482667d","C79E8002797D479487A51EDC4B03077C-2025-05-16-17-45-22","","9449","","[""<span style=\""color: red; font-size: 24px\""> NOW RECORDING</span><p>Please say out loud all the images you saw in part 1 of the experiment, as many as you can remember. The images can be said in any order.</p>""]","","4","supermarket_scheme"
"","","","","","image-button-response","25","366287","0.0-23.0-0.0","C79E8002797D479487A51EDC4B03077C","C79E8002797D479487A51EDC4B03077C","db4c5c3d-9633-4efa-a54f-5e71a13c9bf8","a647230e-5c99-4b66-bf2f-966bf482667d","{""part"":""2"",""participantId"":""C79E8002797D479487A51EDC4B03077C"",""assignmentId"":""db4c5c3d-9633-4efa-a54f-5e71a13c9bf8"",""projectId"":""a647230e-5c99-4b66-bf2f-966bf482667d""}","https://test12345.live/?part=2&participantId=C79E8002797D479487A51EDC4B03077C&assignmentId=db4c5c3d-9633-4efa-a54f-5e71a13c9bf8&projectId=a647230e-5c99-4b66-bf2f-966bf482667d","C79E8002797D479487A51EDC4B03077C-2025-05-16-17-45-22","","null","","images/semantic_sequence/maintaining_a_car_semantic/maintaining_a_car_semantic_0.png","null","",""
"","","","","","html-audio-response","26","380017","0.0-24.0","C79E8002797D479487A51EDC4B03077C","C79E8002797D479487A51EDC4B03077C","db4c5c3d-9633-4efa-a54f-5e71a13c9bf8","a647230e-5c99-4b66-bf2f-966bf482667d","{""part"":""2"",""participantId"":""C79E8002797D479487A51EDC4B03077C"",""assignmentId"":""db4c5c3d-9633-4efa-a54f-5e71a13c9bf8"",""projectId"":""a647230e-5c99-4b66-bf2f-966bf482667d""}","https://test12345.live/?part=2&participantId=C79E8002797D479487A51EDC4B03077C&assignmentId=db4c5c3d-9633-4efa-a54f-5e71a13c9bf8&projectId=a647230e-5c99-4b66-bf2f-966bf482667d","C79E8002797D479487A51EDC4B03077C-2025-05-16-17-45-22","","12274","","[""<span style=\""color: red; font-size: 24px\""> NOW RECORDING</span><p>Please say out loud all the images you saw in part 1 of the experiment, as many as you can remember. The images can be said in any order.</p>""]","","2","maintaining_a_car_semantic"
"","","","","","image-button-response","27","386026","0.0-25.0-0.0","C79E8002797D479487A51EDC4B03077C","C79E8002797D479487A51EDC4B03077C","db4c5c3d-9633-4efa-a54f-5e71a13c9bf8","a647230e-5c99-4b66-bf2f-966bf482667d","{""part"":""2"",""participantId"":""C79E8002797D479487A51EDC4B03077C"",""assignmentId"":""db4c5c3d-9633-4efa-a54f-5e71a13c9bf8"",""projectId"":""a647230e-5c99-4b66-bf2f-966bf482667d""}","https://test12345.live/?part=2&participantId=C79E8002797D479487A51EDC4B03077C&assignmentId=db4c5c3d-9633-4efa-a54f-5e71a13c9bf8&projectId=a647230e-5c99-4b66-bf2f-966bf482667d","C79E8002797D479487A51EDC4B03077C-2025-05-16-17-45-22","","null","","images/semantic_sequence/creative_activities_semantic/creative_activities_semantic_0.png","null","",""
"","","","","","html-audio-response","28","401008","0.0-26.0","C79E8002797D479487A51EDC4B03077C","C79E8002797D479487A51EDC4B03077C","db4c5c3d-9633-4efa-a54f-5e71a13c9bf8","a647230e-5c99-4b66-bf2f-966bf482667d","{""part"":""2"",""participantId"":""C79E8002797D479487A51EDC4B03077C"",""assignmentId"":""db4c5c3d-9633-4efa-a54f-5e71a13c9bf8"",""projectId"":""a647230e-5c99-4b66-bf2f-966bf482667d""}","https://test12345.live/?part=2&participantId=C79E8002797D479487A51EDC4B03077C&assignmentId=db4c5c3d-9633-4efa-a54f-5e71a13c9bf8&projectId=a647230e-5c99-4b66-bf2f-966bf482667d","C79E8002797D479487A51EDC4B03077C-2025-05-16-17-45-22","","13547","","[""<span style=\""color: red; font-size: 24px\""> NOW RECORDING</span><p>Please say out loud all the images you saw in part 1 of the experiment, as many as you can remember. The images can be said in any order.</p>""]","","4","creative_activities_semantic"
"","","","","","image-button-response","29","407016","0.0-27.0-0.0","C79E8002797D479487A51EDC4B03077C","C79E8002797D479487A51EDC4B03077C","db4c5c3d-9633-4efa-a54f-5e71a13c9bf8","a647230e-5c99-4b66-bf2f-966bf482667d","{""part"":""2"",""participantId"":""C79E8002797D479487A51EDC4B03077C"",""assignmentId"":""db4c5c3d-9633-4efa-a54f-5e71a13c9bf8"",""projectId"":""a647230e-5c99-4b66-bf2f-966bf482667d""}","https://test12345.live/?part=2&participantId=C79E8002797D479487A51EDC4B03077C&assignmentId=db4c5c3d-9633-4efa-a54f-5e71a13c9bf8&projectId=a647230e-5c99-4b66-bf2f-966bf482667d","C79E8002797D479487A51EDC4B03077C-2025-05-16-17-45-22","","null","","images/semantic_sequence/redecorating_semantic/redecorating_semantic_0.png","null","",""
"","","","","","html-audio-response","30","439237","0.0-28.0","C79E8002797D479487A51EDC4B03077C","C79E8002797D479487A51EDC4B03077C","db4c5c3d-9633-4efa-a54f-5e71a13c9bf8","a647230e-5c99-4b66-bf2f-966bf482667d","{""part"":""2"",""participantId"":""C79E8002797D479487A51EDC4B03077C"",""assignmentId"":""db4c5c3d-9633-4efa-a54f-5e71a13c9bf8"",""projectId"":""a647230e-5c99-4b66-bf2f-966bf482667d""}","https://test12345.live/?part=2&participantId=C79E8002797D479487A51EDC4B03077C&assignmentId=db4c5c3d-9633-4efa-a54f-5e71a13c9bf8&projectId=a647230e-5c99-4b66-bf2f-966bf482667d","C79E8002797D479487A51EDC4B03077C-2025-05-16-17-45-22","","14388","","[""<span style=\""color: red; font-size: 24px\""> NOW RECORDING</span><p>Please say out loud all the images you saw in part 1 of the experiment, as many as you can remember. The images can be said in any order.</p>""]","","2","redecorating_semantic"
"","","","","","image-button-response","31","445245","0.0-29.0-0.0","C79E8002797D479487A51EDC4B03077C","C79E8002797D479487A51EDC4B03077C","db4c5c3d-9633-4efa-a54f-5e71a13c9bf8","a647230e-5c99-4b66-bf2f-966bf482667d","{""part"":""2"",""participantId"":""C79E8002797D479487A51EDC4B03077C"",""assignmentId"":""db4c5c3d-9633-4efa-a54f-5e71a13c9bf8"",""projectId"":""a647230e-5c99-4b66-bf2f-966bf482667d""}","https://test12345.live/?part=2&participantId=C79E8002797D479487A51EDC4B03077C&assignmentId=db4c5c3d-9633-4efa-a54f-5e71a13c9bf8&projectId=a647230e-5c99-4b66-bf2f-966bf482667d","C79E8002797D479487A51EDC4B03077C-2025-05-16-17-45-22","","null","","images/semantic_sequence/housework_semantic/housework_semantic_0.png","null","",""
"","","","","","html-audio-response","32","455243","0.0-30.0","C79E8002797D479487A51EDC4B03077C","C79E8002797D479487A51EDC4B03077C","db4c5c3d-9633-4efa-a54f-5e71a13c9bf8","a647230e-5c99-4b66-bf2f-966bf482667d","{""part"":""2"",""participantId"":""C79E8002797D479487A51EDC4B03077C"",""assignmentId"":""db4c5c3d-9633-4efa-a54f-5e71a13c9bf8"",""projectId"":""a647230e-5c99-4b66-bf2f-966bf482667d""}","https://test12345.live/?part=2&participantId=C79E8002797D479487A51EDC4B03077C&assignmentId=db4c5c3d-9633-4efa-a54f-5e71a13c9bf8&projectId=a647230e-5c99-4b66-bf2f-966bf482667d","C79E8002797D479487A51EDC4B03077C-2025-05-16-17-45-22","","8610","","[""<span style=\""color: red; font-size: 24px\""> NOW RECORDING</span><p>Please say out loud all the images you saw in part 1 of the experiment, as many as you can remember. The images can be said in any order.</p>""]","","2","housework_semantic"
"","","","","","image-button-response","33","461250","0.0-31.0-0.0","C79E8002797D479487A51EDC4B03077C","C79E8002797D479487A51EDC4B03077C","db4c5c3d-9633-4efa-a54f-5e71a13c9bf8","a647230e-5c99-4b66-bf2f-966bf482667d","{""part"":""2"",""participantId"":""C79E8002797D479487A51EDC4B03077C"",""assignmentId"":""db4c5c3d-9633-4efa-a54f-5e71a13c9bf8"",""projectId"":""a647230e-5c99-4b66-bf2f-966bf482667d""}","https://test12345.live/?part=2&participantId=C79E8002797D479487A51EDC4B03077C&assignmentId=db4c5c3d-9633-4efa-a54f-5e71a13c9bf8&projectId=a647230e-5c99-4b66-bf2f-966bf482667d","C79E8002797D479487A51EDC4B03077C-2025-05-16-17-45-22","","null","","images/causal_sequence/package_causal/package_causal_0.png","null","",""
"","","","","","html-audio-response","34","480791","0.0-32.0","C79E8002797D479487A51EDC4B03077C","C79E8002797D479487A51EDC4B03077C","db4c5c3d-9633-4efa-a54f-5e71a13c9bf8","a647230e-5c99-4b66-bf2f-966bf482667d","{""part"":""2"",""participantId"":""C79E8002797D479487A51EDC4B03077C"",""assignmentId"":""db4c5c3d-9633-4efa-a54f-5e71a13c9bf8"",""projectId"":""a647230e-5c99-4b66-bf2f-966bf482667d""}","https://test12345.live/?part=2&participantId=C79E8002797D479487A51EDC4B03077C&assignmentId=db4c5c3d-9633-4efa-a54f-5e71a13c9bf8&projectId=a647230e-5c99-4b66-bf2f-966bf482667d","C79E8002797D479487A51EDC4B03077C-2025-05-16-17-45-22","","18141","","[""<span style=\""color: red; font-size: 24px\""> NOW RECORDING</span><p>Please say out loud all the images you saw in part 1 of the experiment, as many as you can remember. The images can be said in any order.</p>""]","","2","package_causal"
"","","","","","image-button-response","35","486799","0.0-33.0-0.0","C79E8002797D479487A51EDC4B03077C","C79E8002797D479487A51EDC4B03077C","db4c5c3d-9633-4efa-a54f-5e71a13c9bf8","a647230e-5c99-4b66-bf2f-966bf482667d","{""part"":""2"",""participantId"":""C79E8002797D479487A51EDC4B03077C"",""assignmentId"":""db4c5c3d-9633-4efa-a54f-5e71a13c9bf8"",""projectId"":""a647230e-5c99-4b66-bf2f-966bf482667d""}","https://test12345.live/?part=2&participantId=C79E8002797D479487A51EDC4B03077C&assignmentId=db4c5c3d-9633-4efa-a54f-5e71a13c9bf8&projectId=a647230e-5c99-4b66-bf2f-966bf482667d","C79E8002797D479487A51EDC4B03077C-2025-05-16-17-45-22","","null","","images/schematic_sequence/restaurant_scheme/restaurant_scheme_0.png","null","",""
"","","","","","html-audio-response","36","501417","0.0-34.0","C79E8002797D479487A51EDC4B03077C","C79E8002797D479487A51EDC4B03077C","db4c5c3d-9633-4efa-a54f-5e71a13c9bf8","a647230e-5c99-4b66-bf2f-966bf482667d","{""part"":""2"",""participantId"":""C79E8002797D479487A51EDC4B03077C"",""assignmentId"":""db4c5c3d-9633-4efa-a54f-5e71a13c9bf8"",""projectId"":""a647230e-5c99-4b66-bf2f-966bf482667d""}","https://test12345.live/?part=2&participantId=C79E8002797D479487A51EDC4B03077C&assignmentId=db4c5c3d-9633-4efa-a54f-5e71a13c9bf8&projectId=a647230e-5c99-4b66-bf2f-966bf482667d","C79E8002797D479487A51EDC4B03077C-2025-05-16-17-45-22","","13406","","[""<span style=\""color: red; font-size: 24px\""> NOW RECORDING</span><p>Please say out loud all the images you saw in part 1 of the experiment, as many as you can remember. The images can be said in any order.</p>""]","","4","restaurant_scheme"
"","","","","","image-button-response","37","507440","0.0-35.0-0.0","C79E8002797D479487A51EDC4B03077C","C79E8002797D479487A51EDC4B03077C","db4c5c3d-9633-4efa-a54f-5e71a13c9bf8","a647230e-5c99-4b66-bf2f-966bf482667d","{""part"":""2"",""participantId"":""C79E8002797D479487A51EDC4B03077C"",""assignmentId"":""db4c5c3d-9633-4efa-a54f-5e71a13c9bf8"",""projectId"":""a647230e-5c99-4b66-bf2f-966bf482667d""}","https://test12345.live/?part=2&participantId=C79E8002797D479487A51EDC4B03077C&assignmentId=db4c5c3d-9633-4efa-a54f-5e71a13c9bf8&projectId=a647230e-5c99-4b66-bf2f-966bf482667d","C79E8002797D479487A51EDC4B03077C-2025-05-16-17-45-22","","null","","images/causal_sequence/museum_causal/museum_causal_0.png","null","",""
"","","","","","html-audio-response","38","524521","0.0-36.0","C79E8002797D479487A51EDC4B03077C","C79E8002797D479487A51EDC4B03077C","db4c5c3d-9633-4efa-a54f-5e71a13c9bf8","a647230e-5c99-4b66-bf2f-966bf482667d","{""part"":""2"",""participantId"":""C79E8002797D479487A51EDC4B03077C"",""assignmentId"":""db4c5c3d-9633-4efa-a54f-5e71a13c9bf8"",""projectId"":""a647230e-5c99-4b66-bf2f-966bf482667d""}","https://test12345.live/?part=2&participantId=C79E8002797D479487A51EDC4B03077C&assignmentId=db4c5c3d-9633-4efa-a54f-5e71a13c9bf8&projectId=a647230e-5c99-4b66-bf2f-966bf482667d","C79E8002797D479487A51EDC4B03077C-2025-05-16-17-45-22","","15222","","[""<span style=\""color: red; font-size: 24px\""> NOW RECORDING</span><p>Please say out loud all the images you saw in part 1 of the experiment, as many as you can remember. The images can be said in any order.</p>""]","","4","museum_causal"
"","","","","","image-button-response","39","530528","0.0-37.0-0.0","C79E8002797D479487A51EDC4B03077C","C79E8002797D479487A51EDC4B03077C","db4c5c3d-9633-4efa-a54f-5e71a13c9bf8","a647230e-5c99-4b66-bf2f-966bf482667d","{""part"":""2"",""participantId"":""C79E8002797D479487A51EDC4B03077C"",""assignmentId"":""db4c5c3d-9633-4efa-a54f-5e71a13c9bf8"",""projectId"":""a647230e-5c99-4b66-bf2f-966bf482667d""}","https://test12345.live/?part=2&participantId=C79E8002797D479487A51EDC4B03077C&assignmentId=db4c5c3d-9633-4efa-a54f-5e71a13c9bf8&projectId=a647230e-5c99-4b66-bf2f-966bf482667d","C79E8002797D479487A51EDC4B03077C-2025-05-16-17-45-22","","null","","images/semantic_sequence/using_technology_semantic/using_technology_semantic_0.png","null","",""
"","","","","","html-audio-response","40","551308","0.0-38.0","C79E8002797D479487A51EDC4B03077C","C79E8002797D479487A51EDC4B03077C","db4c5c3d-9633-4efa-a54f-5e71a13c9bf8","a647230e-5c99-4b66-bf2f-966bf482667d","{""part"":""2"",""participantId"":""C79E8002797D479487A51EDC4B03077C"",""assignmentId"":""db4c5c3d-9633-4efa-a54f-5e71a13c9bf8"",""projectId"":""a647230e-5c99-4b66-bf2f-966bf482667d""}","https://test12345.live/?part=2&participantId=C79E8002797D479487A51EDC4B03077C&assignmentId=db4c5c3d-9633-4efa-a54f-5e71a13c9bf8&projectId=a647230e-5c99-4b66-bf2f-966bf482667d","C79E8002797D479487A51EDC4B03077C-2025-05-16-17-45-22","","13851","","[""<span style=\""color: red; font-size: 24px\""> NOW RECORDING</span><p>Please say out loud all the images you saw in part 1 of the experiment, as many as you can remember. The images can be said in any order.</p>""]","","2","using_technology_semantic"
"","","","","","image-button-response","41","557316","0.0-39.0-0.0","C79E8002797D479487A51EDC4B03077C","C79E8002797D479487A51EDC4B03077C","db4c5c3d-9633-4efa-a54f-5e71a13c9bf8","a647230e-5c99-4b66-bf2f-966bf482667d","{""part"":""2"",""participantId"":""C79E8002797D479487A51EDC4B03077C"",""assignmentId"":""db4c5c3d-9633-4efa-a54f-5e71a13c9bf8"",""projectId"":""a647230e-5c99-4b66-bf2f-966bf482667d""}","https://test12345.live/?part=2&participantId=C79E8002797D479487A51EDC4B03077C&assignmentId=db4c5c3d-9633-4efa-a54f-5e71a13c9bf8&projectId=a647230e-5c99-4b66-bf2f-966bf482667d","C79E8002797D479487A51EDC4B03077C-2025-05-16-17-45-22","","null","","images/semantic_sequence/kitchen_operations_semantic/kitchen_operations_semantic_0.png","null","",""
"","","","","","html-audio-response","42","581986","0.0-40.0","C79E8002797D479487A51EDC4B03077C","C79E8002797D479487A51EDC4B03077C","db4c5c3d-9633-4efa-a54f-5e71a13c9bf8","a647230e-5c99-4b66-bf2f-966bf482667d","{""part"":""2"",""participantId"":""C79E8002797D479487A51EDC4B03077C"",""assignmentId"":""db4c5c3d-9633-4efa-a54f-5e71a13c9bf8"",""projectId"":""a647230e-5c99-4b66-bf2f-966bf482667d""}","https://test12345.live/?part=2&participantId=C79E8002797D479487A51EDC4B03077C&assignmentId=db4c5c3d-9633-4efa-a54f-5e71a13c9bf8&projectId=a647230e-5c99-4b66-bf2f-966bf482667d","C79E8002797D479487A51EDC4B03077C-2025-05-16-17-45-22","","16530","","[""<span style=\""color: red; font-size: 24px\""> NOW RECORDING</span><p>Please say out loud all the images you saw in part 1 of the experiment, as many as you can remember. The images can be said in any order.</p>""]","","2","kitchen_operations_semantic"
"","","","","","image-button-response","43","587995","0.0-41.0-0.0","C79E8002797D479487A51EDC4B03077C","C79E8002797D479487A51EDC4B03077C","db4c5c3d-9633-4efa-a54f-5e71a13c9bf8","a647230e-5c99-4b66-bf2f-966bf482667d","{""part"":""2"",""participantId"":""C79E8002797D479487A51EDC4B03077C"",""assignmentId"":""db4c5c3d-9633-4efa-a54f-5e71a13c9bf8"",""projectId"":""a647230e-5c99-4b66-bf2f-966bf482667d""}","https://test12345.live/?part=2&participantId=C79E8002797D479487A51EDC4B03077C&assignmentId=db4c5c3d-9633-4efa-a54f-5e71a13c9bf8&projectId=a647230e-5c99-4b66-bf2f-966bf482667d","C79E8002797D479487A51EDC4B03077C-2025-05-16-17-45-22","","null","","images/schematic_sequence/dinner_party_scheme/dinner_party_scheme_0.png","null","",""
"","","","","","html-audio-response","44","610116","0.0-42.0","C79E8002797D479487A51EDC4B03077C","C79E8002797D479487A51EDC4B03077C","db4c5c3d-9633-4efa-a54f-5e71a13c9bf8","a647230e-5c99-4b66-bf2f-966bf482667d","{""part"":""2"",""participantId"":""C79E8002797D479487A51EDC4B03077C"",""assignmentId"":""db4c5c3d-9633-4efa-a54f-5e71a13c9bf8"",""projectId"":""a647230e-5c99-4b66-bf2f-966bf482667d""}","https://test12345.live/?part=2&participantId=C79E8002797D479487A51EDC4B03077C&assignmentId=db4c5c3d-9633-4efa-a54f-5e71a13c9bf8&projectId=a647230e-5c99-4b66-bf2f-966bf482667d","C79E8002797D479487A51EDC4B03077C-2025-05-16-17-45-22","","20080","","[""<span style=\""color: red; font-size: 24px\""> NOW RECORDING</span><p>Please say out loud all the images you saw in part 1 of the experiment, as many as you can remember. The images can be said in any order.</p>""]","","2","dinner_party_scheme"
"","","","","","image-button-response","45","616124","0.0-43.0-0.0","C79E8002797D479487A51EDC4B03077C","C79E8002797D479487A51EDC4B03077C","db4c5c3d-9633-4efa-a54f-5e71a13c9bf8","a647230e-5c99-4b66-bf2f-966bf482667d","{""part"":""2"",""participantId"":""C79E8002797D479487A51EDC4B03077C"",""assignmentId"":""db4c5c3d-9633-4efa-a54f-5e71a13c9bf8"",""projectId"":""a647230e-5c99-4b66-bf2f-966bf482667d""}","https://test12345.live/?part=2&participantId=C79E8002797D479487A51EDC4B03077C&assignmentId=db4c5c3d-9633-4efa-a54f-5e71a13c9bf8&projectId=a647230e-5c99-4b66-bf2f-966bf482667d","C79E8002797D479487A51EDC4B03077C-2025-05-16-17-45-22","","null","","images/schematic_sequence/hotel_scheme/hotel_scheme_0.png","null","",""
"","","","","","html-audio-response","46","633953","0.0-44.0","C79E8002797D479487A51EDC4B03077C","C79E8002797D479487A51EDC4B03077C","db4c5c3d-9633-4efa-a54f-5e71a13c9bf8","a647230e-5c99-4b66-bf2f-966bf482667d","{""part"":""2"",""participantId"":""C79E8002797D479487A51EDC4B03077C"",""assignmentId"":""db4c5c3d-9633-4efa-a54f-5e71a13c9bf8"",""projectId"":""a647230e-5c99-4b66-bf2f-966bf482667d""}","https://test12345.live/?part=2&participantId=C79E8002797D479487A51EDC4B03077C&assignmentId=db4c5c3d-9633-4efa-a54f-5e71a13c9bf8&projectId=a647230e-5c99-4b66-bf2f-966bf482667d","C79E8002797D479487A51EDC4B03077C-2025-05-16-17-45-22","","16838","","[""<span style=\""color: red; font-size: 24px\""> NOW RECORDING</span><p>Please say out loud all the images you saw in part 1 of the experiment, as many as you can remember. The images can be said in any order.</p>""]","","2","hotel_scheme"
"","","","","","image-button-response","47","639961","0.0-45.0-0.0","C79E8002797D479487A51EDC4B03077C","C79E8002797D479487A51EDC4B03077C","db4c5c3d-9633-4efa-a54f-5e71a13c9bf8","a647230e-5c99-4b66-bf2f-966bf482667d","{""part"":""2"",""participantId"":""C79E8002797D479487A51EDC4B03077C"",""assignmentId"":""db4c5c3d-9633-4efa-a54f-5e71a13c9bf8"",""projectId"":""a647230e-5c99-4b66-bf2f-966bf482667d""}","https://test12345.live/?part=2&participantId=C79E8002797D479487A51EDC4B03077C&assignmentId=db4c5c3d-9633-4efa-a54f-5e71a13c9bf8&projectId=a647230e-5c99-4b66-bf2f-966bf482667d","C79E8002797D479487A51EDC4B03077C-2025-05-16-17-45-22","","null","","images/semantic_sequence/physical_activity_semantic/physical_activity_semantic_0.png","null","",""
"","","","","","html-audio-response","48","659437","0.0-46.0","C79E8002797D479487A51EDC4B03077C","C79E8002797D479487A51EDC4B03077C","db4c5c3d-9633-4efa-a54f-5e71a13c9bf8","a647230e-5c99-4b66-bf2f-966bf482667d","{""part"":""2"",""participantId"":""C79E8002797D479487A51EDC4B03077C"",""assignmentId"":""db4c5c3d-9633-4efa-a54f-5e71a13c9bf8"",""projectId"":""a647230e-5c99-4b66-bf2f-966bf482667d""}","https://test12345.live/?part=2&participantId=C79E8002797D479487A51EDC4B03077C&assignmentId=db4c5c3d-9633-4efa-a54f-5e71a13c9bf8&projectId=a647230e-5c99-4b66-bf2f-966bf482667d","C79E8002797D479487A51EDC4B03077C-2025-05-16-17-45-22","","18433","","[""<span style=\""color: red; font-size: 24px\""> NOW RECORDING</span><p>Please say out loud all the images you saw in part 1 of the experiment, as many as you can remember. The images can be said in any order.</p>""]","","5","physical_activity_semantic"
"","","","","","image-button-response","49","665446","0.0-47.0-0.0","C79E8002797D479487A51EDC4B03077C","C79E8002797D479487A51EDC4B03077C","db4c5c3d-9633-4efa-a54f-5e71a13c9bf8","a647230e-5c99-4b66-bf2f-966bf482667d","{""part"":""2"",""participantId"":""C79E8002797D479487A51EDC4B03077C"",""assignmentId"":""db4c5c3d-9633-4efa-a54f-5e71a13c9bf8"",""projectId"":""a647230e-5c99-4b66-bf2f-966bf482667d""}","https://test12345.live/?part=2&participantId=C79E8002797D479487A51EDC4B03077C&assignmentId=db4c5c3d-9633-4efa-a54f-5e71a13c9bf8&projectId=a647230e-5c99-4b66-bf2f-966bf482667d","C79E8002797D479487A51EDC4B03077C-2025-05-16-17-45-22","","null","","images/semantic_sequence/visiting_cities_semantic/visiting_cities_semantic_0.png","null","",""
"","","","","","html-audio-response","50","688388","0.0-48.0","C79E8002797D479487A51EDC4B03077C","C79E8002797D479487A51EDC4B03077C","db4c5c3d-9633-4efa-a54f-5e71a13c9bf8","a647230e-5c99-4b66-bf2f-966bf482667d","{""part"":""2"",""participantId"":""C79E8002797D479487A51EDC4B03077C"",""assignmentId"":""db4c5c3d-9633-4efa-a54f-5e71a13c9bf8"",""projectId"":""a647230e-5c99-4b66-bf2f-966bf482667d""}","https://test12345.live/?part=2&participantId=C79E8002797D479487A51EDC4B03077C&assignmentId=db4c5c3d-9633-4efa-a54f-5e71a13c9bf8&projectId=a647230e-5c99-4b66-bf2f-966bf482667d","C79E8002797D479487A51EDC4B03077C-2025-05-16-17-45-22","","21800","","[""<span style=\""color: red; font-size: 24px\""> NOW RECORDING</span><p>Please say out loud all the images you saw in part 1 of the experiment, as many as you can remember. The images can be said in any order.</p>""]","","5","visiting_cities_semantic"
"","","","","","image-button-response","51","694397","0.0-49.0-0.0","C79E8002797D479487A51EDC4B03077C","C79E8002797D479487A51EDC4B03077C","db4c5c3d-9633-4efa-a54f-5e71a13c9bf8","a647230e-5c99-4b66-bf2f-966bf482667d","{""part"":""2"",""participantId"":""C79E8002797D479487A51EDC4B03077C"",""assignmentId"":""db4c5c3d-9633-4efa-a54f-5e71a13c9bf8"",""projectId"":""a647230e-5c99-4b66-bf2f-966bf482667d""}","https://test12345.live/?part=2&participantId=C79E8002797D479487A51EDC4B03077C&assignmentId=db4c5c3d-9633-4efa-a54f-5e71a13c9bf8&projectId=a647230e-5c99-4b66-bf2f-966bf482667d","C79E8002797D479487A51EDC4B03077C-2025-05-16-17-45-22","","null","","images/semantic_sequence/self_care_activities_semantic/self_care_activities_semantic_0.png","null","",""
"","","","","","html-audio-response","52","725583","0.0-50.0","C79E8002797D479487A51EDC4B03077C","C79E8002797D479487A51EDC4B03077C","db4c5c3d-9633-4efa-a54f-5e71a13c9bf8","a647230e-5c99-4b66-bf2f-966bf482667d","{""part"":""2"",""participantId"":""C79E8002797D479487A51EDC4B03077C"",""assignmentId"":""db4c5c3d-9633-4efa-a54f-5e71a13c9bf8"",""projectId"":""a647230e-5c99-4b66-bf2f-966bf482667d""}","https://test12345.live/?part=2&participantId=C79E8002797D479487A51EDC4B03077C&assignmentId=db4c5c3d-9633-4efa-a54f-5e71a13c9bf8&projectId=a647230e-5c99-4b66-bf2f-966bf482667d","C79E8002797D479487A51EDC4B03077C-2025-05-16-17-45-22","","21353","","[""<span style=\""color: red; font-size: 24px\""> NOW RECORDING</span><p>Please say out loud all the images you saw in part 1 of the experiment, as many as you can remember. The images can be said in any order.</p>""]","","4","self_care_activities_semantic"
"","","","","","image-button-response","53","731605","0.0-51.0-0.0","C79E8002797D479487A51EDC4B03077C","C79E8002797D479487A51EDC4B03077C","db4c5c3d-9633-4efa-a54f-5e71a13c9bf8","a647230e-5c99-4b66-bf2f-966bf482667d","{""part"":""2"",""participantId"":""C79E8002797D479487A51EDC4B03077C"",""assignmentId"":""db4c5c3d-9633-4efa-a54f-5e71a13c9bf8"",""projectId"":""a647230e-5c99-4b66-bf2f-966bf482667d""}","https://test12345.live/?part=2&participantId=C79E8002797D479487A51EDC4B03077C&assignmentId=db4c5c3d-9633-4efa-a54f-5e71a13c9bf8&projectId=a647230e-5c99-4b66-bf2f-966bf482667d","C79E8002797D479487A51EDC4B03077C-2025-05-16-17-45-22","","null","","images/schematic_sequence/flight_scheme/flight_scheme_0.png","null","",""
"","","","","","html-audio-response","54","755504","0.0-52.0","C79E8002797D479487A51EDC4B03077C","C79E8002797D479487A51EDC4B03077C","db4c5c3d-9633-4efa-a54f-5e71a13c9bf8","a647230e-5c99-4b66-bf2f-966bf482667d","{""part"":""2"",""participantId"":""C79E8002797D479487A51EDC4B03077C"",""assignmentId"":""db4c5c3d-9633-4efa-a54f-5e71a13c9bf8"",""projectId"":""a647230e-5c99-4b66-bf2f-966bf482667d""}","https://test12345.live/?part=2&participantId=C79E8002797D479487A51EDC4B03077C&assignmentId=db4c5c3d-9633-4efa-a54f-5e71a13c9bf8&projectId=a647230e-5c99-4b66-bf2f-966bf482667d","C79E8002797D479487A51EDC4B03077C-2025-05-16-17-45-22","","22844","","[""<span style=\""color: red; font-size: 24px\""> NOW RECORDING</span><p>Please say out loud all the images you saw in part 1 of the experiment, as many as you can remember. The images can be said in any order.</p>""]","","2","flight_scheme"
"","","","","","image-button-response","55","761514","0.0-53.0-0.0","C79E8002797D479487A51EDC4B03077C","C79E8002797D479487A51EDC4B03077C","db4c5c3d-9633-4efa-a54f-5e71a13c9bf8","a647230e-5c99-4b66-bf2f-966bf482667d","{""part"":""2"",""participantId"":""C79E8002797D479487A51EDC4B03077C"",""assignmentId"":""db4c5c3d-9633-4efa-a54f-5e71a13c9bf8"",""projectId"":""a647230e-5c99-4b66-bf2f-966bf482667d""}","https://test12345.live/?part=2&participantId=C79E8002797D479487A51EDC4B03077C&assignmentId=db4c5c3d-9633-4efa-a54f-5e71a13c9bf8&projectId=a647230e-5c99-4b66-bf2f-966bf482667d","C79E8002797D479487A51EDC4B03077C-2025-05-16-17-45-22","","null","","images/semantic_sequence/market_semantic/market_semantic_0.png","null","",""
"","","","","","html-audio-response","56","789841","0.0-54.0","C79E8002797D479487A51EDC4B03077C","C79E8002797D479487A51EDC4B03077C","db4c5c3d-9633-4efa-a54f-5e71a13c9bf8","a647230e-5c99-4b66-bf2f-966bf482667d","{""part"":""2"",""participantId"":""C79E8002797D479487A51EDC4B03077C"",""assignmentId"":""db4c5c3d-9633-4efa-a54f-5e71a13c9bf8"",""projectId"":""a647230e-5c99-4b66-bf2f-966bf482667d""}","https://test12345.live/?part=2&participantId=C79E8002797D479487A51EDC4B03077C&assignmentId=db4c5c3d-9633-4efa-a54f-5e71a13c9bf8&projectId=a647230e-5c99-4b66-bf2f-966bf482667d","C79E8002797D479487A51EDC4B03077C-2025-05-16-17-45-22","","27263","","[""<span style=\""color: red; font-size: 24px\""> NOW RECORDING</span><p>Please say out loud all the images you saw in part 1 of the experiment, as many as you can remember. The images can be said in any order.</p>""]","","2","market_semantic"
"","","","","","image-button-response","57","795851","0.0-55.0-0.0","C79E8002797D479487A51EDC4B03077C","C79E8002797D479487A51EDC4B03077C","db4c5c3d-9633-4efa-a54f-5e71a13c9bf8","a647230e-5c99-4b66-bf2f-966bf482667d","{""part"":""2"",""participantId"":""C79E8002797D479487A51EDC4B03077C"",""assignmentId"":""db4c5c3d-9633-4efa-a54f-5e71a13c9bf8"",""projectId"":""a647230e-5c99-4b66-bf2f-966bf482667d""}","https://test12345.live/?part=2&participantId=C79E8002797D479487A51EDC4B03077C&assignmentId=db4c5c3d-9633-4efa-a54f-5e71a13c9bf8&projectId=a647230e-5c99-4b66-bf2f-966bf482667d","C79E8002797D479487A51EDC4B03077C-2025-05-16-17-45-22","","null","","images/causal_sequence/dog_causal/dog_causal_0.png","null","",""
"","","","","","html-audio-response","58","829083","0.0-56.0","C79E8002797D479487A51EDC4B03077C","C79E8002797D479487A51EDC4B03077C","db4c5c3d-9633-4efa-a54f-5e71a13c9bf8","a647230e-5c99-4b66-bf2f-966bf482667d","{""part"":""2"",""participantId"":""C79E8002797D479487A51EDC4B03077C"",""assignmentId"":""db4c5c3d-9633-4efa-a54f-5e71a13c9bf8"",""projectId"":""a647230e-5c99-4b66-bf2f-966bf482667d""}","https://test12345.live/?part=2&participantId=C79E8002797D479487A51EDC4B03077C&assignmentId=db4c5c3d-9633-4efa-a54f-5e71a13c9bf8&projectId=a647230e-5c99-4b66-bf2f-966bf482667d","C79E8002797D479487A51EDC4B03077C-2025-05-16-17-45-22","","32097","","[""<span style=\""color: red; font-size: 24px\""> NOW RECORDING</span><p>Please say out loud all the images you saw in part 1 of the experiment, as many as you can remember. The images can be said in any order.</p>""]","","4","dog_causal"
"","","","","","survey-text","59","836276","0.0-57.0","C79E8002797D479487A51EDC4B03077C","C79E8002797D479487A51EDC4B03077C","db4c5c3d-9633-4efa-a54f-5e71a13c9bf8","a647230e-5c99-4b66-bf2f-966bf482667d","{""part"":""2"",""participantId"":""C79E8002797D479487A51EDC4B03077C"",""assignmentId"":""db4c5c3d-9633-4efa-a54f-5e71a13c9bf8"",""projectId"":""a647230e-5c99-4b66-bf2f-966bf482667d""}","https://test12345.live/?part=2&participantId=C79E8002797D479487A51EDC4B03077C&assignmentId=db4c5c3d-9633-4efa-a54f-5e71a13c9bf8&projectId=a647230e-5c99-4b66-bf2f-966bf482667d","C79E8002797D479487A51EDC4B03077C-2025-05-16-17-45-22","","7178","","","{""Q0"":""female"",""Q1"":""28""}","",""
"","","","","","instructions","60","841210","0.0-58.0","C79E8002797D479487A51EDC4B03077C","C79E8002797D479487A51EDC4B03077C","db4c5c3d-9633-4efa-a54f-5e71a13c9bf8","a647230e-5c99-4b66-bf2f-966bf482667d","{""part"":""2"",""participantId"":""C79E8002797D479487A51EDC4B03077C"",""assignmentId"":""db4c5c3d-9633-4efa-a54f-5e71a13c9bf8"",""projectId"":""a647230e-5c99-4b66-bf2f-966bf482667d""}","https://test12345.live/?part=2&participantId=C79E8002797D479487A51EDC4B03077C&assignmentId=db4c5c3d-9633-4efa-a54f-5e71a13c9bf8&projectId=a647230e-5c99-4b66-bf2f-966bf482667d","C79E8002797D479487A51EDC4B03077C-2025-05-16-17-45-22","[{""page_index"":0,""viewing_time"":4933}]","4933","","","","",""
"","","","","","survey-text","61","844759","0.0-59.0","C79E8002797D479487A51EDC4B03077C","C79E8002797D479487A51EDC4B03077C","db4c5c3d-9633-4efa-a54f-5e71a13c9bf8","a647230e-5c99-4b66-bf2f-966bf482667d","{""part"":""2"",""participantId"":""C79E8002797D479487A51EDC4B03077C"",""assignmentId"":""db4c5c3d-9633-4efa-a54f-5e71a13c9bf8"",""projectId"":""a647230e-5c99-4b66-bf2f-966bf482667d""}","https://test12345.live/?part=2&participantId=C79E8002797D479487A51EDC4B03077C&assignmentId=db4c5c3d-9633-4efa-a54f-5e71a13c9bf8&projectId=a647230e-5c99-4b66-bf2f-966bf482667d","C79E8002797D479487A51EDC4B03077C-2025-05-16-17-45-22","","3545","","","{""Q0"":""AJFHBG896""}","",""
