"success","timeout","failed_images","failed_audio","failed_video","trial_type","trial_index","time_elapsed","internal_node_id","subject","subject_id","study_id","session_id","urlvar","current_url","audio_id","view_history","rt","device_id","stimulus","response","estimated_stimulus_onset","seq_name"
"true","false","[]","[]","[]","preload","0","5684","0.0-0.0","C99D00BD6E5D4A8999B78DE7BC8BA4F8","C99D00BD6E5D4A8999B78DE7BC8BA4F8","d9602b85-27ab-4c59-9ecb-debe717a7bf2","2dd913a0-fd4c-43f1-b4f3-f0d48537bce8","{""part"":""2"",""participantId"":""C99D00BD6E5D4A8999B78DE7BC8BA4F8"",""assignmentId"":""d9602b85-27ab-4c59-9ecb-debe717a7bf2"",""projectId"":""2dd913a0-fd4c-43f1-b4f3-f0d48537bce8""}","https://test12345.live/?part=2&participantId=C99D00BD6E5D4A8999B78DE7BC8BA4F8&assignmentId=d9602b85-27ab-4c59-9ecb-debe717a7bf2&projectId=2dd913a0-fd4c-43f1-b4f3-f0d48537bce8","C99D00BD6E5D4A8999B78DE7BC8BA4F8-2025-05-15-20-41-56","","","","","","",""
"","","","","","instructions","1","882700","0.0-1.0","C99D00BD6E5D4A8999B78DE7BC8BA4F8","C99D00BD6E5D4A8999B78DE7BC8BA4F8","d9602b85-27ab-4c59-9ecb-debe717a7bf2","2dd913a0-fd4c-43f1-b4f3-f0d48537bce8","{""part"":""2"",""participantId"":""C99D00BD6E5D4A8999B78DE7BC8BA4F8"",""assignmentId"":""d9602b85-27ab-4c59-9ecb-debe717a7bf2"",""projectId"":""2dd913a0-fd4c-43f1-b4f3-f0d48537bce8""}","https://test12345.live/?part=2&participantId=C99D00BD6E5D4A8999B78DE7BC8BA4F8&assignmentId=d9602b85-27ab-4c59-9ecb-debe717a7bf2&projectId=2dd913a0-fd4c-43f1-b4f3-f0d48537bce8","C99D00BD6E5D4A8999B78DE7BC8BA4F8-2025-05-15-20-41-56","[{""page_index"":0,""viewing_time"":877015}]","877015","","","","",""
"","","","","","instructions","2","894523","0.0-2.0","C99D00BD6E5D4A8999B78DE7BC8BA4F8","C99D00BD6E5D4A8999B78DE7BC8BA4F8","d9602b85-27ab-4c59-9ecb-debe717a7bf2","2dd913a0-fd4c-43f1-b4f3-f0d48537bce8","{""part"":""2"",""participantId"":""C99D00BD6E5D4A8999B78DE7BC8BA4F8"",""assignmentId"":""d9602b85-27ab-4c59-9ecb-debe717a7bf2"",""projectId"":""2dd913a0-fd4c-43f1-b4f3-f0d48537bce8""}","https://test12345.live/?part=2&participantId=C99D00BD6E5D4A8999B78DE7BC8BA4F8&assignmentId=d9602b85-27ab-4c59-9ecb-debe717a7bf2&projectId=2dd913a0-fd4c-43f1-b4f3-f0d48537bce8","C99D00BD6E5D4A8999B78DE7BC8BA4F8-2025-05-15-20-41-56","[{""page_index"":0,""viewing_time"":11822}]","11822","","","","",""
"true","","","","","fullscreen","3","903578","0.0-3.0","C99D00BD6E5D4A8999B78DE7BC8BA4F8","C99D00BD6E5D4A8999B78DE7BC8BA4F8","d9602b85-27ab-4c59-9ecb-debe717a7bf2","2dd913a0-fd4c-43f1-b4f3-f0d48537bce8","{""part"":""2"",""participantId"":""C99D00BD6E5D4A8999B78DE7BC8BA4F8"",""assignmentId"":""d9602b85-27ab-4c59-9ecb-debe717a7bf2"",""projectId"":""2dd913a0-fd4c-43f1-b4f3-f0d48537bce8""}","https://test12345.live/?part=2&participantId=C99D00BD6E5D4A8999B78DE7BC8BA4F8&assignmentId=d9602b85-27ab-4c59-9ecb-debe717a7bf2&projectId=2dd913a0-fd4c-43f1-b4f3-f0d48537bce8","C99D00BD6E5D4A8999B78DE7BC8BA4F8-2025-05-15-20-41-56","","8043","","","","",""
"","","","","","initialize-microphone","4","915843","0.0-4.0-0.0","C99D00BD6E5D4A8999B78DE7BC8BA4F8","C99D00BD6E5D4A8999B78DE7BC8BA4F8","d9602b85-27ab-4c59-9ecb-debe717a7bf2","2dd913a0-fd4c-43f1-b4f3-f0d48537bce8","{""part"":""2"",""participantId"":""C99D00BD6E5D4A8999B78DE7BC8BA4F8"",""assignmentId"":""d9602b85-27ab-4c59-9ecb-debe717a7bf2"",""projectId"":""2dd913a0-fd4c-43f1-b4f3-f0d48537bce8""}","https://test12345.live/?part=2&participantId=C99D00BD6E5D4A8999B78DE7BC8BA4F8&assignmentId=d9602b85-27ab-4c59-9ecb-debe717a7bf2&projectId=2dd913a0-fd4c-43f1-b4f3-f0d48537bce8","C99D00BD6E5D4A8999B78DE7BC8BA4F8-2025-05-15-20-41-56","","","0JOF8OD/Xw9X+7031mJjBAAcK4PVCoCa6d+LAC0UZiE=","","","",""
"","","","","","html-audio-response","5","934136","0.0-4.0-1.0","C99D00BD6E5D4A8999B78DE7BC8BA4F8","C99D00BD6E5D4A8999B78DE7BC8BA4F8","d9602b85-27ab-4c59-9ecb-debe717a7bf2","2dd913a0-fd4c-43f1-b4f3-f0d48537bce8","{""part"":""2"",""participantId"":""C99D00BD6E5D4A8999B78DE7BC8BA4F8"",""assignmentId"":""d9602b85-27ab-4c59-9ecb-debe717a7bf2"",""projectId"":""2dd913a0-fd4c-43f1-b4f3-f0d48537bce8""}","https://test12345.live/?part=2&participantId=C99D00BD6E5D4A8999B78DE7BC8BA4F8&assignmentId=d9602b85-27ab-4c59-9ecb-debe717a7bf2&projectId=2dd913a0-fd4c-43f1-b4f3-f0d48537bce8","C99D00BD6E5D4A8999B78DE7BC8BA4F8-2025-05-15-20-41-56","","2694","","<span style=""color: red; font-size: 24px""> NOW RECORDING</span>
        <p>Please test Microphone</p>","","1",""
"","","","","","html-button-response","6","936153","0.0-4.0-2.0","C99D00BD6E5D4A8999B78DE7BC8BA4F8","C99D00BD6E5D4A8999B78DE7BC8BA4F8","d9602b85-27ab-4c59-9ecb-debe717a7bf2","2dd913a0-fd4c-43f1-b4f3-f0d48537bce8","{""part"":""2"",""participantId"":""C99D00BD6E5D4A8999B78DE7BC8BA4F8"",""assignmentId"":""d9602b85-27ab-4c59-9ecb-debe717a7bf2"",""projectId"":""2dd913a0-fd4c-43f1-b4f3-f0d48537bce8""}","https://test12345.live/?part=2&participantId=C99D00BD6E5D4A8999B78DE7BC8BA4F8&assignmentId=d9602b85-27ab-4c59-9ecb-debe717a7bf2&projectId=2dd913a0-fd4c-43f1-b4f3-f0d48537bce8","C99D00BD6E5D4A8999B78DE7BC8BA4F8-2025-05-15-20-41-56","","2015","","<p style=""font-size:48px; color:red;"">Is Microphone OK?</p>","1","",""
"","","","","","instructions","7","973855","0.0-5.0","C99D00BD6E5D4A8999B78DE7BC8BA4F8","C99D00BD6E5D4A8999B78DE7BC8BA4F8","d9602b85-27ab-4c59-9ecb-debe717a7bf2","2dd913a0-fd4c-43f1-b4f3-f0d48537bce8","{""part"":""2"",""participantId"":""C99D00BD6E5D4A8999B78DE7BC8BA4F8"",""assignmentId"":""d9602b85-27ab-4c59-9ecb-debe717a7bf2"",""projectId"":""2dd913a0-fd4c-43f1-b4f3-f0d48537bce8""}","https://test12345.live/?part=2&participantId=C99D00BD6E5D4A8999B78DE7BC8BA4F8&assignmentId=d9602b85-27ab-4c59-9ecb-debe717a7bf2&projectId=2dd913a0-fd4c-43f1-b4f3-f0d48537bce8","C99D00BD6E5D4A8999B78DE7BC8BA4F8-2025-05-15-20-41-56","[{""page_index"":0,""viewing_time"":10682},{""page_index"":1,""viewing_time"":8839},{""page_index"":2,""viewing_time"":18180}]","37702","","","","",""
"","","","","","image-button-response","8","979877","0.0-6.0-0.0","C99D00BD6E5D4A8999B78DE7BC8BA4F8","C99D00BD6E5D4A8999B78DE7BC8BA4F8","d9602b85-27ab-4c59-9ecb-debe717a7bf2","2dd913a0-fd4c-43f1-b4f3-f0d48537bce8","{""part"":""2"",""participantId"":""C99D00BD6E5D4A8999B78DE7BC8BA4F8"",""assignmentId"":""d9602b85-27ab-4c59-9ecb-debe717a7bf2"",""projectId"":""2dd913a0-fd4c-43f1-b4f3-f0d48537bce8""}","https://test12345.live/?part=2&participantId=C99D00BD6E5D4A8999B78DE7BC8BA4F8&assignmentId=d9602b85-27ab-4c59-9ecb-debe717a7bf2&projectId=2dd913a0-fd4c-43f1-b4f3-f0d48537bce8","C99D00BD6E5D4A8999B78DE7BC8BA4F8-2025-05-15-20-41-56","","null","","images/instructions/movie_0.png","null","",""
"","","","","","html-audio-response","9","1016836","0.0-7.0","C99D00BD6E5D4A8999B78DE7BC8BA4F8","C99D00BD6E5D4A8999B78DE7BC8BA4F8","d9602b85-27ab-4c59-9ecb-debe717a7bf2","2dd913a0-fd4c-43f1-b4f3-f0d48537bce8","{""part"":""2"",""participantId"":""C99D00BD6E5D4A8999B78DE7BC8BA4F8"",""assignmentId"":""d9602b85-27ab-4c59-9ecb-debe717a7bf2"",""projectId"":""2dd913a0-fd4c-43f1-b4f3-f0d48537bce8""}","https://test12345.live/?part=2&participantId=C99D00BD6E5D4A8999B78DE7BC8BA4F8&assignmentId=d9602b85-27ab-4c59-9ecb-debe717a7bf2&projectId=2dd913a0-fd4c-43f1-b4f3-f0d48537bce8","C99D00BD6E5D4A8999B78DE7BC8BA4F8-2025-05-15-20-41-56","","30620","","[""<span style=\""color: red; font-size: 24px\""> NOW RECORDING</span><p>Please say out loud all the images you saw in part 1 of the experiment, as many as you can remember. The images can be said in any order.</p>""]","","1",""
"","","","","","instructions","10","1018942","0.0-8.0","C99D00BD6E5D4A8999B78DE7BC8BA4F8","C99D00BD6E5D4A8999B78DE7BC8BA4F8","d9602b85-27ab-4c59-9ecb-debe717a7bf2","2dd913a0-fd4c-43f1-b4f3-f0d48537bce8","{""part"":""2"",""participantId"":""C99D00BD6E5D4A8999B78DE7BC8BA4F8"",""assignmentId"":""d9602b85-27ab-4c59-9ecb-debe717a7bf2"",""projectId"":""2dd913a0-fd4c-43f1-b4f3-f0d48537bce8""}","https://test12345.live/?part=2&participantId=C99D00BD6E5D4A8999B78DE7BC8BA4F8&assignmentId=d9602b85-27ab-4c59-9ecb-debe717a7bf2&projectId=2dd913a0-fd4c-43f1-b4f3-f0d48537bce8","C99D00BD6E5D4A8999B78DE7BC8BA4F8-2025-05-15-20-41-56","[{""page_index"":0,""viewing_time"":2104}]","2104","","","","",""
"","","","","","image-button-response","11","1024961","0.0-9.0-0.0","C99D00BD6E5D4A8999B78DE7BC8BA4F8","C99D00BD6E5D4A8999B78DE7BC8BA4F8","d9602b85-27ab-4c59-9ecb-debe717a7bf2","2dd913a0-fd4c-43f1-b4f3-f0d48537bce8","{""part"":""2"",""participantId"":""C99D00BD6E5D4A8999B78DE7BC8BA4F8"",""assignmentId"":""d9602b85-27ab-4c59-9ecb-debe717a7bf2"",""projectId"":""2dd913a0-fd4c-43f1-b4f3-f0d48537bce8""}","https://test12345.live/?part=2&participantId=C99D00BD6E5D4A8999B78DE7BC8BA4F8&assignmentId=d9602b85-27ab-4c59-9ecb-debe717a7bf2&projectId=2dd913a0-fd4c-43f1-b4f3-f0d48537bce8","C99D00BD6E5D4A8999B78DE7BC8BA4F8-2025-05-15-20-41-56","","null","","images/schematic_sequence/flight_scheme/flight_scheme_0.png","null","",""
"","","","","","html-audio-response","12","1061892","0.0-10.0","C99D00BD6E5D4A8999B78DE7BC8BA4F8","C99D00BD6E5D4A8999B78DE7BC8BA4F8","d9602b85-27ab-4c59-9ecb-debe717a7bf2","2dd913a0-fd4c-43f1-b4f3-f0d48537bce8","{""part"":""2"",""participantId"":""C99D00BD6E5D4A8999B78DE7BC8BA4F8"",""assignmentId"":""d9602b85-27ab-4c59-9ecb-debe717a7bf2"",""projectId"":""2dd913a0-fd4c-43f1-b4f3-f0d48537bce8""}","https://test12345.live/?part=2&participantId=C99D00BD6E5D4A8999B78DE7BC8BA4F8&assignmentId=d9602b85-27ab-4c59-9ecb-debe717a7bf2&projectId=2dd913a0-fd4c-43f1-b4f3-f0d48537bce8","C99D00BD6E5D4A8999B78DE7BC8BA4F8-2025-05-15-20-41-56","","32768","","[""<span style=\""color: red; font-size: 24px\""> NOW RECORDING</span><p>Please say out loud all the images you saw in part 1 of the experiment, as many as you can remember. The images can be said in any order.</p>""]","","1","flight_scheme"
"","","","","","image-button-response","13","1067924","0.0-11.0-0.0","C99D00BD6E5D4A8999B78DE7BC8BA4F8","C99D00BD6E5D4A8999B78DE7BC8BA4F8","d9602b85-27ab-4c59-9ecb-debe717a7bf2","2dd913a0-fd4c-43f1-b4f3-f0d48537bce8","{""part"":""2"",""participantId"":""C99D00BD6E5D4A8999B78DE7BC8BA4F8"",""assignmentId"":""d9602b85-27ab-4c59-9ecb-debe717a7bf2"",""projectId"":""2dd913a0-fd4c-43f1-b4f3-f0d48537bce8""}","https://test12345.live/?part=2&participantId=C99D00BD6E5D4A8999B78DE7BC8BA4F8&assignmentId=d9602b85-27ab-4c59-9ecb-debe717a7bf2&projectId=2dd913a0-fd4c-43f1-b4f3-f0d48537bce8","C99D00BD6E5D4A8999B78DE7BC8BA4F8-2025-05-15-20-41-56","","null","","images/semantic_sequence/redecorating_semantic/redecorating_semantic_0.png","null","",""
"","","","","","html-audio-response","14","1096392","0.0-12.0","C99D00BD6E5D4A8999B78DE7BC8BA4F8","C99D00BD6E5D4A8999B78DE7BC8BA4F8","d9602b85-27ab-4c59-9ecb-debe717a7bf2","2dd913a0-fd4c-43f1-b4f3-f0d48537bce8","{""part"":""2"",""participantId"":""C99D00BD6E5D4A8999B78DE7BC8BA4F8"",""assignmentId"":""d9602b85-27ab-4c59-9ecb-debe717a7bf2"",""projectId"":""2dd913a0-fd4c-43f1-b4f3-f0d48537bce8""}","https://test12345.live/?part=2&participantId=C99D00BD6E5D4A8999B78DE7BC8BA4F8&assignmentId=d9602b85-27ab-4c59-9ecb-debe717a7bf2&projectId=2dd913a0-fd4c-43f1-b4f3-f0d48537bce8","C99D00BD6E5D4A8999B78DE7BC8BA4F8-2025-05-15-20-41-56","","24434","","[""<span style=\""color: red; font-size: 24px\""> NOW RECORDING</span><p>Please say out loud all the images you saw in part 1 of the experiment, as many as you can remember. The images can be said in any order.</p>""]","","0","redecorating_semantic"
"","","","","","image-button-response","15","1102430","0.0-13.0-0.0","C99D00BD6E5D4A8999B78DE7BC8BA4F8","C99D00BD6E5D4A8999B78DE7BC8BA4F8","d9602b85-27ab-4c59-9ecb-debe717a7bf2","2dd913a0-fd4c-43f1-b4f3-f0d48537bce8","{""part"":""2"",""participantId"":""C99D00BD6E5D4A8999B78DE7BC8BA4F8"",""assignmentId"":""d9602b85-27ab-4c59-9ecb-debe717a7bf2"",""projectId"":""2dd913a0-fd4c-43f1-b4f3-f0d48537bce8""}","https://test12345.live/?part=2&participantId=C99D00BD6E5D4A8999B78DE7BC8BA4F8&assignmentId=d9602b85-27ab-4c59-9ecb-debe717a7bf2&projectId=2dd913a0-fd4c-43f1-b4f3-f0d48537bce8","C99D00BD6E5D4A8999B78DE7BC8BA4F8-2025-05-15-20-41-56","","null","","images/semantic_sequence/physical_activity_semantic/physical_activity_semantic_0.png","null","",""
"","","","","","html-audio-response","16","1136425","0.0-14.0","C99D00BD6E5D4A8999B78DE7BC8BA4F8","C99D00BD6E5D4A8999B78DE7BC8BA4F8","d9602b85-27ab-4c59-9ecb-debe717a7bf2","2dd913a0-fd4c-43f1-b4f3-f0d48537bce8","{""part"":""2"",""participantId"":""C99D00BD6E5D4A8999B78DE7BC8BA4F8"",""assignmentId"":""d9602b85-27ab-4c59-9ecb-debe717a7bf2"",""projectId"":""2dd913a0-fd4c-43f1-b4f3-f0d48537bce8""}","https://test12345.live/?part=2&participantId=C99D00BD6E5D4A8999B78DE7BC8BA4F8&assignmentId=d9602b85-27ab-4c59-9ecb-debe717a7bf2&projectId=2dd913a0-fd4c-43f1-b4f3-f0d48537bce8","C99D00BD6E5D4A8999B78DE7BC8BA4F8-2025-05-15-20-41-56","","32666","","[""<span style=\""color: red; font-size: 24px\""> NOW RECORDING</span><p>Please say out loud all the images you saw in part 1 of the experiment, as many as you can remember. The images can be said in any order.</p>""]","","0","physical_activity_semantic"
"","","","","","image-button-response","17","1142459","0.0-15.0-0.0","C99D00BD6E5D4A8999B78DE7BC8BA4F8","C99D00BD6E5D4A8999B78DE7BC8BA4F8","d9602b85-27ab-4c59-9ecb-debe717a7bf2","2dd913a0-fd4c-43f1-b4f3-f0d48537bce8","{""part"":""2"",""participantId"":""C99D00BD6E5D4A8999B78DE7BC8BA4F8"",""assignmentId"":""d9602b85-27ab-4c59-9ecb-debe717a7bf2"",""projectId"":""2dd913a0-fd4c-43f1-b4f3-f0d48537bce8""}","https://test12345.live/?part=2&participantId=C99D00BD6E5D4A8999B78DE7BC8BA4F8&assignmentId=d9602b85-27ab-4c59-9ecb-debe717a7bf2&projectId=2dd913a0-fd4c-43f1-b4f3-f0d48537bce8","C99D00BD6E5D4A8999B78DE7BC8BA4F8-2025-05-15-20-41-56","","null","","images/causal_sequence/the_performance_causal/the_performance_causal_0.png","null","",""
"","","","","","html-audio-response","18","1152611","0.0-16.0","C99D00BD6E5D4A8999B78DE7BC8BA4F8","C99D00BD6E5D4A8999B78DE7BC8BA4F8","d9602b85-27ab-4c59-9ecb-debe717a7bf2","2dd913a0-fd4c-43f1-b4f3-f0d48537bce8","{""part"":""2"",""participantId"":""C99D00BD6E5D4A8999B78DE7BC8BA4F8"",""assignmentId"":""d9602b85-27ab-4c59-9ecb-debe717a7bf2"",""projectId"":""2dd913a0-fd4c-43f1-b4f3-f0d48537bce8""}","https://test12345.live/?part=2&participantId=C99D00BD6E5D4A8999B78DE7BC8BA4F8&assignmentId=d9602b85-27ab-4c59-9ecb-debe717a7bf2&projectId=2dd913a0-fd4c-43f1-b4f3-f0d48537bce8","C99D00BD6E5D4A8999B78DE7BC8BA4F8-2025-05-15-20-41-56","","8441","","[""<span style=\""color: red; font-size: 24px\""> NOW RECORDING</span><p>Please say out loud all the images you saw in part 1 of the experiment, as many as you can remember. The images can be said in any order.</p>""]","","1","the_performance_causal"
"","","","","","image-button-response","19","1158634","0.0-17.0-0.0","C99D00BD6E5D4A8999B78DE7BC8BA4F8","C99D00BD6E5D4A8999B78DE7BC8BA4F8","d9602b85-27ab-4c59-9ecb-debe717a7bf2","2dd913a0-fd4c-43f1-b4f3-f0d48537bce8","{""part"":""2"",""participantId"":""C99D00BD6E5D4A8999B78DE7BC8BA4F8"",""assignmentId"":""d9602b85-27ab-4c59-9ecb-debe717a7bf2"",""projectId"":""2dd913a0-fd4c-43f1-b4f3-f0d48537bce8""}","https://test12345.live/?part=2&participantId=C99D00BD6E5D4A8999B78DE7BC8BA4F8&assignmentId=d9602b85-27ab-4c59-9ecb-debe717a7bf2&projectId=2dd913a0-fd4c-43f1-b4f3-f0d48537bce8","C99D00BD6E5D4A8999B78DE7BC8BA4F8-2025-05-15-20-41-56","","null","","images/semantic_sequence/using_technology_semantic/using_technology_semantic_0.png","null","",""
"","","","","","html-audio-response","20","1199918","0.0-18.0","C99D00BD6E5D4A8999B78DE7BC8BA4F8","C99D00BD6E5D4A8999B78DE7BC8BA4F8","d9602b85-27ab-4c59-9ecb-debe717a7bf2","2dd913a0-fd4c-43f1-b4f3-f0d48537bce8","{""part"":""2"",""participantId"":""C99D00BD6E5D4A8999B78DE7BC8BA4F8"",""assignmentId"":""d9602b85-27ab-4c59-9ecb-debe717a7bf2"",""projectId"":""2dd913a0-fd4c-43f1-b4f3-f0d48537bce8""}","https://test12345.live/?part=2&participantId=C99D00BD6E5D4A8999B78DE7BC8BA4F8&assignmentId=d9602b85-27ab-4c59-9ecb-debe717a7bf2&projectId=2dd913a0-fd4c-43f1-b4f3-f0d48537bce8","C99D00BD6E5D4A8999B78DE7BC8BA4F8-2025-05-15-20-41-56","","39062","","[""<span style=\""color: red; font-size: 24px\""> NOW RECORDING</span><p>Please say out loud all the images you saw in part 1 of the experiment, as many as you can remember. The images can be said in any order.</p>""]","","0","using_technology_semantic"
"","","","","","image-button-response","21","1205951","0.0-19.0-0.0","C99D00BD6E5D4A8999B78DE7BC8BA4F8","C99D00BD6E5D4A8999B78DE7BC8BA4F8","d9602b85-27ab-4c59-9ecb-debe717a7bf2","2dd913a0-fd4c-43f1-b4f3-f0d48537bce8","{""part"":""2"",""participantId"":""C99D00BD6E5D4A8999B78DE7BC8BA4F8"",""assignmentId"":""d9602b85-27ab-4c59-9ecb-debe717a7bf2"",""projectId"":""2dd913a0-fd4c-43f1-b4f3-f0d48537bce8""}","https://test12345.live/?part=2&participantId=C99D00BD6E5D4A8999B78DE7BC8BA4F8&assignmentId=d9602b85-27ab-4c59-9ecb-debe717a7bf2&projectId=2dd913a0-fd4c-43f1-b4f3-f0d48537bce8","C99D00BD6E5D4A8999B78DE7BC8BA4F8-2025-05-15-20-41-56","","null","","images/schematic_sequence/dinner_party_scheme/dinner_party_scheme_0.png","null","",""
"","","","","","html-audio-response","22","1242080","0.0-20.0","C99D00BD6E5D4A8999B78DE7BC8BA4F8","C99D00BD6E5D4A8999B78DE7BC8BA4F8","d9602b85-27ab-4c59-9ecb-debe717a7bf2","2dd913a0-fd4c-43f1-b4f3-f0d48537bce8","{""part"":""2"",""participantId"":""C99D00BD6E5D4A8999B78DE7BC8BA4F8"",""assignmentId"":""d9602b85-27ab-4c59-9ecb-debe717a7bf2"",""projectId"":""2dd913a0-fd4c-43f1-b4f3-f0d48537bce8""}","https://test12345.live/?part=2&participantId=C99D00BD6E5D4A8999B78DE7BC8BA4F8&assignmentId=d9602b85-27ab-4c59-9ecb-debe717a7bf2&projectId=2dd913a0-fd4c-43f1-b4f3-f0d48537bce8","C99D00BD6E5D4A8999B78DE7BC8BA4F8-2025-05-15-20-41-56","","34964","","[""<span style=\""color: red; font-size: 24px\""> NOW RECORDING</span><p>Please say out loud all the images you saw in part 1 of the experiment, as many as you can remember. The images can be said in any order.</p>""]","","0","dinner_party_scheme"
"","","","","","image-button-response","23","1248105","0.0-21.0-0.0","C99D00BD6E5D4A8999B78DE7BC8BA4F8","C99D00BD6E5D4A8999B78DE7BC8BA4F8","d9602b85-27ab-4c59-9ecb-debe717a7bf2","2dd913a0-fd4c-43f1-b4f3-f0d48537bce8","{""part"":""2"",""participantId"":""C99D00BD6E5D4A8999B78DE7BC8BA4F8"",""assignmentId"":""d9602b85-27ab-4c59-9ecb-debe717a7bf2"",""projectId"":""2dd913a0-fd4c-43f1-b4f3-f0d48537bce8""}","https://test12345.live/?part=2&participantId=C99D00BD6E5D4A8999B78DE7BC8BA4F8&assignmentId=d9602b85-27ab-4c59-9ecb-debe717a7bf2&projectId=2dd913a0-fd4c-43f1-b4f3-f0d48537bce8","C99D00BD6E5D4A8999B78DE7BC8BA4F8-2025-05-15-20-41-56","","null","","images/semantic_sequence/kitchen_operations_semantic/kitchen_operations_semantic_0.png","null","",""
"","","","","","html-audio-response","24","1257665","0.0-22.0","C99D00BD6E5D4A8999B78DE7BC8BA4F8","C99D00BD6E5D4A8999B78DE7BC8BA4F8","d9602b85-27ab-4c59-9ecb-debe717a7bf2","2dd913a0-fd4c-43f1-b4f3-f0d48537bce8","{""part"":""2"",""participantId"":""C99D00BD6E5D4A8999B78DE7BC8BA4F8"",""assignmentId"":""d9602b85-27ab-4c59-9ecb-debe717a7bf2"",""projectId"":""2dd913a0-fd4c-43f1-b4f3-f0d48537bce8""}","https://test12345.live/?part=2&participantId=C99D00BD6E5D4A8999B78DE7BC8BA4F8&assignmentId=d9602b85-27ab-4c59-9ecb-debe717a7bf2&projectId=2dd913a0-fd4c-43f1-b4f3-f0d48537bce8","C99D00BD6E5D4A8999B78DE7BC8BA4F8-2025-05-15-20-41-56","","8432","","[""<span style=\""color: red; font-size: 24px\""> NOW RECORDING</span><p>Please say out loud all the images you saw in part 1 of the experiment, as many as you can remember. The images can be said in any order.</p>""]","","1","kitchen_operations_semantic"
"","","","","","image-button-response","25","1263694","0.0-23.0-0.0","C99D00BD6E5D4A8999B78DE7BC8BA4F8","C99D00BD6E5D4A8999B78DE7BC8BA4F8","d9602b85-27ab-4c59-9ecb-debe717a7bf2","2dd913a0-fd4c-43f1-b4f3-f0d48537bce8","{""part"":""2"",""participantId"":""C99D00BD6E5D4A8999B78DE7BC8BA4F8"",""assignmentId"":""d9602b85-27ab-4c59-9ecb-debe717a7bf2"",""projectId"":""2dd913a0-fd4c-43f1-b4f3-f0d48537bce8""}","https://test12345.live/?part=2&participantId=C99D00BD6E5D4A8999B78DE7BC8BA4F8&assignmentId=d9602b85-27ab-4c59-9ecb-debe717a7bf2&projectId=2dd913a0-fd4c-43f1-b4f3-f0d48537bce8","C99D00BD6E5D4A8999B78DE7BC8BA4F8-2025-05-15-20-41-56","","null","","images/causal_sequence/museum_causal/museum_causal_0.png","null","",""
"","","","","","html-audio-response","26","1306936","0.0-24.0","C99D00BD6E5D4A8999B78DE7BC8BA4F8","C99D00BD6E5D4A8999B78DE7BC8BA4F8","d9602b85-27ab-4c59-9ecb-debe717a7bf2","2dd913a0-fd4c-43f1-b4f3-f0d48537bce8","{""part"":""2"",""participantId"":""C99D00BD6E5D4A8999B78DE7BC8BA4F8"",""assignmentId"":""d9602b85-27ab-4c59-9ecb-debe717a7bf2"",""projectId"":""2dd913a0-fd4c-43f1-b4f3-f0d48537bce8""}","https://test12345.live/?part=2&participantId=C99D00BD6E5D4A8999B78DE7BC8BA4F8&assignmentId=d9602b85-27ab-4c59-9ecb-debe717a7bf2&projectId=2dd913a0-fd4c-43f1-b4f3-f0d48537bce8","C99D00BD6E5D4A8999B78DE7BC8BA4F8-2025-05-15-20-41-56","","39296","","[""<span style=\""color: red; font-size: 24px\""> NOW RECORDING</span><p>Please say out loud all the images you saw in part 1 of the experiment, as many as you can remember. The images can be said in any order.</p>""]","","1","museum_causal"
"","","","","","image-button-response","27","1313064","0.0-25.0-0.0","C99D00BD6E5D4A8999B78DE7BC8BA4F8","C99D00BD6E5D4A8999B78DE7BC8BA4F8","d9602b85-27ab-4c59-9ecb-debe717a7bf2","2dd913a0-fd4c-43f1-b4f3-f0d48537bce8","{""part"":""2"",""participantId"":""C99D00BD6E5D4A8999B78DE7BC8BA4F8"",""assignmentId"":""d9602b85-27ab-4c59-9ecb-debe717a7bf2"",""projectId"":""2dd913a0-fd4c-43f1-b4f3-f0d48537bce8""}","https://test12345.live/?part=2&participantId=C99D00BD6E5D4A8999B78DE7BC8BA4F8&assignmentId=d9602b85-27ab-4c59-9ecb-debe717a7bf2&projectId=2dd913a0-fd4c-43f1-b4f3-f0d48537bce8","C99D00BD6E5D4A8999B78DE7BC8BA4F8-2025-05-15-20-41-56","","null","","images/causal_sequence/coin_causal/coin_causal_0.png","null","",""
"","","","","","html-audio-response","28","1370068","0.0-26.0","C99D00BD6E5D4A8999B78DE7BC8BA4F8","C99D00BD6E5D4A8999B78DE7BC8BA4F8","d9602b85-27ab-4c59-9ecb-debe717a7bf2","2dd913a0-fd4c-43f1-b4f3-f0d48537bce8","{""part"":""2"",""participantId"":""C99D00BD6E5D4A8999B78DE7BC8BA4F8"",""assignmentId"":""d9602b85-27ab-4c59-9ecb-debe717a7bf2"",""projectId"":""2dd913a0-fd4c-43f1-b4f3-f0d48537bce8""}","https://test12345.live/?part=2&participantId=C99D00BD6E5D4A8999B78DE7BC8BA4F8&assignmentId=d9602b85-27ab-4c59-9ecb-debe717a7bf2&projectId=2dd913a0-fd4c-43f1-b4f3-f0d48537bce8","C99D00BD6E5D4A8999B78DE7BC8BA4F8-2025-05-15-20-41-56","","null","","[""<span style=\""color: red; font-size: 24px\""> NOW RECORDING</span><p>Please say out loud all the images you saw in part 1 of the experiment, as many as you can remember. The images can be said in any order.</p>""]","","0","coin_causal"
"","","","","","image-button-response","29","1376574","0.0-27.0-0.0","C99D00BD6E5D4A8999B78DE7BC8BA4F8","C99D00BD6E5D4A8999B78DE7BC8BA4F8","d9602b85-27ab-4c59-9ecb-debe717a7bf2","2dd913a0-fd4c-43f1-b4f3-f0d48537bce8","{""part"":""2"",""participantId"":""C99D00BD6E5D4A8999B78DE7BC8BA4F8"",""assignmentId"":""d9602b85-27ab-4c59-9ecb-debe717a7bf2"",""projectId"":""2dd913a0-fd4c-43f1-b4f3-f0d48537bce8""}","https://test12345.live/?part=2&participantId=C99D00BD6E5D4A8999B78DE7BC8BA4F8&assignmentId=d9602b85-27ab-4c59-9ecb-debe717a7bf2&projectId=2dd913a0-fd4c-43f1-b4f3-f0d48537bce8","C99D00BD6E5D4A8999B78DE7BC8BA4F8-2025-05-15-20-41-56","","null","","images/semantic_sequence/visiting_cities_semantic/visiting_cities_semantic_0.png","null","",""
"","","","","","html-audio-response","30","1401525","0.0-28.0","C99D00BD6E5D4A8999B78DE7BC8BA4F8","C99D00BD6E5D4A8999B78DE7BC8BA4F8","d9602b85-27ab-4c59-9ecb-debe717a7bf2","2dd913a0-fd4c-43f1-b4f3-f0d48537bce8","{""part"":""2"",""participantId"":""C99D00BD6E5D4A8999B78DE7BC8BA4F8"",""assignmentId"":""d9602b85-27ab-4c59-9ecb-debe717a7bf2"",""projectId"":""2dd913a0-fd4c-43f1-b4f3-f0d48537bce8""}","https://test12345.live/?part=2&participantId=C99D00BD6E5D4A8999B78DE7BC8BA4F8&assignmentId=d9602b85-27ab-4c59-9ecb-debe717a7bf2&projectId=2dd913a0-fd4c-43f1-b4f3-f0d48537bce8","C99D00BD6E5D4A8999B78DE7BC8BA4F8-2025-05-15-20-41-56","","23860","","[""<span style=\""color: red; font-size: 24px\""> NOW RECORDING</span><p>Please say out loud all the images you saw in part 1 of the experiment, as many as you can remember. The images can be said in any order.</p>""]","","1","visiting_cities_semantic"
"","","","","","image-button-response","31","1407563","0.0-29.0-0.0","C99D00BD6E5D4A8999B78DE7BC8BA4F8","C99D00BD6E5D4A8999B78DE7BC8BA4F8","d9602b85-27ab-4c59-9ecb-debe717a7bf2","2dd913a0-fd4c-43f1-b4f3-f0d48537bce8","{""part"":""2"",""participantId"":""C99D00BD6E5D4A8999B78DE7BC8BA4F8"",""assignmentId"":""d9602b85-27ab-4c59-9ecb-debe717a7bf2"",""projectId"":""2dd913a0-fd4c-43f1-b4f3-f0d48537bce8""}","https://test12345.live/?part=2&participantId=C99D00BD6E5D4A8999B78DE7BC8BA4F8&assignmentId=d9602b85-27ab-4c59-9ecb-debe717a7bf2&projectId=2dd913a0-fd4c-43f1-b4f3-f0d48537bce8","C99D00BD6E5D4A8999B78DE7BC8BA4F8-2025-05-15-20-41-56","","null","","images/causal_sequence/saving_a_cat_causal/saving_a_cat_causal_0.png","null","",""
"","","","","","html-audio-response","32","1455563","0.0-30.0","C99D00BD6E5D4A8999B78DE7BC8BA4F8","C99D00BD6E5D4A8999B78DE7BC8BA4F8","d9602b85-27ab-4c59-9ecb-debe717a7bf2","2dd913a0-fd4c-43f1-b4f3-f0d48537bce8","{""part"":""2"",""participantId"":""C99D00BD6E5D4A8999B78DE7BC8BA4F8"",""assignmentId"":""d9602b85-27ab-4c59-9ecb-debe717a7bf2"",""projectId"":""2dd913a0-fd4c-43f1-b4f3-f0d48537bce8""}","https://test12345.live/?part=2&participantId=C99D00BD6E5D4A8999B78DE7BC8BA4F8&assignmentId=d9602b85-27ab-4c59-9ecb-debe717a7bf2&projectId=2dd913a0-fd4c-43f1-b4f3-f0d48537bce8","C99D00BD6E5D4A8999B78DE7BC8BA4F8-2025-05-15-20-41-56","","47072","","[""<span style=\""color: red; font-size: 24px\""> NOW RECORDING</span><p>Please say out loud all the images you saw in part 1 of the experiment, as many as you can remember. The images can be said in any order.</p>""]","","3","saving_a_cat_causal"
"","","","","","image-button-response","33","1461592","0.0-31.0-0.0","C99D00BD6E5D4A8999B78DE7BC8BA4F8","C99D00BD6E5D4A8999B78DE7BC8BA4F8","d9602b85-27ab-4c59-9ecb-debe717a7bf2","2dd913a0-fd4c-43f1-b4f3-f0d48537bce8","{""part"":""2"",""participantId"":""C99D00BD6E5D4A8999B78DE7BC8BA4F8"",""assignmentId"":""d9602b85-27ab-4c59-9ecb-debe717a7bf2"",""projectId"":""2dd913a0-fd4c-43f1-b4f3-f0d48537bce8""}","https://test12345.live/?part=2&participantId=C99D00BD6E5D4A8999B78DE7BC8BA4F8&assignmentId=d9602b85-27ab-4c59-9ecb-debe717a7bf2&projectId=2dd913a0-fd4c-43f1-b4f3-f0d48537bce8","C99D00BD6E5D4A8999B78DE7BC8BA4F8-2025-05-15-20-41-56","","null","","images/semantic_sequence/maintaining_a_car_semantic/maintaining_a_car_semantic_0.png","null","",""
"","","","","","html-audio-response","34","1485093","0.0-32.0","C99D00BD6E5D4A8999B78DE7BC8BA4F8","C99D00BD6E5D4A8999B78DE7BC8BA4F8","d9602b85-27ab-4c59-9ecb-debe717a7bf2","2dd913a0-fd4c-43f1-b4f3-f0d48537bce8","{""part"":""2"",""participantId"":""C99D00BD6E5D4A8999B78DE7BC8BA4F8"",""assignmentId"":""d9602b85-27ab-4c59-9ecb-debe717a7bf2"",""projectId"":""2dd913a0-fd4c-43f1-b4f3-f0d48537bce8""}","https://test12345.live/?part=2&participantId=C99D00BD6E5D4A8999B78DE7BC8BA4F8&assignmentId=d9602b85-27ab-4c59-9ecb-debe717a7bf2&projectId=2dd913a0-fd4c-43f1-b4f3-f0d48537bce8","C99D00BD6E5D4A8999B78DE7BC8BA4F8-2025-05-15-20-41-56","","22419","","[""<span style=\""color: red; font-size: 24px\""> NOW RECORDING</span><p>Please say out loud all the images you saw in part 1 of the experiment, as many as you can remember. The images can be said in any order.</p>""]","","0","maintaining_a_car_semantic"
"","","","","","image-button-response","35","1491133","0.0-33.0-0.0","C99D00BD6E5D4A8999B78DE7BC8BA4F8","C99D00BD6E5D4A8999B78DE7BC8BA4F8","d9602b85-27ab-4c59-9ecb-debe717a7bf2","2dd913a0-fd4c-43f1-b4f3-f0d48537bce8","{""part"":""2"",""participantId"":""C99D00BD6E5D4A8999B78DE7BC8BA4F8"",""assignmentId"":""d9602b85-27ab-4c59-9ecb-debe717a7bf2"",""projectId"":""2dd913a0-fd4c-43f1-b4f3-f0d48537bce8""}","https://test12345.live/?part=2&participantId=C99D00BD6E5D4A8999B78DE7BC8BA4F8&assignmentId=d9602b85-27ab-4c59-9ecb-debe717a7bf2&projectId=2dd913a0-fd4c-43f1-b4f3-f0d48537bce8","C99D00BD6E5D4A8999B78DE7BC8BA4F8-2025-05-15-20-41-56","","null","","images/causal_sequence/package_causal/package_causal_0.png","null","",""
"","","","","","html-audio-response","36","1532871","0.0-34.0","C99D00BD6E5D4A8999B78DE7BC8BA4F8","C99D00BD6E5D4A8999B78DE7BC8BA4F8","d9602b85-27ab-4c59-9ecb-debe717a7bf2","2dd913a0-fd4c-43f1-b4f3-f0d48537bce8","{""part"":""2"",""participantId"":""C99D00BD6E5D4A8999B78DE7BC8BA4F8"",""assignmentId"":""d9602b85-27ab-4c59-9ecb-debe717a7bf2"",""projectId"":""2dd913a0-fd4c-43f1-b4f3-f0d48537bce8""}","https://test12345.live/?part=2&participantId=C99D00BD6E5D4A8999B78DE7BC8BA4F8&assignmentId=d9602b85-27ab-4c59-9ecb-debe717a7bf2&projectId=2dd913a0-fd4c-43f1-b4f3-f0d48537bce8","C99D00BD6E5D4A8999B78DE7BC8BA4F8-2025-05-15-20-41-56","","39986","","[""<span style=\""color: red; font-size: 24px\""> NOW RECORDING</span><p>Please say out loud all the images you saw in part 1 of the experiment, as many as you can remember. The images can be said in any order.</p>""]","","1","package_causal"
"","","","","","image-button-response","37","1538904","0.0-35.0-0.0","C99D00BD6E5D4A8999B78DE7BC8BA4F8","C99D00BD6E5D4A8999B78DE7BC8BA4F8","d9602b85-27ab-4c59-9ecb-debe717a7bf2","2dd913a0-fd4c-43f1-b4f3-f0d48537bce8","{""part"":""2"",""participantId"":""C99D00BD6E5D4A8999B78DE7BC8BA4F8"",""assignmentId"":""d9602b85-27ab-4c59-9ecb-debe717a7bf2"",""projectId"":""2dd913a0-fd4c-43f1-b4f3-f0d48537bce8""}","https://test12345.live/?part=2&participantId=C99D00BD6E5D4A8999B78DE7BC8BA4F8&assignmentId=d9602b85-27ab-4c59-9ecb-debe717a7bf2&projectId=2dd913a0-fd4c-43f1-b4f3-f0d48537bce8","C99D00BD6E5D4A8999B78DE7BC8BA4F8-2025-05-15-20-41-56","","null","","images/schematic_sequence/hotel_scheme/hotel_scheme_0.png","null","",""
"","","","","","html-audio-response","38","1562950","0.0-36.0","C99D00BD6E5D4A8999B78DE7BC8BA4F8","C99D00BD6E5D4A8999B78DE7BC8BA4F8","d9602b85-27ab-4c59-9ecb-debe717a7bf2","2dd913a0-fd4c-43f1-b4f3-f0d48537bce8","{""part"":""2"",""participantId"":""C99D00BD6E5D4A8999B78DE7BC8BA4F8"",""assignmentId"":""d9602b85-27ab-4c59-9ecb-debe717a7bf2"",""projectId"":""2dd913a0-fd4c-43f1-b4f3-f0d48537bce8""}","https://test12345.live/?part=2&participantId=C99D00BD6E5D4A8999B78DE7BC8BA4F8&assignmentId=d9602b85-27ab-4c59-9ecb-debe717a7bf2&projectId=2dd913a0-fd4c-43f1-b4f3-f0d48537bce8","C99D00BD6E5D4A8999B78DE7BC8BA4F8-2025-05-15-20-41-56","","22985","","[""<span style=\""color: red; font-size: 24px\""> NOW RECORDING</span><p>Please say out loud all the images you saw in part 1 of the experiment, as many as you can remember. The images can be said in any order.</p>""]","","1","hotel_scheme"
"","","","","","image-button-response","39","1568976","0.0-37.0-0.0","C99D00BD6E5D4A8999B78DE7BC8BA4F8","C99D00BD6E5D4A8999B78DE7BC8BA4F8","d9602b85-27ab-4c59-9ecb-debe717a7bf2","2dd913a0-fd4c-43f1-b4f3-f0d48537bce8","{""part"":""2"",""participantId"":""C99D00BD6E5D4A8999B78DE7BC8BA4F8"",""assignmentId"":""d9602b85-27ab-4c59-9ecb-debe717a7bf2"",""projectId"":""2dd913a0-fd4c-43f1-b4f3-f0d48537bce8""}","https://test12345.live/?part=2&participantId=C99D00BD6E5D4A8999B78DE7BC8BA4F8&assignmentId=d9602b85-27ab-4c59-9ecb-debe717a7bf2&projectId=2dd913a0-fd4c-43f1-b4f3-f0d48537bce8","C99D00BD6E5D4A8999B78DE7BC8BA4F8-2025-05-15-20-41-56","","null","","images/causal_sequence/dog_causal/dog_causal_0.png","null","",""
"","","","","","html-audio-response","40","1608935","0.0-38.0","C99D00BD6E5D4A8999B78DE7BC8BA4F8","C99D00BD6E5D4A8999B78DE7BC8BA4F8","d9602b85-27ab-4c59-9ecb-debe717a7bf2","2dd913a0-fd4c-43f1-b4f3-f0d48537bce8","{""part"":""2"",""participantId"":""C99D00BD6E5D4A8999B78DE7BC8BA4F8"",""assignmentId"":""d9602b85-27ab-4c59-9ecb-debe717a7bf2"",""projectId"":""2dd913a0-fd4c-43f1-b4f3-f0d48537bce8""}","https://test12345.live/?part=2&participantId=C99D00BD6E5D4A8999B78DE7BC8BA4F8&assignmentId=d9602b85-27ab-4c59-9ecb-debe717a7bf2&projectId=2dd913a0-fd4c-43f1-b4f3-f0d48537bce8","C99D00BD6E5D4A8999B78DE7BC8BA4F8-2025-05-15-20-41-56","","38470","","[""<span style=\""color: red; font-size: 24px\""> NOW RECORDING</span><p>Please say out loud all the images you saw in part 1 of the experiment, as many as you can remember. The images can be said in any order.</p>""]","","2","dog_causal"
"","","","","","image-button-response","41","1614964","0.0-39.0-0.0","C99D00BD6E5D4A8999B78DE7BC8BA4F8","C99D00BD6E5D4A8999B78DE7BC8BA4F8","d9602b85-27ab-4c59-9ecb-debe717a7bf2","2dd913a0-fd4c-43f1-b4f3-f0d48537bce8","{""part"":""2"",""participantId"":""C99D00BD6E5D4A8999B78DE7BC8BA4F8"",""assignmentId"":""d9602b85-27ab-4c59-9ecb-debe717a7bf2"",""projectId"":""2dd913a0-fd4c-43f1-b4f3-f0d48537bce8""}","https://test12345.live/?part=2&participantId=C99D00BD6E5D4A8999B78DE7BC8BA4F8&assignmentId=d9602b85-27ab-4c59-9ecb-debe717a7bf2&projectId=2dd913a0-fd4c-43f1-b4f3-f0d48537bce8","C99D00BD6E5D4A8999B78DE7BC8BA4F8-2025-05-15-20-41-56","","null","","images/semantic_sequence/creative_activities_semantic/creative_activities_semantic_0.png","null","",""
"","","","","","html-audio-response","42","1623158","0.0-40.0","C99D00BD6E5D4A8999B78DE7BC8BA4F8","C99D00BD6E5D4A8999B78DE7BC8BA4F8","d9602b85-27ab-4c59-9ecb-debe717a7bf2","2dd913a0-fd4c-43f1-b4f3-f0d48537bce8","{""part"":""2"",""participantId"":""C99D00BD6E5D4A8999B78DE7BC8BA4F8"",""assignmentId"":""d9602b85-27ab-4c59-9ecb-debe717a7bf2"",""projectId"":""2dd913a0-fd4c-43f1-b4f3-f0d48537bce8""}","https://test12345.live/?part=2&participantId=C99D00BD6E5D4A8999B78DE7BC8BA4F8&assignmentId=d9602b85-27ab-4c59-9ecb-debe717a7bf2&projectId=2dd913a0-fd4c-43f1-b4f3-f0d48537bce8","C99D00BD6E5D4A8999B78DE7BC8BA4F8-2025-05-15-20-41-56","","7258","","[""<span style=\""color: red; font-size: 24px\""> NOW RECORDING</span><p>Please say out loud all the images you saw in part 1 of the experiment, as many as you can remember. The images can be said in any order.</p>""]","","2","creative_activities_semantic"
"","","","","","image-button-response","43","1629685","0.0-41.0-0.0","C99D00BD6E5D4A8999B78DE7BC8BA4F8","C99D00BD6E5D4A8999B78DE7BC8BA4F8","d9602b85-27ab-4c59-9ecb-debe717a7bf2","2dd913a0-fd4c-43f1-b4f3-f0d48537bce8","{""part"":""2"",""participantId"":""C99D00BD6E5D4A8999B78DE7BC8BA4F8"",""assignmentId"":""d9602b85-27ab-4c59-9ecb-debe717a7bf2"",""projectId"":""2dd913a0-fd4c-43f1-b4f3-f0d48537bce8""}","https://test12345.live/?part=2&participantId=C99D00BD6E5D4A8999B78DE7BC8BA4F8&assignmentId=d9602b85-27ab-4c59-9ecb-debe717a7bf2&projectId=2dd913a0-fd4c-43f1-b4f3-f0d48537bce8","C99D00BD6E5D4A8999B78DE7BC8BA4F8-2025-05-15-20-41-56","","null","","images/semantic_sequence/market_semantic/market_semantic_0.png","null","",""
"","","","","","html-audio-response","44","1655363","0.0-42.0","C99D00BD6E5D4A8999B78DE7BC8BA4F8","C99D00BD6E5D4A8999B78DE7BC8BA4F8","d9602b85-27ab-4c59-9ecb-debe717a7bf2","2dd913a0-fd4c-43f1-b4f3-f0d48537bce8","{""part"":""2"",""participantId"":""C99D00BD6E5D4A8999B78DE7BC8BA4F8"",""assignmentId"":""d9602b85-27ab-4c59-9ecb-debe717a7bf2"",""projectId"":""2dd913a0-fd4c-43f1-b4f3-f0d48537bce8""}","https://test12345.live/?part=2&participantId=C99D00BD6E5D4A8999B78DE7BC8BA4F8&assignmentId=d9602b85-27ab-4c59-9ecb-debe717a7bf2&projectId=2dd913a0-fd4c-43f1-b4f3-f0d48537bce8","C99D00BD6E5D4A8999B78DE7BC8BA4F8-2025-05-15-20-41-56","","24595","","[""<span style=\""color: red; font-size: 24px\""> NOW RECORDING</span><p>Please say out loud all the images you saw in part 1 of the experiment, as many as you can remember. The images can be said in any order.</p>""]","","1","market_semantic"
"","","","","","image-button-response","45","1661388","0.0-43.0-0.0","C99D00BD6E5D4A8999B78DE7BC8BA4F8","C99D00BD6E5D4A8999B78DE7BC8BA4F8","d9602b85-27ab-4c59-9ecb-debe717a7bf2","2dd913a0-fd4c-43f1-b4f3-f0d48537bce8","{""part"":""2"",""participantId"":""C99D00BD6E5D4A8999B78DE7BC8BA4F8"",""assignmentId"":""d9602b85-27ab-4c59-9ecb-debe717a7bf2"",""projectId"":""2dd913a0-fd4c-43f1-b4f3-f0d48537bce8""}","https://test12345.live/?part=2&participantId=C99D00BD6E5D4A8999B78DE7BC8BA4F8&assignmentId=d9602b85-27ab-4c59-9ecb-debe717a7bf2&projectId=2dd913a0-fd4c-43f1-b4f3-f0d48537bce8","C99D00BD6E5D4A8999B78DE7BC8BA4F8-2025-05-15-20-41-56","","null","","images/semantic_sequence/self_care_activities_semantic/self_care_activities_semantic_0.png","null","",""
"","","","","","html-audio-response","46","1677553","0.0-44.0","C99D00BD6E5D4A8999B78DE7BC8BA4F8","C99D00BD6E5D4A8999B78DE7BC8BA4F8","d9602b85-27ab-4c59-9ecb-debe717a7bf2","2dd913a0-fd4c-43f1-b4f3-f0d48537bce8","{""part"":""2"",""participantId"":""C99D00BD6E5D4A8999B78DE7BC8BA4F8"",""assignmentId"":""d9602b85-27ab-4c59-9ecb-debe717a7bf2"",""projectId"":""2dd913a0-fd4c-43f1-b4f3-f0d48537bce8""}","https://test12345.live/?part=2&participantId=C99D00BD6E5D4A8999B78DE7BC8BA4F8&assignmentId=d9602b85-27ab-4c59-9ecb-debe717a7bf2&projectId=2dd913a0-fd4c-43f1-b4f3-f0d48537bce8","C99D00BD6E5D4A8999B78DE7BC8BA4F8-2025-05-15-20-41-56","","15046","","[""<span style=\""color: red; font-size: 24px\""> NOW RECORDING</span><p>Please say out loud all the images you saw in part 1 of the experiment, as many as you can remember. The images can be said in any order.</p>""]","","1","self_care_activities_semantic"
"","","","","","image-button-response","47","1683582","0.0-45.0-0.0","C99D00BD6E5D4A8999B78DE7BC8BA4F8","C99D00BD6E5D4A8999B78DE7BC8BA4F8","d9602b85-27ab-4c59-9ecb-debe717a7bf2","2dd913a0-fd4c-43f1-b4f3-f0d48537bce8","{""part"":""2"",""participantId"":""C99D00BD6E5D4A8999B78DE7BC8BA4F8"",""assignmentId"":""d9602b85-27ab-4c59-9ecb-debe717a7bf2"",""projectId"":""2dd913a0-fd4c-43f1-b4f3-f0d48537bce8""}","https://test12345.live/?part=2&participantId=C99D00BD6E5D4A8999B78DE7BC8BA4F8&assignmentId=d9602b85-27ab-4c59-9ecb-debe717a7bf2&projectId=2dd913a0-fd4c-43f1-b4f3-f0d48537bce8","C99D00BD6E5D4A8999B78DE7BC8BA4F8-2025-05-15-20-41-56","","null","","images/semantic_sequence/exploring_nature_semantic/exploring_nature_semantic_0.png","null","",""
"","","","","","html-audio-response","48","1714843","0.0-46.0","C99D00BD6E5D4A8999B78DE7BC8BA4F8","C99D00BD6E5D4A8999B78DE7BC8BA4F8","d9602b85-27ab-4c59-9ecb-debe717a7bf2","2dd913a0-fd4c-43f1-b4f3-f0d48537bce8","{""part"":""2"",""participantId"":""C99D00BD6E5D4A8999B78DE7BC8BA4F8"",""assignmentId"":""d9602b85-27ab-4c59-9ecb-debe717a7bf2"",""projectId"":""2dd913a0-fd4c-43f1-b4f3-f0d48537bce8""}","https://test12345.live/?part=2&participantId=C99D00BD6E5D4A8999B78DE7BC8BA4F8&assignmentId=d9602b85-27ab-4c59-9ecb-debe717a7bf2&projectId=2dd913a0-fd4c-43f1-b4f3-f0d48537bce8","C99D00BD6E5D4A8999B78DE7BC8BA4F8-2025-05-15-20-41-56","","30357","","[""<span style=\""color: red; font-size: 24px\""> NOW RECORDING</span><p>Please say out loud all the images you saw in part 1 of the experiment, as many as you can remember. The images can be said in any order.</p>""]","","3","exploring_nature_semantic"
"","","","","","image-button-response","49","1720918","0.0-47.0-0.0","C99D00BD6E5D4A8999B78DE7BC8BA4F8","C99D00BD6E5D4A8999B78DE7BC8BA4F8","d9602b85-27ab-4c59-9ecb-debe717a7bf2","2dd913a0-fd4c-43f1-b4f3-f0d48537bce8","{""part"":""2"",""participantId"":""C99D00BD6E5D4A8999B78DE7BC8BA4F8"",""assignmentId"":""d9602b85-27ab-4c59-9ecb-debe717a7bf2"",""projectId"":""2dd913a0-fd4c-43f1-b4f3-f0d48537bce8""}","https://test12345.live/?part=2&participantId=C99D00BD6E5D4A8999B78DE7BC8BA4F8&assignmentId=d9602b85-27ab-4c59-9ecb-debe717a7bf2&projectId=2dd913a0-fd4c-43f1-b4f3-f0d48537bce8","C99D00BD6E5D4A8999B78DE7BC8BA4F8-2025-05-15-20-41-56","","null","","images/schematic_sequence/supermarket_scheme/supermarket_scheme_0.png","null","",""
"","","","","","html-audio-response","50","1740355","0.0-48.0","C99D00BD6E5D4A8999B78DE7BC8BA4F8","C99D00BD6E5D4A8999B78DE7BC8BA4F8","d9602b85-27ab-4c59-9ecb-debe717a7bf2","2dd913a0-fd4c-43f1-b4f3-f0d48537bce8","{""part"":""2"",""participantId"":""C99D00BD6E5D4A8999B78DE7BC8BA4F8"",""assignmentId"":""d9602b85-27ab-4c59-9ecb-debe717a7bf2"",""projectId"":""2dd913a0-fd4c-43f1-b4f3-f0d48537bce8""}","https://test12345.live/?part=2&participantId=C99D00BD6E5D4A8999B78DE7BC8BA4F8&assignmentId=d9602b85-27ab-4c59-9ecb-debe717a7bf2&projectId=2dd913a0-fd4c-43f1-b4f3-f0d48537bce8","C99D00BD6E5D4A8999B78DE7BC8BA4F8-2025-05-15-20-41-56","","18407","","[""<span style=\""color: red; font-size: 24px\""> NOW RECORDING</span><p>Please say out loud all the images you saw in part 1 of the experiment, as many as you can remember. The images can be said in any order.</p>""]","","1","supermarket_scheme"
"","","","","","image-button-response","51","1746434","0.0-49.0-0.0","C99D00BD6E5D4A8999B78DE7BC8BA4F8","C99D00BD6E5D4A8999B78DE7BC8BA4F8","d9602b85-27ab-4c59-9ecb-debe717a7bf2","2dd913a0-fd4c-43f1-b4f3-f0d48537bce8","{""part"":""2"",""participantId"":""C99D00BD6E5D4A8999B78DE7BC8BA4F8"",""assignmentId"":""d9602b85-27ab-4c59-9ecb-debe717a7bf2"",""projectId"":""2dd913a0-fd4c-43f1-b4f3-f0d48537bce8""}","https://test12345.live/?part=2&participantId=C99D00BD6E5D4A8999B78DE7BC8BA4F8&assignmentId=d9602b85-27ab-4c59-9ecb-debe717a7bf2&projectId=2dd913a0-fd4c-43f1-b4f3-f0d48537bce8","C99D00BD6E5D4A8999B78DE7BC8BA4F8-2025-05-15-20-41-56","","null","","images/schematic_sequence/restaurant_scheme/restaurant_scheme_0.png","null","",""
"","","","","","html-audio-response","52","1757328","0.0-50.0","C99D00BD6E5D4A8999B78DE7BC8BA4F8","C99D00BD6E5D4A8999B78DE7BC8BA4F8","d9602b85-27ab-4c59-9ecb-debe717a7bf2","2dd913a0-fd4c-43f1-b4f3-f0d48537bce8","{""part"":""2"",""participantId"":""C99D00BD6E5D4A8999B78DE7BC8BA4F8"",""assignmentId"":""d9602b85-27ab-4c59-9ecb-debe717a7bf2"",""projectId"":""2dd913a0-fd4c-43f1-b4f3-f0d48537bce8""}","https://test12345.live/?part=2&participantId=C99D00BD6E5D4A8999B78DE7BC8BA4F8&assignmentId=d9602b85-27ab-4c59-9ecb-debe717a7bf2&projectId=2dd913a0-fd4c-43f1-b4f3-f0d48537bce8","C99D00BD6E5D4A8999B78DE7BC8BA4F8-2025-05-15-20-41-56","","10001","","[""<span style=\""color: red; font-size: 24px\""> NOW RECORDING</span><p>Please say out loud all the images you saw in part 1 of the experiment, as many as you can remember. The images can be said in any order.</p>""]","","1","restaurant_scheme"
"","","","","","image-button-response","53","1763364","0.0-51.0-0.0","C99D00BD6E5D4A8999B78DE7BC8BA4F8","C99D00BD6E5D4A8999B78DE7BC8BA4F8","d9602b85-27ab-4c59-9ecb-debe717a7bf2","2dd913a0-fd4c-43f1-b4f3-f0d48537bce8","{""part"":""2"",""participantId"":""C99D00BD6E5D4A8999B78DE7BC8BA4F8"",""assignmentId"":""d9602b85-27ab-4c59-9ecb-debe717a7bf2"",""projectId"":""2dd913a0-fd4c-43f1-b4f3-f0d48537bce8""}","https://test12345.live/?part=2&participantId=C99D00BD6E5D4A8999B78DE7BC8BA4F8&assignmentId=d9602b85-27ab-4c59-9ecb-debe717a7bf2&projectId=2dd913a0-fd4c-43f1-b4f3-f0d48537bce8","C99D00BD6E5D4A8999B78DE7BC8BA4F8-2025-05-15-20-41-56","","null","","images/semantic_sequence/housework_semantic/housework_semantic_0.png","null","",""
"","","","","","html-audio-response","54","1795743","0.0-52.0","C99D00BD6E5D4A8999B78DE7BC8BA4F8","C99D00BD6E5D4A8999B78DE7BC8BA4F8","d9602b85-27ab-4c59-9ecb-debe717a7bf2","2dd913a0-fd4c-43f1-b4f3-f0d48537bce8","{""part"":""2"",""participantId"":""C99D00BD6E5D4A8999B78DE7BC8BA4F8"",""assignmentId"":""d9602b85-27ab-4c59-9ecb-debe717a7bf2"",""projectId"":""2dd913a0-fd4c-43f1-b4f3-f0d48537bce8""}","https://test12345.live/?part=2&participantId=C99D00BD6E5D4A8999B78DE7BC8BA4F8&assignmentId=d9602b85-27ab-4c59-9ecb-debe717a7bf2&projectId=2dd913a0-fd4c-43f1-b4f3-f0d48537bce8","C99D00BD6E5D4A8999B78DE7BC8BA4F8-2025-05-15-20-41-56","","31372","","[""<span style=\""color: red; font-size: 24px\""> NOW RECORDING</span><p>Please say out loud all the images you saw in part 1 of the experiment, as many as you can remember. The images can be said in any order.</p>""]","","1","housework_semantic"
"","","","","","image-button-response","55","1801857","0.0-53.0-0.0","C99D00BD6E5D4A8999B78DE7BC8BA4F8","C99D00BD6E5D4A8999B78DE7BC8BA4F8","d9602b85-27ab-4c59-9ecb-debe717a7bf2","2dd913a0-fd4c-43f1-b4f3-f0d48537bce8","{""part"":""2"",""participantId"":""C99D00BD6E5D4A8999B78DE7BC8BA4F8"",""assignmentId"":""d9602b85-27ab-4c59-9ecb-debe717a7bf2"",""projectId"":""2dd913a0-fd4c-43f1-b4f3-f0d48537bce8""}","https://test12345.live/?part=2&participantId=C99D00BD6E5D4A8999B78DE7BC8BA4F8&assignmentId=d9602b85-27ab-4c59-9ecb-debe717a7bf2&projectId=2dd913a0-fd4c-43f1-b4f3-f0d48537bce8","C99D00BD6E5D4A8999B78DE7BC8BA4F8-2025-05-15-20-41-56","","null","","images/schematic_sequence/interview_scheme/interview_scheme_0.png","null","",""
"","","","","","html-audio-response","56","1831211","0.0-54.0","C99D00BD6E5D4A8999B78DE7BC8BA4F8","C99D00BD6E5D4A8999B78DE7BC8BA4F8","d9602b85-27ab-4c59-9ecb-debe717a7bf2","2dd913a0-fd4c-43f1-b4f3-f0d48537bce8","{""part"":""2"",""participantId"":""C99D00BD6E5D4A8999B78DE7BC8BA4F8"",""assignmentId"":""d9602b85-27ab-4c59-9ecb-debe717a7bf2"",""projectId"":""2dd913a0-fd4c-43f1-b4f3-f0d48537bce8""}","https://test12345.live/?part=2&participantId=C99D00BD6E5D4A8999B78DE7BC8BA4F8&assignmentId=d9602b85-27ab-4c59-9ecb-debe717a7bf2&projectId=2dd913a0-fd4c-43f1-b4f3-f0d48537bce8","C99D00BD6E5D4A8999B78DE7BC8BA4F8-2025-05-15-20-41-56","","28429","","[""<span style=\""color: red; font-size: 24px\""> NOW RECORDING</span><p>Please say out loud all the images you saw in part 1 of the experiment, as many as you can remember. The images can be said in any order.</p>""]","","1","interview_scheme"
"","","","","","image-button-response","57","1837237","0.0-55.0-0.0","C99D00BD6E5D4A8999B78DE7BC8BA4F8","C99D00BD6E5D4A8999B78DE7BC8BA4F8","d9602b85-27ab-4c59-9ecb-debe717a7bf2","2dd913a0-fd4c-43f1-b4f3-f0d48537bce8","{""part"":""2"",""participantId"":""C99D00BD6E5D4A8999B78DE7BC8BA4F8"",""assignmentId"":""d9602b85-27ab-4c59-9ecb-debe717a7bf2"",""projectId"":""2dd913a0-fd4c-43f1-b4f3-f0d48537bce8""}","https://test12345.live/?part=2&participantId=C99D00BD6E5D4A8999B78DE7BC8BA4F8&assignmentId=d9602b85-27ab-4c59-9ecb-debe717a7bf2&projectId=2dd913a0-fd4c-43f1-b4f3-f0d48537bce8","C99D00BD6E5D4A8999B78DE7BC8BA4F8-2025-05-15-20-41-56","","null","","images/semantic_sequence/cat_care_semantic/cat_care_semantic_0.png","null","",""
"","","","","","html-audio-response","58","1875872","0.0-56.0","C99D00BD6E5D4A8999B78DE7BC8BA4F8","C99D00BD6E5D4A8999B78DE7BC8BA4F8","d9602b85-27ab-4c59-9ecb-debe717a7bf2","2dd913a0-fd4c-43f1-b4f3-f0d48537bce8","{""part"":""2"",""participantId"":""C99D00BD6E5D4A8999B78DE7BC8BA4F8"",""assignmentId"":""d9602b85-27ab-4c59-9ecb-debe717a7bf2"",""projectId"":""2dd913a0-fd4c-43f1-b4f3-f0d48537bce8""}","https://test12345.live/?part=2&participantId=C99D00BD6E5D4A8999B78DE7BC8BA4F8&assignmentId=d9602b85-27ab-4c59-9ecb-debe717a7bf2&projectId=2dd913a0-fd4c-43f1-b4f3-f0d48537bce8","C99D00BD6E5D4A8999B78DE7BC8BA4F8-2025-05-15-20-41-56","","37735","","[""<span style=\""color: red; font-size: 24px\""> NOW RECORDING</span><p>Please say out loud all the images you saw in part 1 of the experiment, as many as you can remember. The images can be said in any order.</p>""]","","1","cat_care_semantic"
"","","","","","survey-text","59","1881403","0.0-57.0","C99D00BD6E5D4A8999B78DE7BC8BA4F8","C99D00BD6E5D4A8999B78DE7BC8BA4F8","d9602b85-27ab-4c59-9ecb-debe717a7bf2","2dd913a0-fd4c-43f1-b4f3-f0d48537bce8","{""part"":""2"",""participantId"":""C99D00BD6E5D4A8999B78DE7BC8BA4F8"",""assignmentId"":""d9602b85-27ab-4c59-9ecb-debe717a7bf2"",""projectId"":""2dd913a0-fd4c-43f1-b4f3-f0d48537bce8""}","https://test12345.live/?part=2&participantId=C99D00BD6E5D4A8999B78DE7BC8BA4F8&assignmentId=d9602b85-27ab-4c59-9ecb-debe717a7bf2&projectId=2dd913a0-fd4c-43f1-b4f3-f0d48537bce8","C99D00BD6E5D4A8999B78DE7BC8BA4F8-2025-05-15-20-41-56","","5525","","","{""Q0"":""Male"",""Q1"":""25""}","",""
"","","","","","instructions","60","1885548","0.0-58.0","C99D00BD6E5D4A8999B78DE7BC8BA4F8","C99D00BD6E5D4A8999B78DE7BC8BA4F8","d9602b85-27ab-4c59-9ecb-debe717a7bf2","2dd913a0-fd4c-43f1-b4f3-f0d48537bce8","{""part"":""2"",""participantId"":""C99D00BD6E5D4A8999B78DE7BC8BA4F8"",""assignmentId"":""d9602b85-27ab-4c59-9ecb-debe717a7bf2"",""projectId"":""2dd913a0-fd4c-43f1-b4f3-f0d48537bce8""}","https://test12345.live/?part=2&participantId=C99D00BD6E5D4A8999B78DE7BC8BA4F8&assignmentId=d9602b85-27ab-4c59-9ecb-debe717a7bf2&projectId=2dd913a0-fd4c-43f1-b4f3-f0d48537bce8","C99D00BD6E5D4A8999B78DE7BC8BA4F8-2025-05-15-20-41-56","[{""page_index"":0,""viewing_time"":4143}]","4143","","","","",""
"","","","","","survey-text","61","1888756","0.0-59.0","C99D00BD6E5D4A8999B78DE7BC8BA4F8","C99D00BD6E5D4A8999B78DE7BC8BA4F8","d9602b85-27ab-4c59-9ecb-debe717a7bf2","2dd913a0-fd4c-43f1-b4f3-f0d48537bce8","{""part"":""2"",""participantId"":""C99D00BD6E5D4A8999B78DE7BC8BA4F8"",""assignmentId"":""d9602b85-27ab-4c59-9ecb-debe717a7bf2"",""projectId"":""2dd913a0-fd4c-43f1-b4f3-f0d48537bce8""}","https://test12345.live/?part=2&participantId=C99D00BD6E5D4A8999B78DE7BC8BA4F8&assignmentId=d9602b85-27ab-4c59-9ecb-debe717a7bf2&projectId=2dd913a0-fd4c-43f1-b4f3-f0d48537bce8","C99D00BD6E5D4A8999B78DE7BC8BA4F8-2025-05-15-20-41-56","","3205","","","{""Q0"":""AJFHBG896""}","",""
