"success","timeout","failed_images","failed_audio","failed_video","trial_type","trial_index","time_elapsed","internal_node_id","subject","subject_id","study_id","session_id","urlvar","current_url","audio_id","view_history","rt","device_id","stimulus","response","estimated_stimulus_onset","seq_name"
"true","false","[]","[]","[]","preload","0","3120","0.0-0.0","CA1F89C14CC54B08ACDD467F095168BC","CA1F89C14CC54B08ACDD467F095168BC","cbacca2b-7d8e-431c-9a0b-2105266f93b9","3ce68dc4-89da-4770-948e-944f675a4a4c","{""part"":""2"",""participantId"":""CA1F89C14CC54B08ACDD467F095168BC"",""assignmentId"":""cbacca2b-7d8e-431c-9a0b-2105266f93b9"",""projectId"":""3ce68dc4-89da-4770-948e-944f675a4a4c""}","https://test12345.live/?part=2&participantId=CA1F89C14CC54B08ACDD467F095168BC&assignmentId=cbacca2b-7d8e-431c-9a0b-2105266f93b9&projectId=3ce68dc4-89da-4770-948e-944f675a4a4c","CA1F89C14CC54B08ACDD467F095168BC-2025-05-28-15-46-27","","","","","","",""
"","","","","","instructions","1","14329","0.0-1.0","CA1F89C14CC54B08ACDD467F095168BC","CA1F89C14CC54B08ACDD467F095168BC","cbacca2b-7d8e-431c-9a0b-2105266f93b9","3ce68dc4-89da-4770-948e-944f675a4a4c","{""part"":""2"",""participantId"":""CA1F89C14CC54B08ACDD467F095168BC"",""assignmentId"":""cbacca2b-7d8e-431c-9a0b-2105266f93b9"",""projectId"":""3ce68dc4-89da-4770-948e-944f675a4a4c""}","https://test12345.live/?part=2&participantId=CA1F89C14CC54B08ACDD467F095168BC&assignmentId=cbacca2b-7d8e-431c-9a0b-2105266f93b9&projectId=3ce68dc4-89da-4770-948e-944f675a4a4c","CA1F89C14CC54B08ACDD467F095168BC-2025-05-28-15-46-27","[{""page_index"":0,""viewing_time"":11206}]","11207","","","","",""
"","","","","","instructions","2","16979","0.0-2.0","CA1F89C14CC54B08ACDD467F095168BC","CA1F89C14CC54B08ACDD467F095168BC","cbacca2b-7d8e-431c-9a0b-2105266f93b9","3ce68dc4-89da-4770-948e-944f675a4a4c","{""part"":""2"",""participantId"":""CA1F89C14CC54B08ACDD467F095168BC"",""assignmentId"":""cbacca2b-7d8e-431c-9a0b-2105266f93b9"",""projectId"":""3ce68dc4-89da-4770-948e-944f675a4a4c""}","https://test12345.live/?part=2&participantId=CA1F89C14CC54B08ACDD467F095168BC&assignmentId=cbacca2b-7d8e-431c-9a0b-2105266f93b9&projectId=3ce68dc4-89da-4770-948e-944f675a4a4c","CA1F89C14CC54B08ACDD467F095168BC-2025-05-28-15-46-27","[{""page_index"":0,""viewing_time"":2649}]","2650","","","","",""
"true","","","","","fullscreen","3","19301","0.0-3.0","CA1F89C14CC54B08ACDD467F095168BC","CA1F89C14CC54B08ACDD467F095168BC","cbacca2b-7d8e-431c-9a0b-2105266f93b9","3ce68dc4-89da-4770-948e-944f675a4a4c","{""part"":""2"",""participantId"":""CA1F89C14CC54B08ACDD467F095168BC"",""assignmentId"":""cbacca2b-7d8e-431c-9a0b-2105266f93b9"",""projectId"":""3ce68dc4-89da-4770-948e-944f675a4a4c""}","https://test12345.live/?part=2&participantId=CA1F89C14CC54B08ACDD467F095168BC&assignmentId=cbacca2b-7d8e-431c-9a0b-2105266f93b9&projectId=3ce68dc4-89da-4770-948e-944f675a4a4c","CA1F89C14CC54B08ACDD467F095168BC-2025-05-28-15-46-27","","1316","","","","",""
"","","","","","initialize-microphone","4","23464","0.0-4.0-0.0","CA1F89C14CC54B08ACDD467F095168BC","CA1F89C14CC54B08ACDD467F095168BC","cbacca2b-7d8e-431c-9a0b-2105266f93b9","3ce68dc4-89da-4770-948e-944f675a4a4c","{""part"":""2"",""participantId"":""CA1F89C14CC54B08ACDD467F095168BC"",""assignmentId"":""cbacca2b-7d8e-431c-9a0b-2105266f93b9"",""projectId"":""3ce68dc4-89da-4770-948e-944f675a4a4c""}","https://test12345.live/?part=2&participantId=CA1F89C14CC54B08ACDD467F095168BC&assignmentId=cbacca2b-7d8e-431c-9a0b-2105266f93b9&projectId=3ce68dc4-89da-4770-948e-944f675a4a4c","CA1F89C14CC54B08ACDD467F095168BC-2025-05-28-15-46-27","","","f155b9e6770e00a05c265f13eacfd966094472002f8264289008314e5df7f6b7","","","",""
"","","","","","html-audio-response","5","33082","0.0-4.0-1.0","CA1F89C14CC54B08ACDD467F095168BC","CA1F89C14CC54B08ACDD467F095168BC","cbacca2b-7d8e-431c-9a0b-2105266f93b9","3ce68dc4-89da-4770-948e-944f675a4a4c","{""part"":""2"",""participantId"":""CA1F89C14CC54B08ACDD467F095168BC"",""assignmentId"":""cbacca2b-7d8e-431c-9a0b-2105266f93b9"",""projectId"":""3ce68dc4-89da-4770-948e-944f675a4a4c""}","https://test12345.live/?part=2&participantId=CA1F89C14CC54B08ACDD467F095168BC&assignmentId=cbacca2b-7d8e-431c-9a0b-2105266f93b9&projectId=3ce68dc4-89da-4770-948e-944f675a4a4c","CA1F89C14CC54B08ACDD467F095168BC-2025-05-28-15-46-27","","3565","","<span style=""color: red; font-size: 24px""> NOW RECORDING</span>
        <p>Please test Microphone</p>","","16",""
"","","","","","html-button-response","6","34782","0.0-4.0-2.0","CA1F89C14CC54B08ACDD467F095168BC","CA1F89C14CC54B08ACDD467F095168BC","cbacca2b-7d8e-431c-9a0b-2105266f93b9","3ce68dc4-89da-4770-948e-944f675a4a4c","{""part"":""2"",""participantId"":""CA1F89C14CC54B08ACDD467F095168BC"",""assignmentId"":""cbacca2b-7d8e-431c-9a0b-2105266f93b9"",""projectId"":""3ce68dc4-89da-4770-948e-944f675a4a4c""}","https://test12345.live/?part=2&participantId=CA1F89C14CC54B08ACDD467F095168BC&assignmentId=cbacca2b-7d8e-431c-9a0b-2105266f93b9&projectId=3ce68dc4-89da-4770-948e-944f675a4a4c","CA1F89C14CC54B08ACDD467F095168BC-2025-05-28-15-46-27","","1697","","<p style=""font-size:48px; color:red;"">Is Microphone OK?</p>","1","",""
"","","","","","instructions","7","39849","0.0-5.0","CA1F89C14CC54B08ACDD467F095168BC","CA1F89C14CC54B08ACDD467F095168BC","cbacca2b-7d8e-431c-9a0b-2105266f93b9","3ce68dc4-89da-4770-948e-944f675a4a4c","{""part"":""2"",""participantId"":""CA1F89C14CC54B08ACDD467F095168BC"",""assignmentId"":""cbacca2b-7d8e-431c-9a0b-2105266f93b9"",""projectId"":""3ce68dc4-89da-4770-948e-944f675a4a4c""}","https://test12345.live/?part=2&participantId=CA1F89C14CC54B08ACDD467F095168BC&assignmentId=cbacca2b-7d8e-431c-9a0b-2105266f93b9&projectId=3ce68dc4-89da-4770-948e-944f675a4a4c","CA1F89C14CC54B08ACDD467F095168BC-2025-05-28-15-46-27","[{""page_index"":0,""viewing_time"":997},{""page_index"":1,""viewing_time"":1934},{""page_index"":2,""viewing_time"":2133}]","5065","","","","",""
"","","","","","image-button-response","8","45856","0.0-6.0-0.0","CA1F89C14CC54B08ACDD467F095168BC","CA1F89C14CC54B08ACDD467F095168BC","cbacca2b-7d8e-431c-9a0b-2105266f93b9","3ce68dc4-89da-4770-948e-944f675a4a4c","{""part"":""2"",""participantId"":""CA1F89C14CC54B08ACDD467F095168BC"",""assignmentId"":""cbacca2b-7d8e-431c-9a0b-2105266f93b9"",""projectId"":""3ce68dc4-89da-4770-948e-944f675a4a4c""}","https://test12345.live/?part=2&participantId=CA1F89C14CC54B08ACDD467F095168BC&assignmentId=cbacca2b-7d8e-431c-9a0b-2105266f93b9&projectId=3ce68dc4-89da-4770-948e-944f675a4a4c","CA1F89C14CC54B08ACDD467F095168BC-2025-05-28-15-46-27","","null","","images/instructions/movie_0.png","null","",""
"","","","","","html-audio-response","9","64652","0.0-7.0","CA1F89C14CC54B08ACDD467F095168BC","CA1F89C14CC54B08ACDD467F095168BC","cbacca2b-7d8e-431c-9a0b-2105266f93b9","3ce68dc4-89da-4770-948e-944f675a4a4c","{""part"":""2"",""participantId"":""CA1F89C14CC54B08ACDD467F095168BC"",""assignmentId"":""cbacca2b-7d8e-431c-9a0b-2105266f93b9"",""projectId"":""3ce68dc4-89da-4770-948e-944f675a4a4c""}","https://test12345.live/?part=2&participantId=CA1F89C14CC54B08ACDD467F095168BC&assignmentId=cbacca2b-7d8e-431c-9a0b-2105266f93b9&projectId=3ce68dc4-89da-4770-948e-944f675a4a4c","CA1F89C14CC54B08ACDD467F095168BC-2025-05-28-15-46-27","","17599","","[""<span style=\""color: red; font-size: 24px\""> NOW RECORDING</span><p>Please say out loud all the images you saw in part 1 of the experiment, in the exact order you saw them. Try to recall as many images as you can, but remember: getting the order right is more important than the number of images you recall.</p>""]","","2",""
"","","","","","instructions","10","65701","0.0-8.0","CA1F89C14CC54B08ACDD467F095168BC","CA1F89C14CC54B08ACDD467F095168BC","cbacca2b-7d8e-431c-9a0b-2105266f93b9","3ce68dc4-89da-4770-948e-944f675a4a4c","{""part"":""2"",""participantId"":""CA1F89C14CC54B08ACDD467F095168BC"",""assignmentId"":""cbacca2b-7d8e-431c-9a0b-2105266f93b9"",""projectId"":""3ce68dc4-89da-4770-948e-944f675a4a4c""}","https://test12345.live/?part=2&participantId=CA1F89C14CC54B08ACDD467F095168BC&assignmentId=cbacca2b-7d8e-431c-9a0b-2105266f93b9&projectId=3ce68dc4-89da-4770-948e-944f675a4a4c","CA1F89C14CC54B08ACDD467F095168BC-2025-05-28-15-46-27","[{""page_index"":0,""viewing_time"":1038}]","1038","","","","",""
"","","","","","image-button-response","11","71705","0.0-9.0-0.0","CA1F89C14CC54B08ACDD467F095168BC","CA1F89C14CC54B08ACDD467F095168BC","cbacca2b-7d8e-431c-9a0b-2105266f93b9","3ce68dc4-89da-4770-948e-944f675a4a4c","{""part"":""2"",""participantId"":""CA1F89C14CC54B08ACDD467F095168BC"",""assignmentId"":""cbacca2b-7d8e-431c-9a0b-2105266f93b9"",""projectId"":""3ce68dc4-89da-4770-948e-944f675a4a4c""}","https://test12345.live/?part=2&participantId=CA1F89C14CC54B08ACDD467F095168BC&assignmentId=cbacca2b-7d8e-431c-9a0b-2105266f93b9&projectId=3ce68dc4-89da-4770-948e-944f675a4a4c","CA1F89C14CC54B08ACDD467F095168BC-2025-05-28-15-46-27","","null","","images/semantic_sequence/visiting_cities_semantic/visiting_cities_semantic_0.png","null","",""
"","","","","","html-audio-response","12","83403","0.0-10.0","CA1F89C14CC54B08ACDD467F095168BC","CA1F89C14CC54B08ACDD467F095168BC","cbacca2b-7d8e-431c-9a0b-2105266f93b9","3ce68dc4-89da-4770-948e-944f675a4a4c","{""part"":""2"",""participantId"":""CA1F89C14CC54B08ACDD467F095168BC"",""assignmentId"":""cbacca2b-7d8e-431c-9a0b-2105266f93b9"",""projectId"":""3ce68dc4-89da-4770-948e-944f675a4a4c""}","https://test12345.live/?part=2&participantId=CA1F89C14CC54B08ACDD467F095168BC&assignmentId=cbacca2b-7d8e-431c-9a0b-2105266f93b9&projectId=3ce68dc4-89da-4770-948e-944f675a4a4c","CA1F89C14CC54B08ACDD467F095168BC-2025-05-28-15-46-27","","10668","","[""<span style=\""color: red; font-size: 24px\""> NOW RECORDING</span><p>Please say out loud all the images you saw in part 1 of the experiment, in the exact order you saw them. Try to recall as many images as you can, but remember: getting the order right is more important than the number of images you recall. </p>""]","","2","visiting_cities_semantic"
"","","","","","image-button-response","13","89415","0.0-11.0-0.0","CA1F89C14CC54B08ACDD467F095168BC","CA1F89C14CC54B08ACDD467F095168BC","cbacca2b-7d8e-431c-9a0b-2105266f93b9","3ce68dc4-89da-4770-948e-944f675a4a4c","{""part"":""2"",""participantId"":""CA1F89C14CC54B08ACDD467F095168BC"",""assignmentId"":""cbacca2b-7d8e-431c-9a0b-2105266f93b9"",""projectId"":""3ce68dc4-89da-4770-948e-944f675a4a4c""}","https://test12345.live/?part=2&participantId=CA1F89C14CC54B08ACDD467F095168BC&assignmentId=cbacca2b-7d8e-431c-9a0b-2105266f93b9&projectId=3ce68dc4-89da-4770-948e-944f675a4a4c","CA1F89C14CC54B08ACDD467F095168BC-2025-05-28-15-46-27","","null","","images/semantic_sequence/kitchen_operations_semantic/kitchen_operations_semantic_0.png","null","",""
"","","","","","html-audio-response","14","104739","0.0-12.0","CA1F89C14CC54B08ACDD467F095168BC","CA1F89C14CC54B08ACDD467F095168BC","cbacca2b-7d8e-431c-9a0b-2105266f93b9","3ce68dc4-89da-4770-948e-944f675a4a4c","{""part"":""2"",""participantId"":""CA1F89C14CC54B08ACDD467F095168BC"",""assignmentId"":""cbacca2b-7d8e-431c-9a0b-2105266f93b9"",""projectId"":""3ce68dc4-89da-4770-948e-944f675a4a4c""}","https://test12345.live/?part=2&participantId=CA1F89C14CC54B08ACDD467F095168BC&assignmentId=cbacca2b-7d8e-431c-9a0b-2105266f93b9&projectId=3ce68dc4-89da-4770-948e-944f675a4a4c","CA1F89C14CC54B08ACDD467F095168BC-2025-05-28-15-46-27","","14014","","[""<span style=\""color: red; font-size: 24px\""> NOW RECORDING</span><p>Please say out loud all the images you saw in part 1 of the experiment, in the exact order you saw them. Try to recall as many images as you can, but remember: getting the order right is more important than the number of images you recall. </p>""]","","30","kitchen_operations_semantic"
"","","","","","image-button-response","15","110748","0.0-13.0-0.0","CA1F89C14CC54B08ACDD467F095168BC","CA1F89C14CC54B08ACDD467F095168BC","cbacca2b-7d8e-431c-9a0b-2105266f93b9","3ce68dc4-89da-4770-948e-944f675a4a4c","{""part"":""2"",""participantId"":""CA1F89C14CC54B08ACDD467F095168BC"",""assignmentId"":""cbacca2b-7d8e-431c-9a0b-2105266f93b9"",""projectId"":""3ce68dc4-89da-4770-948e-944f675a4a4c""}","https://test12345.live/?part=2&participantId=CA1F89C14CC54B08ACDD467F095168BC&assignmentId=cbacca2b-7d8e-431c-9a0b-2105266f93b9&projectId=3ce68dc4-89da-4770-948e-944f675a4a4c","CA1F89C14CC54B08ACDD467F095168BC-2025-05-28-15-46-27","","null","","images/semantic_sequence/physical_activity_semantic/physical_activity_semantic_0.png","null","",""
"","","","","","html-audio-response","16","125659","0.0-14.0","CA1F89C14CC54B08ACDD467F095168BC","CA1F89C14CC54B08ACDD467F095168BC","cbacca2b-7d8e-431c-9a0b-2105266f93b9","3ce68dc4-89da-4770-948e-944f675a4a4c","{""part"":""2"",""participantId"":""CA1F89C14CC54B08ACDD467F095168BC"",""assignmentId"":""cbacca2b-7d8e-431c-9a0b-2105266f93b9"",""projectId"":""3ce68dc4-89da-4770-948e-944f675a4a4c""}","https://test12345.live/?part=2&participantId=CA1F89C14CC54B08ACDD467F095168BC&assignmentId=cbacca2b-7d8e-431c-9a0b-2105266f93b9&projectId=3ce68dc4-89da-4770-948e-944f675a4a4c","CA1F89C14CC54B08ACDD467F095168BC-2025-05-28-15-46-27","","13514","","[""<span style=\""color: red; font-size: 24px\""> NOW RECORDING</span><p>Please say out loud all the images you saw in part 1 of the experiment, in the exact order you saw them. Try to recall as many images as you can, but remember: getting the order right is more important than the number of images you recall. </p>""]","","1","physical_activity_semantic"
"","","","","","image-button-response","17","131668","0.0-15.0-0.0","CA1F89C14CC54B08ACDD467F095168BC","CA1F89C14CC54B08ACDD467F095168BC","cbacca2b-7d8e-431c-9a0b-2105266f93b9","3ce68dc4-89da-4770-948e-944f675a4a4c","{""part"":""2"",""participantId"":""CA1F89C14CC54B08ACDD467F095168BC"",""assignmentId"":""cbacca2b-7d8e-431c-9a0b-2105266f93b9"",""projectId"":""3ce68dc4-89da-4770-948e-944f675a4a4c""}","https://test12345.live/?part=2&participantId=CA1F89C14CC54B08ACDD467F095168BC&assignmentId=cbacca2b-7d8e-431c-9a0b-2105266f93b9&projectId=3ce68dc4-89da-4770-948e-944f675a4a4c","CA1F89C14CC54B08ACDD467F095168BC-2025-05-28-15-46-27","","null","","images/semantic_sequence/cat_care_semantic/cat_care_semantic_0.png","null","",""
"","","","","","html-audio-response","18","143026","0.0-16.0","CA1F89C14CC54B08ACDD467F095168BC","CA1F89C14CC54B08ACDD467F095168BC","cbacca2b-7d8e-431c-9a0b-2105266f93b9","3ce68dc4-89da-4770-948e-944f675a4a4c","{""part"":""2"",""participantId"":""CA1F89C14CC54B08ACDD467F095168BC"",""assignmentId"":""cbacca2b-7d8e-431c-9a0b-2105266f93b9"",""projectId"":""3ce68dc4-89da-4770-948e-944f675a4a4c""}","https://test12345.live/?part=2&participantId=CA1F89C14CC54B08ACDD467F095168BC&assignmentId=cbacca2b-7d8e-431c-9a0b-2105266f93b9&projectId=3ce68dc4-89da-4770-948e-944f675a4a4c","CA1F89C14CC54B08ACDD467F095168BC-2025-05-28-15-46-27","","10280","","[""<span style=\""color: red; font-size: 24px\""> NOW RECORDING</span><p>Please say out loud all the images you saw in part 1 of the experiment, in the exact order you saw them. Try to recall as many images as you can, but remember: getting the order right is more important than the number of images you recall. </p>""]","","33","cat_care_semantic"
"","","","","","image-button-response","19","149037","0.0-17.0-0.0","CA1F89C14CC54B08ACDD467F095168BC","CA1F89C14CC54B08ACDD467F095168BC","cbacca2b-7d8e-431c-9a0b-2105266f93b9","3ce68dc4-89da-4770-948e-944f675a4a4c","{""part"":""2"",""participantId"":""CA1F89C14CC54B08ACDD467F095168BC"",""assignmentId"":""cbacca2b-7d8e-431c-9a0b-2105266f93b9"",""projectId"":""3ce68dc4-89da-4770-948e-944f675a4a4c""}","https://test12345.live/?part=2&participantId=CA1F89C14CC54B08ACDD467F095168BC&assignmentId=cbacca2b-7d8e-431c-9a0b-2105266f93b9&projectId=3ce68dc4-89da-4770-948e-944f675a4a4c","CA1F89C14CC54B08ACDD467F095168BC-2025-05-28-15-46-27","","null","","images/schematic_sequence/interview_scheme/interview_scheme_0.png","null","",""
"","","","","","html-audio-response","20","169230","0.0-18.0","CA1F89C14CC54B08ACDD467F095168BC","CA1F89C14CC54B08ACDD467F095168BC","cbacca2b-7d8e-431c-9a0b-2105266f93b9","3ce68dc4-89da-4770-948e-944f675a4a4c","{""part"":""2"",""participantId"":""CA1F89C14CC54B08ACDD467F095168BC"",""assignmentId"":""cbacca2b-7d8e-431c-9a0b-2105266f93b9"",""projectId"":""3ce68dc4-89da-4770-948e-944f675a4a4c""}","https://test12345.live/?part=2&participantId=CA1F89C14CC54B08ACDD467F095168BC&assignmentId=cbacca2b-7d8e-431c-9a0b-2105266f93b9&projectId=3ce68dc4-89da-4770-948e-944f675a4a4c","CA1F89C14CC54B08ACDD467F095168BC-2025-05-28-15-46-27","","19461","","[""<span style=\""color: red; font-size: 24px\""> NOW RECORDING</span><p>Please say out loud all the images you saw in part 1 of the experiment, in the exact order you saw them. Try to recall as many images as you can, but remember: getting the order right is more important than the number of images you recall. </p>""]","","1","interview_scheme"
"","","","","","image-button-response","21","175243","0.0-19.0-0.0","CA1F89C14CC54B08ACDD467F095168BC","CA1F89C14CC54B08ACDD467F095168BC","cbacca2b-7d8e-431c-9a0b-2105266f93b9","3ce68dc4-89da-4770-948e-944f675a4a4c","{""part"":""2"",""participantId"":""CA1F89C14CC54B08ACDD467F095168BC"",""assignmentId"":""cbacca2b-7d8e-431c-9a0b-2105266f93b9"",""projectId"":""3ce68dc4-89da-4770-948e-944f675a4a4c""}","https://test12345.live/?part=2&participantId=CA1F89C14CC54B08ACDD467F095168BC&assignmentId=cbacca2b-7d8e-431c-9a0b-2105266f93b9&projectId=3ce68dc4-89da-4770-948e-944f675a4a4c","CA1F89C14CC54B08ACDD467F095168BC-2025-05-28-15-46-27","","null","","images/causal_sequence/saving_a_cat_causal/saving_a_cat_causal_0.png","null","",""
"","","","","","html-audio-response","22","197015","0.0-20.0","CA1F89C14CC54B08ACDD467F095168BC","CA1F89C14CC54B08ACDD467F095168BC","cbacca2b-7d8e-431c-9a0b-2105266f93b9","3ce68dc4-89da-4770-948e-944f675a4a4c","{""part"":""2"",""participantId"":""CA1F89C14CC54B08ACDD467F095168BC"",""assignmentId"":""cbacca2b-7d8e-431c-9a0b-2105266f93b9"",""projectId"":""3ce68dc4-89da-4770-948e-944f675a4a4c""}","https://test12345.live/?part=2&participantId=CA1F89C14CC54B08ACDD467F095168BC&assignmentId=cbacca2b-7d8e-431c-9a0b-2105266f93b9&projectId=3ce68dc4-89da-4770-948e-944f675a4a4c","CA1F89C14CC54B08ACDD467F095168BC-2025-05-28-15-46-27","","20799","","[""<span style=\""color: red; font-size: 24px\""> NOW RECORDING</span><p>Please say out loud all the images you saw in part 1 of the experiment, in the exact order you saw them. Try to recall as many images as you can, but remember: getting the order right is more important than the number of images you recall. </p>""]","","31","saving_a_cat_causal"
"","","","","","image-button-response","23","203029","0.0-21.0-0.0","CA1F89C14CC54B08ACDD467F095168BC","CA1F89C14CC54B08ACDD467F095168BC","cbacca2b-7d8e-431c-9a0b-2105266f93b9","3ce68dc4-89da-4770-948e-944f675a4a4c","{""part"":""2"",""participantId"":""CA1F89C14CC54B08ACDD467F095168BC"",""assignmentId"":""cbacca2b-7d8e-431c-9a0b-2105266f93b9"",""projectId"":""3ce68dc4-89da-4770-948e-944f675a4a4c""}","https://test12345.live/?part=2&participantId=CA1F89C14CC54B08ACDD467F095168BC&assignmentId=cbacca2b-7d8e-431c-9a0b-2105266f93b9&projectId=3ce68dc4-89da-4770-948e-944f675a4a4c","CA1F89C14CC54B08ACDD467F095168BC-2025-05-28-15-46-27","","null","","images/causal_sequence/package_causal/package_causal_0.png","null","",""
"","","","","","html-audio-response","24","222034","0.0-22.0","CA1F89C14CC54B08ACDD467F095168BC","CA1F89C14CC54B08ACDD467F095168BC","cbacca2b-7d8e-431c-9a0b-2105266f93b9","3ce68dc4-89da-4770-948e-944f675a4a4c","{""part"":""2"",""participantId"":""CA1F89C14CC54B08ACDD467F095168BC"",""assignmentId"":""cbacca2b-7d8e-431c-9a0b-2105266f93b9"",""projectId"":""3ce68dc4-89da-4770-948e-944f675a4a4c""}","https://test12345.live/?part=2&participantId=CA1F89C14CC54B08ACDD467F095168BC&assignmentId=cbacca2b-7d8e-431c-9a0b-2105266f93b9&projectId=3ce68dc4-89da-4770-948e-944f675a4a4c","CA1F89C14CC54B08ACDD467F095168BC-2025-05-28-15-46-27","","18183","","[""<span style=\""color: red; font-size: 24px\""> NOW RECORDING</span><p>Please say out loud all the images you saw in part 1 of the experiment, in the exact order you saw them. Try to recall as many images as you can, but remember: getting the order right is more important than the number of images you recall. </p>""]","","27","package_causal"
"","","","","","image-button-response","25","228045","0.0-23.0-0.0","CA1F89C14CC54B08ACDD467F095168BC","CA1F89C14CC54B08ACDD467F095168BC","cbacca2b-7d8e-431c-9a0b-2105266f93b9","3ce68dc4-89da-4770-948e-944f675a4a4c","{""part"":""2"",""participantId"":""CA1F89C14CC54B08ACDD467F095168BC"",""assignmentId"":""cbacca2b-7d8e-431c-9a0b-2105266f93b9"",""projectId"":""3ce68dc4-89da-4770-948e-944f675a4a4c""}","https://test12345.live/?part=2&participantId=CA1F89C14CC54B08ACDD467F095168BC&assignmentId=cbacca2b-7d8e-431c-9a0b-2105266f93b9&projectId=3ce68dc4-89da-4770-948e-944f675a4a4c","CA1F89C14CC54B08ACDD467F095168BC-2025-05-28-15-46-27","","null","","images/causal_sequence/dog_causal/dog_causal_0.png","null","",""
"","","","","","html-audio-response","26","234735","0.0-24.0","CA1F89C14CC54B08ACDD467F095168BC","CA1F89C14CC54B08ACDD467F095168BC","cbacca2b-7d8e-431c-9a0b-2105266f93b9","3ce68dc4-89da-4770-948e-944f675a4a4c","{""part"":""2"",""participantId"":""CA1F89C14CC54B08ACDD467F095168BC"",""assignmentId"":""cbacca2b-7d8e-431c-9a0b-2105266f93b9"",""projectId"":""3ce68dc4-89da-4770-948e-944f675a4a4c""}","https://test12345.live/?part=2&participantId=CA1F89C14CC54B08ACDD467F095168BC&assignmentId=cbacca2b-7d8e-431c-9a0b-2105266f93b9&projectId=3ce68dc4-89da-4770-948e-944f675a4a4c","CA1F89C14CC54B08ACDD467F095168BC-2025-05-28-15-46-27","","5832","","[""<span style=\""color: red; font-size: 24px\""> NOW RECORDING</span><p>Please say out loud all the images you saw in part 1 of the experiment, in the exact order you saw them. Try to recall as many images as you can, but remember: getting the order right is more important than the number of images you recall. </p>""]","","2","dog_causal"
"","","","","","image-button-response","27","240745","0.0-25.0-0.0","CA1F89C14CC54B08ACDD467F095168BC","CA1F89C14CC54B08ACDD467F095168BC","cbacca2b-7d8e-431c-9a0b-2105266f93b9","3ce68dc4-89da-4770-948e-944f675a4a4c","{""part"":""2"",""participantId"":""CA1F89C14CC54B08ACDD467F095168BC"",""assignmentId"":""cbacca2b-7d8e-431c-9a0b-2105266f93b9"",""projectId"":""3ce68dc4-89da-4770-948e-944f675a4a4c""}","https://test12345.live/?part=2&participantId=CA1F89C14CC54B08ACDD467F095168BC&assignmentId=cbacca2b-7d8e-431c-9a0b-2105266f93b9&projectId=3ce68dc4-89da-4770-948e-944f675a4a4c","CA1F89C14CC54B08ACDD467F095168BC-2025-05-28-15-46-27","","null","","images/semantic_sequence/exploring_nature_semantic/exploring_nature_semantic_0.png","null","",""
"","","","","","html-audio-response","28","251103","0.0-26.0","CA1F89C14CC54B08ACDD467F095168BC","CA1F89C14CC54B08ACDD467F095168BC","cbacca2b-7d8e-431c-9a0b-2105266f93b9","3ce68dc4-89da-4770-948e-944f675a4a4c","{""part"":""2"",""participantId"":""CA1F89C14CC54B08ACDD467F095168BC"",""assignmentId"":""cbacca2b-7d8e-431c-9a0b-2105266f93b9"",""projectId"":""3ce68dc4-89da-4770-948e-944f675a4a4c""}","https://test12345.live/?part=2&participantId=CA1F89C14CC54B08ACDD467F095168BC&assignmentId=cbacca2b-7d8e-431c-9a0b-2105266f93b9&projectId=3ce68dc4-89da-4770-948e-944f675a4a4c","CA1F89C14CC54B08ACDD467F095168BC-2025-05-28-15-46-27","","9333","","[""<span style=\""color: red; font-size: 24px\""> NOW RECORDING</span><p>Please say out loud all the images you saw in part 1 of the experiment, in the exact order you saw them. Try to recall as many images as you can, but remember: getting the order right is more important than the number of images you recall. </p>""]","","2","exploring_nature_semantic"
"","","","","","image-button-response","29","257110","0.0-27.0-0.0","CA1F89C14CC54B08ACDD467F095168BC","CA1F89C14CC54B08ACDD467F095168BC","cbacca2b-7d8e-431c-9a0b-2105266f93b9","3ce68dc4-89da-4770-948e-944f675a4a4c","{""part"":""2"",""participantId"":""CA1F89C14CC54B08ACDD467F095168BC"",""assignmentId"":""cbacca2b-7d8e-431c-9a0b-2105266f93b9"",""projectId"":""3ce68dc4-89da-4770-948e-944f675a4a4c""}","https://test12345.live/?part=2&participantId=CA1F89C14CC54B08ACDD467F095168BC&assignmentId=cbacca2b-7d8e-431c-9a0b-2105266f93b9&projectId=3ce68dc4-89da-4770-948e-944f675a4a4c","CA1F89C14CC54B08ACDD467F095168BC-2025-05-28-15-46-27","","null","","images/semantic_sequence/redecorating_semantic/redecorating_semantic_0.png","null","",""
"","","","","","html-audio-response","30","264004","0.0-28.0","CA1F89C14CC54B08ACDD467F095168BC","CA1F89C14CC54B08ACDD467F095168BC","cbacca2b-7d8e-431c-9a0b-2105266f93b9","3ce68dc4-89da-4770-948e-944f675a4a4c","{""part"":""2"",""participantId"":""CA1F89C14CC54B08ACDD467F095168BC"",""assignmentId"":""cbacca2b-7d8e-431c-9a0b-2105266f93b9"",""projectId"":""3ce68dc4-89da-4770-948e-944f675a4a4c""}","https://test12345.live/?part=2&participantId=CA1F89C14CC54B08ACDD467F095168BC&assignmentId=cbacca2b-7d8e-431c-9a0b-2105266f93b9&projectId=3ce68dc4-89da-4770-948e-944f675a4a4c","CA1F89C14CC54B08ACDD467F095168BC-2025-05-28-15-46-27","","5997","","[""<span style=\""color: red; font-size: 24px\""> NOW RECORDING</span><p>Please say out loud all the images you saw in part 1 of the experiment, in the exact order you saw them. Try to recall as many images as you can, but remember: getting the order right is more important than the number of images you recall. </p>""]","","34","redecorating_semantic"
"","","","","","image-button-response","31","270010","0.0-29.0-0.0","CA1F89C14CC54B08ACDD467F095168BC","CA1F89C14CC54B08ACDD467F095168BC","cbacca2b-7d8e-431c-9a0b-2105266f93b9","3ce68dc4-89da-4770-948e-944f675a4a4c","{""part"":""2"",""participantId"":""CA1F89C14CC54B08ACDD467F095168BC"",""assignmentId"":""cbacca2b-7d8e-431c-9a0b-2105266f93b9"",""projectId"":""3ce68dc4-89da-4770-948e-944f675a4a4c""}","https://test12345.live/?part=2&participantId=CA1F89C14CC54B08ACDD467F095168BC&assignmentId=cbacca2b-7d8e-431c-9a0b-2105266f93b9&projectId=3ce68dc4-89da-4770-948e-944f675a4a4c","CA1F89C14CC54B08ACDD467F095168BC-2025-05-28-15-46-27","","null","","images/causal_sequence/museum_causal/museum_causal_0.png","null","",""
"","","","","","html-audio-response","32","279473","0.0-30.0","CA1F89C14CC54B08ACDD467F095168BC","CA1F89C14CC54B08ACDD467F095168BC","cbacca2b-7d8e-431c-9a0b-2105266f93b9","3ce68dc4-89da-4770-948e-944f675a4a4c","{""part"":""2"",""participantId"":""CA1F89C14CC54B08ACDD467F095168BC"",""assignmentId"":""cbacca2b-7d8e-431c-9a0b-2105266f93b9"",""projectId"":""3ce68dc4-89da-4770-948e-944f675a4a4c""}","https://test12345.live/?part=2&participantId=CA1F89C14CC54B08ACDD467F095168BC&assignmentId=cbacca2b-7d8e-431c-9a0b-2105266f93b9&projectId=3ce68dc4-89da-4770-948e-944f675a4a4c","CA1F89C14CC54B08ACDD467F095168BC-2025-05-28-15-46-27","","8481","","[""<span style=\""color: red; font-size: 24px\""> NOW RECORDING</span><p>Please say out loud all the images you saw in part 1 of the experiment, in the exact order you saw them. Try to recall as many images as you can, but remember: getting the order right is more important than the number of images you recall. </p>""]","","3","museum_causal"
"","","","","","image-button-response","33","285483","0.0-31.0-0.0","CA1F89C14CC54B08ACDD467F095168BC","CA1F89C14CC54B08ACDD467F095168BC","cbacca2b-7d8e-431c-9a0b-2105266f93b9","3ce68dc4-89da-4770-948e-944f675a4a4c","{""part"":""2"",""participantId"":""CA1F89C14CC54B08ACDD467F095168BC"",""assignmentId"":""cbacca2b-7d8e-431c-9a0b-2105266f93b9"",""projectId"":""3ce68dc4-89da-4770-948e-944f675a4a4c""}","https://test12345.live/?part=2&participantId=CA1F89C14CC54B08ACDD467F095168BC&assignmentId=cbacca2b-7d8e-431c-9a0b-2105266f93b9&projectId=3ce68dc4-89da-4770-948e-944f675a4a4c","CA1F89C14CC54B08ACDD467F095168BC-2025-05-28-15-46-27","","null","","images/semantic_sequence/creative_activities_semantic/creative_activities_semantic_0.png","null","",""
"","","","","","html-audio-response","34","294975","0.0-32.0","CA1F89C14CC54B08ACDD467F095168BC","CA1F89C14CC54B08ACDD467F095168BC","cbacca2b-7d8e-431c-9a0b-2105266f93b9","3ce68dc4-89da-4770-948e-944f675a4a4c","{""part"":""2"",""participantId"":""CA1F89C14CC54B08ACDD467F095168BC"",""assignmentId"":""cbacca2b-7d8e-431c-9a0b-2105266f93b9"",""projectId"":""3ce68dc4-89da-4770-948e-944f675a4a4c""}","https://test12345.live/?part=2&participantId=CA1F89C14CC54B08ACDD467F095168BC&assignmentId=cbacca2b-7d8e-431c-9a0b-2105266f93b9&projectId=3ce68dc4-89da-4770-948e-944f675a4a4c","CA1F89C14CC54B08ACDD467F095168BC-2025-05-28-15-46-27","","8464","","[""<span style=\""color: red; font-size: 24px\""> NOW RECORDING</span><p>Please say out loud all the images you saw in part 1 of the experiment, in the exact order you saw them. Try to recall as many images as you can, but remember: getting the order right is more important than the number of images you recall. </p>""]","","33","creative_activities_semantic"
"","","","","","image-button-response","35","300982","0.0-33.0-0.0","CA1F89C14CC54B08ACDD467F095168BC","CA1F89C14CC54B08ACDD467F095168BC","cbacca2b-7d8e-431c-9a0b-2105266f93b9","3ce68dc4-89da-4770-948e-944f675a4a4c","{""part"":""2"",""participantId"":""CA1F89C14CC54B08ACDD467F095168BC"",""assignmentId"":""cbacca2b-7d8e-431c-9a0b-2105266f93b9"",""projectId"":""3ce68dc4-89da-4770-948e-944f675a4a4c""}","https://test12345.live/?part=2&participantId=CA1F89C14CC54B08ACDD467F095168BC&assignmentId=cbacca2b-7d8e-431c-9a0b-2105266f93b9&projectId=3ce68dc4-89da-4770-948e-944f675a4a4c","CA1F89C14CC54B08ACDD467F095168BC-2025-05-28-15-46-27","","null","","images/schematic_sequence/hotel_scheme/hotel_scheme_0.png","null","",""
"","","","","","html-audio-response","36","314677","0.0-34.0","CA1F89C14CC54B08ACDD467F095168BC","CA1F89C14CC54B08ACDD467F095168BC","cbacca2b-7d8e-431c-9a0b-2105266f93b9","3ce68dc4-89da-4770-948e-944f675a4a4c","{""part"":""2"",""participantId"":""CA1F89C14CC54B08ACDD467F095168BC"",""assignmentId"":""cbacca2b-7d8e-431c-9a0b-2105266f93b9"",""projectId"":""3ce68dc4-89da-4770-948e-944f675a4a4c""}","https://test12345.live/?part=2&participantId=CA1F89C14CC54B08ACDD467F095168BC&assignmentId=cbacca2b-7d8e-431c-9a0b-2105266f93b9&projectId=3ce68dc4-89da-4770-948e-944f675a4a4c","CA1F89C14CC54B08ACDD467F095168BC-2025-05-28-15-46-27","","12698","","[""<span style=\""color: red; font-size: 24px\""> NOW RECORDING</span><p>Please say out loud all the images you saw in part 1 of the experiment, in the exact order you saw them. Try to recall as many images as you can, but remember: getting the order right is more important than the number of images you recall. </p>""]","","34","hotel_scheme"
"","","","","","instructions","37","316176","0.0-35.0","CA1F89C14CC54B08ACDD467F095168BC","CA1F89C14CC54B08ACDD467F095168BC","cbacca2b-7d8e-431c-9a0b-2105266f93b9","3ce68dc4-89da-4770-948e-944f675a4a4c","{""part"":""2"",""participantId"":""CA1F89C14CC54B08ACDD467F095168BC"",""assignmentId"":""cbacca2b-7d8e-431c-9a0b-2105266f93b9"",""projectId"":""3ce68dc4-89da-4770-948e-944f675a4a4c""}","https://test12345.live/?part=2&participantId=CA1F89C14CC54B08ACDD467F095168BC&assignmentId=cbacca2b-7d8e-431c-9a0b-2105266f93b9&projectId=3ce68dc4-89da-4770-948e-944f675a4a4c","CA1F89C14CC54B08ACDD467F095168BC-2025-05-28-15-46-27","[{""page_index"":0,""viewing_time"":1494}]","1494","","","","",""
"","","","","","image-button-response","38","322182","0.0-36.0-0.0","CA1F89C14CC54B08ACDD467F095168BC","CA1F89C14CC54B08ACDD467F095168BC","cbacca2b-7d8e-431c-9a0b-2105266f93b9","3ce68dc4-89da-4770-948e-944f675a4a4c","{""part"":""2"",""participantId"":""CA1F89C14CC54B08ACDD467F095168BC"",""assignmentId"":""cbacca2b-7d8e-431c-9a0b-2105266f93b9"",""projectId"":""3ce68dc4-89da-4770-948e-944f675a4a4c""}","https://test12345.live/?part=2&participantId=CA1F89C14CC54B08ACDD467F095168BC&assignmentId=cbacca2b-7d8e-431c-9a0b-2105266f93b9&projectId=3ce68dc4-89da-4770-948e-944f675a4a4c","CA1F89C14CC54B08ACDD467F095168BC-2025-05-28-15-46-27","","null","","images/schematic_sequence/restaurant_scheme/restaurant_scheme_0.png","null","",""
"","","","","","html-audio-response","39","330911","0.0-37.0","CA1F89C14CC54B08ACDD467F095168BC","CA1F89C14CC54B08ACDD467F095168BC","cbacca2b-7d8e-431c-9a0b-2105266f93b9","3ce68dc4-89da-4770-948e-944f675a4a4c","{""part"":""2"",""participantId"":""CA1F89C14CC54B08ACDD467F095168BC"",""assignmentId"":""cbacca2b-7d8e-431c-9a0b-2105266f93b9"",""projectId"":""3ce68dc4-89da-4770-948e-944f675a4a4c""}","https://test12345.live/?part=2&participantId=CA1F89C14CC54B08ACDD467F095168BC&assignmentId=cbacca2b-7d8e-431c-9a0b-2105266f93b9&projectId=3ce68dc4-89da-4770-948e-944f675a4a4c","CA1F89C14CC54B08ACDD467F095168BC-2025-05-28-15-46-27","","7797","","[""<span style=\""color: red; font-size: 24px\""> NOW RECORDING</span><p>Please say out loud all the images you saw in part 1 of the experiment, in the exact order you saw them. Try to recall as many images as you can, but remember: getting the order right is more important than the number of images you recall. </p>""]","","2","restaurant_scheme"
"","","","","","image-button-response","40","336919","0.0-38.0-0.0","CA1F89C14CC54B08ACDD467F095168BC","CA1F89C14CC54B08ACDD467F095168BC","cbacca2b-7d8e-431c-9a0b-2105266f93b9","3ce68dc4-89da-4770-948e-944f675a4a4c","{""part"":""2"",""participantId"":""CA1F89C14CC54B08ACDD467F095168BC"",""assignmentId"":""cbacca2b-7d8e-431c-9a0b-2105266f93b9"",""projectId"":""3ce68dc4-89da-4770-948e-944f675a4a4c""}","https://test12345.live/?part=2&participantId=CA1F89C14CC54B08ACDD467F095168BC&assignmentId=cbacca2b-7d8e-431c-9a0b-2105266f93b9&projectId=3ce68dc4-89da-4770-948e-944f675a4a4c","CA1F89C14CC54B08ACDD467F095168BC-2025-05-28-15-46-27","","null","","images/semantic_sequence/market_semantic/market_semantic_0.png","null","",""
"","","","","","html-audio-response","41","343546","0.0-39.0","CA1F89C14CC54B08ACDD467F095168BC","CA1F89C14CC54B08ACDD467F095168BC","cbacca2b-7d8e-431c-9a0b-2105266f93b9","3ce68dc4-89da-4770-948e-944f675a4a4c","{""part"":""2"",""participantId"":""CA1F89C14CC54B08ACDD467F095168BC"",""assignmentId"":""cbacca2b-7d8e-431c-9a0b-2105266f93b9"",""projectId"":""3ce68dc4-89da-4770-948e-944f675a4a4c""}","https://test12345.live/?part=2&participantId=CA1F89C14CC54B08ACDD467F095168BC&assignmentId=cbacca2b-7d8e-431c-9a0b-2105266f93b9&projectId=3ce68dc4-89da-4770-948e-944f675a4a4c","CA1F89C14CC54B08ACDD467F095168BC-2025-05-28-15-46-27","","5836","","[""<span style=\""color: red; font-size: 24px\""> NOW RECORDING</span><p>Please say out loud all the images you saw in part 1 of the experiment, in the exact order you saw them. Try to recall as many images as you can, but remember: getting the order right is more important than the number of images you recall. </p>""]","","1","market_semantic"
"","","","","","image-button-response","42","349555","0.0-40.0-0.0","CA1F89C14CC54B08ACDD467F095168BC","CA1F89C14CC54B08ACDD467F095168BC","cbacca2b-7d8e-431c-9a0b-2105266f93b9","3ce68dc4-89da-4770-948e-944f675a4a4c","{""part"":""2"",""participantId"":""CA1F89C14CC54B08ACDD467F095168BC"",""assignmentId"":""cbacca2b-7d8e-431c-9a0b-2105266f93b9"",""projectId"":""3ce68dc4-89da-4770-948e-944f675a4a4c""}","https://test12345.live/?part=2&participantId=CA1F89C14CC54B08ACDD467F095168BC&assignmentId=cbacca2b-7d8e-431c-9a0b-2105266f93b9&projectId=3ce68dc4-89da-4770-948e-944f675a4a4c","CA1F89C14CC54B08ACDD467F095168BC-2025-05-28-15-46-27","","null","","images/causal_sequence/the_performance_causal/the_performance_causal_0.png","null","",""
"","","","","","html-audio-response","43","365631","0.0-41.0","CA1F89C14CC54B08ACDD467F095168BC","CA1F89C14CC54B08ACDD467F095168BC","cbacca2b-7d8e-431c-9a0b-2105266f93b9","3ce68dc4-89da-4770-948e-944f675a4a4c","{""part"":""2"",""participantId"":""CA1F89C14CC54B08ACDD467F095168BC"",""assignmentId"":""cbacca2b-7d8e-431c-9a0b-2105266f93b9"",""projectId"":""3ce68dc4-89da-4770-948e-944f675a4a4c""}","https://test12345.live/?part=2&participantId=CA1F89C14CC54B08ACDD467F095168BC&assignmentId=cbacca2b-7d8e-431c-9a0b-2105266f93b9&projectId=3ce68dc4-89da-4770-948e-944f675a4a4c","CA1F89C14CC54B08ACDD467F095168BC-2025-05-28-15-46-27","","14415","","[""<span style=\""color: red; font-size: 24px\""> NOW RECORDING</span><p>Please say out loud all the images you saw in part 1 of the experiment, in the exact order you saw them. Try to recall as many images as you can, but remember: getting the order right is more important than the number of images you recall. </p>""]","","35","the_performance_causal"
"","","","","","image-button-response","44","371642","0.0-42.0-0.0","CA1F89C14CC54B08ACDD467F095168BC","CA1F89C14CC54B08ACDD467F095168BC","cbacca2b-7d8e-431c-9a0b-2105266f93b9","3ce68dc4-89da-4770-948e-944f675a4a4c","{""part"":""2"",""participantId"":""CA1F89C14CC54B08ACDD467F095168BC"",""assignmentId"":""cbacca2b-7d8e-431c-9a0b-2105266f93b9"",""projectId"":""3ce68dc4-89da-4770-948e-944f675a4a4c""}","https://test12345.live/?part=2&participantId=CA1F89C14CC54B08ACDD467F095168BC&assignmentId=cbacca2b-7d8e-431c-9a0b-2105266f93b9&projectId=3ce68dc4-89da-4770-948e-944f675a4a4c","CA1F89C14CC54B08ACDD467F095168BC-2025-05-28-15-46-27","","null","","images/causal_sequence/coin_causal/coin_causal_0.png","null","",""
"","","","","","html-audio-response","45","384350","0.0-43.0","CA1F89C14CC54B08ACDD467F095168BC","CA1F89C14CC54B08ACDD467F095168BC","cbacca2b-7d8e-431c-9a0b-2105266f93b9","3ce68dc4-89da-4770-948e-944f675a4a4c","{""part"":""2"",""participantId"":""CA1F89C14CC54B08ACDD467F095168BC"",""assignmentId"":""cbacca2b-7d8e-431c-9a0b-2105266f93b9"",""projectId"":""3ce68dc4-89da-4770-948e-944f675a4a4c""}","https://test12345.live/?part=2&participantId=CA1F89C14CC54B08ACDD467F095168BC&assignmentId=cbacca2b-7d8e-431c-9a0b-2105266f93b9&projectId=3ce68dc4-89da-4770-948e-944f675a4a4c","CA1F89C14CC54B08ACDD467F095168BC-2025-05-28-15-46-27","","11648","","[""<span style=\""color: red; font-size: 24px\""> NOW RECORDING</span><p>Please say out loud all the images you saw in part 1 of the experiment, in the exact order you saw them. Try to recall as many images as you can, but remember: getting the order right is more important than the number of images you recall. </p>""]","","6","coin_causal"
"","","","","","image-button-response","46","390360","0.0-44.0-0.0","CA1F89C14CC54B08ACDD467F095168BC","CA1F89C14CC54B08ACDD467F095168BC","cbacca2b-7d8e-431c-9a0b-2105266f93b9","3ce68dc4-89da-4770-948e-944f675a4a4c","{""part"":""2"",""participantId"":""CA1F89C14CC54B08ACDD467F095168BC"",""assignmentId"":""cbacca2b-7d8e-431c-9a0b-2105266f93b9"",""projectId"":""3ce68dc4-89da-4770-948e-944f675a4a4c""}","https://test12345.live/?part=2&participantId=CA1F89C14CC54B08ACDD467F095168BC&assignmentId=cbacca2b-7d8e-431c-9a0b-2105266f93b9&projectId=3ce68dc4-89da-4770-948e-944f675a4a4c","CA1F89C14CC54B08ACDD467F095168BC-2025-05-28-15-46-27","","null","","images/schematic_sequence/supermarket_scheme/supermarket_scheme_0.png","null","",""
"","","","","","html-audio-response","47","398136","0.0-45.0","CA1F89C14CC54B08ACDD467F095168BC","CA1F89C14CC54B08ACDD467F095168BC","cbacca2b-7d8e-431c-9a0b-2105266f93b9","3ce68dc4-89da-4770-948e-944f675a4a4c","{""part"":""2"",""participantId"":""CA1F89C14CC54B08ACDD467F095168BC"",""assignmentId"":""cbacca2b-7d8e-431c-9a0b-2105266f93b9"",""projectId"":""3ce68dc4-89da-4770-948e-944f675a4a4c""}","https://test12345.live/?part=2&participantId=CA1F89C14CC54B08ACDD467F095168BC&assignmentId=cbacca2b-7d8e-431c-9a0b-2105266f93b9&projectId=3ce68dc4-89da-4770-948e-944f675a4a4c","CA1F89C14CC54B08ACDD467F095168BC-2025-05-28-15-46-27","","7067","","[""<span style=\""color: red; font-size: 24px\""> NOW RECORDING</span><p>Please say out loud all the images you saw in part 1 of the experiment, in the exact order you saw them. Try to recall as many images as you can, but remember: getting the order right is more important than the number of images you recall. </p>""]","","1","supermarket_scheme"
"","","","","","image-button-response","48","404145","0.0-46.0-0.0","CA1F89C14CC54B08ACDD467F095168BC","CA1F89C14CC54B08ACDD467F095168BC","cbacca2b-7d8e-431c-9a0b-2105266f93b9","3ce68dc4-89da-4770-948e-944f675a4a4c","{""part"":""2"",""participantId"":""CA1F89C14CC54B08ACDD467F095168BC"",""assignmentId"":""cbacca2b-7d8e-431c-9a0b-2105266f93b9"",""projectId"":""3ce68dc4-89da-4770-948e-944f675a4a4c""}","https://test12345.live/?part=2&participantId=CA1F89C14CC54B08ACDD467F095168BC&assignmentId=cbacca2b-7d8e-431c-9a0b-2105266f93b9&projectId=3ce68dc4-89da-4770-948e-944f675a4a4c","CA1F89C14CC54B08ACDD467F095168BC-2025-05-28-15-46-27","","null","","images/semantic_sequence/maintaining_a_car_semantic/maintaining_a_car_semantic_0.png","null","",""
"","","","","","html-audio-response","49","417820","0.0-47.0","CA1F89C14CC54B08ACDD467F095168BC","CA1F89C14CC54B08ACDD467F095168BC","cbacca2b-7d8e-431c-9a0b-2105266f93b9","3ce68dc4-89da-4770-948e-944f675a4a4c","{""part"":""2"",""participantId"":""CA1F89C14CC54B08ACDD467F095168BC"",""assignmentId"":""cbacca2b-7d8e-431c-9a0b-2105266f93b9"",""projectId"":""3ce68dc4-89da-4770-948e-944f675a4a4c""}","https://test12345.live/?part=2&participantId=CA1F89C14CC54B08ACDD467F095168BC&assignmentId=cbacca2b-7d8e-431c-9a0b-2105266f93b9&projectId=3ce68dc4-89da-4770-948e-944f675a4a4c","CA1F89C14CC54B08ACDD467F095168BC-2025-05-28-15-46-27","","12648","","[""<span style=\""color: red; font-size: 24px\""> NOW RECORDING</span><p>Please say out loud all the images you saw in part 1 of the experiment, in the exact order you saw them. Try to recall as many images as you can, but remember: getting the order right is more important than the number of images you recall. </p>""]","","31","maintaining_a_car_semantic"
"","","","","","image-button-response","50","423829","0.0-48.0-0.0","CA1F89C14CC54B08ACDD467F095168BC","CA1F89C14CC54B08ACDD467F095168BC","cbacca2b-7d8e-431c-9a0b-2105266f93b9","3ce68dc4-89da-4770-948e-944f675a4a4c","{""part"":""2"",""participantId"":""CA1F89C14CC54B08ACDD467F095168BC"",""assignmentId"":""cbacca2b-7d8e-431c-9a0b-2105266f93b9"",""projectId"":""3ce68dc4-89da-4770-948e-944f675a4a4c""}","https://test12345.live/?part=2&participantId=CA1F89C14CC54B08ACDD467F095168BC&assignmentId=cbacca2b-7d8e-431c-9a0b-2105266f93b9&projectId=3ce68dc4-89da-4770-948e-944f675a4a4c","CA1F89C14CC54B08ACDD467F095168BC-2025-05-28-15-46-27","","null","","images/semantic_sequence/self_care_activities_semantic/self_care_activities_semantic_0.png","null","",""
"","","","","","html-audio-response","51","434039","0.0-49.0","CA1F89C14CC54B08ACDD467F095168BC","CA1F89C14CC54B08ACDD467F095168BC","cbacca2b-7d8e-431c-9a0b-2105266f93b9","3ce68dc4-89da-4770-948e-944f675a4a4c","{""part"":""2"",""participantId"":""CA1F89C14CC54B08ACDD467F095168BC"",""assignmentId"":""cbacca2b-7d8e-431c-9a0b-2105266f93b9"",""projectId"":""3ce68dc4-89da-4770-948e-944f675a4a4c""}","https://test12345.live/?part=2&participantId=CA1F89C14CC54B08ACDD467F095168BC&assignmentId=cbacca2b-7d8e-431c-9a0b-2105266f93b9&projectId=3ce68dc4-89da-4770-948e-944f675a4a4c","CA1F89C14CC54B08ACDD467F095168BC-2025-05-28-15-46-27","","9382","","[""<span style=\""color: red; font-size: 24px\""> NOW RECORDING</span><p>Please say out loud all the images you saw in part 1 of the experiment, in the exact order you saw them. Try to recall as many images as you can, but remember: getting the order right is more important than the number of images you recall. </p>""]","","2","self_care_activities_semantic"
"","","","","","image-button-response","52","440048","0.0-50.0-0.0","CA1F89C14CC54B08ACDD467F095168BC","CA1F89C14CC54B08ACDD467F095168BC","cbacca2b-7d8e-431c-9a0b-2105266f93b9","3ce68dc4-89da-4770-948e-944f675a4a4c","{""part"":""2"",""participantId"":""CA1F89C14CC54B08ACDD467F095168BC"",""assignmentId"":""cbacca2b-7d8e-431c-9a0b-2105266f93b9"",""projectId"":""3ce68dc4-89da-4770-948e-944f675a4a4c""}","https://test12345.live/?part=2&participantId=CA1F89C14CC54B08ACDD467F095168BC&assignmentId=cbacca2b-7d8e-431c-9a0b-2105266f93b9&projectId=3ce68dc4-89da-4770-948e-944f675a4a4c","CA1F89C14CC54B08ACDD467F095168BC-2025-05-28-15-46-27","","null","","images/schematic_sequence/dinner_party_scheme/dinner_party_scheme_0.png","null","",""
"","","","","","html-audio-response","53","450171","0.0-51.0","CA1F89C14CC54B08ACDD467F095168BC","CA1F89C14CC54B08ACDD467F095168BC","cbacca2b-7d8e-431c-9a0b-2105266f93b9","3ce68dc4-89da-4770-948e-944f675a4a4c","{""part"":""2"",""participantId"":""CA1F89C14CC54B08ACDD467F095168BC"",""assignmentId"":""cbacca2b-7d8e-431c-9a0b-2105266f93b9"",""projectId"":""3ce68dc4-89da-4770-948e-944f675a4a4c""}","https://test12345.live/?part=2&participantId=CA1F89C14CC54B08ACDD467F095168BC&assignmentId=cbacca2b-7d8e-431c-9a0b-2105266f93b9&projectId=3ce68dc4-89da-4770-948e-944f675a4a4c","CA1F89C14CC54B08ACDD467F095168BC-2025-05-28-15-46-27","","9329","","[""<span style=\""color: red; font-size: 24px\""> NOW RECORDING</span><p>Please say out loud all the images you saw in part 1 of the experiment, in the exact order you saw them. Try to recall as many images as you can, but remember: getting the order right is more important than the number of images you recall. </p>""]","","1","dinner_party_scheme"
"","","","","","image-button-response","54","456176","0.0-52.0-0.0","CA1F89C14CC54B08ACDD467F095168BC","CA1F89C14CC54B08ACDD467F095168BC","cbacca2b-7d8e-431c-9a0b-2105266f93b9","3ce68dc4-89da-4770-948e-944f675a4a4c","{""part"":""2"",""participantId"":""CA1F89C14CC54B08ACDD467F095168BC"",""assignmentId"":""cbacca2b-7d8e-431c-9a0b-2105266f93b9"",""projectId"":""3ce68dc4-89da-4770-948e-944f675a4a4c""}","https://test12345.live/?part=2&participantId=CA1F89C14CC54B08ACDD467F095168BC&assignmentId=cbacca2b-7d8e-431c-9a0b-2105266f93b9&projectId=3ce68dc4-89da-4770-948e-944f675a4a4c","CA1F89C14CC54B08ACDD467F095168BC-2025-05-28-15-46-27","","null","","images/schematic_sequence/flight_scheme/flight_scheme_0.png","null","",""
"","","","","","html-audio-response","55","465074","0.0-53.0","CA1F89C14CC54B08ACDD467F095168BC","CA1F89C14CC54B08ACDD467F095168BC","cbacca2b-7d8e-431c-9a0b-2105266f93b9","3ce68dc4-89da-4770-948e-944f675a4a4c","{""part"":""2"",""participantId"":""CA1F89C14CC54B08ACDD467F095168BC"",""assignmentId"":""cbacca2b-7d8e-431c-9a0b-2105266f93b9"",""projectId"":""3ce68dc4-89da-4770-948e-944f675a4a4c""}","https://test12345.live/?part=2&participantId=CA1F89C14CC54B08ACDD467F095168BC&assignmentId=cbacca2b-7d8e-431c-9a0b-2105266f93b9&projectId=3ce68dc4-89da-4770-948e-944f675a4a4c","CA1F89C14CC54B08ACDD467F095168BC-2025-05-28-15-46-27","","8118","","[""<span style=\""color: red; font-size: 24px\""> NOW RECORDING</span><p>Please say out loud all the images you saw in part 1 of the experiment, in the exact order you saw them. Try to recall as many images as you can, but remember: getting the order right is more important than the number of images you recall. </p>""]","","1","flight_scheme"
"","","","","","image-button-response","56","471083","0.0-54.0-0.0","CA1F89C14CC54B08ACDD467F095168BC","CA1F89C14CC54B08ACDD467F095168BC","cbacca2b-7d8e-431c-9a0b-2105266f93b9","3ce68dc4-89da-4770-948e-944f675a4a4c","{""part"":""2"",""participantId"":""CA1F89C14CC54B08ACDD467F095168BC"",""assignmentId"":""cbacca2b-7d8e-431c-9a0b-2105266f93b9"",""projectId"":""3ce68dc4-89da-4770-948e-944f675a4a4c""}","https://test12345.live/?part=2&participantId=CA1F89C14CC54B08ACDD467F095168BC&assignmentId=cbacca2b-7d8e-431c-9a0b-2105266f93b9&projectId=3ce68dc4-89da-4770-948e-944f675a4a4c","CA1F89C14CC54B08ACDD467F095168BC-2025-05-28-15-46-27","","null","","images/semantic_sequence/using_technology_semantic/using_technology_semantic_0.png","null","",""
"","","","","","html-audio-response","57","476710","0.0-55.0","CA1F89C14CC54B08ACDD467F095168BC","CA1F89C14CC54B08ACDD467F095168BC","cbacca2b-7d8e-431c-9a0b-2105266f93b9","3ce68dc4-89da-4770-948e-944f675a4a4c","{""part"":""2"",""participantId"":""CA1F89C14CC54B08ACDD467F095168BC"",""assignmentId"":""cbacca2b-7d8e-431c-9a0b-2105266f93b9"",""projectId"":""3ce68dc4-89da-4770-948e-944f675a4a4c""}","https://test12345.live/?part=2&participantId=CA1F89C14CC54B08ACDD467F095168BC&assignmentId=cbacca2b-7d8e-431c-9a0b-2105266f93b9&projectId=3ce68dc4-89da-4770-948e-944f675a4a4c","CA1F89C14CC54B08ACDD467F095168BC-2025-05-28-15-46-27","","4935","","[""<span style=\""color: red; font-size: 24px\""> NOW RECORDING</span><p>Please say out loud all the images you saw in part 1 of the experiment, in the exact order you saw them. Try to recall as many images as you can, but remember: getting the order right is more important than the number of images you recall. </p>""]","","1","using_technology_semantic"
"","","","","","image-button-response","58","482719","0.0-56.0-0.0","CA1F89C14CC54B08ACDD467F095168BC","CA1F89C14CC54B08ACDD467F095168BC","cbacca2b-7d8e-431c-9a0b-2105266f93b9","3ce68dc4-89da-4770-948e-944f675a4a4c","{""part"":""2"",""participantId"":""CA1F89C14CC54B08ACDD467F095168BC"",""assignmentId"":""cbacca2b-7d8e-431c-9a0b-2105266f93b9"",""projectId"":""3ce68dc4-89da-4770-948e-944f675a4a4c""}","https://test12345.live/?part=2&participantId=CA1F89C14CC54B08ACDD467F095168BC&assignmentId=cbacca2b-7d8e-431c-9a0b-2105266f93b9&projectId=3ce68dc4-89da-4770-948e-944f675a4a4c","CA1F89C14CC54B08ACDD467F095168BC-2025-05-28-15-46-27","","null","","images/semantic_sequence/housework_semantic/housework_semantic_0.png","null","",""
"","","","","","html-audio-response","59","489877","0.0-57.0","CA1F89C14CC54B08ACDD467F095168BC","CA1F89C14CC54B08ACDD467F095168BC","cbacca2b-7d8e-431c-9a0b-2105266f93b9","3ce68dc4-89da-4770-948e-944f675a4a4c","{""part"":""2"",""participantId"":""CA1F89C14CC54B08ACDD467F095168BC"",""assignmentId"":""cbacca2b-7d8e-431c-9a0b-2105266f93b9"",""projectId"":""3ce68dc4-89da-4770-948e-944f675a4a4c""}","https://test12345.live/?part=2&participantId=CA1F89C14CC54B08ACDD467F095168BC&assignmentId=cbacca2b-7d8e-431c-9a0b-2105266f93b9&projectId=3ce68dc4-89da-4770-948e-944f675a4a4c","CA1F89C14CC54B08ACDD467F095168BC-2025-05-28-15-46-27","","5981","","[""<span style=\""color: red; font-size: 24px\""> NOW RECORDING</span><p>Please say out loud all the images you saw in part 1 of the experiment, in the exact order you saw them. Try to recall as many images as you can, but remember: getting the order right is more important than the number of images you recall. </p>""]","","33","housework_semantic"
"","","","","","survey-text","60","494915","0.0-58.0","CA1F89C14CC54B08ACDD467F095168BC","CA1F89C14CC54B08ACDD467F095168BC","cbacca2b-7d8e-431c-9a0b-2105266f93b9","3ce68dc4-89da-4770-948e-944f675a4a4c","{""part"":""2"",""participantId"":""CA1F89C14CC54B08ACDD467F095168BC"",""assignmentId"":""cbacca2b-7d8e-431c-9a0b-2105266f93b9"",""projectId"":""3ce68dc4-89da-4770-948e-944f675a4a4c""}","https://test12345.live/?part=2&participantId=CA1F89C14CC54B08ACDD467F095168BC&assignmentId=cbacca2b-7d8e-431c-9a0b-2105266f93b9&projectId=3ce68dc4-89da-4770-948e-944f675a4a4c","CA1F89C14CC54B08ACDD467F095168BC-2025-05-28-15-46-27","","5029","","","{""Q0"":""Male"",""Q1"":""34""}","",""
"","","","","","instructions","61","499061","0.0-59.0","CA1F89C14CC54B08ACDD467F095168BC","CA1F89C14CC54B08ACDD467F095168BC","cbacca2b-7d8e-431c-9a0b-2105266f93b9","3ce68dc4-89da-4770-948e-944f675a4a4c","{""part"":""2"",""participantId"":""CA1F89C14CC54B08ACDD467F095168BC"",""assignmentId"":""cbacca2b-7d8e-431c-9a0b-2105266f93b9"",""projectId"":""3ce68dc4-89da-4770-948e-944f675a4a4c""}","https://test12345.live/?part=2&participantId=CA1F89C14CC54B08ACDD467F095168BC&assignmentId=cbacca2b-7d8e-431c-9a0b-2105266f93b9&projectId=3ce68dc4-89da-4770-948e-944f675a4a4c","CA1F89C14CC54B08ACDD467F095168BC-2025-05-28-15-46-27","[{""page_index"":0,""viewing_time"":4144}]","4145","","","","",""
"","","","","","survey-text","62","500746","0.0-60.0","CA1F89C14CC54B08ACDD467F095168BC","CA1F89C14CC54B08ACDD467F095168BC","cbacca2b-7d8e-431c-9a0b-2105266f93b9","3ce68dc4-89da-4770-948e-944f675a4a4c","{""part"":""2"",""participantId"":""CA1F89C14CC54B08ACDD467F095168BC"",""assignmentId"":""cbacca2b-7d8e-431c-9a0b-2105266f93b9"",""projectId"":""3ce68dc4-89da-4770-948e-944f675a4a4c""}","https://test12345.live/?part=2&participantId=CA1F89C14CC54B08ACDD467F095168BC&assignmentId=cbacca2b-7d8e-431c-9a0b-2105266f93b9&projectId=3ce68dc4-89da-4770-948e-944f675a4a4c","CA1F89C14CC54B08ACDD467F095168BC-2025-05-28-15-46-27","","1682","","","{""Q0"":""AJFHBG896""}","",""
