"success","timeout","failed_images","failed_audio","failed_video","trial_type","trial_index","time_elapsed","internal_node_id","subject","subject_id","study_id","session_id","urlvar","current_url","audio_id","view_history","rt","device_id","stimulus","response","estimated_stimulus_onset","seq_name"
"true","false","[]","[]","[]","preload","0","2306","0.0-0.0","DEC5132B288E4538812F16A18F825FD5","DEC5132B288E4538812F16A18F825FD5","ad604f69-7022-4914-b032-a3bce0015b63","e9cc2542-c7dc-4d8f-b94f-d088ad8989d1","{""part"":""2"",""participantId"":""DEC5132B288E4538812F16A18F825FD5"",""assignmentId"":""ad604f69-7022-4914-b032-a3bce0015b63"",""projectId"":""e9cc2542-c7dc-4d8f-b94f-d088ad8989d1""}","https://test12345.live/?part=2&participantId=DEC5132B288E4538812F16A18F825FD5&assignmentId=ad604f69-7022-4914-b032-a3bce0015b63&projectId=e9cc2542-c7dc-4d8f-b94f-d088ad8989d1","DEC5132B288E4538812F16A18F825FD5-2025-05-16-19-35-47","","","","","","",""
"","","","","","instructions","1","102957","0.0-1.0","DEC5132B288E4538812F16A18F825FD5","DEC5132B288E4538812F16A18F825FD5","ad604f69-7022-4914-b032-a3bce0015b63","e9cc2542-c7dc-4d8f-b94f-d088ad8989d1","{""part"":""2"",""participantId"":""DEC5132B288E4538812F16A18F825FD5"",""assignmentId"":""ad604f69-7022-4914-b032-a3bce0015b63"",""projectId"":""e9cc2542-c7dc-4d8f-b94f-d088ad8989d1""}","https://test12345.live/?part=2&participantId=DEC5132B288E4538812F16A18F825FD5&assignmentId=ad604f69-7022-4914-b032-a3bce0015b63&projectId=e9cc2542-c7dc-4d8f-b94f-d088ad8989d1","DEC5132B288E4538812F16A18F825FD5-2025-05-16-19-35-47","[{""page_index"":0,""viewing_time"":100650}]","100651","","","","",""
"","","","","","instructions","2","118796","0.0-2.0","DEC5132B288E4538812F16A18F825FD5","DEC5132B288E4538812F16A18F825FD5","ad604f69-7022-4914-b032-a3bce0015b63","e9cc2542-c7dc-4d8f-b94f-d088ad8989d1","{""part"":""2"",""participantId"":""DEC5132B288E4538812F16A18F825FD5"",""assignmentId"":""ad604f69-7022-4914-b032-a3bce0015b63"",""projectId"":""e9cc2542-c7dc-4d8f-b94f-d088ad8989d1""}","https://test12345.live/?part=2&participantId=DEC5132B288E4538812F16A18F825FD5&assignmentId=ad604f69-7022-4914-b032-a3bce0015b63&projectId=e9cc2542-c7dc-4d8f-b94f-d088ad8989d1","DEC5132B288E4538812F16A18F825FD5-2025-05-16-19-35-47","[{""page_index"":0,""viewing_time"":15839}]","15839","","","","",""
"true","","","","","fullscreen","3","142951","0.0-3.0","DEC5132B288E4538812F16A18F825FD5","DEC5132B288E4538812F16A18F825FD5","ad604f69-7022-4914-b032-a3bce0015b63","e9cc2542-c7dc-4d8f-b94f-d088ad8989d1","{""part"":""2"",""participantId"":""DEC5132B288E4538812F16A18F825FD5"",""assignmentId"":""ad604f69-7022-4914-b032-a3bce0015b63"",""projectId"":""e9cc2542-c7dc-4d8f-b94f-d088ad8989d1""}","https://test12345.live/?part=2&participantId=DEC5132B288E4538812F16A18F825FD5&assignmentId=ad604f69-7022-4914-b032-a3bce0015b63&projectId=e9cc2542-c7dc-4d8f-b94f-d088ad8989d1","DEC5132B288E4538812F16A18F825FD5-2025-05-16-19-35-47","","23143","","","","",""
"","","","","","initialize-microphone","4","148635","0.0-4.0-0.0","DEC5132B288E4538812F16A18F825FD5","DEC5132B288E4538812F16A18F825FD5","ad604f69-7022-4914-b032-a3bce0015b63","e9cc2542-c7dc-4d8f-b94f-d088ad8989d1","{""part"":""2"",""participantId"":""DEC5132B288E4538812F16A18F825FD5"",""assignmentId"":""ad604f69-7022-4914-b032-a3bce0015b63"",""projectId"":""e9cc2542-c7dc-4d8f-b94f-d088ad8989d1""}","https://test12345.live/?part=2&participantId=DEC5132B288E4538812F16A18F825FD5&assignmentId=ad604f69-7022-4914-b032-a3bce0015b63&projectId=e9cc2542-c7dc-4d8f-b94f-d088ad8989d1","DEC5132B288E4538812F16A18F825FD5-2025-05-16-19-35-47","","","a7d3c88f4172c52045d2a4e197cbb2f9a1174b78b80097d510c5b69c0937c3fd","","","",""
"","","","","","html-audio-response","5","189111","0.0-4.0-1.0","DEC5132B288E4538812F16A18F825FD5","DEC5132B288E4538812F16A18F825FD5","ad604f69-7022-4914-b032-a3bce0015b63","e9cc2542-c7dc-4d8f-b94f-d088ad8989d1","{""part"":""2"",""participantId"":""DEC5132B288E4538812F16A18F825FD5"",""assignmentId"":""ad604f69-7022-4914-b032-a3bce0015b63"",""projectId"":""e9cc2542-c7dc-4d8f-b94f-d088ad8989d1""}","https://test12345.live/?part=2&participantId=DEC5132B288E4538812F16A18F825FD5&assignmentId=ad604f69-7022-4914-b032-a3bce0015b63&projectId=e9cc2542-c7dc-4d8f-b94f-d088ad8989d1","DEC5132B288E4538812F16A18F825FD5-2025-05-16-19-35-47","","10970","","<span style=""color: red; font-size: 24px""> NOW RECORDING</span>
        <p>Please test Microphone</p>","","3",""
"","","","","","html-button-response","6","191612","0.0-4.0-2.0","DEC5132B288E4538812F16A18F825FD5","DEC5132B288E4538812F16A18F825FD5","ad604f69-7022-4914-b032-a3bce0015b63","e9cc2542-c7dc-4d8f-b94f-d088ad8989d1","{""part"":""2"",""participantId"":""DEC5132B288E4538812F16A18F825FD5"",""assignmentId"":""ad604f69-7022-4914-b032-a3bce0015b63"",""projectId"":""e9cc2542-c7dc-4d8f-b94f-d088ad8989d1""}","https://test12345.live/?part=2&participantId=DEC5132B288E4538812F16A18F825FD5&assignmentId=ad604f69-7022-4914-b032-a3bce0015b63&projectId=e9cc2542-c7dc-4d8f-b94f-d088ad8989d1","DEC5132B288E4538812F16A18F825FD5-2025-05-16-19-35-47","","2500","","<p style=""font-size:48px; color:red;"">Is Microphone OK?</p>","1","",""
"","","","","","instructions","7","360894","0.0-5.0","DEC5132B288E4538812F16A18F825FD5","DEC5132B288E4538812F16A18F825FD5","ad604f69-7022-4914-b032-a3bce0015b63","e9cc2542-c7dc-4d8f-b94f-d088ad8989d1","{""part"":""2"",""participantId"":""DEC5132B288E4538812F16A18F825FD5"",""assignmentId"":""ad604f69-7022-4914-b032-a3bce0015b63"",""projectId"":""e9cc2542-c7dc-4d8f-b94f-d088ad8989d1""}","https://test12345.live/?part=2&participantId=DEC5132B288E4538812F16A18F825FD5&assignmentId=ad604f69-7022-4914-b032-a3bce0015b63&projectId=e9cc2542-c7dc-4d8f-b94f-d088ad8989d1","DEC5132B288E4538812F16A18F825FD5-2025-05-16-19-35-47","[{""page_index"":0,""viewing_time"":1517},{""page_index"":1,""viewing_time"":10737},{""page_index"":2,""viewing_time"":157028}]","169281","","","","",""
"","","","","","image-button-response","8","366904","0.0-6.0-0.0","DEC5132B288E4538812F16A18F825FD5","DEC5132B288E4538812F16A18F825FD5","ad604f69-7022-4914-b032-a3bce0015b63","e9cc2542-c7dc-4d8f-b94f-d088ad8989d1","{""part"":""2"",""participantId"":""DEC5132B288E4538812F16A18F825FD5"",""assignmentId"":""ad604f69-7022-4914-b032-a3bce0015b63"",""projectId"":""e9cc2542-c7dc-4d8f-b94f-d088ad8989d1""}","https://test12345.live/?part=2&participantId=DEC5132B288E4538812F16A18F825FD5&assignmentId=ad604f69-7022-4914-b032-a3bce0015b63&projectId=e9cc2542-c7dc-4d8f-b94f-d088ad8989d1","DEC5132B288E4538812F16A18F825FD5-2025-05-16-19-35-47","","null","","images/instructions/movie_0.png","null","",""
"","","","","","html-audio-response","9","401482","0.0-7.0","DEC5132B288E4538812F16A18F825FD5","DEC5132B288E4538812F16A18F825FD5","ad604f69-7022-4914-b032-a3bce0015b63","e9cc2542-c7dc-4d8f-b94f-d088ad8989d1","{""part"":""2"",""participantId"":""DEC5132B288E4538812F16A18F825FD5"",""assignmentId"":""ad604f69-7022-4914-b032-a3bce0015b63"",""projectId"":""e9cc2542-c7dc-4d8f-b94f-d088ad8989d1""}","https://test12345.live/?part=2&participantId=DEC5132B288E4538812F16A18F825FD5&assignmentId=ad604f69-7022-4914-b032-a3bce0015b63&projectId=e9cc2542-c7dc-4d8f-b94f-d088ad8989d1","DEC5132B288E4538812F16A18F825FD5-2025-05-16-19-35-47","","16246","","[""<span style=\""color: red; font-size: 24px\""> NOW RECORDING</span><p>Please say out loud all the images you saw in part 1 of the experiment, as many as you can remember. The images can be said in any order.</p>""]","","1",""
"","","","","","instructions","10","403935","0.0-8.0","DEC5132B288E4538812F16A18F825FD5","DEC5132B288E4538812F16A18F825FD5","ad604f69-7022-4914-b032-a3bce0015b63","e9cc2542-c7dc-4d8f-b94f-d088ad8989d1","{""part"":""2"",""participantId"":""DEC5132B288E4538812F16A18F825FD5"",""assignmentId"":""ad604f69-7022-4914-b032-a3bce0015b63"",""projectId"":""e9cc2542-c7dc-4d8f-b94f-d088ad8989d1""}","https://test12345.live/?part=2&participantId=DEC5132B288E4538812F16A18F825FD5&assignmentId=ad604f69-7022-4914-b032-a3bce0015b63&projectId=e9cc2542-c7dc-4d8f-b94f-d088ad8989d1","DEC5132B288E4538812F16A18F825FD5-2025-05-16-19-35-47","[{""page_index"":0,""viewing_time"":2447}]","2447","","","","",""
"","","","","","image-button-response","11","409942","0.0-9.0-0.0","DEC5132B288E4538812F16A18F825FD5","DEC5132B288E4538812F16A18F825FD5","ad604f69-7022-4914-b032-a3bce0015b63","e9cc2542-c7dc-4d8f-b94f-d088ad8989d1","{""part"":""2"",""participantId"":""DEC5132B288E4538812F16A18F825FD5"",""assignmentId"":""ad604f69-7022-4914-b032-a3bce0015b63"",""projectId"":""e9cc2542-c7dc-4d8f-b94f-d088ad8989d1""}","https://test12345.live/?part=2&participantId=DEC5132B288E4538812F16A18F825FD5&assignmentId=ad604f69-7022-4914-b032-a3bce0015b63&projectId=e9cc2542-c7dc-4d8f-b94f-d088ad8989d1","DEC5132B288E4538812F16A18F825FD5-2025-05-16-19-35-47","","null","","images/semantic_sequence/housework_semantic/housework_semantic_0.png","null","",""
"","","","","","html-audio-response","12","439961","0.0-10.0","DEC5132B288E4538812F16A18F825FD5","DEC5132B288E4538812F16A18F825FD5","ad604f69-7022-4914-b032-a3bce0015b63","e9cc2542-c7dc-4d8f-b94f-d088ad8989d1","{""part"":""2"",""participantId"":""DEC5132B288E4538812F16A18F825FD5"",""assignmentId"":""ad604f69-7022-4914-b032-a3bce0015b63"",""projectId"":""e9cc2542-c7dc-4d8f-b94f-d088ad8989d1""}","https://test12345.live/?part=2&participantId=DEC5132B288E4538812F16A18F825FD5&assignmentId=ad604f69-7022-4914-b032-a3bce0015b63&projectId=e9cc2542-c7dc-4d8f-b94f-d088ad8989d1","DEC5132B288E4538812F16A18F825FD5-2025-05-16-19-35-47","","14389","","[""<span style=\""color: red; font-size: 24px\""> NOW RECORDING</span><p>Please say out loud all the images you saw in part 1 of the experiment, as many as you can remember. The images can be said in any order.</p>""]","","1","housework_semantic"
"","","","","","image-button-response","13","445974","0.0-11.0-0.0","DEC5132B288E4538812F16A18F825FD5","DEC5132B288E4538812F16A18F825FD5","ad604f69-7022-4914-b032-a3bce0015b63","e9cc2542-c7dc-4d8f-b94f-d088ad8989d1","{""part"":""2"",""participantId"":""DEC5132B288E4538812F16A18F825FD5"",""assignmentId"":""ad604f69-7022-4914-b032-a3bce0015b63"",""projectId"":""e9cc2542-c7dc-4d8f-b94f-d088ad8989d1""}","https://test12345.live/?part=2&participantId=DEC5132B288E4538812F16A18F825FD5&assignmentId=ad604f69-7022-4914-b032-a3bce0015b63&projectId=e9cc2542-c7dc-4d8f-b94f-d088ad8989d1","DEC5132B288E4538812F16A18F825FD5-2025-05-16-19-35-47","","null","","images/semantic_sequence/kitchen_operations_semantic/kitchen_operations_semantic_0.png","null","",""
"","","","","","html-audio-response","14","467393","0.0-12.0","DEC5132B288E4538812F16A18F825FD5","DEC5132B288E4538812F16A18F825FD5","ad604f69-7022-4914-b032-a3bce0015b63","e9cc2542-c7dc-4d8f-b94f-d088ad8989d1","{""part"":""2"",""participantId"":""DEC5132B288E4538812F16A18F825FD5"",""assignmentId"":""ad604f69-7022-4914-b032-a3bce0015b63"",""projectId"":""e9cc2542-c7dc-4d8f-b94f-d088ad8989d1""}","https://test12345.live/?part=2&participantId=DEC5132B288E4538812F16A18F825FD5&assignmentId=ad604f69-7022-4914-b032-a3bce0015b63&projectId=e9cc2542-c7dc-4d8f-b94f-d088ad8989d1","DEC5132B288E4538812F16A18F825FD5-2025-05-16-19-35-47","","18215","","[""<span style=\""color: red; font-size: 24px\""> NOW RECORDING</span><p>Please say out loud all the images you saw in part 1 of the experiment, as many as you can remember. The images can be said in any order.</p>""]","","1","kitchen_operations_semantic"
"","","","","","image-button-response","15","473396","0.0-13.0-0.0","DEC5132B288E4538812F16A18F825FD5","DEC5132B288E4538812F16A18F825FD5","ad604f69-7022-4914-b032-a3bce0015b63","e9cc2542-c7dc-4d8f-b94f-d088ad8989d1","{""part"":""2"",""participantId"":""DEC5132B288E4538812F16A18F825FD5"",""assignmentId"":""ad604f69-7022-4914-b032-a3bce0015b63"",""projectId"":""e9cc2542-c7dc-4d8f-b94f-d088ad8989d1""}","https://test12345.live/?part=2&participantId=DEC5132B288E4538812F16A18F825FD5&assignmentId=ad604f69-7022-4914-b032-a3bce0015b63&projectId=e9cc2542-c7dc-4d8f-b94f-d088ad8989d1","DEC5132B288E4538812F16A18F825FD5-2025-05-16-19-35-47","","null","","images/schematic_sequence/flight_scheme/flight_scheme_0.png","null","",""
"","","","","","html-audio-response","16","509125","0.0-14.0","DEC5132B288E4538812F16A18F825FD5","DEC5132B288E4538812F16A18F825FD5","ad604f69-7022-4914-b032-a3bce0015b63","e9cc2542-c7dc-4d8f-b94f-d088ad8989d1","{""part"":""2"",""participantId"":""DEC5132B288E4538812F16A18F825FD5"",""assignmentId"":""ad604f69-7022-4914-b032-a3bce0015b63"",""projectId"":""e9cc2542-c7dc-4d8f-b94f-d088ad8989d1""}","https://test12345.live/?part=2&participantId=DEC5132B288E4538812F16A18F825FD5&assignmentId=ad604f69-7022-4914-b032-a3bce0015b63&projectId=e9cc2542-c7dc-4d8f-b94f-d088ad8989d1","DEC5132B288E4538812F16A18F825FD5-2025-05-16-19-35-47","","34586","","[""<span style=\""color: red; font-size: 24px\""> NOW RECORDING</span><p>Please say out loud all the images you saw in part 1 of the experiment, as many as you can remember. The images can be said in any order.</p>""]","","4","flight_scheme"
"","","","","","image-button-response","17","515133","0.0-15.0-0.0","DEC5132B288E4538812F16A18F825FD5","DEC5132B288E4538812F16A18F825FD5","ad604f69-7022-4914-b032-a3bce0015b63","e9cc2542-c7dc-4d8f-b94f-d088ad8989d1","{""part"":""2"",""participantId"":""DEC5132B288E4538812F16A18F825FD5"",""assignmentId"":""ad604f69-7022-4914-b032-a3bce0015b63"",""projectId"":""e9cc2542-c7dc-4d8f-b94f-d088ad8989d1""}","https://test12345.live/?part=2&participantId=DEC5132B288E4538812F16A18F825FD5&assignmentId=ad604f69-7022-4914-b032-a3bce0015b63&projectId=e9cc2542-c7dc-4d8f-b94f-d088ad8989d1","DEC5132B288E4538812F16A18F825FD5-2025-05-16-19-35-47","","null","","images/semantic_sequence/physical_activity_semantic/physical_activity_semantic_0.png","null","",""
"","","","","","html-audio-response","18","534938","0.0-16.0","DEC5132B288E4538812F16A18F825FD5","DEC5132B288E4538812F16A18F825FD5","ad604f69-7022-4914-b032-a3bce0015b63","e9cc2542-c7dc-4d8f-b94f-d088ad8989d1","{""part"":""2"",""participantId"":""DEC5132B288E4538812F16A18F825FD5"",""assignmentId"":""ad604f69-7022-4914-b032-a3bce0015b63"",""projectId"":""e9cc2542-c7dc-4d8f-b94f-d088ad8989d1""}","https://test12345.live/?part=2&participantId=DEC5132B288E4538812F16A18F825FD5&assignmentId=ad604f69-7022-4914-b032-a3bce0015b63&projectId=e9cc2542-c7dc-4d8f-b94f-d088ad8989d1","DEC5132B288E4538812F16A18F825FD5-2025-05-16-19-35-47","","16455","","[""<span style=\""color: red; font-size: 24px\""> NOW RECORDING</span><p>Please say out loud all the images you saw in part 1 of the experiment, as many as you can remember. The images can be said in any order.</p>""]","","1","physical_activity_semantic"
"","","","","","image-button-response","19","540946","0.0-17.0-0.0","DEC5132B288E4538812F16A18F825FD5","DEC5132B288E4538812F16A18F825FD5","ad604f69-7022-4914-b032-a3bce0015b63","e9cc2542-c7dc-4d8f-b94f-d088ad8989d1","{""part"":""2"",""participantId"":""DEC5132B288E4538812F16A18F825FD5"",""assignmentId"":""ad604f69-7022-4914-b032-a3bce0015b63"",""projectId"":""e9cc2542-c7dc-4d8f-b94f-d088ad8989d1""}","https://test12345.live/?part=2&participantId=DEC5132B288E4538812F16A18F825FD5&assignmentId=ad604f69-7022-4914-b032-a3bce0015b63&projectId=e9cc2542-c7dc-4d8f-b94f-d088ad8989d1","DEC5132B288E4538812F16A18F825FD5-2025-05-16-19-35-47","","null","","images/semantic_sequence/using_technology_semantic/using_technology_semantic_0.png","null","",""
"","","","","","html-audio-response","20","593215","0.0-18.0","DEC5132B288E4538812F16A18F825FD5","DEC5132B288E4538812F16A18F825FD5","ad604f69-7022-4914-b032-a3bce0015b63","e9cc2542-c7dc-4d8f-b94f-d088ad8989d1","{""part"":""2"",""participantId"":""DEC5132B288E4538812F16A18F825FD5"",""assignmentId"":""ad604f69-7022-4914-b032-a3bce0015b63"",""projectId"":""e9cc2542-c7dc-4d8f-b94f-d088ad8989d1""}","https://test12345.live/?part=2&participantId=DEC5132B288E4538812F16A18F825FD5&assignmentId=ad604f69-7022-4914-b032-a3bce0015b63&projectId=e9cc2542-c7dc-4d8f-b94f-d088ad8989d1","DEC5132B288E4538812F16A18F825FD5-2025-05-16-19-35-47","","24858","","[""<span style=\""color: red; font-size: 24px\""> NOW RECORDING</span><p>Please say out loud all the images you saw in part 1 of the experiment, as many as you can remember. The images can be said in any order.</p>""]","","1","using_technology_semantic"
"","","","","","image-button-response","21","599219","0.0-19.0-0.0","DEC5132B288E4538812F16A18F825FD5","DEC5132B288E4538812F16A18F825FD5","ad604f69-7022-4914-b032-a3bce0015b63","e9cc2542-c7dc-4d8f-b94f-d088ad8989d1","{""part"":""2"",""participantId"":""DEC5132B288E4538812F16A18F825FD5"",""assignmentId"":""ad604f69-7022-4914-b032-a3bce0015b63"",""projectId"":""e9cc2542-c7dc-4d8f-b94f-d088ad8989d1""}","https://test12345.live/?part=2&participantId=DEC5132B288E4538812F16A18F825FD5&assignmentId=ad604f69-7022-4914-b032-a3bce0015b63&projectId=e9cc2542-c7dc-4d8f-b94f-d088ad8989d1","DEC5132B288E4538812F16A18F825FD5-2025-05-16-19-35-47","","null","","images/semantic_sequence/market_semantic/market_semantic_0.png","null","",""
"","","","","","html-audio-response","22","623361","0.0-20.0","DEC5132B288E4538812F16A18F825FD5","DEC5132B288E4538812F16A18F825FD5","ad604f69-7022-4914-b032-a3bce0015b63","e9cc2542-c7dc-4d8f-b94f-d088ad8989d1","{""part"":""2"",""participantId"":""DEC5132B288E4538812F16A18F825FD5"",""assignmentId"":""ad604f69-7022-4914-b032-a3bce0015b63"",""projectId"":""e9cc2542-c7dc-4d8f-b94f-d088ad8989d1""}","https://test12345.live/?part=2&participantId=DEC5132B288E4538812F16A18F825FD5&assignmentId=ad604f69-7022-4914-b032-a3bce0015b63&projectId=e9cc2542-c7dc-4d8f-b94f-d088ad8989d1","DEC5132B288E4538812F16A18F825FD5-2025-05-16-19-35-47","","22845","","[""<span style=\""color: red; font-size: 24px\""> NOW RECORDING</span><p>Please say out loud all the images you saw in part 1 of the experiment, as many as you can remember. The images can be said in any order.</p>""]","","1","market_semantic"
"","","","","","image-button-response","23","629380","0.0-21.0-0.0","DEC5132B288E4538812F16A18F825FD5","DEC5132B288E4538812F16A18F825FD5","ad604f69-7022-4914-b032-a3bce0015b63","e9cc2542-c7dc-4d8f-b94f-d088ad8989d1","{""part"":""2"",""participantId"":""DEC5132B288E4538812F16A18F825FD5"",""assignmentId"":""ad604f69-7022-4914-b032-a3bce0015b63"",""projectId"":""e9cc2542-c7dc-4d8f-b94f-d088ad8989d1""}","https://test12345.live/?part=2&participantId=DEC5132B288E4538812F16A18F825FD5&assignmentId=ad604f69-7022-4914-b032-a3bce0015b63&projectId=e9cc2542-c7dc-4d8f-b94f-d088ad8989d1","DEC5132B288E4538812F16A18F825FD5-2025-05-16-19-35-47","","null","","images/semantic_sequence/redecorating_semantic/redecorating_semantic_0.png","null","",""
"","","","","","html-audio-response","24","649883","0.0-22.0","DEC5132B288E4538812F16A18F825FD5","DEC5132B288E4538812F16A18F825FD5","ad604f69-7022-4914-b032-a3bce0015b63","e9cc2542-c7dc-4d8f-b94f-d088ad8989d1","{""part"":""2"",""participantId"":""DEC5132B288E4538812F16A18F825FD5"",""assignmentId"":""ad604f69-7022-4914-b032-a3bce0015b63"",""projectId"":""e9cc2542-c7dc-4d8f-b94f-d088ad8989d1""}","https://test12345.live/?part=2&participantId=DEC5132B288E4538812F16A18F825FD5&assignmentId=ad604f69-7022-4914-b032-a3bce0015b63&projectId=e9cc2542-c7dc-4d8f-b94f-d088ad8989d1","DEC5132B288E4538812F16A18F825FD5-2025-05-16-19-35-47","","18962","","[""<span style=\""color: red; font-size: 24px\""> NOW RECORDING</span><p>Please say out loud all the images you saw in part 1 of the experiment, as many as you can remember. The images can be said in any order.</p>""]","","1","redecorating_semantic"
"","","","","","image-button-response","25","655889","0.0-23.0-0.0","DEC5132B288E4538812F16A18F825FD5","DEC5132B288E4538812F16A18F825FD5","ad604f69-7022-4914-b032-a3bce0015b63","e9cc2542-c7dc-4d8f-b94f-d088ad8989d1","{""part"":""2"",""participantId"":""DEC5132B288E4538812F16A18F825FD5"",""assignmentId"":""ad604f69-7022-4914-b032-a3bce0015b63"",""projectId"":""e9cc2542-c7dc-4d8f-b94f-d088ad8989d1""}","https://test12345.live/?part=2&participantId=DEC5132B288E4538812F16A18F825FD5&assignmentId=ad604f69-7022-4914-b032-a3bce0015b63&projectId=e9cc2542-c7dc-4d8f-b94f-d088ad8989d1","DEC5132B288E4538812F16A18F825FD5-2025-05-16-19-35-47","","null","","images/causal_sequence/package_causal/package_causal_0.png","null","",""
"","","","","","html-audio-response","26","679674","0.0-24.0","DEC5132B288E4538812F16A18F825FD5","DEC5132B288E4538812F16A18F825FD5","ad604f69-7022-4914-b032-a3bce0015b63","e9cc2542-c7dc-4d8f-b94f-d088ad8989d1","{""part"":""2"",""participantId"":""DEC5132B288E4538812F16A18F825FD5"",""assignmentId"":""ad604f69-7022-4914-b032-a3bce0015b63"",""projectId"":""e9cc2542-c7dc-4d8f-b94f-d088ad8989d1""}","https://test12345.live/?part=2&participantId=DEC5132B288E4538812F16A18F825FD5&assignmentId=ad604f69-7022-4914-b032-a3bce0015b63&projectId=e9cc2542-c7dc-4d8f-b94f-d088ad8989d1","DEC5132B288E4538812F16A18F825FD5-2025-05-16-19-35-47","","22690","","[""<span style=\""color: red; font-size: 24px\""> NOW RECORDING</span><p>Please say out loud all the images you saw in part 1 of the experiment, as many as you can remember. The images can be said in any order.</p>""]","","1","package_causal"
"","","","","","image-button-response","27","685680","0.0-25.0-0.0","DEC5132B288E4538812F16A18F825FD5","DEC5132B288E4538812F16A18F825FD5","ad604f69-7022-4914-b032-a3bce0015b63","e9cc2542-c7dc-4d8f-b94f-d088ad8989d1","{""part"":""2"",""participantId"":""DEC5132B288E4538812F16A18F825FD5"",""assignmentId"":""ad604f69-7022-4914-b032-a3bce0015b63"",""projectId"":""e9cc2542-c7dc-4d8f-b94f-d088ad8989d1""}","https://test12345.live/?part=2&participantId=DEC5132B288E4538812F16A18F825FD5&assignmentId=ad604f69-7022-4914-b032-a3bce0015b63&projectId=e9cc2542-c7dc-4d8f-b94f-d088ad8989d1","DEC5132B288E4538812F16A18F825FD5-2025-05-16-19-35-47","","null","","images/schematic_sequence/dinner_party_scheme/dinner_party_scheme_0.png","null","",""
"","","","","","html-audio-response","28","697234","0.0-26.0","DEC5132B288E4538812F16A18F825FD5","DEC5132B288E4538812F16A18F825FD5","ad604f69-7022-4914-b032-a3bce0015b63","e9cc2542-c7dc-4d8f-b94f-d088ad8989d1","{""part"":""2"",""participantId"":""DEC5132B288E4538812F16A18F825FD5"",""assignmentId"":""ad604f69-7022-4914-b032-a3bce0015b63"",""projectId"":""e9cc2542-c7dc-4d8f-b94f-d088ad8989d1""}","https://test12345.live/?part=2&participantId=DEC5132B288E4538812F16A18F825FD5&assignmentId=ad604f69-7022-4914-b032-a3bce0015b63&projectId=e9cc2542-c7dc-4d8f-b94f-d088ad8989d1","DEC5132B288E4538812F16A18F825FD5-2025-05-16-19-35-47","","10407","","[""<span style=\""color: red; font-size: 24px\""> NOW RECORDING</span><p>Please say out loud all the images you saw in part 1 of the experiment, as many as you can remember. The images can be said in any order.</p>""]","","5","dinner_party_scheme"
"","","","","","image-button-response","29","703247","0.0-27.0-0.0","DEC5132B288E4538812F16A18F825FD5","DEC5132B288E4538812F16A18F825FD5","ad604f69-7022-4914-b032-a3bce0015b63","e9cc2542-c7dc-4d8f-b94f-d088ad8989d1","{""part"":""2"",""participantId"":""DEC5132B288E4538812F16A18F825FD5"",""assignmentId"":""ad604f69-7022-4914-b032-a3bce0015b63"",""projectId"":""e9cc2542-c7dc-4d8f-b94f-d088ad8989d1""}","https://test12345.live/?part=2&participantId=DEC5132B288E4538812F16A18F825FD5&assignmentId=ad604f69-7022-4914-b032-a3bce0015b63&projectId=e9cc2542-c7dc-4d8f-b94f-d088ad8989d1","DEC5132B288E4538812F16A18F825FD5-2025-05-16-19-35-47","","null","","images/schematic_sequence/supermarket_scheme/supermarket_scheme_0.png","null","",""
"","","","","","html-audio-response","30","736181","0.0-28.0","DEC5132B288E4538812F16A18F825FD5","DEC5132B288E4538812F16A18F825FD5","ad604f69-7022-4914-b032-a3bce0015b63","e9cc2542-c7dc-4d8f-b94f-d088ad8989d1","{""part"":""2"",""participantId"":""DEC5132B288E4538812F16A18F825FD5"",""assignmentId"":""ad604f69-7022-4914-b032-a3bce0015b63"",""projectId"":""e9cc2542-c7dc-4d8f-b94f-d088ad8989d1""}","https://test12345.live/?part=2&participantId=DEC5132B288E4538812F16A18F825FD5&assignmentId=ad604f69-7022-4914-b032-a3bce0015b63&projectId=e9cc2542-c7dc-4d8f-b94f-d088ad8989d1","DEC5132B288E4538812F16A18F825FD5-2025-05-16-19-35-47","","31934","","[""<span style=\""color: red; font-size: 24px\""> NOW RECORDING</span><p>Please say out loud all the images you saw in part 1 of the experiment, as many as you can remember. The images can be said in any order.</p>""]","","1","supermarket_scheme"
"","","","","","image-button-response","31","742197","0.0-29.0-0.0","DEC5132B288E4538812F16A18F825FD5","DEC5132B288E4538812F16A18F825FD5","ad604f69-7022-4914-b032-a3bce0015b63","e9cc2542-c7dc-4d8f-b94f-d088ad8989d1","{""part"":""2"",""participantId"":""DEC5132B288E4538812F16A18F825FD5"",""assignmentId"":""ad604f69-7022-4914-b032-a3bce0015b63"",""projectId"":""e9cc2542-c7dc-4d8f-b94f-d088ad8989d1""}","https://test12345.live/?part=2&participantId=DEC5132B288E4538812F16A18F825FD5&assignmentId=ad604f69-7022-4914-b032-a3bce0015b63&projectId=e9cc2542-c7dc-4d8f-b94f-d088ad8989d1","DEC5132B288E4538812F16A18F825FD5-2025-05-16-19-35-47","","null","","images/semantic_sequence/cat_care_semantic/cat_care_semantic_0.png","null","",""
"","","","","","html-audio-response","32","766273","0.0-30.0","DEC5132B288E4538812F16A18F825FD5","DEC5132B288E4538812F16A18F825FD5","ad604f69-7022-4914-b032-a3bce0015b63","e9cc2542-c7dc-4d8f-b94f-d088ad8989d1","{""part"":""2"",""participantId"":""DEC5132B288E4538812F16A18F825FD5"",""assignmentId"":""ad604f69-7022-4914-b032-a3bce0015b63"",""projectId"":""e9cc2542-c7dc-4d8f-b94f-d088ad8989d1""}","https://test12345.live/?part=2&participantId=DEC5132B288E4538812F16A18F825FD5&assignmentId=ad604f69-7022-4914-b032-a3bce0015b63&projectId=e9cc2542-c7dc-4d8f-b94f-d088ad8989d1","DEC5132B288E4538812F16A18F825FD5-2025-05-16-19-35-47","","22913","","[""<span style=\""color: red; font-size: 24px\""> NOW RECORDING</span><p>Please say out loud all the images you saw in part 1 of the experiment, as many as you can remember. The images can be said in any order.</p>""]","","1","cat_care_semantic"
"","","","","","image-button-response","33","772277","0.0-31.0-0.0","DEC5132B288E4538812F16A18F825FD5","DEC5132B288E4538812F16A18F825FD5","ad604f69-7022-4914-b032-a3bce0015b63","e9cc2542-c7dc-4d8f-b94f-d088ad8989d1","{""part"":""2"",""participantId"":""DEC5132B288E4538812F16A18F825FD5"",""assignmentId"":""ad604f69-7022-4914-b032-a3bce0015b63"",""projectId"":""e9cc2542-c7dc-4d8f-b94f-d088ad8989d1""}","https://test12345.live/?part=2&participantId=DEC5132B288E4538812F16A18F825FD5&assignmentId=ad604f69-7022-4914-b032-a3bce0015b63&projectId=e9cc2542-c7dc-4d8f-b94f-d088ad8989d1","DEC5132B288E4538812F16A18F825FD5-2025-05-16-19-35-47","","null","","images/schematic_sequence/hotel_scheme/hotel_scheme_0.png","null","",""
"","","","","","html-audio-response","34","799154","0.0-32.0","DEC5132B288E4538812F16A18F825FD5","DEC5132B288E4538812F16A18F825FD5","ad604f69-7022-4914-b032-a3bce0015b63","e9cc2542-c7dc-4d8f-b94f-d088ad8989d1","{""part"":""2"",""participantId"":""DEC5132B288E4538812F16A18F825FD5"",""assignmentId"":""ad604f69-7022-4914-b032-a3bce0015b63"",""projectId"":""e9cc2542-c7dc-4d8f-b94f-d088ad8989d1""}","https://test12345.live/?part=2&participantId=DEC5132B288E4538812F16A18F825FD5&assignmentId=ad604f69-7022-4914-b032-a3bce0015b63&projectId=e9cc2542-c7dc-4d8f-b94f-d088ad8989d1","DEC5132B288E4538812F16A18F825FD5-2025-05-16-19-35-47","","25722","","[""<span style=\""color: red; font-size: 24px\""> NOW RECORDING</span><p>Please say out loud all the images you saw in part 1 of the experiment, as many as you can remember. The images can be said in any order.</p>""]","","2","hotel_scheme"
"","","","","","image-button-response","35","805171","0.0-33.0-0.0","DEC5132B288E4538812F16A18F825FD5","DEC5132B288E4538812F16A18F825FD5","ad604f69-7022-4914-b032-a3bce0015b63","e9cc2542-c7dc-4d8f-b94f-d088ad8989d1","{""part"":""2"",""participantId"":""DEC5132B288E4538812F16A18F825FD5"",""assignmentId"":""ad604f69-7022-4914-b032-a3bce0015b63"",""projectId"":""e9cc2542-c7dc-4d8f-b94f-d088ad8989d1""}","https://test12345.live/?part=2&participantId=DEC5132B288E4538812F16A18F825FD5&assignmentId=ad604f69-7022-4914-b032-a3bce0015b63&projectId=e9cc2542-c7dc-4d8f-b94f-d088ad8989d1","DEC5132B288E4538812F16A18F825FD5-2025-05-16-19-35-47","","null","","images/schematic_sequence/interview_scheme/interview_scheme_0.png","null","",""
"","","","","","html-audio-response","36","824086","0.0-34.0","DEC5132B288E4538812F16A18F825FD5","DEC5132B288E4538812F16A18F825FD5","ad604f69-7022-4914-b032-a3bce0015b63","e9cc2542-c7dc-4d8f-b94f-d088ad8989d1","{""part"":""2"",""participantId"":""DEC5132B288E4538812F16A18F825FD5"",""assignmentId"":""ad604f69-7022-4914-b032-a3bce0015b63"",""projectId"":""e9cc2542-c7dc-4d8f-b94f-d088ad8989d1""}","https://test12345.live/?part=2&participantId=DEC5132B288E4538812F16A18F825FD5&assignmentId=ad604f69-7022-4914-b032-a3bce0015b63&projectId=e9cc2542-c7dc-4d8f-b94f-d088ad8989d1","DEC5132B288E4538812F16A18F825FD5-2025-05-16-19-35-47","","18100","","[""<span style=\""color: red; font-size: 24px\""> NOW RECORDING</span><p>Please say out loud all the images you saw in part 1 of the experiment, as many as you can remember. The images can be said in any order.</p>""]","","1","interview_scheme"
"","","","","","image-button-response","37","830092","0.0-35.0-0.0","DEC5132B288E4538812F16A18F825FD5","DEC5132B288E4538812F16A18F825FD5","ad604f69-7022-4914-b032-a3bce0015b63","e9cc2542-c7dc-4d8f-b94f-d088ad8989d1","{""part"":""2"",""participantId"":""DEC5132B288E4538812F16A18F825FD5"",""assignmentId"":""ad604f69-7022-4914-b032-a3bce0015b63"",""projectId"":""e9cc2542-c7dc-4d8f-b94f-d088ad8989d1""}","https://test12345.live/?part=2&participantId=DEC5132B288E4538812F16A18F825FD5&assignmentId=ad604f69-7022-4914-b032-a3bce0015b63&projectId=e9cc2542-c7dc-4d8f-b94f-d088ad8989d1","DEC5132B288E4538812F16A18F825FD5-2025-05-16-19-35-47","","null","","images/causal_sequence/museum_causal/museum_causal_0.png","null","",""
"","","","","","html-audio-response","38","860171","0.0-36.0","DEC5132B288E4538812F16A18F825FD5","DEC5132B288E4538812F16A18F825FD5","ad604f69-7022-4914-b032-a3bce0015b63","e9cc2542-c7dc-4d8f-b94f-d088ad8989d1","{""part"":""2"",""participantId"":""DEC5132B288E4538812F16A18F825FD5"",""assignmentId"":""ad604f69-7022-4914-b032-a3bce0015b63"",""projectId"":""e9cc2542-c7dc-4d8f-b94f-d088ad8989d1""}","https://test12345.live/?part=2&participantId=DEC5132B288E4538812F16A18F825FD5&assignmentId=ad604f69-7022-4914-b032-a3bce0015b63&projectId=e9cc2542-c7dc-4d8f-b94f-d088ad8989d1","DEC5132B288E4538812F16A18F825FD5-2025-05-16-19-35-47","","22476","","[""<span style=\""color: red; font-size: 24px\""> NOW RECORDING</span><p>Please say out loud all the images you saw in part 1 of the experiment, as many as you can remember. The images can be said in any order.</p>""]","","1","museum_causal"
"","","","","","image-button-response","39","866183","0.0-37.0-0.0","DEC5132B288E4538812F16A18F825FD5","DEC5132B288E4538812F16A18F825FD5","ad604f69-7022-4914-b032-a3bce0015b63","e9cc2542-c7dc-4d8f-b94f-d088ad8989d1","{""part"":""2"",""participantId"":""DEC5132B288E4538812F16A18F825FD5"",""assignmentId"":""ad604f69-7022-4914-b032-a3bce0015b63"",""projectId"":""e9cc2542-c7dc-4d8f-b94f-d088ad8989d1""}","https://test12345.live/?part=2&participantId=DEC5132B288E4538812F16A18F825FD5&assignmentId=ad604f69-7022-4914-b032-a3bce0015b63&projectId=e9cc2542-c7dc-4d8f-b94f-d088ad8989d1","DEC5132B288E4538812F16A18F825FD5-2025-05-16-19-35-47","","null","","images/semantic_sequence/self_care_activities_semantic/self_care_activities_semantic_0.png","null","",""
"","","","","","html-audio-response","40","902274","0.0-38.0","DEC5132B288E4538812F16A18F825FD5","DEC5132B288E4538812F16A18F825FD5","ad604f69-7022-4914-b032-a3bce0015b63","e9cc2542-c7dc-4d8f-b94f-d088ad8989d1","{""part"":""2"",""participantId"":""DEC5132B288E4538812F16A18F825FD5"",""assignmentId"":""ad604f69-7022-4914-b032-a3bce0015b63"",""projectId"":""e9cc2542-c7dc-4d8f-b94f-d088ad8989d1""}","https://test12345.live/?part=2&participantId=DEC5132B288E4538812F16A18F825FD5&assignmentId=ad604f69-7022-4914-b032-a3bce0015b63&projectId=e9cc2542-c7dc-4d8f-b94f-d088ad8989d1","DEC5132B288E4538812F16A18F825FD5-2025-05-16-19-35-47","","13811","","[""<span style=\""color: red; font-size: 24px\""> NOW RECORDING</span><p>Please say out loud all the images you saw in part 1 of the experiment, as many as you can remember. The images can be said in any order.</p>""]","","1","self_care_activities_semantic"
"","","","","","image-button-response","41","908284","0.0-39.0-0.0","DEC5132B288E4538812F16A18F825FD5","DEC5132B288E4538812F16A18F825FD5","ad604f69-7022-4914-b032-a3bce0015b63","e9cc2542-c7dc-4d8f-b94f-d088ad8989d1","{""part"":""2"",""participantId"":""DEC5132B288E4538812F16A18F825FD5"",""assignmentId"":""ad604f69-7022-4914-b032-a3bce0015b63"",""projectId"":""e9cc2542-c7dc-4d8f-b94f-d088ad8989d1""}","https://test12345.live/?part=2&participantId=DEC5132B288E4538812F16A18F825FD5&assignmentId=ad604f69-7022-4914-b032-a3bce0015b63&projectId=e9cc2542-c7dc-4d8f-b94f-d088ad8989d1","DEC5132B288E4538812F16A18F825FD5-2025-05-16-19-35-47","","null","","images/schematic_sequence/restaurant_scheme/restaurant_scheme_0.png","null","",""
"","","","","","html-audio-response","42","953294","0.0-40.0","DEC5132B288E4538812F16A18F825FD5","DEC5132B288E4538812F16A18F825FD5","ad604f69-7022-4914-b032-a3bce0015b63","e9cc2542-c7dc-4d8f-b94f-d088ad8989d1","{""part"":""2"",""participantId"":""DEC5132B288E4538812F16A18F825FD5"",""assignmentId"":""ad604f69-7022-4914-b032-a3bce0015b63"",""projectId"":""e9cc2542-c7dc-4d8f-b94f-d088ad8989d1""}","https://test12345.live/?part=2&participantId=DEC5132B288E4538812F16A18F825FD5&assignmentId=ad604f69-7022-4914-b032-a3bce0015b63&projectId=e9cc2542-c7dc-4d8f-b94f-d088ad8989d1","DEC5132B288E4538812F16A18F825FD5-2025-05-16-19-35-47","","23651","","[""<span style=\""color: red; font-size: 24px\""> NOW RECORDING</span><p>Please say out loud all the images you saw in part 1 of the experiment, as many as you can remember. The images can be said in any order.</p>""]","","1","restaurant_scheme"
"","","","","","image-button-response","43","959314","0.0-41.0-0.0","DEC5132B288E4538812F16A18F825FD5","DEC5132B288E4538812F16A18F825FD5","ad604f69-7022-4914-b032-a3bce0015b63","e9cc2542-c7dc-4d8f-b94f-d088ad8989d1","{""part"":""2"",""participantId"":""DEC5132B288E4538812F16A18F825FD5"",""assignmentId"":""ad604f69-7022-4914-b032-a3bce0015b63"",""projectId"":""e9cc2542-c7dc-4d8f-b94f-d088ad8989d1""}","https://test12345.live/?part=2&participantId=DEC5132B288E4538812F16A18F825FD5&assignmentId=ad604f69-7022-4914-b032-a3bce0015b63&projectId=e9cc2542-c7dc-4d8f-b94f-d088ad8989d1","DEC5132B288E4538812F16A18F825FD5-2025-05-16-19-35-47","","null","","images/causal_sequence/saving_a_cat_causal/saving_a_cat_causal_0.png","null","",""
"","","","","","html-audio-response","44","980625","0.0-42.0","DEC5132B288E4538812F16A18F825FD5","DEC5132B288E4538812F16A18F825FD5","ad604f69-7022-4914-b032-a3bce0015b63","e9cc2542-c7dc-4d8f-b94f-d088ad8989d1","{""part"":""2"",""participantId"":""DEC5132B288E4538812F16A18F825FD5"",""assignmentId"":""ad604f69-7022-4914-b032-a3bce0015b63"",""projectId"":""e9cc2542-c7dc-4d8f-b94f-d088ad8989d1""}","https://test12345.live/?part=2&participantId=DEC5132B288E4538812F16A18F825FD5&assignmentId=ad604f69-7022-4914-b032-a3bce0015b63&projectId=e9cc2542-c7dc-4d8f-b94f-d088ad8989d1","DEC5132B288E4538812F16A18F825FD5-2025-05-16-19-35-47","","20024","","[""<span style=\""color: red; font-size: 24px\""> NOW RECORDING</span><p>Please say out loud all the images you saw in part 1 of the experiment, as many as you can remember. The images can be said in any order.</p>""]","","1","saving_a_cat_causal"
"","","","","","image-button-response","45","986629","0.0-43.0-0.0","DEC5132B288E4538812F16A18F825FD5","DEC5132B288E4538812F16A18F825FD5","ad604f69-7022-4914-b032-a3bce0015b63","e9cc2542-c7dc-4d8f-b94f-d088ad8989d1","{""part"":""2"",""participantId"":""DEC5132B288E4538812F16A18F825FD5"",""assignmentId"":""ad604f69-7022-4914-b032-a3bce0015b63"",""projectId"":""e9cc2542-c7dc-4d8f-b94f-d088ad8989d1""}","https://test12345.live/?part=2&participantId=DEC5132B288E4538812F16A18F825FD5&assignmentId=ad604f69-7022-4914-b032-a3bce0015b63&projectId=e9cc2542-c7dc-4d8f-b94f-d088ad8989d1","DEC5132B288E4538812F16A18F825FD5-2025-05-16-19-35-47","","null","","images/semantic_sequence/exploring_nature_semantic/exploring_nature_semantic_0.png","null","",""
"","","","","","html-audio-response","46","1000773","0.0-44.0","DEC5132B288E4538812F16A18F825FD5","DEC5132B288E4538812F16A18F825FD5","ad604f69-7022-4914-b032-a3bce0015b63","e9cc2542-c7dc-4d8f-b94f-d088ad8989d1","{""part"":""2"",""participantId"":""DEC5132B288E4538812F16A18F825FD5"",""assignmentId"":""ad604f69-7022-4914-b032-a3bce0015b63"",""projectId"":""e9cc2542-c7dc-4d8f-b94f-d088ad8989d1""}","https://test12345.live/?part=2&participantId=DEC5132B288E4538812F16A18F825FD5&assignmentId=ad604f69-7022-4914-b032-a3bce0015b63&projectId=e9cc2542-c7dc-4d8f-b94f-d088ad8989d1","DEC5132B288E4538812F16A18F825FD5-2025-05-16-19-35-47","","13271","","[""<span style=\""color: red; font-size: 24px\""> NOW RECORDING</span><p>Please say out loud all the images you saw in part 1 of the experiment, as many as you can remember. The images can be said in any order.</p>""]","","1","exploring_nature_semantic"
"","","","","","image-button-response","47","1006781","0.0-45.0-0.0","DEC5132B288E4538812F16A18F825FD5","DEC5132B288E4538812F16A18F825FD5","ad604f69-7022-4914-b032-a3bce0015b63","e9cc2542-c7dc-4d8f-b94f-d088ad8989d1","{""part"":""2"",""participantId"":""DEC5132B288E4538812F16A18F825FD5"",""assignmentId"":""ad604f69-7022-4914-b032-a3bce0015b63"",""projectId"":""e9cc2542-c7dc-4d8f-b94f-d088ad8989d1""}","https://test12345.live/?part=2&participantId=DEC5132B288E4538812F16A18F825FD5&assignmentId=ad604f69-7022-4914-b032-a3bce0015b63&projectId=e9cc2542-c7dc-4d8f-b94f-d088ad8989d1","DEC5132B288E4538812F16A18F825FD5-2025-05-16-19-35-47","","null","","images/semantic_sequence/maintaining_a_car_semantic/maintaining_a_car_semantic_0.png","null","",""
"","","","","","html-audio-response","48","1029724","0.0-46.0","DEC5132B288E4538812F16A18F825FD5","DEC5132B288E4538812F16A18F825FD5","ad604f69-7022-4914-b032-a3bce0015b63","e9cc2542-c7dc-4d8f-b94f-d088ad8989d1","{""part"":""2"",""participantId"":""DEC5132B288E4538812F16A18F825FD5"",""assignmentId"":""ad604f69-7022-4914-b032-a3bce0015b63"",""projectId"":""e9cc2542-c7dc-4d8f-b94f-d088ad8989d1""}","https://test12345.live/?part=2&participantId=DEC5132B288E4538812F16A18F825FD5&assignmentId=ad604f69-7022-4914-b032-a3bce0015b63&projectId=e9cc2542-c7dc-4d8f-b94f-d088ad8989d1","DEC5132B288E4538812F16A18F825FD5-2025-05-16-19-35-47","","21821","","[""<span style=\""color: red; font-size: 24px\""> NOW RECORDING</span><p>Please say out loud all the images you saw in part 1 of the experiment, as many as you can remember. The images can be said in any order.</p>""]","","1","maintaining_a_car_semantic"
"","","","","","image-button-response","49","1035738","0.0-47.0-0.0","DEC5132B288E4538812F16A18F825FD5","DEC5132B288E4538812F16A18F825FD5","ad604f69-7022-4914-b032-a3bce0015b63","e9cc2542-c7dc-4d8f-b94f-d088ad8989d1","{""part"":""2"",""participantId"":""DEC5132B288E4538812F16A18F825FD5"",""assignmentId"":""ad604f69-7022-4914-b032-a3bce0015b63"",""projectId"":""e9cc2542-c7dc-4d8f-b94f-d088ad8989d1""}","https://test12345.live/?part=2&participantId=DEC5132B288E4538812F16A18F825FD5&assignmentId=ad604f69-7022-4914-b032-a3bce0015b63&projectId=e9cc2542-c7dc-4d8f-b94f-d088ad8989d1","DEC5132B288E4538812F16A18F825FD5-2025-05-16-19-35-47","","null","","images/causal_sequence/the_performance_causal/the_performance_causal_0.png","null","",""
"","","","","","html-audio-response","50","1067131","0.0-48.0","DEC5132B288E4538812F16A18F825FD5","DEC5132B288E4538812F16A18F825FD5","ad604f69-7022-4914-b032-a3bce0015b63","e9cc2542-c7dc-4d8f-b94f-d088ad8989d1","{""part"":""2"",""participantId"":""DEC5132B288E4538812F16A18F825FD5"",""assignmentId"":""ad604f69-7022-4914-b032-a3bce0015b63"",""projectId"":""e9cc2542-c7dc-4d8f-b94f-d088ad8989d1""}","https://test12345.live/?part=2&participantId=DEC5132B288E4538812F16A18F825FD5&assignmentId=ad604f69-7022-4914-b032-a3bce0015b63&projectId=e9cc2542-c7dc-4d8f-b94f-d088ad8989d1","DEC5132B288E4538812F16A18F825FD5-2025-05-16-19-35-47","","18885","","[""<span style=\""color: red; font-size: 24px\""> NOW RECORDING</span><p>Please say out loud all the images you saw in part 1 of the experiment, as many as you can remember. The images can be said in any order.</p>""]","","1","the_performance_causal"
"","","","","","image-button-response","51","1073145","0.0-49.0-0.0","DEC5132B288E4538812F16A18F825FD5","DEC5132B288E4538812F16A18F825FD5","ad604f69-7022-4914-b032-a3bce0015b63","e9cc2542-c7dc-4d8f-b94f-d088ad8989d1","{""part"":""2"",""participantId"":""DEC5132B288E4538812F16A18F825FD5"",""assignmentId"":""ad604f69-7022-4914-b032-a3bce0015b63"",""projectId"":""e9cc2542-c7dc-4d8f-b94f-d088ad8989d1""}","https://test12345.live/?part=2&participantId=DEC5132B288E4538812F16A18F825FD5&assignmentId=ad604f69-7022-4914-b032-a3bce0015b63&projectId=e9cc2542-c7dc-4d8f-b94f-d088ad8989d1","DEC5132B288E4538812F16A18F825FD5-2025-05-16-19-35-47","","null","","images/semantic_sequence/creative_activities_semantic/creative_activities_semantic_0.png","null","",""
"","","","","","html-audio-response","52","1092393","0.0-50.0","DEC5132B288E4538812F16A18F825FD5","DEC5132B288E4538812F16A18F825FD5","ad604f69-7022-4914-b032-a3bce0015b63","e9cc2542-c7dc-4d8f-b94f-d088ad8989d1","{""part"":""2"",""participantId"":""DEC5132B288E4538812F16A18F825FD5"",""assignmentId"":""ad604f69-7022-4914-b032-a3bce0015b63"",""projectId"":""e9cc2542-c7dc-4d8f-b94f-d088ad8989d1""}","https://test12345.live/?part=2&participantId=DEC5132B288E4538812F16A18F825FD5&assignmentId=ad604f69-7022-4914-b032-a3bce0015b63&projectId=e9cc2542-c7dc-4d8f-b94f-d088ad8989d1","DEC5132B288E4538812F16A18F825FD5-2025-05-16-19-35-47","","18397","","[""<span style=\""color: red; font-size: 24px\""> NOW RECORDING</span><p>Please say out loud all the images you saw in part 1 of the experiment, as many as you can remember. The images can be said in any order.</p>""]","","1","creative_activities_semantic"
"","","","","","image-button-response","53","1098406","0.0-51.0-0.0","DEC5132B288E4538812F16A18F825FD5","DEC5132B288E4538812F16A18F825FD5","ad604f69-7022-4914-b032-a3bce0015b63","e9cc2542-c7dc-4d8f-b94f-d088ad8989d1","{""part"":""2"",""participantId"":""DEC5132B288E4538812F16A18F825FD5"",""assignmentId"":""ad604f69-7022-4914-b032-a3bce0015b63"",""projectId"":""e9cc2542-c7dc-4d8f-b94f-d088ad8989d1""}","https://test12345.live/?part=2&participantId=DEC5132B288E4538812F16A18F825FD5&assignmentId=ad604f69-7022-4914-b032-a3bce0015b63&projectId=e9cc2542-c7dc-4d8f-b94f-d088ad8989d1","DEC5132B288E4538812F16A18F825FD5-2025-05-16-19-35-47","","null","","images/causal_sequence/coin_causal/coin_causal_0.png","null","",""
"","","","","","html-audio-response","54","1115662","0.0-52.0","DEC5132B288E4538812F16A18F825FD5","DEC5132B288E4538812F16A18F825FD5","ad604f69-7022-4914-b032-a3bce0015b63","e9cc2542-c7dc-4d8f-b94f-d088ad8989d1","{""part"":""2"",""participantId"":""DEC5132B288E4538812F16A18F825FD5"",""assignmentId"":""ad604f69-7022-4914-b032-a3bce0015b63"",""projectId"":""e9cc2542-c7dc-4d8f-b94f-d088ad8989d1""}","https://test12345.live/?part=2&participantId=DEC5132B288E4538812F16A18F825FD5&assignmentId=ad604f69-7022-4914-b032-a3bce0015b63&projectId=e9cc2542-c7dc-4d8f-b94f-d088ad8989d1","DEC5132B288E4538812F16A18F825FD5-2025-05-16-19-35-47","","16372","","[""<span style=\""color: red; font-size: 24px\""> NOW RECORDING</span><p>Please say out loud all the images you saw in part 1 of the experiment, as many as you can remember. The images can be said in any order.</p>""]","","1","coin_causal"
"","","","","","image-button-response","55","1121667","0.0-53.0-0.0","DEC5132B288E4538812F16A18F825FD5","DEC5132B288E4538812F16A18F825FD5","ad604f69-7022-4914-b032-a3bce0015b63","e9cc2542-c7dc-4d8f-b94f-d088ad8989d1","{""part"":""2"",""participantId"":""DEC5132B288E4538812F16A18F825FD5"",""assignmentId"":""ad604f69-7022-4914-b032-a3bce0015b63"",""projectId"":""e9cc2542-c7dc-4d8f-b94f-d088ad8989d1""}","https://test12345.live/?part=2&participantId=DEC5132B288E4538812F16A18F825FD5&assignmentId=ad604f69-7022-4914-b032-a3bce0015b63&projectId=e9cc2542-c7dc-4d8f-b94f-d088ad8989d1","DEC5132B288E4538812F16A18F825FD5-2025-05-16-19-35-47","","null","","images/causal_sequence/dog_causal/dog_causal_0.png","null","",""
"","","","","","html-audio-response","56","1147440","0.0-54.0","DEC5132B288E4538812F16A18F825FD5","DEC5132B288E4538812F16A18F825FD5","ad604f69-7022-4914-b032-a3bce0015b63","e9cc2542-c7dc-4d8f-b94f-d088ad8989d1","{""part"":""2"",""participantId"":""DEC5132B288E4538812F16A18F825FD5"",""assignmentId"":""ad604f69-7022-4914-b032-a3bce0015b63"",""projectId"":""e9cc2542-c7dc-4d8f-b94f-d088ad8989d1""}","https://test12345.live/?part=2&participantId=DEC5132B288E4538812F16A18F825FD5&assignmentId=ad604f69-7022-4914-b032-a3bce0015b63&projectId=e9cc2542-c7dc-4d8f-b94f-d088ad8989d1","DEC5132B288E4538812F16A18F825FD5-2025-05-16-19-35-47","","24598","","[""<span style=\""color: red; font-size: 24px\""> NOW RECORDING</span><p>Please say out loud all the images you saw in part 1 of the experiment, as many as you can remember. The images can be said in any order.</p>""]","","1","dog_causal"
"","","","","","image-button-response","57","1153448","0.0-55.0-0.0","DEC5132B288E4538812F16A18F825FD5","DEC5132B288E4538812F16A18F825FD5","ad604f69-7022-4914-b032-a3bce0015b63","e9cc2542-c7dc-4d8f-b94f-d088ad8989d1","{""part"":""2"",""participantId"":""DEC5132B288E4538812F16A18F825FD5"",""assignmentId"":""ad604f69-7022-4914-b032-a3bce0015b63"",""projectId"":""e9cc2542-c7dc-4d8f-b94f-d088ad8989d1""}","https://test12345.live/?part=2&participantId=DEC5132B288E4538812F16A18F825FD5&assignmentId=ad604f69-7022-4914-b032-a3bce0015b63&projectId=e9cc2542-c7dc-4d8f-b94f-d088ad8989d1","DEC5132B288E4538812F16A18F825FD5-2025-05-16-19-35-47","","null","","images/semantic_sequence/visiting_cities_semantic/visiting_cities_semantic_0.png","null","",""
"","","","","","html-audio-response","58","1170621","0.0-56.0","DEC5132B288E4538812F16A18F825FD5","DEC5132B288E4538812F16A18F825FD5","ad604f69-7022-4914-b032-a3bce0015b63","e9cc2542-c7dc-4d8f-b94f-d088ad8989d1","{""part"":""2"",""participantId"":""DEC5132B288E4538812F16A18F825FD5"",""assignmentId"":""ad604f69-7022-4914-b032-a3bce0015b63"",""projectId"":""e9cc2542-c7dc-4d8f-b94f-d088ad8989d1""}","https://test12345.live/?part=2&participantId=DEC5132B288E4538812F16A18F825FD5&assignmentId=ad604f69-7022-4914-b032-a3bce0015b63&projectId=e9cc2542-c7dc-4d8f-b94f-d088ad8989d1","DEC5132B288E4538812F16A18F825FD5-2025-05-16-19-35-47","","15762","","[""<span style=\""color: red; font-size: 24px\""> NOW RECORDING</span><p>Please say out loud all the images you saw in part 1 of the experiment, as many as you can remember. The images can be said in any order.</p>""]","","1","visiting_cities_semantic"
"","","","","","survey-text","59","1176578","0.0-57.0","DEC5132B288E4538812F16A18F825FD5","DEC5132B288E4538812F16A18F825FD5","ad604f69-7022-4914-b032-a3bce0015b63","e9cc2542-c7dc-4d8f-b94f-d088ad8989d1","{""part"":""2"",""participantId"":""DEC5132B288E4538812F16A18F825FD5"",""assignmentId"":""ad604f69-7022-4914-b032-a3bce0015b63"",""projectId"":""e9cc2542-c7dc-4d8f-b94f-d088ad8989d1""}","https://test12345.live/?part=2&participantId=DEC5132B288E4538812F16A18F825FD5&assignmentId=ad604f69-7022-4914-b032-a3bce0015b63&projectId=e9cc2542-c7dc-4d8f-b94f-d088ad8989d1","DEC5132B288E4538812F16A18F825FD5-2025-05-16-19-35-47","","5950","","","{""Q0"":""male"",""Q1"":""30""}","",""
"","","","","","instructions","60","1182117","0.0-58.0","DEC5132B288E4538812F16A18F825FD5","DEC5132B288E4538812F16A18F825FD5","ad604f69-7022-4914-b032-a3bce0015b63","e9cc2542-c7dc-4d8f-b94f-d088ad8989d1","{""part"":""2"",""participantId"":""DEC5132B288E4538812F16A18F825FD5"",""assignmentId"":""ad604f69-7022-4914-b032-a3bce0015b63"",""projectId"":""e9cc2542-c7dc-4d8f-b94f-d088ad8989d1""}","https://test12345.live/?part=2&participantId=DEC5132B288E4538812F16A18F825FD5&assignmentId=ad604f69-7022-4914-b032-a3bce0015b63&projectId=e9cc2542-c7dc-4d8f-b94f-d088ad8989d1","DEC5132B288E4538812F16A18F825FD5-2025-05-16-19-35-47","[{""page_index"":0,""viewing_time"":5538}]","5538","","","","",""
"","","","","","survey-text","61","1185270","0.0-59.0","DEC5132B288E4538812F16A18F825FD5","DEC5132B288E4538812F16A18F825FD5","ad604f69-7022-4914-b032-a3bce0015b63","e9cc2542-c7dc-4d8f-b94f-d088ad8989d1","{""part"":""2"",""participantId"":""DEC5132B288E4538812F16A18F825FD5"",""assignmentId"":""ad604f69-7022-4914-b032-a3bce0015b63"",""projectId"":""e9cc2542-c7dc-4d8f-b94f-d088ad8989d1""}","https://test12345.live/?part=2&participantId=DEC5132B288E4538812F16A18F825FD5&assignmentId=ad604f69-7022-4914-b032-a3bce0015b63&projectId=e9cc2542-c7dc-4d8f-b94f-d088ad8989d1","DEC5132B288E4538812F16A18F825FD5-2025-05-16-19-35-47","","3152","","","{""Q0"":""AJFHBG896""}","",""
