"success","timeout","failed_images","failed_audio","failed_video","trial_type","trial_index","time_elapsed","internal_node_id","subject","subject_id","study_id","session_id","urlvar","current_url","audio_id","view_history","rt","device_id","stimulus","response","estimated_stimulus_onset","seq_name"
"true","false","[]","[]","[]","preload","0","4005","0.0-0.0","E4E2AC07C6A347D9B49CBB3FF4B563F9","E4E2AC07C6A347D9B49CBB3FF4B563F9","30dac145-02e6-4f72-b831-ff5e3c5fe140","2dd913a0-fd4c-43f1-b4f3-f0d48537bce8","{""part"":""2"",""participantId"":""E4E2AC07C6A347D9B49CBB3FF4B563F9"",""assignmentId"":""30dac145-02e6-4f72-b831-ff5e3c5fe140"",""projectId"":""2dd913a0-fd4c-43f1-b4f3-f0d48537bce8""}","https://test12345.live/?part=2&participantId=E4E2AC07C6A347D9B49CBB3FF4B563F9&assignmentId=30dac145-02e6-4f72-b831-ff5e3c5fe140&projectId=2dd913a0-fd4c-43f1-b4f3-f0d48537bce8","E4E2AC07C6A347D9B49CBB3FF4B563F9-2025-05-15-20-40-03","","","","","","",""
"","","","","","instructions","1","25698","0.0-1.0","E4E2AC07C6A347D9B49CBB3FF4B563F9","E4E2AC07C6A347D9B49CBB3FF4B563F9","30dac145-02e6-4f72-b831-ff5e3c5fe140","2dd913a0-fd4c-43f1-b4f3-f0d48537bce8","{""part"":""2"",""participantId"":""E4E2AC07C6A347D9B49CBB3FF4B563F9"",""assignmentId"":""30dac145-02e6-4f72-b831-ff5e3c5fe140"",""projectId"":""2dd913a0-fd4c-43f1-b4f3-f0d48537bce8""}","https://test12345.live/?part=2&participantId=E4E2AC07C6A347D9B49CBB3FF4B563F9&assignmentId=30dac145-02e6-4f72-b831-ff5e3c5fe140&projectId=2dd913a0-fd4c-43f1-b4f3-f0d48537bce8","E4E2AC07C6A347D9B49CBB3FF4B563F9-2025-05-15-20-40-03","[{""page_index"":0,""viewing_time"":21692}]","21693","","","","",""
"","","","","","instructions","2","53314","0.0-2.0","E4E2AC07C6A347D9B49CBB3FF4B563F9","E4E2AC07C6A347D9B49CBB3FF4B563F9","30dac145-02e6-4f72-b831-ff5e3c5fe140","2dd913a0-fd4c-43f1-b4f3-f0d48537bce8","{""part"":""2"",""participantId"":""E4E2AC07C6A347D9B49CBB3FF4B563F9"",""assignmentId"":""30dac145-02e6-4f72-b831-ff5e3c5fe140"",""projectId"":""2dd913a0-fd4c-43f1-b4f3-f0d48537bce8""}","https://test12345.live/?part=2&participantId=E4E2AC07C6A347D9B49CBB3FF4B563F9&assignmentId=30dac145-02e6-4f72-b831-ff5e3c5fe140&projectId=2dd913a0-fd4c-43f1-b4f3-f0d48537bce8","E4E2AC07C6A347D9B49CBB3FF4B563F9-2025-05-15-20-40-03","[{""page_index"":0,""viewing_time"":27613}]","27613","","","","",""
"true","","","","","fullscreen","3","56466","0.0-3.0","E4E2AC07C6A347D9B49CBB3FF4B563F9","E4E2AC07C6A347D9B49CBB3FF4B563F9","30dac145-02e6-4f72-b831-ff5e3c5fe140","2dd913a0-fd4c-43f1-b4f3-f0d48537bce8","{""part"":""2"",""participantId"":""E4E2AC07C6A347D9B49CBB3FF4B563F9"",""assignmentId"":""30dac145-02e6-4f72-b831-ff5e3c5fe140"",""projectId"":""2dd913a0-fd4c-43f1-b4f3-f0d48537bce8""}","https://test12345.live/?part=2&participantId=E4E2AC07C6A347D9B49CBB3FF4B563F9&assignmentId=30dac145-02e6-4f72-b831-ff5e3c5fe140&projectId=2dd913a0-fd4c-43f1-b4f3-f0d48537bce8","E4E2AC07C6A347D9B49CBB3FF4B563F9-2025-05-15-20-40-03","","2149","","","","",""
"","","","","","initialize-microphone","4","62286","0.0-4.0-0.0","E4E2AC07C6A347D9B49CBB3FF4B563F9","E4E2AC07C6A347D9B49CBB3FF4B563F9","30dac145-02e6-4f72-b831-ff5e3c5fe140","2dd913a0-fd4c-43f1-b4f3-f0d48537bce8","{""part"":""2"",""participantId"":""E4E2AC07C6A347D9B49CBB3FF4B563F9"",""assignmentId"":""30dac145-02e6-4f72-b831-ff5e3c5fe140"",""projectId"":""2dd913a0-fd4c-43f1-b4f3-f0d48537bce8""}","https://test12345.live/?part=2&participantId=E4E2AC07C6A347D9B49CBB3FF4B563F9&assignmentId=30dac145-02e6-4f72-b831-ff5e3c5fe140&projectId=2dd913a0-fd4c-43f1-b4f3-f0d48537bce8","E4E2AC07C6A347D9B49CBB3FF4B563F9-2025-05-15-20-40-03","","","a4e0910ab1a0457c5542196c5bc7e98eeac0cff7ee4ee1f90157d60156c3a656","","","",""
"","","","","","html-audio-response","5","69736","0.0-4.0-1.0","E4E2AC07C6A347D9B49CBB3FF4B563F9","E4E2AC07C6A347D9B49CBB3FF4B563F9","30dac145-02e6-4f72-b831-ff5e3c5fe140","2dd913a0-fd4c-43f1-b4f3-f0d48537bce8","{""part"":""2"",""participantId"":""E4E2AC07C6A347D9B49CBB3FF4B563F9"",""assignmentId"":""30dac145-02e6-4f72-b831-ff5e3c5fe140"",""projectId"":""2dd913a0-fd4c-43f1-b4f3-f0d48537bce8""}","https://test12345.live/?part=2&participantId=E4E2AC07C6A347D9B49CBB3FF4B563F9&assignmentId=30dac145-02e6-4f72-b831-ff5e3c5fe140&projectId=2dd913a0-fd4c-43f1-b4f3-f0d48537bce8","E4E2AC07C6A347D9B49CBB3FF4B563F9-2025-05-15-20-40-03","","2591","","<span style=""color: red; font-size: 24px""> NOW RECORDING</span>
        <p>Please test Microphone</p>","","3",""
"","","","","","html-button-response","6","72140","0.0-4.0-2.0","E4E2AC07C6A347D9B49CBB3FF4B563F9","E4E2AC07C6A347D9B49CBB3FF4B563F9","30dac145-02e6-4f72-b831-ff5e3c5fe140","2dd913a0-fd4c-43f1-b4f3-f0d48537bce8","{""part"":""2"",""participantId"":""E4E2AC07C6A347D9B49CBB3FF4B563F9"",""assignmentId"":""30dac145-02e6-4f72-b831-ff5e3c5fe140"",""projectId"":""2dd913a0-fd4c-43f1-b4f3-f0d48537bce8""}","https://test12345.live/?part=2&participantId=E4E2AC07C6A347D9B49CBB3FF4B563F9&assignmentId=30dac145-02e6-4f72-b831-ff5e3c5fe140&projectId=2dd913a0-fd4c-43f1-b4f3-f0d48537bce8","E4E2AC07C6A347D9B49CBB3FF4B563F9-2025-05-15-20-40-03","","2402","","<p style=""font-size:48px; color:red;"">Is Microphone OK?</p>","1","",""
"","","","","","instructions","7","95301","0.0-5.0","E4E2AC07C6A347D9B49CBB3FF4B563F9","E4E2AC07C6A347D9B49CBB3FF4B563F9","30dac145-02e6-4f72-b831-ff5e3c5fe140","2dd913a0-fd4c-43f1-b4f3-f0d48537bce8","{""part"":""2"",""participantId"":""E4E2AC07C6A347D9B49CBB3FF4B563F9"",""assignmentId"":""30dac145-02e6-4f72-b831-ff5e3c5fe140"",""projectId"":""2dd913a0-fd4c-43f1-b4f3-f0d48537bce8""}","https://test12345.live/?part=2&participantId=E4E2AC07C6A347D9B49CBB3FF4B563F9&assignmentId=30dac145-02e6-4f72-b831-ff5e3c5fe140&projectId=2dd913a0-fd4c-43f1-b4f3-f0d48537bce8","E4E2AC07C6A347D9B49CBB3FF4B563F9-2025-05-15-20-40-03","[{""page_index"":0,""viewing_time"":1801},{""page_index"":1,""viewing_time"":11490},{""page_index"":2,""viewing_time"":9870}]","23161","","","","",""
"","","","","","image-button-response","8","101308","0.0-6.0-0.0","E4E2AC07C6A347D9B49CBB3FF4B563F9","E4E2AC07C6A347D9B49CBB3FF4B563F9","30dac145-02e6-4f72-b831-ff5e3c5fe140","2dd913a0-fd4c-43f1-b4f3-f0d48537bce8","{""part"":""2"",""participantId"":""E4E2AC07C6A347D9B49CBB3FF4B563F9"",""assignmentId"":""30dac145-02e6-4f72-b831-ff5e3c5fe140"",""projectId"":""2dd913a0-fd4c-43f1-b4f3-f0d48537bce8""}","https://test12345.live/?part=2&participantId=E4E2AC07C6A347D9B49CBB3FF4B563F9&assignmentId=30dac145-02e6-4f72-b831-ff5e3c5fe140&projectId=2dd913a0-fd4c-43f1-b4f3-f0d48537bce8","E4E2AC07C6A347D9B49CBB3FF4B563F9-2025-05-15-20-40-03","","null","","images/instructions/movie_0.png","null","",""
"","","","","","html-audio-response","9","127578","0.0-7.0","E4E2AC07C6A347D9B49CBB3FF4B563F9","E4E2AC07C6A347D9B49CBB3FF4B563F9","30dac145-02e6-4f72-b831-ff5e3c5fe140","2dd913a0-fd4c-43f1-b4f3-f0d48537bce8","{""part"":""2"",""participantId"":""E4E2AC07C6A347D9B49CBB3FF4B563F9"",""assignmentId"":""30dac145-02e6-4f72-b831-ff5e3c5fe140"",""projectId"":""2dd913a0-fd4c-43f1-b4f3-f0d48537bce8""}","https://test12345.live/?part=2&participantId=E4E2AC07C6A347D9B49CBB3FF4B563F9&assignmentId=30dac145-02e6-4f72-b831-ff5e3c5fe140&projectId=2dd913a0-fd4c-43f1-b4f3-f0d48537bce8","E4E2AC07C6A347D9B49CBB3FF4B563F9-2025-05-15-20-40-03","","24837","","[""<span style=\""color: red; font-size: 24px\""> NOW RECORDING</span><p>Please say out loud all the images you saw in part 1 of the experiment, as many as you can remember. The images can be said in any order.</p>""]","","32",""
"","","","","","instructions","10","131724","0.0-8.0","E4E2AC07C6A347D9B49CBB3FF4B563F9","E4E2AC07C6A347D9B49CBB3FF4B563F9","30dac145-02e6-4f72-b831-ff5e3c5fe140","2dd913a0-fd4c-43f1-b4f3-f0d48537bce8","{""part"":""2"",""participantId"":""E4E2AC07C6A347D9B49CBB3FF4B563F9"",""assignmentId"":""30dac145-02e6-4f72-b831-ff5e3c5fe140"",""projectId"":""2dd913a0-fd4c-43f1-b4f3-f0d48537bce8""}","https://test12345.live/?part=2&participantId=E4E2AC07C6A347D9B49CBB3FF4B563F9&assignmentId=30dac145-02e6-4f72-b831-ff5e3c5fe140&projectId=2dd913a0-fd4c-43f1-b4f3-f0d48537bce8","E4E2AC07C6A347D9B49CBB3FF4B563F9-2025-05-15-20-40-03","[{""page_index"":0,""viewing_time"":4138}]","4138","","","","",""
"","","","","","image-button-response","11","137727","0.0-9.0-0.0","E4E2AC07C6A347D9B49CBB3FF4B563F9","E4E2AC07C6A347D9B49CBB3FF4B563F9","30dac145-02e6-4f72-b831-ff5e3c5fe140","2dd913a0-fd4c-43f1-b4f3-f0d48537bce8","{""part"":""2"",""participantId"":""E4E2AC07C6A347D9B49CBB3FF4B563F9"",""assignmentId"":""30dac145-02e6-4f72-b831-ff5e3c5fe140"",""projectId"":""2dd913a0-fd4c-43f1-b4f3-f0d48537bce8""}","https://test12345.live/?part=2&participantId=E4E2AC07C6A347D9B49CBB3FF4B563F9&assignmentId=30dac145-02e6-4f72-b831-ff5e3c5fe140&projectId=2dd913a0-fd4c-43f1-b4f3-f0d48537bce8","E4E2AC07C6A347D9B49CBB3FF4B563F9-2025-05-15-20-40-03","","null","","images/schematic_sequence/flight_scheme/flight_scheme_0.png","null","",""
"","","","","","html-audio-response","12","170979","0.0-10.0","E4E2AC07C6A347D9B49CBB3FF4B563F9","E4E2AC07C6A347D9B49CBB3FF4B563F9","30dac145-02e6-4f72-b831-ff5e3c5fe140","2dd913a0-fd4c-43f1-b4f3-f0d48537bce8","{""part"":""2"",""participantId"":""E4E2AC07C6A347D9B49CBB3FF4B563F9"",""assignmentId"":""30dac145-02e6-4f72-b831-ff5e3c5fe140"",""projectId"":""2dd913a0-fd4c-43f1-b4f3-f0d48537bce8""}","https://test12345.live/?part=2&participantId=E4E2AC07C6A347D9B49CBB3FF4B563F9&assignmentId=30dac145-02e6-4f72-b831-ff5e3c5fe140&projectId=2dd913a0-fd4c-43f1-b4f3-f0d48537bce8","E4E2AC07C6A347D9B49CBB3FF4B563F9-2025-05-15-20-40-03","","31839","","[""<span style=\""color: red; font-size: 24px\""> NOW RECORDING</span><p>Please say out loud all the images you saw in part 1 of the experiment, as many as you can remember. The images can be said in any order.</p>""]","","1","flight_scheme"
"","","","","","image-button-response","13","176993","0.0-11.0-0.0","E4E2AC07C6A347D9B49CBB3FF4B563F9","E4E2AC07C6A347D9B49CBB3FF4B563F9","30dac145-02e6-4f72-b831-ff5e3c5fe140","2dd913a0-fd4c-43f1-b4f3-f0d48537bce8","{""part"":""2"",""participantId"":""E4E2AC07C6A347D9B49CBB3FF4B563F9"",""assignmentId"":""30dac145-02e6-4f72-b831-ff5e3c5fe140"",""projectId"":""2dd913a0-fd4c-43f1-b4f3-f0d48537bce8""}","https://test12345.live/?part=2&participantId=E4E2AC07C6A347D9B49CBB3FF4B563F9&assignmentId=30dac145-02e6-4f72-b831-ff5e3c5fe140&projectId=2dd913a0-fd4c-43f1-b4f3-f0d48537bce8","E4E2AC07C6A347D9B49CBB3FF4B563F9-2025-05-15-20-40-03","","null","","images/semantic_sequence/creative_activities_semantic/creative_activities_semantic_0.png","null","",""
"","","","","","html-audio-response","14","223842","0.0-12.0","E4E2AC07C6A347D9B49CBB3FF4B563F9","E4E2AC07C6A347D9B49CBB3FF4B563F9","30dac145-02e6-4f72-b831-ff5e3c5fe140","2dd913a0-fd4c-43f1-b4f3-f0d48537bce8","{""part"":""2"",""participantId"":""E4E2AC07C6A347D9B49CBB3FF4B563F9"",""assignmentId"":""30dac145-02e6-4f72-b831-ff5e3c5fe140"",""projectId"":""2dd913a0-fd4c-43f1-b4f3-f0d48537bce8""}","https://test12345.live/?part=2&participantId=E4E2AC07C6A347D9B49CBB3FF4B563F9&assignmentId=30dac145-02e6-4f72-b831-ff5e3c5fe140&projectId=2dd913a0-fd4c-43f1-b4f3-f0d48537bce8","E4E2AC07C6A347D9B49CBB3FF4B563F9-2025-05-15-20-40-03","","43739","","[""<span style=\""color: red; font-size: 24px\""> NOW RECORDING</span><p>Please say out loud all the images you saw in part 1 of the experiment, as many as you can remember. The images can be said in any order.</p>""]","","1","creative_activities_semantic"
"","","","","","image-button-response","15","229856","0.0-13.0-0.0","E4E2AC07C6A347D9B49CBB3FF4B563F9","E4E2AC07C6A347D9B49CBB3FF4B563F9","30dac145-02e6-4f72-b831-ff5e3c5fe140","2dd913a0-fd4c-43f1-b4f3-f0d48537bce8","{""part"":""2"",""participantId"":""E4E2AC07C6A347D9B49CBB3FF4B563F9"",""assignmentId"":""30dac145-02e6-4f72-b831-ff5e3c5fe140"",""projectId"":""2dd913a0-fd4c-43f1-b4f3-f0d48537bce8""}","https://test12345.live/?part=2&participantId=E4E2AC07C6A347D9B49CBB3FF4B563F9&assignmentId=30dac145-02e6-4f72-b831-ff5e3c5fe140&projectId=2dd913a0-fd4c-43f1-b4f3-f0d48537bce8","E4E2AC07C6A347D9B49CBB3FF4B563F9-2025-05-15-20-40-03","","null","","images/causal_sequence/saving_a_cat_causal/saving_a_cat_causal_0.png","null","",""
"","","","","","html-audio-response","16","282886","0.0-14.0","E4E2AC07C6A347D9B49CBB3FF4B563F9","E4E2AC07C6A347D9B49CBB3FF4B563F9","30dac145-02e6-4f72-b831-ff5e3c5fe140","2dd913a0-fd4c-43f1-b4f3-f0d48537bce8","{""part"":""2"",""participantId"":""E4E2AC07C6A347D9B49CBB3FF4B563F9"",""assignmentId"":""30dac145-02e6-4f72-b831-ff5e3c5fe140"",""projectId"":""2dd913a0-fd4c-43f1-b4f3-f0d48537bce8""}","https://test12345.live/?part=2&participantId=E4E2AC07C6A347D9B49CBB3FF4B563F9&assignmentId=30dac145-02e6-4f72-b831-ff5e3c5fe140&projectId=2dd913a0-fd4c-43f1-b4f3-f0d48537bce8","E4E2AC07C6A347D9B49CBB3FF4B563F9-2025-05-15-20-40-03","","51601","","[""<span style=\""color: red; font-size: 24px\""> NOW RECORDING</span><p>Please say out loud all the images you saw in part 1 of the experiment, as many as you can remember. The images can be said in any order.</p>""]","","1","saving_a_cat_causal"
"","","","","","image-button-response","17","288904","0.0-15.0-0.0","E4E2AC07C6A347D9B49CBB3FF4B563F9","E4E2AC07C6A347D9B49CBB3FF4B563F9","30dac145-02e6-4f72-b831-ff5e3c5fe140","2dd913a0-fd4c-43f1-b4f3-f0d48537bce8","{""part"":""2"",""participantId"":""E4E2AC07C6A347D9B49CBB3FF4B563F9"",""assignmentId"":""30dac145-02e6-4f72-b831-ff5e3c5fe140"",""projectId"":""2dd913a0-fd4c-43f1-b4f3-f0d48537bce8""}","https://test12345.live/?part=2&participantId=E4E2AC07C6A347D9B49CBB3FF4B563F9&assignmentId=30dac145-02e6-4f72-b831-ff5e3c5fe140&projectId=2dd913a0-fd4c-43f1-b4f3-f0d48537bce8","E4E2AC07C6A347D9B49CBB3FF4B563F9-2025-05-15-20-40-03","","null","","images/semantic_sequence/visiting_cities_semantic/visiting_cities_semantic_0.png","null","",""
"","","","","","html-audio-response","18","322449","0.0-16.0","E4E2AC07C6A347D9B49CBB3FF4B563F9","E4E2AC07C6A347D9B49CBB3FF4B563F9","30dac145-02e6-4f72-b831-ff5e3c5fe140","2dd913a0-fd4c-43f1-b4f3-f0d48537bce8","{""part"":""2"",""participantId"":""E4E2AC07C6A347D9B49CBB3FF4B563F9"",""assignmentId"":""30dac145-02e6-4f72-b831-ff5e3c5fe140"",""projectId"":""2dd913a0-fd4c-43f1-b4f3-f0d48537bce8""}","https://test12345.live/?part=2&participantId=E4E2AC07C6A347D9B49CBB3FF4B563F9&assignmentId=30dac145-02e6-4f72-b831-ff5e3c5fe140&projectId=2dd913a0-fd4c-43f1-b4f3-f0d48537bce8","E4E2AC07C6A347D9B49CBB3FF4B563F9-2025-05-15-20-40-03","","31725","","[""<span style=\""color: red; font-size: 24px\""> NOW RECORDING</span><p>Please say out loud all the images you saw in part 1 of the experiment, as many as you can remember. The images can be said in any order.</p>""]","","1","visiting_cities_semantic"
"","","","","","image-button-response","19","328462","0.0-17.0-0.0","E4E2AC07C6A347D9B49CBB3FF4B563F9","E4E2AC07C6A347D9B49CBB3FF4B563F9","30dac145-02e6-4f72-b831-ff5e3c5fe140","2dd913a0-fd4c-43f1-b4f3-f0d48537bce8","{""part"":""2"",""participantId"":""E4E2AC07C6A347D9B49CBB3FF4B563F9"",""assignmentId"":""30dac145-02e6-4f72-b831-ff5e3c5fe140"",""projectId"":""2dd913a0-fd4c-43f1-b4f3-f0d48537bce8""}","https://test12345.live/?part=2&participantId=E4E2AC07C6A347D9B49CBB3FF4B563F9&assignmentId=30dac145-02e6-4f72-b831-ff5e3c5fe140&projectId=2dd913a0-fd4c-43f1-b4f3-f0d48537bce8","E4E2AC07C6A347D9B49CBB3FF4B563F9-2025-05-15-20-40-03","","null","","images/semantic_sequence/exploring_nature_semantic/exploring_nature_semantic_0.png","null","",""
"","","","","","html-audio-response","20","360128","0.0-18.0","E4E2AC07C6A347D9B49CBB3FF4B563F9","E4E2AC07C6A347D9B49CBB3FF4B563F9","30dac145-02e6-4f72-b831-ff5e3c5fe140","2dd913a0-fd4c-43f1-b4f3-f0d48537bce8","{""part"":""2"",""participantId"":""E4E2AC07C6A347D9B49CBB3FF4B563F9"",""assignmentId"":""30dac145-02e6-4f72-b831-ff5e3c5fe140"",""projectId"":""2dd913a0-fd4c-43f1-b4f3-f0d48537bce8""}","https://test12345.live/?part=2&participantId=E4E2AC07C6A347D9B49CBB3FF4B563F9&assignmentId=30dac145-02e6-4f72-b831-ff5e3c5fe140&projectId=2dd913a0-fd4c-43f1-b4f3-f0d48537bce8","E4E2AC07C6A347D9B49CBB3FF4B563F9-2025-05-15-20-40-03","","30065","","[""<span style=\""color: red; font-size: 24px\""> NOW RECORDING</span><p>Please say out loud all the images you saw in part 1 of the experiment, as many as you can remember. The images can be said in any order.</p>""]","","1","exploring_nature_semantic"
"","","","","","image-button-response","21","366139","0.0-19.0-0.0","E4E2AC07C6A347D9B49CBB3FF4B563F9","E4E2AC07C6A347D9B49CBB3FF4B563F9","30dac145-02e6-4f72-b831-ff5e3c5fe140","2dd913a0-fd4c-43f1-b4f3-f0d48537bce8","{""part"":""2"",""participantId"":""E4E2AC07C6A347D9B49CBB3FF4B563F9"",""assignmentId"":""30dac145-02e6-4f72-b831-ff5e3c5fe140"",""projectId"":""2dd913a0-fd4c-43f1-b4f3-f0d48537bce8""}","https://test12345.live/?part=2&participantId=E4E2AC07C6A347D9B49CBB3FF4B563F9&assignmentId=30dac145-02e6-4f72-b831-ff5e3c5fe140&projectId=2dd913a0-fd4c-43f1-b4f3-f0d48537bce8","E4E2AC07C6A347D9B49CBB3FF4B563F9-2025-05-15-20-40-03","","null","","images/causal_sequence/package_causal/package_causal_0.png","null","",""
"","","","","","html-audio-response","22","418380","0.0-20.0","E4E2AC07C6A347D9B49CBB3FF4B563F9","E4E2AC07C6A347D9B49CBB3FF4B563F9","30dac145-02e6-4f72-b831-ff5e3c5fe140","2dd913a0-fd4c-43f1-b4f3-f0d48537bce8","{""part"":""2"",""participantId"":""E4E2AC07C6A347D9B49CBB3FF4B563F9"",""assignmentId"":""30dac145-02e6-4f72-b831-ff5e3c5fe140"",""projectId"":""2dd913a0-fd4c-43f1-b4f3-f0d48537bce8""}","https://test12345.live/?part=2&participantId=E4E2AC07C6A347D9B49CBB3FF4B563F9&assignmentId=30dac145-02e6-4f72-b831-ff5e3c5fe140&projectId=2dd913a0-fd4c-43f1-b4f3-f0d48537bce8","E4E2AC07C6A347D9B49CBB3FF4B563F9-2025-05-15-20-40-03","","51041","","[""<span style=\""color: red; font-size: 24px\""> NOW RECORDING</span><p>Please say out loud all the images you saw in part 1 of the experiment, as many as you can remember. The images can be said in any order.</p>""]","","2","package_causal"
"","","","","","image-button-response","23","424399","0.0-21.0-0.0","E4E2AC07C6A347D9B49CBB3FF4B563F9","E4E2AC07C6A347D9B49CBB3FF4B563F9","30dac145-02e6-4f72-b831-ff5e3c5fe140","2dd913a0-fd4c-43f1-b4f3-f0d48537bce8","{""part"":""2"",""participantId"":""E4E2AC07C6A347D9B49CBB3FF4B563F9"",""assignmentId"":""30dac145-02e6-4f72-b831-ff5e3c5fe140"",""projectId"":""2dd913a0-fd4c-43f1-b4f3-f0d48537bce8""}","https://test12345.live/?part=2&participantId=E4E2AC07C6A347D9B49CBB3FF4B563F9&assignmentId=30dac145-02e6-4f72-b831-ff5e3c5fe140&projectId=2dd913a0-fd4c-43f1-b4f3-f0d48537bce8","E4E2AC07C6A347D9B49CBB3FF4B563F9-2025-05-15-20-40-03","","null","","images/causal_sequence/museum_causal/museum_causal_0.png","null","",""
"","","","","","html-audio-response","24","451223","0.0-22.0","E4E2AC07C6A347D9B49CBB3FF4B563F9","E4E2AC07C6A347D9B49CBB3FF4B563F9","30dac145-02e6-4f72-b831-ff5e3c5fe140","2dd913a0-fd4c-43f1-b4f3-f0d48537bce8","{""part"":""2"",""participantId"":""E4E2AC07C6A347D9B49CBB3FF4B563F9"",""assignmentId"":""30dac145-02e6-4f72-b831-ff5e3c5fe140"",""projectId"":""2dd913a0-fd4c-43f1-b4f3-f0d48537bce8""}","https://test12345.live/?part=2&participantId=E4E2AC07C6A347D9B49CBB3FF4B563F9&assignmentId=30dac145-02e6-4f72-b831-ff5e3c5fe140&projectId=2dd913a0-fd4c-43f1-b4f3-f0d48537bce8","E4E2AC07C6A347D9B49CBB3FF4B563F9-2025-05-15-20-40-03","","23337","","[""<span style=\""color: red; font-size: 24px\""> NOW RECORDING</span><p>Please say out loud all the images you saw in part 1 of the experiment, as many as you can remember. The images can be said in any order.</p>""]","","1","museum_causal"
"","","","","","image-button-response","25","457235","0.0-23.0-0.0","E4E2AC07C6A347D9B49CBB3FF4B563F9","E4E2AC07C6A347D9B49CBB3FF4B563F9","30dac145-02e6-4f72-b831-ff5e3c5fe140","2dd913a0-fd4c-43f1-b4f3-f0d48537bce8","{""part"":""2"",""participantId"":""E4E2AC07C6A347D9B49CBB3FF4B563F9"",""assignmentId"":""30dac145-02e6-4f72-b831-ff5e3c5fe140"",""projectId"":""2dd913a0-fd4c-43f1-b4f3-f0d48537bce8""}","https://test12345.live/?part=2&participantId=E4E2AC07C6A347D9B49CBB3FF4B563F9&assignmentId=30dac145-02e6-4f72-b831-ff5e3c5fe140&projectId=2dd913a0-fd4c-43f1-b4f3-f0d48537bce8","E4E2AC07C6A347D9B49CBB3FF4B563F9-2025-05-15-20-40-03","","null","","images/semantic_sequence/physical_activity_semantic/physical_activity_semantic_0.png","null","",""
"","","","","","html-audio-response","26","497992","0.0-24.0","E4E2AC07C6A347D9B49CBB3FF4B563F9","E4E2AC07C6A347D9B49CBB3FF4B563F9","30dac145-02e6-4f72-b831-ff5e3c5fe140","2dd913a0-fd4c-43f1-b4f3-f0d48537bce8","{""part"":""2"",""participantId"":""E4E2AC07C6A347D9B49CBB3FF4B563F9"",""assignmentId"":""30dac145-02e6-4f72-b831-ff5e3c5fe140"",""projectId"":""2dd913a0-fd4c-43f1-b4f3-f0d48537bce8""}","https://test12345.live/?part=2&participantId=E4E2AC07C6A347D9B49CBB3FF4B563F9&assignmentId=30dac145-02e6-4f72-b831-ff5e3c5fe140&projectId=2dd913a0-fd4c-43f1-b4f3-f0d48537bce8","E4E2AC07C6A347D9B49CBB3FF4B563F9-2025-05-15-20-40-03","","37615","","[""<span style=\""color: red; font-size: 24px\""> NOW RECORDING</span><p>Please say out loud all the images you saw in part 1 of the experiment, as many as you can remember. The images can be said in any order.</p>""]","","1","physical_activity_semantic"
"","","","","","image-button-response","27","504006","0.0-25.0-0.0","E4E2AC07C6A347D9B49CBB3FF4B563F9","E4E2AC07C6A347D9B49CBB3FF4B563F9","30dac145-02e6-4f72-b831-ff5e3c5fe140","2dd913a0-fd4c-43f1-b4f3-f0d48537bce8","{""part"":""2"",""participantId"":""E4E2AC07C6A347D9B49CBB3FF4B563F9"",""assignmentId"":""30dac145-02e6-4f72-b831-ff5e3c5fe140"",""projectId"":""2dd913a0-fd4c-43f1-b4f3-f0d48537bce8""}","https://test12345.live/?part=2&participantId=E4E2AC07C6A347D9B49CBB3FF4B563F9&assignmentId=30dac145-02e6-4f72-b831-ff5e3c5fe140&projectId=2dd913a0-fd4c-43f1-b4f3-f0d48537bce8","E4E2AC07C6A347D9B49CBB3FF4B563F9-2025-05-15-20-40-03","","null","","images/schematic_sequence/restaurant_scheme/restaurant_scheme_0.png","null","",""
"","","","","","html-audio-response","28","558034","0.0-26.0","E4E2AC07C6A347D9B49CBB3FF4B563F9","E4E2AC07C6A347D9B49CBB3FF4B563F9","30dac145-02e6-4f72-b831-ff5e3c5fe140","2dd913a0-fd4c-43f1-b4f3-f0d48537bce8","{""part"":""2"",""participantId"":""E4E2AC07C6A347D9B49CBB3FF4B563F9"",""assignmentId"":""30dac145-02e6-4f72-b831-ff5e3c5fe140"",""projectId"":""2dd913a0-fd4c-43f1-b4f3-f0d48537bce8""}","https://test12345.live/?part=2&participantId=E4E2AC07C6A347D9B49CBB3FF4B563F9&assignmentId=30dac145-02e6-4f72-b831-ff5e3c5fe140&projectId=2dd913a0-fd4c-43f1-b4f3-f0d48537bce8","E4E2AC07C6A347D9B49CBB3FF4B563F9-2025-05-15-20-40-03","","52775","","[""<span style=\""color: red; font-size: 24px\""> NOW RECORDING</span><p>Please say out loud all the images you saw in part 1 of the experiment, as many as you can remember. The images can be said in any order.</p>""]","","32","restaurant_scheme"
"","","","","","image-button-response","29","564052","0.0-27.0-0.0","E4E2AC07C6A347D9B49CBB3FF4B563F9","E4E2AC07C6A347D9B49CBB3FF4B563F9","30dac145-02e6-4f72-b831-ff5e3c5fe140","2dd913a0-fd4c-43f1-b4f3-f0d48537bce8","{""part"":""2"",""participantId"":""E4E2AC07C6A347D9B49CBB3FF4B563F9"",""assignmentId"":""30dac145-02e6-4f72-b831-ff5e3c5fe140"",""projectId"":""2dd913a0-fd4c-43f1-b4f3-f0d48537bce8""}","https://test12345.live/?part=2&participantId=E4E2AC07C6A347D9B49CBB3FF4B563F9&assignmentId=30dac145-02e6-4f72-b831-ff5e3c5fe140&projectId=2dd913a0-fd4c-43f1-b4f3-f0d48537bce8","E4E2AC07C6A347D9B49CBB3FF4B563F9-2025-05-15-20-40-03","","null","","images/schematic_sequence/supermarket_scheme/supermarket_scheme_0.png","null","",""
"","","","","","html-audio-response","30","596111","0.0-28.0","E4E2AC07C6A347D9B49CBB3FF4B563F9","E4E2AC07C6A347D9B49CBB3FF4B563F9","30dac145-02e6-4f72-b831-ff5e3c5fe140","2dd913a0-fd4c-43f1-b4f3-f0d48537bce8","{""part"":""2"",""participantId"":""E4E2AC07C6A347D9B49CBB3FF4B563F9"",""assignmentId"":""30dac145-02e6-4f72-b831-ff5e3c5fe140"",""projectId"":""2dd913a0-fd4c-43f1-b4f3-f0d48537bce8""}","https://test12345.live/?part=2&participantId=E4E2AC07C6A347D9B49CBB3FF4B563F9&assignmentId=30dac145-02e6-4f72-b831-ff5e3c5fe140&projectId=2dd913a0-fd4c-43f1-b4f3-f0d48537bce8","E4E2AC07C6A347D9B49CBB3FF4B563F9-2025-05-15-20-40-03","","30790","","[""<span style=\""color: red; font-size: 24px\""> NOW RECORDING</span><p>Please say out loud all the images you saw in part 1 of the experiment, as many as you can remember. The images can be said in any order.</p>""]","","28","supermarket_scheme"
"","","","","","image-button-response","31","602123","0.0-29.0-0.0","E4E2AC07C6A347D9B49CBB3FF4B563F9","E4E2AC07C6A347D9B49CBB3FF4B563F9","30dac145-02e6-4f72-b831-ff5e3c5fe140","2dd913a0-fd4c-43f1-b4f3-f0d48537bce8","{""part"":""2"",""participantId"":""E4E2AC07C6A347D9B49CBB3FF4B563F9"",""assignmentId"":""30dac145-02e6-4f72-b831-ff5e3c5fe140"",""projectId"":""2dd913a0-fd4c-43f1-b4f3-f0d48537bce8""}","https://test12345.live/?part=2&participantId=E4E2AC07C6A347D9B49CBB3FF4B563F9&assignmentId=30dac145-02e6-4f72-b831-ff5e3c5fe140&projectId=2dd913a0-fd4c-43f1-b4f3-f0d48537bce8","E4E2AC07C6A347D9B49CBB3FF4B563F9-2025-05-15-20-40-03","","null","","images/causal_sequence/dog_causal/dog_causal_0.png","null","",""
"","","","","","html-audio-response","32","659633","0.0-30.0","E4E2AC07C6A347D9B49CBB3FF4B563F9","E4E2AC07C6A347D9B49CBB3FF4B563F9","30dac145-02e6-4f72-b831-ff5e3c5fe140","2dd913a0-fd4c-43f1-b4f3-f0d48537bce8","{""part"":""2"",""participantId"":""E4E2AC07C6A347D9B49CBB3FF4B563F9"",""assignmentId"":""30dac145-02e6-4f72-b831-ff5e3c5fe140"",""projectId"":""2dd913a0-fd4c-43f1-b4f3-f0d48537bce8""}","https://test12345.live/?part=2&participantId=E4E2AC07C6A347D9B49CBB3FF4B563F9&assignmentId=30dac145-02e6-4f72-b831-ff5e3c5fe140&projectId=2dd913a0-fd4c-43f1-b4f3-f0d48537bce8","E4E2AC07C6A347D9B49CBB3FF4B563F9-2025-05-15-20-40-03","","46108","","[""<span style=\""color: red; font-size: 24px\""> NOW RECORDING</span><p>Please say out loud all the images you saw in part 1 of the experiment, as many as you can remember. The images can be said in any order.</p>""]","","34","dog_causal"
"","","","","","image-button-response","33","665649","0.0-31.0-0.0","E4E2AC07C6A347D9B49CBB3FF4B563F9","E4E2AC07C6A347D9B49CBB3FF4B563F9","30dac145-02e6-4f72-b831-ff5e3c5fe140","2dd913a0-fd4c-43f1-b4f3-f0d48537bce8","{""part"":""2"",""participantId"":""E4E2AC07C6A347D9B49CBB3FF4B563F9"",""assignmentId"":""30dac145-02e6-4f72-b831-ff5e3c5fe140"",""projectId"":""2dd913a0-fd4c-43f1-b4f3-f0d48537bce8""}","https://test12345.live/?part=2&participantId=E4E2AC07C6A347D9B49CBB3FF4B563F9&assignmentId=30dac145-02e6-4f72-b831-ff5e3c5fe140&projectId=2dd913a0-fd4c-43f1-b4f3-f0d48537bce8","E4E2AC07C6A347D9B49CBB3FF4B563F9-2025-05-15-20-40-03","","null","","images/semantic_sequence/redecorating_semantic/redecorating_semantic_0.png","null","",""
"","","","","","html-audio-response","34","703752","0.0-32.0","E4E2AC07C6A347D9B49CBB3FF4B563F9","E4E2AC07C6A347D9B49CBB3FF4B563F9","30dac145-02e6-4f72-b831-ff5e3c5fe140","2dd913a0-fd4c-43f1-b4f3-f0d48537bce8","{""part"":""2"",""participantId"":""E4E2AC07C6A347D9B49CBB3FF4B563F9"",""assignmentId"":""30dac145-02e6-4f72-b831-ff5e3c5fe140"",""projectId"":""2dd913a0-fd4c-43f1-b4f3-f0d48537bce8""}","https://test12345.live/?part=2&participantId=E4E2AC07C6A347D9B49CBB3FF4B563F9&assignmentId=30dac145-02e6-4f72-b831-ff5e3c5fe140&projectId=2dd913a0-fd4c-43f1-b4f3-f0d48537bce8","E4E2AC07C6A347D9B49CBB3FF4B563F9-2025-05-15-20-40-03","","36101","","[""<span style=\""color: red; font-size: 24px\""> NOW RECORDING</span><p>Please say out loud all the images you saw in part 1 of the experiment, as many as you can remember. The images can be said in any order.</p>""]","","1","redecorating_semantic"
"","","","","","image-button-response","35","709764","0.0-33.0-0.0","E4E2AC07C6A347D9B49CBB3FF4B563F9","E4E2AC07C6A347D9B49CBB3FF4B563F9","30dac145-02e6-4f72-b831-ff5e3c5fe140","2dd913a0-fd4c-43f1-b4f3-f0d48537bce8","{""part"":""2"",""participantId"":""E4E2AC07C6A347D9B49CBB3FF4B563F9"",""assignmentId"":""30dac145-02e6-4f72-b831-ff5e3c5fe140"",""projectId"":""2dd913a0-fd4c-43f1-b4f3-f0d48537bce8""}","https://test12345.live/?part=2&participantId=E4E2AC07C6A347D9B49CBB3FF4B563F9&assignmentId=30dac145-02e6-4f72-b831-ff5e3c5fe140&projectId=2dd913a0-fd4c-43f1-b4f3-f0d48537bce8","E4E2AC07C6A347D9B49CBB3FF4B563F9-2025-05-15-20-40-03","","null","","images/causal_sequence/the_performance_causal/the_performance_causal_0.png","null","",""
"","","","","","html-audio-response","36","872583","0.0-34.0","E4E2AC07C6A347D9B49CBB3FF4B563F9","E4E2AC07C6A347D9B49CBB3FF4B563F9","30dac145-02e6-4f72-b831-ff5e3c5fe140","2dd913a0-fd4c-43f1-b4f3-f0d48537bce8","{""part"":""2"",""participantId"":""E4E2AC07C6A347D9B49CBB3FF4B563F9"",""assignmentId"":""30dac145-02e6-4f72-b831-ff5e3c5fe140"",""projectId"":""2dd913a0-fd4c-43f1-b4f3-f0d48537bce8""}","https://test12345.live/?part=2&participantId=E4E2AC07C6A347D9B49CBB3FF4B563F9&assignmentId=30dac145-02e6-4f72-b831-ff5e3c5fe140&projectId=2dd913a0-fd4c-43f1-b4f3-f0d48537bce8","E4E2AC07C6A347D9B49CBB3FF4B563F9-2025-05-15-20-40-03","","47911","","[""<span style=\""color: red; font-size: 24px\""> NOW RECORDING</span><p>Please say out loud all the images you saw in part 1 of the experiment, as many as you can remember. The images can be said in any order.</p>""]","","32","the_performance_causal"
"","","","","","image-button-response","37","878599","0.0-35.0-0.0","E4E2AC07C6A347D9B49CBB3FF4B563F9","E4E2AC07C6A347D9B49CBB3FF4B563F9","30dac145-02e6-4f72-b831-ff5e3c5fe140","2dd913a0-fd4c-43f1-b4f3-f0d48537bce8","{""part"":""2"",""participantId"":""E4E2AC07C6A347D9B49CBB3FF4B563F9"",""assignmentId"":""30dac145-02e6-4f72-b831-ff5e3c5fe140"",""projectId"":""2dd913a0-fd4c-43f1-b4f3-f0d48537bce8""}","https://test12345.live/?part=2&participantId=E4E2AC07C6A347D9B49CBB3FF4B563F9&assignmentId=30dac145-02e6-4f72-b831-ff5e3c5fe140&projectId=2dd913a0-fd4c-43f1-b4f3-f0d48537bce8","E4E2AC07C6A347D9B49CBB3FF4B563F9-2025-05-15-20-40-03","","null","","images/semantic_sequence/maintaining_a_car_semantic/maintaining_a_car_semantic_0.png","null","",""
"","","","","","html-audio-response","38","902733","0.0-36.0","E4E2AC07C6A347D9B49CBB3FF4B563F9","E4E2AC07C6A347D9B49CBB3FF4B563F9","30dac145-02e6-4f72-b831-ff5e3c5fe140","2dd913a0-fd4c-43f1-b4f3-f0d48537bce8","{""part"":""2"",""participantId"":""E4E2AC07C6A347D9B49CBB3FF4B563F9"",""assignmentId"":""30dac145-02e6-4f72-b831-ff5e3c5fe140"",""projectId"":""2dd913a0-fd4c-43f1-b4f3-f0d48537bce8""}","https://test12345.live/?part=2&participantId=E4E2AC07C6A347D9B49CBB3FF4B563F9&assignmentId=30dac145-02e6-4f72-b831-ff5e3c5fe140&projectId=2dd913a0-fd4c-43f1-b4f3-f0d48537bce8","E4E2AC07C6A347D9B49CBB3FF4B563F9-2025-05-15-20-40-03","","22551","","[""<span style=\""color: red; font-size: 24px\""> NOW RECORDING</span><p>Please say out loud all the images you saw in part 1 of the experiment, as many as you can remember. The images can be said in any order.</p>""]","","1","maintaining_a_car_semantic"
"","","","","","image-button-response","39","908743","0.0-37.0-0.0","E4E2AC07C6A347D9B49CBB3FF4B563F9","E4E2AC07C6A347D9B49CBB3FF4B563F9","30dac145-02e6-4f72-b831-ff5e3c5fe140","2dd913a0-fd4c-43f1-b4f3-f0d48537bce8","{""part"":""2"",""participantId"":""E4E2AC07C6A347D9B49CBB3FF4B563F9"",""assignmentId"":""30dac145-02e6-4f72-b831-ff5e3c5fe140"",""projectId"":""2dd913a0-fd4c-43f1-b4f3-f0d48537bce8""}","https://test12345.live/?part=2&participantId=E4E2AC07C6A347D9B49CBB3FF4B563F9&assignmentId=30dac145-02e6-4f72-b831-ff5e3c5fe140&projectId=2dd913a0-fd4c-43f1-b4f3-f0d48537bce8","E4E2AC07C6A347D9B49CBB3FF4B563F9-2025-05-15-20-40-03","","null","","images/semantic_sequence/using_technology_semantic/using_technology_semantic_0.png","null","",""
"","","","","","html-audio-response","40","940848","0.0-38.0","E4E2AC07C6A347D9B49CBB3FF4B563F9","E4E2AC07C6A347D9B49CBB3FF4B563F9","30dac145-02e6-4f72-b831-ff5e3c5fe140","2dd913a0-fd4c-43f1-b4f3-f0d48537bce8","{""part"":""2"",""participantId"":""E4E2AC07C6A347D9B49CBB3FF4B563F9"",""assignmentId"":""30dac145-02e6-4f72-b831-ff5e3c5fe140"",""projectId"":""2dd913a0-fd4c-43f1-b4f3-f0d48537bce8""}","https://test12345.live/?part=2&participantId=E4E2AC07C6A347D9B49CBB3FF4B563F9&assignmentId=30dac145-02e6-4f72-b831-ff5e3c5fe140&projectId=2dd913a0-fd4c-43f1-b4f3-f0d48537bce8","E4E2AC07C6A347D9B49CBB3FF4B563F9-2025-05-15-20-40-03","","30636","","[""<span style=\""color: red; font-size: 24px\""> NOW RECORDING</span><p>Please say out loud all the images you saw in part 1 of the experiment, as many as you can remember. The images can be said in any order.</p>""]","","30","using_technology_semantic"
"","","","","","image-button-response","41","946862","0.0-39.0-0.0","E4E2AC07C6A347D9B49CBB3FF4B563F9","E4E2AC07C6A347D9B49CBB3FF4B563F9","30dac145-02e6-4f72-b831-ff5e3c5fe140","2dd913a0-fd4c-43f1-b4f3-f0d48537bce8","{""part"":""2"",""participantId"":""E4E2AC07C6A347D9B49CBB3FF4B563F9"",""assignmentId"":""30dac145-02e6-4f72-b831-ff5e3c5fe140"",""projectId"":""2dd913a0-fd4c-43f1-b4f3-f0d48537bce8""}","https://test12345.live/?part=2&participantId=E4E2AC07C6A347D9B49CBB3FF4B563F9&assignmentId=30dac145-02e6-4f72-b831-ff5e3c5fe140&projectId=2dd913a0-fd4c-43f1-b4f3-f0d48537bce8","E4E2AC07C6A347D9B49CBB3FF4B563F9-2025-05-15-20-40-03","","null","","images/schematic_sequence/interview_scheme/interview_scheme_0.png","null","",""
"","","","","","html-audio-response","42","994370","0.0-40.0","E4E2AC07C6A347D9B49CBB3FF4B563F9","E4E2AC07C6A347D9B49CBB3FF4B563F9","30dac145-02e6-4f72-b831-ff5e3c5fe140","2dd913a0-fd4c-43f1-b4f3-f0d48537bce8","{""part"":""2"",""participantId"":""E4E2AC07C6A347D9B49CBB3FF4B563F9"",""assignmentId"":""30dac145-02e6-4f72-b831-ff5e3c5fe140"",""projectId"":""2dd913a0-fd4c-43f1-b4f3-f0d48537bce8""}","https://test12345.live/?part=2&participantId=E4E2AC07C6A347D9B49CBB3FF4B563F9&assignmentId=30dac145-02e6-4f72-b831-ff5e3c5fe140&projectId=2dd913a0-fd4c-43f1-b4f3-f0d48537bce8","E4E2AC07C6A347D9B49CBB3FF4B563F9-2025-05-15-20-40-03","","46211","","[""<span style=\""color: red; font-size: 24px\""> NOW RECORDING</span><p>Please say out loud all the images you saw in part 1 of the experiment, as many as you can remember. The images can be said in any order.</p>""]","","1","interview_scheme"
"","","","","","image-button-response","43","1000390","0.0-41.0-0.0","E4E2AC07C6A347D9B49CBB3FF4B563F9","E4E2AC07C6A347D9B49CBB3FF4B563F9","30dac145-02e6-4f72-b831-ff5e3c5fe140","2dd913a0-fd4c-43f1-b4f3-f0d48537bce8","{""part"":""2"",""participantId"":""E4E2AC07C6A347D9B49CBB3FF4B563F9"",""assignmentId"":""30dac145-02e6-4f72-b831-ff5e3c5fe140"",""projectId"":""2dd913a0-fd4c-43f1-b4f3-f0d48537bce8""}","https://test12345.live/?part=2&participantId=E4E2AC07C6A347D9B49CBB3FF4B563F9&assignmentId=30dac145-02e6-4f72-b831-ff5e3c5fe140&projectId=2dd913a0-fd4c-43f1-b4f3-f0d48537bce8","E4E2AC07C6A347D9B49CBB3FF4B563F9-2025-05-15-20-40-03","","null","","images/causal_sequence/coin_causal/coin_causal_0.png","null","",""
"","","","","","html-audio-response","44","1041291","0.0-42.0","E4E2AC07C6A347D9B49CBB3FF4B563F9","E4E2AC07C6A347D9B49CBB3FF4B563F9","30dac145-02e6-4f72-b831-ff5e3c5fe140","2dd913a0-fd4c-43f1-b4f3-f0d48537bce8","{""part"":""2"",""participantId"":""E4E2AC07C6A347D9B49CBB3FF4B563F9"",""assignmentId"":""30dac145-02e6-4f72-b831-ff5e3c5fe140"",""projectId"":""2dd913a0-fd4c-43f1-b4f3-f0d48537bce8""}","https://test12345.live/?part=2&participantId=E4E2AC07C6A347D9B49CBB3FF4B563F9&assignmentId=30dac145-02e6-4f72-b831-ff5e3c5fe140&projectId=2dd913a0-fd4c-43f1-b4f3-f0d48537bce8","E4E2AC07C6A347D9B49CBB3FF4B563F9-2025-05-15-20-40-03","","39010","","[""<span style=\""color: red; font-size: 24px\""> NOW RECORDING</span><p>Please say out loud all the images you saw in part 1 of the experiment, as many as you can remember. The images can be said in any order.</p>""]","","35","coin_causal"
"","","","","","image-button-response","45","1047304","0.0-43.0-0.0","E4E2AC07C6A347D9B49CBB3FF4B563F9","E4E2AC07C6A347D9B49CBB3FF4B563F9","30dac145-02e6-4f72-b831-ff5e3c5fe140","2dd913a0-fd4c-43f1-b4f3-f0d48537bce8","{""part"":""2"",""participantId"":""E4E2AC07C6A347D9B49CBB3FF4B563F9"",""assignmentId"":""30dac145-02e6-4f72-b831-ff5e3c5fe140"",""projectId"":""2dd913a0-fd4c-43f1-b4f3-f0d48537bce8""}","https://test12345.live/?part=2&participantId=E4E2AC07C6A347D9B49CBB3FF4B563F9&assignmentId=30dac145-02e6-4f72-b831-ff5e3c5fe140&projectId=2dd913a0-fd4c-43f1-b4f3-f0d48537bce8","E4E2AC07C6A347D9B49CBB3FF4B563F9-2025-05-15-20-40-03","","null","","images/semantic_sequence/kitchen_operations_semantic/kitchen_operations_semantic_0.png","null","",""
"","","","","","html-audio-response","46","1070090","0.0-44.0","E4E2AC07C6A347D9B49CBB3FF4B563F9","E4E2AC07C6A347D9B49CBB3FF4B563F9","30dac145-02e6-4f72-b831-ff5e3c5fe140","2dd913a0-fd4c-43f1-b4f3-f0d48537bce8","{""part"":""2"",""participantId"":""E4E2AC07C6A347D9B49CBB3FF4B563F9"",""assignmentId"":""30dac145-02e6-4f72-b831-ff5e3c5fe140"",""projectId"":""2dd913a0-fd4c-43f1-b4f3-f0d48537bce8""}","https://test12345.live/?part=2&participantId=E4E2AC07C6A347D9B49CBB3FF4B563F9&assignmentId=30dac145-02e6-4f72-b831-ff5e3c5fe140&projectId=2dd913a0-fd4c-43f1-b4f3-f0d48537bce8","E4E2AC07C6A347D9B49CBB3FF4B563F9-2025-05-15-20-40-03","","21517","","[""<span style=\""color: red; font-size: 24px\""> NOW RECORDING</span><p>Please say out loud all the images you saw in part 1 of the experiment, as many as you can remember. The images can be said in any order.</p>""]","","1","kitchen_operations_semantic"
"","","","","","image-button-response","47","1076098","0.0-45.0-0.0","E4E2AC07C6A347D9B49CBB3FF4B563F9","E4E2AC07C6A347D9B49CBB3FF4B563F9","30dac145-02e6-4f72-b831-ff5e3c5fe140","2dd913a0-fd4c-43f1-b4f3-f0d48537bce8","{""part"":""2"",""participantId"":""E4E2AC07C6A347D9B49CBB3FF4B563F9"",""assignmentId"":""30dac145-02e6-4f72-b831-ff5e3c5fe140"",""projectId"":""2dd913a0-fd4c-43f1-b4f3-f0d48537bce8""}","https://test12345.live/?part=2&participantId=E4E2AC07C6A347D9B49CBB3FF4B563F9&assignmentId=30dac145-02e6-4f72-b831-ff5e3c5fe140&projectId=2dd913a0-fd4c-43f1-b4f3-f0d48537bce8","E4E2AC07C6A347D9B49CBB3FF4B563F9-2025-05-15-20-40-03","","null","","images/semantic_sequence/self_care_activities_semantic/self_care_activities_semantic_0.png","null","",""
"","","","","","html-audio-response","48","1124760","0.0-46.0","E4E2AC07C6A347D9B49CBB3FF4B563F9","E4E2AC07C6A347D9B49CBB3FF4B563F9","30dac145-02e6-4f72-b831-ff5e3c5fe140","2dd913a0-fd4c-43f1-b4f3-f0d48537bce8","{""part"":""2"",""participantId"":""E4E2AC07C6A347D9B49CBB3FF4B563F9"",""assignmentId"":""30dac145-02e6-4f72-b831-ff5e3c5fe140"",""projectId"":""2dd913a0-fd4c-43f1-b4f3-f0d48537bce8""}","https://test12345.live/?part=2&participantId=E4E2AC07C6A347D9B49CBB3FF4B563F9&assignmentId=30dac145-02e6-4f72-b831-ff5e3c5fe140&projectId=2dd913a0-fd4c-43f1-b4f3-f0d48537bce8","E4E2AC07C6A347D9B49CBB3FF4B563F9-2025-05-15-20-40-03","","20318","","[""<span style=\""color: red; font-size: 24px\""> NOW RECORDING</span><p>Please say out loud all the images you saw in part 1 of the experiment, as many as you can remember. The images can be said in any order.</p>""]","","12","self_care_activities_semantic"
"","","","","","image-button-response","49","1130768","0.0-47.0-0.0","E4E2AC07C6A347D9B49CBB3FF4B563F9","E4E2AC07C6A347D9B49CBB3FF4B563F9","30dac145-02e6-4f72-b831-ff5e3c5fe140","2dd913a0-fd4c-43f1-b4f3-f0d48537bce8","{""part"":""2"",""participantId"":""E4E2AC07C6A347D9B49CBB3FF4B563F9"",""assignmentId"":""30dac145-02e6-4f72-b831-ff5e3c5fe140"",""projectId"":""2dd913a0-fd4c-43f1-b4f3-f0d48537bce8""}","https://test12345.live/?part=2&participantId=E4E2AC07C6A347D9B49CBB3FF4B563F9&assignmentId=30dac145-02e6-4f72-b831-ff5e3c5fe140&projectId=2dd913a0-fd4c-43f1-b4f3-f0d48537bce8","E4E2AC07C6A347D9B49CBB3FF4B563F9-2025-05-15-20-40-03","","null","","images/semantic_sequence/market_semantic/market_semantic_0.png","null","",""
"","","","","","html-audio-response","50","1187055","0.0-48.0","E4E2AC07C6A347D9B49CBB3FF4B563F9","E4E2AC07C6A347D9B49CBB3FF4B563F9","30dac145-02e6-4f72-b831-ff5e3c5fe140","2dd913a0-fd4c-43f1-b4f3-f0d48537bce8","{""part"":""2"",""participantId"":""E4E2AC07C6A347D9B49CBB3FF4B563F9"",""assignmentId"":""30dac145-02e6-4f72-b831-ff5e3c5fe140"",""projectId"":""2dd913a0-fd4c-43f1-b4f3-f0d48537bce8""}","https://test12345.live/?part=2&participantId=E4E2AC07C6A347D9B49CBB3FF4B563F9&assignmentId=30dac145-02e6-4f72-b831-ff5e3c5fe140&projectId=2dd913a0-fd4c-43f1-b4f3-f0d48537bce8","E4E2AC07C6A347D9B49CBB3FF4B563F9-2025-05-15-20-40-03","","null","","[""<span style=\""color: red; font-size: 24px\""> NOW RECORDING</span><p>Please say out loud all the images you saw in part 1 of the experiment, as many as you can remember. The images can be said in any order.</p>""]","","1","market_semantic"
"","","","","","image-button-response","51","1193080","0.0-49.0-0.0","E4E2AC07C6A347D9B49CBB3FF4B563F9","E4E2AC07C6A347D9B49CBB3FF4B563F9","30dac145-02e6-4f72-b831-ff5e3c5fe140","2dd913a0-fd4c-43f1-b4f3-f0d48537bce8","{""part"":""2"",""participantId"":""E4E2AC07C6A347D9B49CBB3FF4B563F9"",""assignmentId"":""30dac145-02e6-4f72-b831-ff5e3c5fe140"",""projectId"":""2dd913a0-fd4c-43f1-b4f3-f0d48537bce8""}","https://test12345.live/?part=2&participantId=E4E2AC07C6A347D9B49CBB3FF4B563F9&assignmentId=30dac145-02e6-4f72-b831-ff5e3c5fe140&projectId=2dd913a0-fd4c-43f1-b4f3-f0d48537bce8","E4E2AC07C6A347D9B49CBB3FF4B563F9-2025-05-15-20-40-03","","null","","images/schematic_sequence/hotel_scheme/hotel_scheme_0.png","null","",""
"","","","","","html-audio-response","52","1243813","0.0-50.0","E4E2AC07C6A347D9B49CBB3FF4B563F9","E4E2AC07C6A347D9B49CBB3FF4B563F9","30dac145-02e6-4f72-b831-ff5e3c5fe140","2dd913a0-fd4c-43f1-b4f3-f0d48537bce8","{""part"":""2"",""participantId"":""E4E2AC07C6A347D9B49CBB3FF4B563F9"",""assignmentId"":""30dac145-02e6-4f72-b831-ff5e3c5fe140"",""projectId"":""2dd913a0-fd4c-43f1-b4f3-f0d48537bce8""}","https://test12345.live/?part=2&participantId=E4E2AC07C6A347D9B49CBB3FF4B563F9&assignmentId=30dac145-02e6-4f72-b831-ff5e3c5fe140&projectId=2dd913a0-fd4c-43f1-b4f3-f0d48537bce8","E4E2AC07C6A347D9B49CBB3FF4B563F9-2025-05-15-20-40-03","","49257","","[""<span style=\""color: red; font-size: 24px\""> NOW RECORDING</span><p>Please say out loud all the images you saw in part 1 of the experiment, as many as you can remember. The images can be said in any order.</p>""]","","1","hotel_scheme"
"","","","","","image-button-response","53","1249839","0.0-51.0-0.0","E4E2AC07C6A347D9B49CBB3FF4B563F9","E4E2AC07C6A347D9B49CBB3FF4B563F9","30dac145-02e6-4f72-b831-ff5e3c5fe140","2dd913a0-fd4c-43f1-b4f3-f0d48537bce8","{""part"":""2"",""participantId"":""E4E2AC07C6A347D9B49CBB3FF4B563F9"",""assignmentId"":""30dac145-02e6-4f72-b831-ff5e3c5fe140"",""projectId"":""2dd913a0-fd4c-43f1-b4f3-f0d48537bce8""}","https://test12345.live/?part=2&participantId=E4E2AC07C6A347D9B49CBB3FF4B563F9&assignmentId=30dac145-02e6-4f72-b831-ff5e3c5fe140&projectId=2dd913a0-fd4c-43f1-b4f3-f0d48537bce8","E4E2AC07C6A347D9B49CBB3FF4B563F9-2025-05-15-20-40-03","","null","","images/semantic_sequence/housework_semantic/housework_semantic_0.png","null","",""
"","","","","","html-audio-response","54","1275398","0.0-52.0","E4E2AC07C6A347D9B49CBB3FF4B563F9","E4E2AC07C6A347D9B49CBB3FF4B563F9","30dac145-02e6-4f72-b831-ff5e3c5fe140","2dd913a0-fd4c-43f1-b4f3-f0d48537bce8","{""part"":""2"",""participantId"":""E4E2AC07C6A347D9B49CBB3FF4B563F9"",""assignmentId"":""30dac145-02e6-4f72-b831-ff5e3c5fe140"",""projectId"":""2dd913a0-fd4c-43f1-b4f3-f0d48537bce8""}","https://test12345.live/?part=2&participantId=E4E2AC07C6A347D9B49CBB3FF4B563F9&assignmentId=30dac145-02e6-4f72-b831-ff5e3c5fe140&projectId=2dd913a0-fd4c-43f1-b4f3-f0d48537bce8","E4E2AC07C6A347D9B49CBB3FF4B563F9-2025-05-15-20-40-03","","24203","","[""<span style=\""color: red; font-size: 24px\""> NOW RECORDING</span><p>Please say out loud all the images you saw in part 1 of the experiment, as many as you can remember. The images can be said in any order.</p>""]","","1","housework_semantic"
"","","","","","image-button-response","55","1281412","0.0-53.0-0.0","E4E2AC07C6A347D9B49CBB3FF4B563F9","E4E2AC07C6A347D9B49CBB3FF4B563F9","30dac145-02e6-4f72-b831-ff5e3c5fe140","2dd913a0-fd4c-43f1-b4f3-f0d48537bce8","{""part"":""2"",""participantId"":""E4E2AC07C6A347D9B49CBB3FF4B563F9"",""assignmentId"":""30dac145-02e6-4f72-b831-ff5e3c5fe140"",""projectId"":""2dd913a0-fd4c-43f1-b4f3-f0d48537bce8""}","https://test12345.live/?part=2&participantId=E4E2AC07C6A347D9B49CBB3FF4B563F9&assignmentId=30dac145-02e6-4f72-b831-ff5e3c5fe140&projectId=2dd913a0-fd4c-43f1-b4f3-f0d48537bce8","E4E2AC07C6A347D9B49CBB3FF4B563F9-2025-05-15-20-40-03","","null","","images/schematic_sequence/dinner_party_scheme/dinner_party_scheme_0.png","null","",""
"","","","","","html-audio-response","56","1319713","0.0-54.0","E4E2AC07C6A347D9B49CBB3FF4B563F9","E4E2AC07C6A347D9B49CBB3FF4B563F9","30dac145-02e6-4f72-b831-ff5e3c5fe140","2dd913a0-fd4c-43f1-b4f3-f0d48537bce8","{""part"":""2"",""participantId"":""E4E2AC07C6A347D9B49CBB3FF4B563F9"",""assignmentId"":""30dac145-02e6-4f72-b831-ff5e3c5fe140"",""projectId"":""2dd913a0-fd4c-43f1-b4f3-f0d48537bce8""}","https://test12345.live/?part=2&participantId=E4E2AC07C6A347D9B49CBB3FF4B563F9&assignmentId=30dac145-02e6-4f72-b831-ff5e3c5fe140&projectId=2dd913a0-fd4c-43f1-b4f3-f0d48537bce8","E4E2AC07C6A347D9B49CBB3FF4B563F9-2025-05-15-20-40-03","","36869","","[""<span style=\""color: red; font-size: 24px\""> NOW RECORDING</span><p>Please say out loud all the images you saw in part 1 of the experiment, as many as you can remember. The images can be said in any order.</p>""]","","1","dinner_party_scheme"
"","","","","","image-button-response","57","1325730","0.0-55.0-0.0","E4E2AC07C6A347D9B49CBB3FF4B563F9","E4E2AC07C6A347D9B49CBB3FF4B563F9","30dac145-02e6-4f72-b831-ff5e3c5fe140","2dd913a0-fd4c-43f1-b4f3-f0d48537bce8","{""part"":""2"",""participantId"":""E4E2AC07C6A347D9B49CBB3FF4B563F9"",""assignmentId"":""30dac145-02e6-4f72-b831-ff5e3c5fe140"",""projectId"":""2dd913a0-fd4c-43f1-b4f3-f0d48537bce8""}","https://test12345.live/?part=2&participantId=E4E2AC07C6A347D9B49CBB3FF4B563F9&assignmentId=30dac145-02e6-4f72-b831-ff5e3c5fe140&projectId=2dd913a0-fd4c-43f1-b4f3-f0d48537bce8","E4E2AC07C6A347D9B49CBB3FF4B563F9-2025-05-15-20-40-03","","null","","images/semantic_sequence/cat_care_semantic/cat_care_semantic_0.png","null","",""
"","","","","","html-audio-response","58","1356574","0.0-56.0","E4E2AC07C6A347D9B49CBB3FF4B563F9","E4E2AC07C6A347D9B49CBB3FF4B563F9","30dac145-02e6-4f72-b831-ff5e3c5fe140","2dd913a0-fd4c-43f1-b4f3-f0d48537bce8","{""part"":""2"",""participantId"":""E4E2AC07C6A347D9B49CBB3FF4B563F9"",""assignmentId"":""30dac145-02e6-4f72-b831-ff5e3c5fe140"",""projectId"":""2dd913a0-fd4c-43f1-b4f3-f0d48537bce8""}","https://test12345.live/?part=2&participantId=E4E2AC07C6A347D9B49CBB3FF4B563F9&assignmentId=30dac145-02e6-4f72-b831-ff5e3c5fe140&projectId=2dd913a0-fd4c-43f1-b4f3-f0d48537bce8","E4E2AC07C6A347D9B49CBB3FF4B563F9-2025-05-15-20-40-03","","29535","","[""<span style=\""color: red; font-size: 24px\""> NOW RECORDING</span><p>Please say out loud all the images you saw in part 1 of the experiment, as many as you can remember. The images can be said in any order.</p>""]","","1","cat_care_semantic"
"","","","","","survey-text","59","1364797","0.0-57.0","E4E2AC07C6A347D9B49CBB3FF4B563F9","E4E2AC07C6A347D9B49CBB3FF4B563F9","30dac145-02e6-4f72-b831-ff5e3c5fe140","2dd913a0-fd4c-43f1-b4f3-f0d48537bce8","{""part"":""2"",""participantId"":""E4E2AC07C6A347D9B49CBB3FF4B563F9"",""assignmentId"":""30dac145-02e6-4f72-b831-ff5e3c5fe140"",""projectId"":""2dd913a0-fd4c-43f1-b4f3-f0d48537bce8""}","https://test12345.live/?part=2&participantId=E4E2AC07C6A347D9B49CBB3FF4B563F9&assignmentId=30dac145-02e6-4f72-b831-ff5e3c5fe140&projectId=2dd913a0-fd4c-43f1-b4f3-f0d48537bce8","E4E2AC07C6A347D9B49CBB3FF4B563F9-2025-05-15-20-40-03","","8211","","","{""Q0"":""Female"",""Q1"":""30""}","",""
"","","","","","instructions","60","1373011","0.0-58.0","E4E2AC07C6A347D9B49CBB3FF4B563F9","E4E2AC07C6A347D9B49CBB3FF4B563F9","30dac145-02e6-4f72-b831-ff5e3c5fe140","2dd913a0-fd4c-43f1-b4f3-f0d48537bce8","{""part"":""2"",""participantId"":""E4E2AC07C6A347D9B49CBB3FF4B563F9"",""assignmentId"":""30dac145-02e6-4f72-b831-ff5e3c5fe140"",""projectId"":""2dd913a0-fd4c-43f1-b4f3-f0d48537bce8""}","https://test12345.live/?part=2&participantId=E4E2AC07C6A347D9B49CBB3FF4B563F9&assignmentId=30dac145-02e6-4f72-b831-ff5e3c5fe140&projectId=2dd913a0-fd4c-43f1-b4f3-f0d48537bce8","E4E2AC07C6A347D9B49CBB3FF4B563F9-2025-05-15-20-40-03","[{""page_index"":0,""viewing_time"":8214}]","8214","","","","",""
"","","","","","survey-text","61","1378614","0.0-59.0","E4E2AC07C6A347D9B49CBB3FF4B563F9","E4E2AC07C6A347D9B49CBB3FF4B563F9","30dac145-02e6-4f72-b831-ff5e3c5fe140","2dd913a0-fd4c-43f1-b4f3-f0d48537bce8","{""part"":""2"",""participantId"":""E4E2AC07C6A347D9B49CBB3FF4B563F9"",""assignmentId"":""30dac145-02e6-4f72-b831-ff5e3c5fe140"",""projectId"":""2dd913a0-fd4c-43f1-b4f3-f0d48537bce8""}","https://test12345.live/?part=2&participantId=E4E2AC07C6A347D9B49CBB3FF4B563F9&assignmentId=30dac145-02e6-4f72-b831-ff5e3c5fe140&projectId=2dd913a0-fd4c-43f1-b4f3-f0d48537bce8","E4E2AC07C6A347D9B49CBB3FF4B563F9-2025-05-15-20-40-03","","5601","","","{""Q0"":""AJFHBG896""}","",""
