"success","timeout","failed_images","failed_audio","failed_video","trial_type","trial_index","time_elapsed","internal_node_id","subject","subject_id","study_id","session_id","urlvar","current_url","audio_id","view_history","rt","device_id","stimulus","response","estimated_stimulus_onset","seq_name"
"true","false","[]","[]","[]","preload","0","11535","0.0-0.0","E52BBDBACEAD4955B2BFCDF31CC0ACF4","E52BBDBACEAD4955B2BFCDF31CC0ACF4","0198bef0-8db6-7382-b7cb-29fce66da553","0198beef-981a-7243-9790-051e10551090","{""num_scrambled_semantic"":""8"",""num_scrambled_causal"":""4"",""num_scrambled_schematic"":""4"",""participantId"":""E52BBDBACEAD4955B2BFCDF31CC0ACF4"",""assignmentId"":""0198bef0-8db6-7382-b7cb-29fce66da553"",""projectId"":""0198beef-981a-7243-9790-051e10551090""}","https://test12345.live/?num_scrambled_semantic=8&num_scrambled_causal=4&num_scrambled_schematic=4&participantId=E52BBDBACEAD4955B2BFCDF31CC0ACF4&assignmentId=0198bef0-8db6-7382-b7cb-29fce66da553&projectId=0198beef-981a-7243-9790-051e10551090","E52BBDBACEAD4955B2BFCDF31CC0ACF4-2025-08-18-20-53-19","","","","","","",""
"","","","","","instructions","1","22219","0.0-1.0","E52BBDBACEAD4955B2BFCDF31CC0ACF4","E52BBDBACEAD4955B2BFCDF31CC0ACF4","0198bef0-8db6-7382-b7cb-29fce66da553","0198beef-981a-7243-9790-051e10551090","{""num_scrambled_semantic"":""8"",""num_scrambled_causal"":""4"",""num_scrambled_schematic"":""4"",""participantId"":""E52BBDBACEAD4955B2BFCDF31CC0ACF4"",""assignmentId"":""0198bef0-8db6-7382-b7cb-29fce66da553"",""projectId"":""0198beef-981a-7243-9790-051e10551090""}","https://test12345.live/?num_scrambled_semantic=8&num_scrambled_causal=4&num_scrambled_schematic=4&participantId=E52BBDBACEAD4955B2BFCDF31CC0ACF4&assignmentId=0198bef0-8db6-7382-b7cb-29fce66da553&projectId=0198beef-981a-7243-9790-051e10551090","E52BBDBACEAD4955B2BFCDF31CC0ACF4-2025-08-18-20-53-19","[{""page_index"":0,""viewing_time"":10683}]","10684","","","","",""
"","","","","","instructions","2","26597","0.0-2.0","E52BBDBACEAD4955B2BFCDF31CC0ACF4","E52BBDBACEAD4955B2BFCDF31CC0ACF4","0198bef0-8db6-7382-b7cb-29fce66da553","0198beef-981a-7243-9790-051e10551090","{""num_scrambled_semantic"":""8"",""num_scrambled_causal"":""4"",""num_scrambled_schematic"":""4"",""participantId"":""E52BBDBACEAD4955B2BFCDF31CC0ACF4"",""assignmentId"":""0198bef0-8db6-7382-b7cb-29fce66da553"",""projectId"":""0198beef-981a-7243-9790-051e10551090""}","https://test12345.live/?num_scrambled_semantic=8&num_scrambled_causal=4&num_scrambled_schematic=4&participantId=E52BBDBACEAD4955B2BFCDF31CC0ACF4&assignmentId=0198bef0-8db6-7382-b7cb-29fce66da553&projectId=0198beef-981a-7243-9790-051e10551090","E52BBDBACEAD4955B2BFCDF31CC0ACF4-2025-08-18-20-53-19","[{""page_index"":0,""viewing_time"":4377}]","4377","","","","",""
"true","","","","","fullscreen","3","33295","0.0-3.0","E52BBDBACEAD4955B2BFCDF31CC0ACF4","E52BBDBACEAD4955B2BFCDF31CC0ACF4","0198bef0-8db6-7382-b7cb-29fce66da553","0198beef-981a-7243-9790-051e10551090","{""num_scrambled_semantic"":""8"",""num_scrambled_causal"":""4"",""num_scrambled_schematic"":""4"",""participantId"":""E52BBDBACEAD4955B2BFCDF31CC0ACF4"",""assignmentId"":""0198bef0-8db6-7382-b7cb-29fce66da553"",""projectId"":""0198beef-981a-7243-9790-051e10551090""}","https://test12345.live/?num_scrambled_semantic=8&num_scrambled_causal=4&num_scrambled_schematic=4&participantId=E52BBDBACEAD4955B2BFCDF31CC0ACF4&assignmentId=0198bef0-8db6-7382-b7cb-29fce66da553&projectId=0198beef-981a-7243-9790-051e10551090","E52BBDBACEAD4955B2BFCDF31CC0ACF4-2025-08-18-20-53-19","","5691","","","","",""
"","","","","","initialize-microphone","4","38856","0.0-4.0-0.0","E52BBDBACEAD4955B2BFCDF31CC0ACF4","E52BBDBACEAD4955B2BFCDF31CC0ACF4","0198bef0-8db6-7382-b7cb-29fce66da553","0198beef-981a-7243-9790-051e10551090","{""num_scrambled_semantic"":""8"",""num_scrambled_causal"":""4"",""num_scrambled_schematic"":""4"",""participantId"":""E52BBDBACEAD4955B2BFCDF31CC0ACF4"",""assignmentId"":""0198bef0-8db6-7382-b7cb-29fce66da553"",""projectId"":""0198beef-981a-7243-9790-051e10551090""}","https://test12345.live/?num_scrambled_semantic=8&num_scrambled_causal=4&num_scrambled_schematic=4&participantId=E52BBDBACEAD4955B2BFCDF31CC0ACF4&assignmentId=0198bef0-8db6-7382-b7cb-29fce66da553&projectId=0198beef-981a-7243-9790-051e10551090","E52BBDBACEAD4955B2BFCDF31CC0ACF4-2025-08-18-20-53-19","","","da898137f01da5658f9bb5ec5db866bee1a368c82c5b81d35aa40fcce90530a6","","","",""
"","","","","","html-audio-response","5","45249","0.0-4.0-1.0","E52BBDBACEAD4955B2BFCDF31CC0ACF4","E52BBDBACEAD4955B2BFCDF31CC0ACF4","0198bef0-8db6-7382-b7cb-29fce66da553","0198beef-981a-7243-9790-051e10551090","{""num_scrambled_semantic"":""8"",""num_scrambled_causal"":""4"",""num_scrambled_schematic"":""4"",""participantId"":""E52BBDBACEAD4955B2BFCDF31CC0ACF4"",""assignmentId"":""0198bef0-8db6-7382-b7cb-29fce66da553"",""projectId"":""0198beef-981a-7243-9790-051e10551090""}","https://test12345.live/?num_scrambled_semantic=8&num_scrambled_causal=4&num_scrambled_schematic=4&participantId=E52BBDBACEAD4955B2BFCDF31CC0ACF4&assignmentId=0198bef0-8db6-7382-b7cb-29fce66da553&projectId=0198beef-981a-7243-9790-051e10551090","E52BBDBACEAD4955B2BFCDF31CC0ACF4-2025-08-18-20-53-19","","2270","","<span style=""color: red; font-size: 24px""> NOW RECORDING</span>
        <p>Please test Microphone</p>","","27",""
"","","","","","html-button-response","6","46520","0.0-4.0-2.0","E52BBDBACEAD4955B2BFCDF31CC0ACF4","E52BBDBACEAD4955B2BFCDF31CC0ACF4","0198bef0-8db6-7382-b7cb-29fce66da553","0198beef-981a-7243-9790-051e10551090","{""num_scrambled_semantic"":""8"",""num_scrambled_causal"":""4"",""num_scrambled_schematic"":""4"",""participantId"":""E52BBDBACEAD4955B2BFCDF31CC0ACF4"",""assignmentId"":""0198bef0-8db6-7382-b7cb-29fce66da553"",""projectId"":""0198beef-981a-7243-9790-051e10551090""}","https://test12345.live/?num_scrambled_semantic=8&num_scrambled_causal=4&num_scrambled_schematic=4&participantId=E52BBDBACEAD4955B2BFCDF31CC0ACF4&assignmentId=0198bef0-8db6-7382-b7cb-29fce66da553&projectId=0198beef-981a-7243-9790-051e10551090","E52BBDBACEAD4955B2BFCDF31CC0ACF4-2025-08-18-20-53-19","","1269","","<p style=""font-size:48px; color:red;"">Is Microphone OK?</p>","1","",""
"","","","","","instructions","7","56352","0.0-5.0","E52BBDBACEAD4955B2BFCDF31CC0ACF4","E52BBDBACEAD4955B2BFCDF31CC0ACF4","0198bef0-8db6-7382-b7cb-29fce66da553","0198beef-981a-7243-9790-051e10551090","{""num_scrambled_semantic"":""8"",""num_scrambled_causal"":""4"",""num_scrambled_schematic"":""4"",""participantId"":""E52BBDBACEAD4955B2BFCDF31CC0ACF4"",""assignmentId"":""0198bef0-8db6-7382-b7cb-29fce66da553"",""projectId"":""0198beef-981a-7243-9790-051e10551090""}","https://test12345.live/?num_scrambled_semantic=8&num_scrambled_causal=4&num_scrambled_schematic=4&participantId=E52BBDBACEAD4955B2BFCDF31CC0ACF4&assignmentId=0198bef0-8db6-7382-b7cb-29fce66da553&projectId=0198beef-981a-7243-9790-051e10551090","E52BBDBACEAD4955B2BFCDF31CC0ACF4-2025-08-18-20-53-19","[{""page_index"":0,""viewing_time"":1188},{""page_index"":1,""viewing_time"":3396},{""page_index"":2,""viewing_time"":5247}]","9831","","","","",""
"","","","","","image-button-response","8","62360","0.0-6.0-0.0","E52BBDBACEAD4955B2BFCDF31CC0ACF4","E52BBDBACEAD4955B2BFCDF31CC0ACF4","0198bef0-8db6-7382-b7cb-29fce66da553","0198beef-981a-7243-9790-051e10551090","{""num_scrambled_semantic"":""8"",""num_scrambled_causal"":""4"",""num_scrambled_schematic"":""4"",""participantId"":""E52BBDBACEAD4955B2BFCDF31CC0ACF4"",""assignmentId"":""0198bef0-8db6-7382-b7cb-29fce66da553"",""projectId"":""0198beef-981a-7243-9790-051e10551090""}","https://test12345.live/?num_scrambled_semantic=8&num_scrambled_causal=4&num_scrambled_schematic=4&participantId=E52BBDBACEAD4955B2BFCDF31CC0ACF4&assignmentId=0198bef0-8db6-7382-b7cb-29fce66da553&projectId=0198beef-981a-7243-9790-051e10551090","E52BBDBACEAD4955B2BFCDF31CC0ACF4-2025-08-18-20-53-19","","null","","images/instructions/movie_0.png","null","",""
"","","","","","html-audio-response","9","72779","0.0-7.0","E52BBDBACEAD4955B2BFCDF31CC0ACF4","E52BBDBACEAD4955B2BFCDF31CC0ACF4","0198bef0-8db6-7382-b7cb-29fce66da553","0198beef-981a-7243-9790-051e10551090","{""num_scrambled_semantic"":""8"",""num_scrambled_causal"":""4"",""num_scrambled_schematic"":""4"",""participantId"":""E52BBDBACEAD4955B2BFCDF31CC0ACF4"",""assignmentId"":""0198bef0-8db6-7382-b7cb-29fce66da553"",""projectId"":""0198beef-981a-7243-9790-051e10551090""}","https://test12345.live/?num_scrambled_semantic=8&num_scrambled_causal=4&num_scrambled_schematic=4&participantId=E52BBDBACEAD4955B2BFCDF31CC0ACF4&assignmentId=0198bef0-8db6-7382-b7cb-29fce66da553&projectId=0198beef-981a-7243-9790-051e10551090","E52BBDBACEAD4955B2BFCDF31CC0ACF4-2025-08-18-20-53-19","","9650","","[""<span style=\""color: red; font-size: 24px\""> NOW RECORDING</span><p>Please say out loud all the images you saw in part 1 of the experiment, as many as you can remember. The images can be said in any order.</p>""]","","1",""
"","","","","","instructions","10","73702","0.0-8.0","E52BBDBACEAD4955B2BFCDF31CC0ACF4","E52BBDBACEAD4955B2BFCDF31CC0ACF4","0198bef0-8db6-7382-b7cb-29fce66da553","0198beef-981a-7243-9790-051e10551090","{""num_scrambled_semantic"":""8"",""num_scrambled_causal"":""4"",""num_scrambled_schematic"":""4"",""participantId"":""E52BBDBACEAD4955B2BFCDF31CC0ACF4"",""assignmentId"":""0198bef0-8db6-7382-b7cb-29fce66da553"",""projectId"":""0198beef-981a-7243-9790-051e10551090""}","https://test12345.live/?num_scrambled_semantic=8&num_scrambled_causal=4&num_scrambled_schematic=4&participantId=E52BBDBACEAD4955B2BFCDF31CC0ACF4&assignmentId=0198bef0-8db6-7382-b7cb-29fce66da553&projectId=0198beef-981a-7243-9790-051e10551090","E52BBDBACEAD4955B2BFCDF31CC0ACF4-2025-08-18-20-53-19","[{""page_index"":0,""viewing_time"":918}]","919","","","","",""
"","","","","","image-button-response","11","79709","0.0-9.0-0.0","E52BBDBACEAD4955B2BFCDF31CC0ACF4","E52BBDBACEAD4955B2BFCDF31CC0ACF4","0198bef0-8db6-7382-b7cb-29fce66da553","0198beef-981a-7243-9790-051e10551090","{""num_scrambled_semantic"":""8"",""num_scrambled_causal"":""4"",""num_scrambled_schematic"":""4"",""participantId"":""E52BBDBACEAD4955B2BFCDF31CC0ACF4"",""assignmentId"":""0198bef0-8db6-7382-b7cb-29fce66da553"",""projectId"":""0198beef-981a-7243-9790-051e10551090""}","https://test12345.live/?num_scrambled_semantic=8&num_scrambled_causal=4&num_scrambled_schematic=4&participantId=E52BBDBACEAD4955B2BFCDF31CC0ACF4&assignmentId=0198bef0-8db6-7382-b7cb-29fce66da553&projectId=0198beef-981a-7243-9790-051e10551090","E52BBDBACEAD4955B2BFCDF31CC0ACF4-2025-08-18-20-53-19","","null","","images/semantic_sequence/maintaining_a_car_semantic/maintaining_a_car_semantic_0.png","null","",""
"","","","","","html-audio-response","12","96811","0.0-10.0","E52BBDBACEAD4955B2BFCDF31CC0ACF4","E52BBDBACEAD4955B2BFCDF31CC0ACF4","0198bef0-8db6-7382-b7cb-29fce66da553","0198beef-981a-7243-9790-051e10551090","{""num_scrambled_semantic"":""8"",""num_scrambled_causal"":""4"",""num_scrambled_schematic"":""4"",""participantId"":""E52BBDBACEAD4955B2BFCDF31CC0ACF4"",""assignmentId"":""0198bef0-8db6-7382-b7cb-29fce66da553"",""projectId"":""0198beef-981a-7243-9790-051e10551090""}","https://test12345.live/?num_scrambled_semantic=8&num_scrambled_causal=4&num_scrambled_schematic=4&participantId=E52BBDBACEAD4955B2BFCDF31CC0ACF4&assignmentId=0198bef0-8db6-7382-b7cb-29fce66da553&projectId=0198beef-981a-7243-9790-051e10551090","E52BBDBACEAD4955B2BFCDF31CC0ACF4-2025-08-18-20-53-19","","16380","","[""<span style=\""color: red; font-size: 24px\""> NOW RECORDING</span><p>Please say out loud all the images you saw in part 1 of the experiment, as many as you can remember. The images can be said in any order.</p>""]","","2","maintaining_a_car_semantic"
"","","","","","image-button-response","13","102820","0.0-11.0-0.0","E52BBDBACEAD4955B2BFCDF31CC0ACF4","E52BBDBACEAD4955B2BFCDF31CC0ACF4","0198bef0-8db6-7382-b7cb-29fce66da553","0198beef-981a-7243-9790-051e10551090","{""num_scrambled_semantic"":""8"",""num_scrambled_causal"":""4"",""num_scrambled_schematic"":""4"",""participantId"":""E52BBDBACEAD4955B2BFCDF31CC0ACF4"",""assignmentId"":""0198bef0-8db6-7382-b7cb-29fce66da553"",""projectId"":""0198beef-981a-7243-9790-051e10551090""}","https://test12345.live/?num_scrambled_semantic=8&num_scrambled_causal=4&num_scrambled_schematic=4&participantId=E52BBDBACEAD4955B2BFCDF31CC0ACF4&assignmentId=0198bef0-8db6-7382-b7cb-29fce66da553&projectId=0198beef-981a-7243-9790-051e10551090","E52BBDBACEAD4955B2BFCDF31CC0ACF4-2025-08-18-20-53-19","","null","","images/causal_sequence/museum_causal/museum_causal_0.png","null","",""
"","","","","","html-audio-response","14","119716","0.0-12.0","E52BBDBACEAD4955B2BFCDF31CC0ACF4","E52BBDBACEAD4955B2BFCDF31CC0ACF4","0198bef0-8db6-7382-b7cb-29fce66da553","0198beef-981a-7243-9790-051e10551090","{""num_scrambled_semantic"":""8"",""num_scrambled_causal"":""4"",""num_scrambled_schematic"":""4"",""participantId"":""E52BBDBACEAD4955B2BFCDF31CC0ACF4"",""assignmentId"":""0198bef0-8db6-7382-b7cb-29fce66da553"",""projectId"":""0198beef-981a-7243-9790-051e10551090""}","https://test12345.live/?num_scrambled_semantic=8&num_scrambled_causal=4&num_scrambled_schematic=4&participantId=E52BBDBACEAD4955B2BFCDF31CC0ACF4&assignmentId=0198bef0-8db6-7382-b7cb-29fce66da553&projectId=0198beef-981a-7243-9790-051e10551090","E52BBDBACEAD4955B2BFCDF31CC0ACF4-2025-08-18-20-53-19","","16167","","[""<span style=\""color: red; font-size: 24px\""> NOW RECORDING</span><p>Please say out loud all the images you saw in part 1 of the experiment, as many as you can remember. The images can be said in any order.</p>""]","","34","museum_causal"
"","","","","","image-button-response","15","125726","0.0-13.0-0.0","E52BBDBACEAD4955B2BFCDF31CC0ACF4","E52BBDBACEAD4955B2BFCDF31CC0ACF4","0198bef0-8db6-7382-b7cb-29fce66da553","0198beef-981a-7243-9790-051e10551090","{""num_scrambled_semantic"":""8"",""num_scrambled_causal"":""4"",""num_scrambled_schematic"":""4"",""participantId"":""E52BBDBACEAD4955B2BFCDF31CC0ACF4"",""assignmentId"":""0198bef0-8db6-7382-b7cb-29fce66da553"",""projectId"":""0198beef-981a-7243-9790-051e10551090""}","https://test12345.live/?num_scrambled_semantic=8&num_scrambled_causal=4&num_scrambled_schematic=4&participantId=E52BBDBACEAD4955B2BFCDF31CC0ACF4&assignmentId=0198bef0-8db6-7382-b7cb-29fce66da553&projectId=0198beef-981a-7243-9790-051e10551090","E52BBDBACEAD4955B2BFCDF31CC0ACF4-2025-08-18-20-53-19","","null","","images/causal_sequence/saving_a_cat_causal/saving_a_cat_causal_0.png","null","",""
"","","","","","html-audio-response","16","136387","0.0-14.0","E52BBDBACEAD4955B2BFCDF31CC0ACF4","E52BBDBACEAD4955B2BFCDF31CC0ACF4","0198bef0-8db6-7382-b7cb-29fce66da553","0198beef-981a-7243-9790-051e10551090","{""num_scrambled_semantic"":""8"",""num_scrambled_causal"":""4"",""num_scrambled_schematic"":""4"",""participantId"":""E52BBDBACEAD4955B2BFCDF31CC0ACF4"",""assignmentId"":""0198bef0-8db6-7382-b7cb-29fce66da553"",""projectId"":""0198beef-981a-7243-9790-051e10551090""}","https://test12345.live/?num_scrambled_semantic=8&num_scrambled_causal=4&num_scrambled_schematic=4&participantId=E52BBDBACEAD4955B2BFCDF31CC0ACF4&assignmentId=0198bef0-8db6-7382-b7cb-29fce66da553&projectId=0198beef-981a-7243-9790-051e10551090","E52BBDBACEAD4955B2BFCDF31CC0ACF4-2025-08-18-20-53-19","","10034","","[""<span style=\""color: red; font-size: 24px\""> NOW RECORDING</span><p>Please say out loud all the images you saw in part 1 of the experiment, as many as you can remember. The images can be said in any order.</p>""]","","2","saving_a_cat_causal"
"","","","","","image-button-response","17","142396","0.0-15.0-0.0","E52BBDBACEAD4955B2BFCDF31CC0ACF4","E52BBDBACEAD4955B2BFCDF31CC0ACF4","0198bef0-8db6-7382-b7cb-29fce66da553","0198beef-981a-7243-9790-051e10551090","{""num_scrambled_semantic"":""8"",""num_scrambled_causal"":""4"",""num_scrambled_schematic"":""4"",""participantId"":""E52BBDBACEAD4955B2BFCDF31CC0ACF4"",""assignmentId"":""0198bef0-8db6-7382-b7cb-29fce66da553"",""projectId"":""0198beef-981a-7243-9790-051e10551090""}","https://test12345.live/?num_scrambled_semantic=8&num_scrambled_causal=4&num_scrambled_schematic=4&participantId=E52BBDBACEAD4955B2BFCDF31CC0ACF4&assignmentId=0198bef0-8db6-7382-b7cb-29fce66da553&projectId=0198beef-981a-7243-9790-051e10551090","E52BBDBACEAD4955B2BFCDF31CC0ACF4-2025-08-18-20-53-19","","null","","images/causal_sequence/coin_causal/coin_causal_0.png","null","",""
"","","","","","html-audio-response","18","157582","0.0-16.0","E52BBDBACEAD4955B2BFCDF31CC0ACF4","E52BBDBACEAD4955B2BFCDF31CC0ACF4","0198bef0-8db6-7382-b7cb-29fce66da553","0198beef-981a-7243-9790-051e10551090","{""num_scrambled_semantic"":""8"",""num_scrambled_causal"":""4"",""num_scrambled_schematic"":""4"",""participantId"":""E52BBDBACEAD4955B2BFCDF31CC0ACF4"",""assignmentId"":""0198bef0-8db6-7382-b7cb-29fce66da553"",""projectId"":""0198beef-981a-7243-9790-051e10551090""}","https://test12345.live/?num_scrambled_semantic=8&num_scrambled_causal=4&num_scrambled_schematic=4&participantId=E52BBDBACEAD4955B2BFCDF31CC0ACF4&assignmentId=0198bef0-8db6-7382-b7cb-29fce66da553&projectId=0198beef-981a-7243-9790-051e10551090","E52BBDBACEAD4955B2BFCDF31CC0ACF4-2025-08-18-20-53-19","","14558","","[""<span style=\""color: red; font-size: 24px\""> NOW RECORDING</span><p>Please say out loud all the images you saw in part 1 of the experiment, as many as you can remember. The images can be said in any order.</p>""]","","2","coin_causal"
"","","","","","image-button-response","19","163591","0.0-17.0-0.0","E52BBDBACEAD4955B2BFCDF31CC0ACF4","E52BBDBACEAD4955B2BFCDF31CC0ACF4","0198bef0-8db6-7382-b7cb-29fce66da553","0198beef-981a-7243-9790-051e10551090","{""num_scrambled_semantic"":""8"",""num_scrambled_causal"":""4"",""num_scrambled_schematic"":""4"",""participantId"":""E52BBDBACEAD4955B2BFCDF31CC0ACF4"",""assignmentId"":""0198bef0-8db6-7382-b7cb-29fce66da553"",""projectId"":""0198beef-981a-7243-9790-051e10551090""}","https://test12345.live/?num_scrambled_semantic=8&num_scrambled_causal=4&num_scrambled_schematic=4&participantId=E52BBDBACEAD4955B2BFCDF31CC0ACF4&assignmentId=0198bef0-8db6-7382-b7cb-29fce66da553&projectId=0198beef-981a-7243-9790-051e10551090","E52BBDBACEAD4955B2BFCDF31CC0ACF4-2025-08-18-20-53-19","","null","","images/semantic_sequence/cat_care_semantic/cat_care_semantic_0.png","null","",""
"","","","","","html-audio-response","20","172951","0.0-18.0","E52BBDBACEAD4955B2BFCDF31CC0ACF4","E52BBDBACEAD4955B2BFCDF31CC0ACF4","0198bef0-8db6-7382-b7cb-29fce66da553","0198beef-981a-7243-9790-051e10551090","{""num_scrambled_semantic"":""8"",""num_scrambled_causal"":""4"",""num_scrambled_schematic"":""4"",""participantId"":""E52BBDBACEAD4955B2BFCDF31CC0ACF4"",""assignmentId"":""0198bef0-8db6-7382-b7cb-29fce66da553"",""projectId"":""0198beef-981a-7243-9790-051e10551090""}","https://test12345.live/?num_scrambled_semantic=8&num_scrambled_causal=4&num_scrambled_schematic=4&participantId=E52BBDBACEAD4955B2BFCDF31CC0ACF4&assignmentId=0198bef0-8db6-7382-b7cb-29fce66da553&projectId=0198beef-981a-7243-9790-051e10551090","E52BBDBACEAD4955B2BFCDF31CC0ACF4-2025-08-18-20-53-19","","8673","","[""<span style=\""color: red; font-size: 24px\""> NOW RECORDING</span><p>Please say out loud all the images you saw in part 1 of the experiment, as many as you can remember. The images can be said in any order.</p>""]","","2","cat_care_semantic"
"","","","","","image-button-response","21","178957","0.0-19.0-0.0","E52BBDBACEAD4955B2BFCDF31CC0ACF4","E52BBDBACEAD4955B2BFCDF31CC0ACF4","0198bef0-8db6-7382-b7cb-29fce66da553","0198beef-981a-7243-9790-051e10551090","{""num_scrambled_semantic"":""8"",""num_scrambled_causal"":""4"",""num_scrambled_schematic"":""4"",""participantId"":""E52BBDBACEAD4955B2BFCDF31CC0ACF4"",""assignmentId"":""0198bef0-8db6-7382-b7cb-29fce66da553"",""projectId"":""0198beef-981a-7243-9790-051e10551090""}","https://test12345.live/?num_scrambled_semantic=8&num_scrambled_causal=4&num_scrambled_schematic=4&participantId=E52BBDBACEAD4955B2BFCDF31CC0ACF4&assignmentId=0198bef0-8db6-7382-b7cb-29fce66da553&projectId=0198beef-981a-7243-9790-051e10551090","E52BBDBACEAD4955B2BFCDF31CC0ACF4-2025-08-18-20-53-19","","null","","images/semantic_sequence/creative_activities_semantic/creative_activities_semantic_0.png","null","",""
"","","","","","html-audio-response","22","195979","0.0-20.0","E52BBDBACEAD4955B2BFCDF31CC0ACF4","E52BBDBACEAD4955B2BFCDF31CC0ACF4","0198bef0-8db6-7382-b7cb-29fce66da553","0198beef-981a-7243-9790-051e10551090","{""num_scrambled_semantic"":""8"",""num_scrambled_causal"":""4"",""num_scrambled_schematic"":""4"",""participantId"":""E52BBDBACEAD4955B2BFCDF31CC0ACF4"",""assignmentId"":""0198bef0-8db6-7382-b7cb-29fce66da553"",""projectId"":""0198beef-981a-7243-9790-051e10551090""}","https://test12345.live/?num_scrambled_semantic=8&num_scrambled_causal=4&num_scrambled_schematic=4&participantId=E52BBDBACEAD4955B2BFCDF31CC0ACF4&assignmentId=0198bef0-8db6-7382-b7cb-29fce66da553&projectId=0198beef-981a-7243-9790-051e10551090","E52BBDBACEAD4955B2BFCDF31CC0ACF4-2025-08-18-20-53-19","","16377","","[""<span style=\""color: red; font-size: 24px\""> NOW RECORDING</span><p>Please say out loud all the images you saw in part 1 of the experiment, as many as you can remember. The images can be said in any order.</p>""]","","28","creative_activities_semantic"
"","","","","","image-button-response","23","201985","0.0-21.0-0.0","E52BBDBACEAD4955B2BFCDF31CC0ACF4","E52BBDBACEAD4955B2BFCDF31CC0ACF4","0198bef0-8db6-7382-b7cb-29fce66da553","0198beef-981a-7243-9790-051e10551090","{""num_scrambled_semantic"":""8"",""num_scrambled_causal"":""4"",""num_scrambled_schematic"":""4"",""participantId"":""E52BBDBACEAD4955B2BFCDF31CC0ACF4"",""assignmentId"":""0198bef0-8db6-7382-b7cb-29fce66da553"",""projectId"":""0198beef-981a-7243-9790-051e10551090""}","https://test12345.live/?num_scrambled_semantic=8&num_scrambled_causal=4&num_scrambled_schematic=4&participantId=E52BBDBACEAD4955B2BFCDF31CC0ACF4&assignmentId=0198bef0-8db6-7382-b7cb-29fce66da553&projectId=0198beef-981a-7243-9790-051e10551090","E52BBDBACEAD4955B2BFCDF31CC0ACF4-2025-08-18-20-53-19","","null","","images/semantic_sequence/redecorating_semantic/redecorating_semantic_0.png","null","",""
"","","","","","html-audio-response","24","204765","0.0-22.0","E52BBDBACEAD4955B2BFCDF31CC0ACF4","E52BBDBACEAD4955B2BFCDF31CC0ACF4","0198bef0-8db6-7382-b7cb-29fce66da553","0198beef-981a-7243-9790-051e10551090","{""num_scrambled_semantic"":""8"",""num_scrambled_causal"":""4"",""num_scrambled_schematic"":""4"",""participantId"":""E52BBDBACEAD4955B2BFCDF31CC0ACF4"",""assignmentId"":""0198bef0-8db6-7382-b7cb-29fce66da553"",""projectId"":""0198beef-981a-7243-9790-051e10551090""}","https://test12345.live/?num_scrambled_semantic=8&num_scrambled_causal=4&num_scrambled_schematic=4&participantId=E52BBDBACEAD4955B2BFCDF31CC0ACF4&assignmentId=0198bef0-8db6-7382-b7cb-29fce66da553&projectId=0198beef-981a-7243-9790-051e10551090","E52BBDBACEAD4955B2BFCDF31CC0ACF4-2025-08-18-20-53-19","","2114","","[""<span style=\""color: red; font-size: 24px\""> NOW RECORDING</span><p>Please say out loud all the images you saw in part 1 of the experiment, as many as you can remember. The images can be said in any order.</p>""]","","31","redecorating_semantic"
"","","","","","image-button-response","25","210773","0.0-23.0-0.0","E52BBDBACEAD4955B2BFCDF31CC0ACF4","E52BBDBACEAD4955B2BFCDF31CC0ACF4","0198bef0-8db6-7382-b7cb-29fce66da553","0198beef-981a-7243-9790-051e10551090","{""num_scrambled_semantic"":""8"",""num_scrambled_causal"":""4"",""num_scrambled_schematic"":""4"",""participantId"":""E52BBDBACEAD4955B2BFCDF31CC0ACF4"",""assignmentId"":""0198bef0-8db6-7382-b7cb-29fce66da553"",""projectId"":""0198beef-981a-7243-9790-051e10551090""}","https://test12345.live/?num_scrambled_semantic=8&num_scrambled_causal=4&num_scrambled_schematic=4&participantId=E52BBDBACEAD4955B2BFCDF31CC0ACF4&assignmentId=0198bef0-8db6-7382-b7cb-29fce66da553&projectId=0198beef-981a-7243-9790-051e10551090","E52BBDBACEAD4955B2BFCDF31CC0ACF4-2025-08-18-20-53-19","","null","","images/causal_sequence/dog_causal/dog_causal_0.png","null","",""
"","","","","","html-audio-response","26","225489","0.0-24.0","E52BBDBACEAD4955B2BFCDF31CC0ACF4","E52BBDBACEAD4955B2BFCDF31CC0ACF4","0198bef0-8db6-7382-b7cb-29fce66da553","0198beef-981a-7243-9790-051e10551090","{""num_scrambled_semantic"":""8"",""num_scrambled_causal"":""4"",""num_scrambled_schematic"":""4"",""participantId"":""E52BBDBACEAD4955B2BFCDF31CC0ACF4"",""assignmentId"":""0198bef0-8db6-7382-b7cb-29fce66da553"",""projectId"":""0198beef-981a-7243-9790-051e10551090""}","https://test12345.live/?num_scrambled_semantic=8&num_scrambled_causal=4&num_scrambled_schematic=4&participantId=E52BBDBACEAD4955B2BFCDF31CC0ACF4&assignmentId=0198bef0-8db6-7382-b7cb-29fce66da553&projectId=0198beef-981a-7243-9790-051e10551090","E52BBDBACEAD4955B2BFCDF31CC0ACF4-2025-08-18-20-53-19","","14047","","[""<span style=\""color: red; font-size: 24px\""> NOW RECORDING</span><p>Please say out loud all the images you saw in part 1 of the experiment, as many as you can remember. The images can be said in any order.</p>""]","","24","dog_causal"
"","","","","","image-button-response","27","231499","0.0-25.0-0.0","E52BBDBACEAD4955B2BFCDF31CC0ACF4","E52BBDBACEAD4955B2BFCDF31CC0ACF4","0198bef0-8db6-7382-b7cb-29fce66da553","0198beef-981a-7243-9790-051e10551090","{""num_scrambled_semantic"":""8"",""num_scrambled_causal"":""4"",""num_scrambled_schematic"":""4"",""participantId"":""E52BBDBACEAD4955B2BFCDF31CC0ACF4"",""assignmentId"":""0198bef0-8db6-7382-b7cb-29fce66da553"",""projectId"":""0198beef-981a-7243-9790-051e10551090""}","https://test12345.live/?num_scrambled_semantic=8&num_scrambled_causal=4&num_scrambled_schematic=4&participantId=E52BBDBACEAD4955B2BFCDF31CC0ACF4&assignmentId=0198bef0-8db6-7382-b7cb-29fce66da553&projectId=0198beef-981a-7243-9790-051e10551090","E52BBDBACEAD4955B2BFCDF31CC0ACF4-2025-08-18-20-53-19","","null","","images/semantic_sequence/using_technology_semantic/using_technology_semantic_0.png","null","",""
"","","","","","html-audio-response","28","234463","0.0-26.0","E52BBDBACEAD4955B2BFCDF31CC0ACF4","E52BBDBACEAD4955B2BFCDF31CC0ACF4","0198bef0-8db6-7382-b7cb-29fce66da553","0198beef-981a-7243-9790-051e10551090","{""num_scrambled_semantic"":""8"",""num_scrambled_causal"":""4"",""num_scrambled_schematic"":""4"",""participantId"":""E52BBDBACEAD4955B2BFCDF31CC0ACF4"",""assignmentId"":""0198bef0-8db6-7382-b7cb-29fce66da553"",""projectId"":""0198beef-981a-7243-9790-051e10551090""}","https://test12345.live/?num_scrambled_semantic=8&num_scrambled_causal=4&num_scrambled_schematic=4&participantId=E52BBDBACEAD4955B2BFCDF31CC0ACF4&assignmentId=0198bef0-8db6-7382-b7cb-29fce66da553&projectId=0198beef-981a-7243-9790-051e10551090","E52BBDBACEAD4955B2BFCDF31CC0ACF4-2025-08-18-20-53-19","","2291","","[""<span style=\""color: red; font-size: 24px\""> NOW RECORDING</span><p>Please say out loud all the images you saw in part 1 of the experiment, as many as you can remember. The images can be said in any order.</p>""]","","2","using_technology_semantic"
"","","","","","image-button-response","29","240472","0.0-27.0-0.0","E52BBDBACEAD4955B2BFCDF31CC0ACF4","E52BBDBACEAD4955B2BFCDF31CC0ACF4","0198bef0-8db6-7382-b7cb-29fce66da553","0198beef-981a-7243-9790-051e10551090","{""num_scrambled_semantic"":""8"",""num_scrambled_causal"":""4"",""num_scrambled_schematic"":""4"",""participantId"":""E52BBDBACEAD4955B2BFCDF31CC0ACF4"",""assignmentId"":""0198bef0-8db6-7382-b7cb-29fce66da553"",""projectId"":""0198beef-981a-7243-9790-051e10551090""}","https://test12345.live/?num_scrambled_semantic=8&num_scrambled_causal=4&num_scrambled_schematic=4&participantId=E52BBDBACEAD4955B2BFCDF31CC0ACF4&assignmentId=0198bef0-8db6-7382-b7cb-29fce66da553&projectId=0198beef-981a-7243-9790-051e10551090","E52BBDBACEAD4955B2BFCDF31CC0ACF4-2025-08-18-20-53-19","","null","","images/causal_sequence/package_causal/package_causal_0.png","null","",""
"","","","","","html-audio-response","30","253201","0.0-28.0","E52BBDBACEAD4955B2BFCDF31CC0ACF4","E52BBDBACEAD4955B2BFCDF31CC0ACF4","0198bef0-8db6-7382-b7cb-29fce66da553","0198beef-981a-7243-9790-051e10551090","{""num_scrambled_semantic"":""8"",""num_scrambled_causal"":""4"",""num_scrambled_schematic"":""4"",""participantId"":""E52BBDBACEAD4955B2BFCDF31CC0ACF4"",""assignmentId"":""0198bef0-8db6-7382-b7cb-29fce66da553"",""projectId"":""0198beef-981a-7243-9790-051e10551090""}","https://test12345.live/?num_scrambled_semantic=8&num_scrambled_causal=4&num_scrambled_schematic=4&participantId=E52BBDBACEAD4955B2BFCDF31CC0ACF4&assignmentId=0198bef0-8db6-7382-b7cb-29fce66da553&projectId=0198beef-981a-7243-9790-051e10551090","E52BBDBACEAD4955B2BFCDF31CC0ACF4-2025-08-18-20-53-19","","12025","","[""<span style=\""color: red; font-size: 24px\""> NOW RECORDING</span><p>Please say out loud all the images you saw in part 1 of the experiment, as many as you can remember. The images can be said in any order.</p>""]","","34","package_causal"
"","","","","","image-button-response","31","259210","0.0-29.0-0.0","E52BBDBACEAD4955B2BFCDF31CC0ACF4","E52BBDBACEAD4955B2BFCDF31CC0ACF4","0198bef0-8db6-7382-b7cb-29fce66da553","0198beef-981a-7243-9790-051e10551090","{""num_scrambled_semantic"":""8"",""num_scrambled_causal"":""4"",""num_scrambled_schematic"":""4"",""participantId"":""E52BBDBACEAD4955B2BFCDF31CC0ACF4"",""assignmentId"":""0198bef0-8db6-7382-b7cb-29fce66da553"",""projectId"":""0198beef-981a-7243-9790-051e10551090""}","https://test12345.live/?num_scrambled_semantic=8&num_scrambled_causal=4&num_scrambled_schematic=4&participantId=E52BBDBACEAD4955B2BFCDF31CC0ACF4&assignmentId=0198bef0-8db6-7382-b7cb-29fce66da553&projectId=0198beef-981a-7243-9790-051e10551090","E52BBDBACEAD4955B2BFCDF31CC0ACF4-2025-08-18-20-53-19","","null","","images/semantic_sequence/housework_semantic/housework_semantic_0.png","null","",""
"","","","","","html-audio-response","32","261769","0.0-30.0","E52BBDBACEAD4955B2BFCDF31CC0ACF4","E52BBDBACEAD4955B2BFCDF31CC0ACF4","0198bef0-8db6-7382-b7cb-29fce66da553","0198beef-981a-7243-9790-051e10551090","{""num_scrambled_semantic"":""8"",""num_scrambled_causal"":""4"",""num_scrambled_schematic"":""4"",""participantId"":""E52BBDBACEAD4955B2BFCDF31CC0ACF4"",""assignmentId"":""0198bef0-8db6-7382-b7cb-29fce66da553"",""projectId"":""0198beef-981a-7243-9790-051e10551090""}","https://test12345.live/?num_scrambled_semantic=8&num_scrambled_causal=4&num_scrambled_schematic=4&participantId=E52BBDBACEAD4955B2BFCDF31CC0ACF4&assignmentId=0198bef0-8db6-7382-b7cb-29fce66da553&projectId=0198beef-981a-7243-9790-051e10551090","E52BBDBACEAD4955B2BFCDF31CC0ACF4-2025-08-18-20-53-19","","1814","","[""<span style=\""color: red; font-size: 24px\""> NOW RECORDING</span><p>Please say out loud all the images you saw in part 1 of the experiment, as many as you can remember. The images can be said in any order.</p>""]","","2","housework_semantic"
"","","","","","image-button-response","33","267773","0.0-31.0-0.0","E52BBDBACEAD4955B2BFCDF31CC0ACF4","E52BBDBACEAD4955B2BFCDF31CC0ACF4","0198bef0-8db6-7382-b7cb-29fce66da553","0198beef-981a-7243-9790-051e10551090","{""num_scrambled_semantic"":""8"",""num_scrambled_causal"":""4"",""num_scrambled_schematic"":""4"",""participantId"":""E52BBDBACEAD4955B2BFCDF31CC0ACF4"",""assignmentId"":""0198bef0-8db6-7382-b7cb-29fce66da553"",""projectId"":""0198beef-981a-7243-9790-051e10551090""}","https://test12345.live/?num_scrambled_semantic=8&num_scrambled_causal=4&num_scrambled_schematic=4&participantId=E52BBDBACEAD4955B2BFCDF31CC0ACF4&assignmentId=0198bef0-8db6-7382-b7cb-29fce66da553&projectId=0198beef-981a-7243-9790-051e10551090","E52BBDBACEAD4955B2BFCDF31CC0ACF4-2025-08-18-20-53-19","","null","","images/causal_sequence/the_performance_causal/the_performance_causal_0.png","null","",""
"","","","","","html-audio-response","34","282904","0.0-32.0","E52BBDBACEAD4955B2BFCDF31CC0ACF4","E52BBDBACEAD4955B2BFCDF31CC0ACF4","0198bef0-8db6-7382-b7cb-29fce66da553","0198beef-981a-7243-9790-051e10551090","{""num_scrambled_semantic"":""8"",""num_scrambled_causal"":""4"",""num_scrambled_schematic"":""4"",""participantId"":""E52BBDBACEAD4955B2BFCDF31CC0ACF4"",""assignmentId"":""0198bef0-8db6-7382-b7cb-29fce66da553"",""projectId"":""0198beef-981a-7243-9790-051e10551090""}","https://test12345.live/?num_scrambled_semantic=8&num_scrambled_causal=4&num_scrambled_schematic=4&participantId=E52BBDBACEAD4955B2BFCDF31CC0ACF4&assignmentId=0198bef0-8db6-7382-b7cb-29fce66da553&projectId=0198beef-981a-7243-9790-051e10551090","E52BBDBACEAD4955B2BFCDF31CC0ACF4-2025-08-18-20-53-19","","14494","","[""<span style=\""color: red; font-size: 24px\""> NOW RECORDING</span><p>Please say out loud all the images you saw in part 1 of the experiment, as many as you can remember. The images can be said in any order.</p>""]","","24","the_performance_causal"
"","","","","","image-button-response","35","288912","0.0-33.0-0.0","E52BBDBACEAD4955B2BFCDF31CC0ACF4","E52BBDBACEAD4955B2BFCDF31CC0ACF4","0198bef0-8db6-7382-b7cb-29fce66da553","0198beef-981a-7243-9790-051e10551090","{""num_scrambled_semantic"":""8"",""num_scrambled_causal"":""4"",""num_scrambled_schematic"":""4"",""participantId"":""E52BBDBACEAD4955B2BFCDF31CC0ACF4"",""assignmentId"":""0198bef0-8db6-7382-b7cb-29fce66da553"",""projectId"":""0198beef-981a-7243-9790-051e10551090""}","https://test12345.live/?num_scrambled_semantic=8&num_scrambled_causal=4&num_scrambled_schematic=4&participantId=E52BBDBACEAD4955B2BFCDF31CC0ACF4&assignmentId=0198bef0-8db6-7382-b7cb-29fce66da553&projectId=0198beef-981a-7243-9790-051e10551090","E52BBDBACEAD4955B2BFCDF31CC0ACF4-2025-08-18-20-53-19","","null","","images/semantic_sequence/physical_activity_semantic/physical_activity_semantic_0.png","null","",""
"","","","","","html-audio-response","36","301724","0.0-34.0","E52BBDBACEAD4955B2BFCDF31CC0ACF4","E52BBDBACEAD4955B2BFCDF31CC0ACF4","0198bef0-8db6-7382-b7cb-29fce66da553","0198beef-981a-7243-9790-051e10551090","{""num_scrambled_semantic"":""8"",""num_scrambled_causal"":""4"",""num_scrambled_schematic"":""4"",""participantId"":""E52BBDBACEAD4955B2BFCDF31CC0ACF4"",""assignmentId"":""0198bef0-8db6-7382-b7cb-29fce66da553"",""projectId"":""0198beef-981a-7243-9790-051e10551090""}","https://test12345.live/?num_scrambled_semantic=8&num_scrambled_causal=4&num_scrambled_schematic=4&participantId=E52BBDBACEAD4955B2BFCDF31CC0ACF4&assignmentId=0198bef0-8db6-7382-b7cb-29fce66da553&projectId=0198beef-981a-7243-9790-051e10551090","E52BBDBACEAD4955B2BFCDF31CC0ACF4-2025-08-18-20-53-19","","12134","","[""<span style=\""color: red; font-size: 24px\""> NOW RECORDING</span><p>Please say out loud all the images you saw in part 1 of the experiment, as many as you can remember. The images can be said in any order.</p>""]","","2","physical_activity_semantic"
"","","","","","survey-text","37","305750","0.0-35.0","E52BBDBACEAD4955B2BFCDF31CC0ACF4","E52BBDBACEAD4955B2BFCDF31CC0ACF4","0198bef0-8db6-7382-b7cb-29fce66da553","0198beef-981a-7243-9790-051e10551090","{""num_scrambled_semantic"":""8"",""num_scrambled_causal"":""4"",""num_scrambled_schematic"":""4"",""participantId"":""E52BBDBACEAD4955B2BFCDF31CC0ACF4"",""assignmentId"":""0198bef0-8db6-7382-b7cb-29fce66da553"",""projectId"":""0198beef-981a-7243-9790-051e10551090""}","https://test12345.live/?num_scrambled_semantic=8&num_scrambled_causal=4&num_scrambled_schematic=4&participantId=E52BBDBACEAD4955B2BFCDF31CC0ACF4&assignmentId=0198bef0-8db6-7382-b7cb-29fce66da553&projectId=0198beef-981a-7243-9790-051e10551090","E52BBDBACEAD4955B2BFCDF31CC0ACF4-2025-08-18-20-53-19","","4020","","","{""Q0"":""MALE"",""Q1"":""21""}","",""
"","","","","","instructions","38","308621","0.0-36.0","E52BBDBACEAD4955B2BFCDF31CC0ACF4","E52BBDBACEAD4955B2BFCDF31CC0ACF4","0198bef0-8db6-7382-b7cb-29fce66da553","0198beef-981a-7243-9790-051e10551090","{""num_scrambled_semantic"":""8"",""num_scrambled_causal"":""4"",""num_scrambled_schematic"":""4"",""participantId"":""E52BBDBACEAD4955B2BFCDF31CC0ACF4"",""assignmentId"":""0198bef0-8db6-7382-b7cb-29fce66da553"",""projectId"":""0198beef-981a-7243-9790-051e10551090""}","https://test12345.live/?num_scrambled_semantic=8&num_scrambled_causal=4&num_scrambled_schematic=4&participantId=E52BBDBACEAD4955B2BFCDF31CC0ACF4&assignmentId=0198bef0-8db6-7382-b7cb-29fce66da553&projectId=0198beef-981a-7243-9790-051e10551090","E52BBDBACEAD4955B2BFCDF31CC0ACF4-2025-08-18-20-53-19","[{""page_index"":0,""viewing_time"":2870}]","2871","","","","",""
"","","","","","survey-text","39","310030","0.0-37.0","E52BBDBACEAD4955B2BFCDF31CC0ACF4","E52BBDBACEAD4955B2BFCDF31CC0ACF4","0198bef0-8db6-7382-b7cb-29fce66da553","0198beef-981a-7243-9790-051e10551090","{""num_scrambled_semantic"":""8"",""num_scrambled_causal"":""4"",""num_scrambled_schematic"":""4"",""participantId"":""E52BBDBACEAD4955B2BFCDF31CC0ACF4"",""assignmentId"":""0198bef0-8db6-7382-b7cb-29fce66da553"",""projectId"":""0198beef-981a-7243-9790-051e10551090""}","https://test12345.live/?num_scrambled_semantic=8&num_scrambled_causal=4&num_scrambled_schematic=4&participantId=E52BBDBACEAD4955B2BFCDF31CC0ACF4&assignmentId=0198bef0-8db6-7382-b7cb-29fce66da553&projectId=0198beef-981a-7243-9790-051e10551090","E52BBDBACEAD4955B2BFCDF31CC0ACF4-2025-08-18-20-53-19","","1406","","","{""Q0"":""AJFHBG896""}","",""
