"success","timeout","failed_images","failed_audio","failed_video","trial_type","trial_index","time_elapsed","internal_node_id","subject","subject_id","study_id","session_id","urlvar","current_url","audio_id","view_history","rt","device_id","stimulus","response","estimated_stimulus_onset","seq_name"
"true","false","[]","[]","[]","preload","0","6086","0.0-0.0","E60BC9BA6D4B4D37BAA89EA262FF0030","E60BC9BA6D4B4D37BAA89EA262FF0030","a062f249-4a63-43a1-8847-2f59346ef4a0","2dd913a0-fd4c-43f1-b4f3-f0d48537bce8","{""part"":""2"",""participantId"":""E60BC9BA6D4B4D37BAA89EA262FF0030"",""assignmentId"":""a062f249-4a63-43a1-8847-2f59346ef4a0"",""projectId"":""2dd913a0-fd4c-43f1-b4f3-f0d48537bce8""}","https://test12345.live/?part=2&participantId=E60BC9BA6D4B4D37BAA89EA262FF0030&assignmentId=a062f249-4a63-43a1-8847-2f59346ef4a0&projectId=2dd913a0-fd4c-43f1-b4f3-f0d48537bce8","E60BC9BA6D4B4D37BAA89EA262FF0030-2025-05-16-06-01-56","","","","","","",""
"","","","","","instructions","1","18181","0.0-1.0","E60BC9BA6D4B4D37BAA89EA262FF0030","E60BC9BA6D4B4D37BAA89EA262FF0030","a062f249-4a63-43a1-8847-2f59346ef4a0","2dd913a0-fd4c-43f1-b4f3-f0d48537bce8","{""part"":""2"",""participantId"":""E60BC9BA6D4B4D37BAA89EA262FF0030"",""assignmentId"":""a062f249-4a63-43a1-8847-2f59346ef4a0"",""projectId"":""2dd913a0-fd4c-43f1-b4f3-f0d48537bce8""}","https://test12345.live/?part=2&participantId=E60BC9BA6D4B4D37BAA89EA262FF0030&assignmentId=a062f249-4a63-43a1-8847-2f59346ef4a0&projectId=2dd913a0-fd4c-43f1-b4f3-f0d48537bce8","E60BC9BA6D4B4D37BAA89EA262FF0030-2025-05-16-06-01-56","[{""page_index"":0,""viewing_time"":12094}]","12095","","","","",""
"","","","","","instructions","2","20314","0.0-2.0","E60BC9BA6D4B4D37BAA89EA262FF0030","E60BC9BA6D4B4D37BAA89EA262FF0030","a062f249-4a63-43a1-8847-2f59346ef4a0","2dd913a0-fd4c-43f1-b4f3-f0d48537bce8","{""part"":""2"",""participantId"":""E60BC9BA6D4B4D37BAA89EA262FF0030"",""assignmentId"":""a062f249-4a63-43a1-8847-2f59346ef4a0"",""projectId"":""2dd913a0-fd4c-43f1-b4f3-f0d48537bce8""}","https://test12345.live/?part=2&participantId=E60BC9BA6D4B4D37BAA89EA262FF0030&assignmentId=a062f249-4a63-43a1-8847-2f59346ef4a0&projectId=2dd913a0-fd4c-43f1-b4f3-f0d48537bce8","E60BC9BA6D4B4D37BAA89EA262FF0030-2025-05-16-06-01-56","[{""page_index"":0,""viewing_time"":2132}]","2133","","","","",""
"true","","","","","fullscreen","3","181522","0.0-3.0","E60BC9BA6D4B4D37BAA89EA262FF0030","E60BC9BA6D4B4D37BAA89EA262FF0030","a062f249-4a63-43a1-8847-2f59346ef4a0","2dd913a0-fd4c-43f1-b4f3-f0d48537bce8","{""part"":""2"",""participantId"":""E60BC9BA6D4B4D37BAA89EA262FF0030"",""assignmentId"":""a062f249-4a63-43a1-8847-2f59346ef4a0"",""projectId"":""2dd913a0-fd4c-43f1-b4f3-f0d48537bce8""}","https://test12345.live/?part=2&participantId=E60BC9BA6D4B4D37BAA89EA262FF0030&assignmentId=a062f249-4a63-43a1-8847-2f59346ef4a0&projectId=2dd913a0-fd4c-43f1-b4f3-f0d48537bce8","E60BC9BA6D4B4D37BAA89EA262FF0030-2025-05-16-06-01-56","","160204","","","","",""
"","","","","","initialize-microphone","4","188839","0.0-4.0-0.0","E60BC9BA6D4B4D37BAA89EA262FF0030","E60BC9BA6D4B4D37BAA89EA262FF0030","a062f249-4a63-43a1-8847-2f59346ef4a0","2dd913a0-fd4c-43f1-b4f3-f0d48537bce8","{""part"":""2"",""participantId"":""E60BC9BA6D4B4D37BAA89EA262FF0030"",""assignmentId"":""a062f249-4a63-43a1-8847-2f59346ef4a0"",""projectId"":""2dd913a0-fd4c-43f1-b4f3-f0d48537bce8""}","https://test12345.live/?part=2&participantId=E60BC9BA6D4B4D37BAA89EA262FF0030&assignmentId=a062f249-4a63-43a1-8847-2f59346ef4a0&projectId=2dd913a0-fd4c-43f1-b4f3-f0d48537bce8","E60BC9BA6D4B4D37BAA89EA262FF0030-2025-05-16-06-01-56","","","de80f089f4381968679b27e189fad99fd4c03df2112c7a5fe490afa203387d46","","","",""
"","","","","","html-audio-response","5","195697","0.0-4.0-1.0","E60BC9BA6D4B4D37BAA89EA262FF0030","E60BC9BA6D4B4D37BAA89EA262FF0030","a062f249-4a63-43a1-8847-2f59346ef4a0","2dd913a0-fd4c-43f1-b4f3-f0d48537bce8","{""part"":""2"",""participantId"":""E60BC9BA6D4B4D37BAA89EA262FF0030"",""assignmentId"":""a062f249-4a63-43a1-8847-2f59346ef4a0"",""projectId"":""2dd913a0-fd4c-43f1-b4f3-f0d48537bce8""}","https://test12345.live/?part=2&participantId=E60BC9BA6D4B4D37BAA89EA262FF0030&assignmentId=a062f249-4a63-43a1-8847-2f59346ef4a0&projectId=2dd913a0-fd4c-43f1-b4f3-f0d48537bce8","E60BC9BA6D4B4D37BAA89EA262FF0030-2025-05-16-06-01-56","","2763","","<span style=""color: red; font-size: 24px""> NOW RECORDING</span>
        <p>Please test Microphone</p>","","2",""
"","","","","","html-button-response","6","197267","0.0-4.0-2.0","E60BC9BA6D4B4D37BAA89EA262FF0030","E60BC9BA6D4B4D37BAA89EA262FF0030","a062f249-4a63-43a1-8847-2f59346ef4a0","2dd913a0-fd4c-43f1-b4f3-f0d48537bce8","{""part"":""2"",""participantId"":""E60BC9BA6D4B4D37BAA89EA262FF0030"",""assignmentId"":""a062f249-4a63-43a1-8847-2f59346ef4a0"",""projectId"":""2dd913a0-fd4c-43f1-b4f3-f0d48537bce8""}","https://test12345.live/?part=2&participantId=E60BC9BA6D4B4D37BAA89EA262FF0030&assignmentId=a062f249-4a63-43a1-8847-2f59346ef4a0&projectId=2dd913a0-fd4c-43f1-b4f3-f0d48537bce8","E60BC9BA6D4B4D37BAA89EA262FF0030-2025-05-16-06-01-56","","1568","","<p style=""font-size:48px; color:red;"">Is Microphone OK?</p>","1","",""
"","","","","","instructions","7","208617","0.0-5.0","E60BC9BA6D4B4D37BAA89EA262FF0030","E60BC9BA6D4B4D37BAA89EA262FF0030","a062f249-4a63-43a1-8847-2f59346ef4a0","2dd913a0-fd4c-43f1-b4f3-f0d48537bce8","{""part"":""2"",""participantId"":""E60BC9BA6D4B4D37BAA89EA262FF0030"",""assignmentId"":""a062f249-4a63-43a1-8847-2f59346ef4a0"",""projectId"":""2dd913a0-fd4c-43f1-b4f3-f0d48537bce8""}","https://test12345.live/?part=2&participantId=E60BC9BA6D4B4D37BAA89EA262FF0030&assignmentId=a062f249-4a63-43a1-8847-2f59346ef4a0&projectId=2dd913a0-fd4c-43f1-b4f3-f0d48537bce8","E60BC9BA6D4B4D37BAA89EA262FF0030-2025-05-16-06-01-56","[{""page_index"":0,""viewing_time"":999},{""page_index"":1,""viewing_time"":3833},{""page_index"":2,""viewing_time"":6516}]","11350","","","","",""
"","","","","","image-button-response","8","214627","0.0-6.0-0.0","E60BC9BA6D4B4D37BAA89EA262FF0030","E60BC9BA6D4B4D37BAA89EA262FF0030","a062f249-4a63-43a1-8847-2f59346ef4a0","2dd913a0-fd4c-43f1-b4f3-f0d48537bce8","{""part"":""2"",""participantId"":""E60BC9BA6D4B4D37BAA89EA262FF0030"",""assignmentId"":""a062f249-4a63-43a1-8847-2f59346ef4a0"",""projectId"":""2dd913a0-fd4c-43f1-b4f3-f0d48537bce8""}","https://test12345.live/?part=2&participantId=E60BC9BA6D4B4D37BAA89EA262FF0030&assignmentId=a062f249-4a63-43a1-8847-2f59346ef4a0&projectId=2dd913a0-fd4c-43f1-b4f3-f0d48537bce8","E60BC9BA6D4B4D37BAA89EA262FF0030-2025-05-16-06-01-56","","null","","images/instructions/movie_0.png","null","",""
"","","","","","html-audio-response","9","242649","0.0-7.0","E60BC9BA6D4B4D37BAA89EA262FF0030","E60BC9BA6D4B4D37BAA89EA262FF0030","a062f249-4a63-43a1-8847-2f59346ef4a0","2dd913a0-fd4c-43f1-b4f3-f0d48537bce8","{""part"":""2"",""participantId"":""E60BC9BA6D4B4D37BAA89EA262FF0030"",""assignmentId"":""a062f249-4a63-43a1-8847-2f59346ef4a0"",""projectId"":""2dd913a0-fd4c-43f1-b4f3-f0d48537bce8""}","https://test12345.live/?part=2&participantId=E60BC9BA6D4B4D37BAA89EA262FF0030&assignmentId=a062f249-4a63-43a1-8847-2f59346ef4a0&projectId=2dd913a0-fd4c-43f1-b4f3-f0d48537bce8","E60BC9BA6D4B4D37BAA89EA262FF0030-2025-05-16-06-01-56","","20633","","[""<span style=\""color: red; font-size: 24px\""> NOW RECORDING</span><p>Please say out loud all the images you saw in part 1 of the experiment, as many as you can remember. The images can be said in any order.</p>""]","","4",""
"","","","","","instructions","10","243582","0.0-8.0","E60BC9BA6D4B4D37BAA89EA262FF0030","E60BC9BA6D4B4D37BAA89EA262FF0030","a062f249-4a63-43a1-8847-2f59346ef4a0","2dd913a0-fd4c-43f1-b4f3-f0d48537bce8","{""part"":""2"",""participantId"":""E60BC9BA6D4B4D37BAA89EA262FF0030"",""assignmentId"":""a062f249-4a63-43a1-8847-2f59346ef4a0"",""projectId"":""2dd913a0-fd4c-43f1-b4f3-f0d48537bce8""}","https://test12345.live/?part=2&participantId=E60BC9BA6D4B4D37BAA89EA262FF0030&assignmentId=a062f249-4a63-43a1-8847-2f59346ef4a0&projectId=2dd913a0-fd4c-43f1-b4f3-f0d48537bce8","E60BC9BA6D4B4D37BAA89EA262FF0030-2025-05-16-06-01-56","[{""page_index"":0,""viewing_time"":929}]","929","","","","",""
"","","","","","image-button-response","11","249590","0.0-9.0-0.0","E60BC9BA6D4B4D37BAA89EA262FF0030","E60BC9BA6D4B4D37BAA89EA262FF0030","a062f249-4a63-43a1-8847-2f59346ef4a0","2dd913a0-fd4c-43f1-b4f3-f0d48537bce8","{""part"":""2"",""participantId"":""E60BC9BA6D4B4D37BAA89EA262FF0030"",""assignmentId"":""a062f249-4a63-43a1-8847-2f59346ef4a0"",""projectId"":""2dd913a0-fd4c-43f1-b4f3-f0d48537bce8""}","https://test12345.live/?part=2&participantId=E60BC9BA6D4B4D37BAA89EA262FF0030&assignmentId=a062f249-4a63-43a1-8847-2f59346ef4a0&projectId=2dd913a0-fd4c-43f1-b4f3-f0d48537bce8","E60BC9BA6D4B4D37BAA89EA262FF0030-2025-05-16-06-01-56","","null","","images/schematic_sequence/hotel_scheme/hotel_scheme_0.png","null","",""
"","","","","","html-audio-response","12","345050","0.0-10.0","E60BC9BA6D4B4D37BAA89EA262FF0030","E60BC9BA6D4B4D37BAA89EA262FF0030","a062f249-4a63-43a1-8847-2f59346ef4a0","2dd913a0-fd4c-43f1-b4f3-f0d48537bce8","{""part"":""2"",""participantId"":""E60BC9BA6D4B4D37BAA89EA262FF0030"",""assignmentId"":""a062f249-4a63-43a1-8847-2f59346ef4a0"",""projectId"":""2dd913a0-fd4c-43f1-b4f3-f0d48537bce8""}","https://test12345.live/?part=2&participantId=E60BC9BA6D4B4D37BAA89EA262FF0030&assignmentId=a062f249-4a63-43a1-8847-2f59346ef4a0&projectId=2dd913a0-fd4c-43f1-b4f3-f0d48537bce8","E60BC9BA6D4B4D37BAA89EA262FF0030-2025-05-16-06-01-56","","31966","","[""<span style=\""color: red; font-size: 24px\""> NOW RECORDING</span><p>Please say out loud all the images you saw in part 1 of the experiment, as many as you can remember. The images can be said in any order.</p>""]","","14","hotel_scheme"
"","","","","","image-button-response","13","351059","0.0-11.0-0.0","E60BC9BA6D4B4D37BAA89EA262FF0030","E60BC9BA6D4B4D37BAA89EA262FF0030","a062f249-4a63-43a1-8847-2f59346ef4a0","2dd913a0-fd4c-43f1-b4f3-f0d48537bce8","{""part"":""2"",""participantId"":""E60BC9BA6D4B4D37BAA89EA262FF0030"",""assignmentId"":""a062f249-4a63-43a1-8847-2f59346ef4a0"",""projectId"":""2dd913a0-fd4c-43f1-b4f3-f0d48537bce8""}","https://test12345.live/?part=2&participantId=E60BC9BA6D4B4D37BAA89EA262FF0030&assignmentId=a062f249-4a63-43a1-8847-2f59346ef4a0&projectId=2dd913a0-fd4c-43f1-b4f3-f0d48537bce8","E60BC9BA6D4B4D37BAA89EA262FF0030-2025-05-16-06-01-56","","null","","images/semantic_sequence/market_semantic/market_semantic_0.png","null","",""
"","","","","","html-audio-response","14","390259","0.0-12.0","E60BC9BA6D4B4D37BAA89EA262FF0030","E60BC9BA6D4B4D37BAA89EA262FF0030","a062f249-4a63-43a1-8847-2f59346ef4a0","2dd913a0-fd4c-43f1-b4f3-f0d48537bce8","{""part"":""2"",""participantId"":""E60BC9BA6D4B4D37BAA89EA262FF0030"",""assignmentId"":""a062f249-4a63-43a1-8847-2f59346ef4a0"",""projectId"":""2dd913a0-fd4c-43f1-b4f3-f0d48537bce8""}","https://test12345.live/?part=2&participantId=E60BC9BA6D4B4D37BAA89EA262FF0030&assignmentId=a062f249-4a63-43a1-8847-2f59346ef4a0&projectId=2dd913a0-fd4c-43f1-b4f3-f0d48537bce8","E60BC9BA6D4B4D37BAA89EA262FF0030-2025-05-16-06-01-56","","38463","","[""<span style=\""color: red; font-size: 24px\""> NOW RECORDING</span><p>Please say out loud all the images you saw in part 1 of the experiment, as many as you can remember. The images can be said in any order.</p>""]","","1","market_semantic"
"","","","","","image-button-response","15","396266","0.0-13.0-0.0","E60BC9BA6D4B4D37BAA89EA262FF0030","E60BC9BA6D4B4D37BAA89EA262FF0030","a062f249-4a63-43a1-8847-2f59346ef4a0","2dd913a0-fd4c-43f1-b4f3-f0d48537bce8","{""part"":""2"",""participantId"":""E60BC9BA6D4B4D37BAA89EA262FF0030"",""assignmentId"":""a062f249-4a63-43a1-8847-2f59346ef4a0"",""projectId"":""2dd913a0-fd4c-43f1-b4f3-f0d48537bce8""}","https://test12345.live/?part=2&participantId=E60BC9BA6D4B4D37BAA89EA262FF0030&assignmentId=a062f249-4a63-43a1-8847-2f59346ef4a0&projectId=2dd913a0-fd4c-43f1-b4f3-f0d48537bce8","E60BC9BA6D4B4D37BAA89EA262FF0030-2025-05-16-06-01-56","","null","","images/causal_sequence/saving_a_cat_causal/saving_a_cat_causal_0.png","null","",""
"","","","","","html-audio-response","16","452918","0.0-14.0","E60BC9BA6D4B4D37BAA89EA262FF0030","E60BC9BA6D4B4D37BAA89EA262FF0030","a062f249-4a63-43a1-8847-2f59346ef4a0","2dd913a0-fd4c-43f1-b4f3-f0d48537bce8","{""part"":""2"",""participantId"":""E60BC9BA6D4B4D37BAA89EA262FF0030"",""assignmentId"":""a062f249-4a63-43a1-8847-2f59346ef4a0"",""projectId"":""2dd913a0-fd4c-43f1-b4f3-f0d48537bce8""}","https://test12345.live/?part=2&participantId=E60BC9BA6D4B4D37BAA89EA262FF0030&assignmentId=a062f249-4a63-43a1-8847-2f59346ef4a0&projectId=2dd913a0-fd4c-43f1-b4f3-f0d48537bce8","E60BC9BA6D4B4D37BAA89EA262FF0030-2025-05-16-06-01-56","","null","","[""<span style=\""color: red; font-size: 24px\""> NOW RECORDING</span><p>Please say out loud all the images you saw in part 1 of the experiment, as many as you can remember. The images can be said in any order.</p>""]","","5","saving_a_cat_causal"
"","","","","","image-button-response","17","458928","0.0-15.0-0.0","E60BC9BA6D4B4D37BAA89EA262FF0030","E60BC9BA6D4B4D37BAA89EA262FF0030","a062f249-4a63-43a1-8847-2f59346ef4a0","2dd913a0-fd4c-43f1-b4f3-f0d48537bce8","{""part"":""2"",""participantId"":""E60BC9BA6D4B4D37BAA89EA262FF0030"",""assignmentId"":""a062f249-4a63-43a1-8847-2f59346ef4a0"",""projectId"":""2dd913a0-fd4c-43f1-b4f3-f0d48537bce8""}","https://test12345.live/?part=2&participantId=E60BC9BA6D4B4D37BAA89EA262FF0030&assignmentId=a062f249-4a63-43a1-8847-2f59346ef4a0&projectId=2dd913a0-fd4c-43f1-b4f3-f0d48537bce8","E60BC9BA6D4B4D37BAA89EA262FF0030-2025-05-16-06-01-56","","null","","images/schematic_sequence/dinner_party_scheme/dinner_party_scheme_0.png","null","",""
"","","","","","html-audio-response","18","486740","0.0-16.0","E60BC9BA6D4B4D37BAA89EA262FF0030","E60BC9BA6D4B4D37BAA89EA262FF0030","a062f249-4a63-43a1-8847-2f59346ef4a0","2dd913a0-fd4c-43f1-b4f3-f0d48537bce8","{""part"":""2"",""participantId"":""E60BC9BA6D4B4D37BAA89EA262FF0030"",""assignmentId"":""a062f249-4a63-43a1-8847-2f59346ef4a0"",""projectId"":""2dd913a0-fd4c-43f1-b4f3-f0d48537bce8""}","https://test12345.live/?part=2&participantId=E60BC9BA6D4B4D37BAA89EA262FF0030&assignmentId=a062f249-4a63-43a1-8847-2f59346ef4a0&projectId=2dd913a0-fd4c-43f1-b4f3-f0d48537bce8","E60BC9BA6D4B4D37BAA89EA262FF0030-2025-05-16-06-01-56","","26884","","[""<span style=\""color: red; font-size: 24px\""> NOW RECORDING</span><p>Please say out loud all the images you saw in part 1 of the experiment, as many as you can remember. The images can be said in any order.</p>""]","","2","dinner_party_scheme"
"","","","","","image-button-response","19","492751","0.0-17.0-0.0","E60BC9BA6D4B4D37BAA89EA262FF0030","E60BC9BA6D4B4D37BAA89EA262FF0030","a062f249-4a63-43a1-8847-2f59346ef4a0","2dd913a0-fd4c-43f1-b4f3-f0d48537bce8","{""part"":""2"",""participantId"":""E60BC9BA6D4B4D37BAA89EA262FF0030"",""assignmentId"":""a062f249-4a63-43a1-8847-2f59346ef4a0"",""projectId"":""2dd913a0-fd4c-43f1-b4f3-f0d48537bce8""}","https://test12345.live/?part=2&participantId=E60BC9BA6D4B4D37BAA89EA262FF0030&assignmentId=a062f249-4a63-43a1-8847-2f59346ef4a0&projectId=2dd913a0-fd4c-43f1-b4f3-f0d48537bce8","E60BC9BA6D4B4D37BAA89EA262FF0030-2025-05-16-06-01-56","","null","","images/semantic_sequence/creative_activities_semantic/creative_activities_semantic_0.png","null","",""
"","","","","","html-audio-response","20","549719","0.0-18.0","E60BC9BA6D4B4D37BAA89EA262FF0030","E60BC9BA6D4B4D37BAA89EA262FF0030","a062f249-4a63-43a1-8847-2f59346ef4a0","2dd913a0-fd4c-43f1-b4f3-f0d48537bce8","{""part"":""2"",""participantId"":""E60BC9BA6D4B4D37BAA89EA262FF0030"",""assignmentId"":""a062f249-4a63-43a1-8847-2f59346ef4a0"",""projectId"":""2dd913a0-fd4c-43f1-b4f3-f0d48537bce8""}","https://test12345.live/?part=2&participantId=E60BC9BA6D4B4D37BAA89EA262FF0030&assignmentId=a062f249-4a63-43a1-8847-2f59346ef4a0&projectId=2dd913a0-fd4c-43f1-b4f3-f0d48537bce8","E60BC9BA6D4B4D37BAA89EA262FF0030-2025-05-16-06-01-56","","null","","[""<span style=\""color: red; font-size: 24px\""> NOW RECORDING</span><p>Please say out loud all the images you saw in part 1 of the experiment, as many as you can remember. The images can be said in any order.</p>""]","","2","creative_activities_semantic"
"","","","","","image-button-response","21","555730","0.0-19.0-0.0","E60BC9BA6D4B4D37BAA89EA262FF0030","E60BC9BA6D4B4D37BAA89EA262FF0030","a062f249-4a63-43a1-8847-2f59346ef4a0","2dd913a0-fd4c-43f1-b4f3-f0d48537bce8","{""part"":""2"",""participantId"":""E60BC9BA6D4B4D37BAA89EA262FF0030"",""assignmentId"":""a062f249-4a63-43a1-8847-2f59346ef4a0"",""projectId"":""2dd913a0-fd4c-43f1-b4f3-f0d48537bce8""}","https://test12345.live/?part=2&participantId=E60BC9BA6D4B4D37BAA89EA262FF0030&assignmentId=a062f249-4a63-43a1-8847-2f59346ef4a0&projectId=2dd913a0-fd4c-43f1-b4f3-f0d48537bce8","E60BC9BA6D4B4D37BAA89EA262FF0030-2025-05-16-06-01-56","","null","","images/causal_sequence/dog_causal/dog_causal_0.png","null","",""
"","","","","","html-audio-response","22","612535","0.0-20.0","E60BC9BA6D4B4D37BAA89EA262FF0030","E60BC9BA6D4B4D37BAA89EA262FF0030","a062f249-4a63-43a1-8847-2f59346ef4a0","2dd913a0-fd4c-43f1-b4f3-f0d48537bce8","{""part"":""2"",""participantId"":""E60BC9BA6D4B4D37BAA89EA262FF0030"",""assignmentId"":""a062f249-4a63-43a1-8847-2f59346ef4a0"",""projectId"":""2dd913a0-fd4c-43f1-b4f3-f0d48537bce8""}","https://test12345.live/?part=2&participantId=E60BC9BA6D4B4D37BAA89EA262FF0030&assignmentId=a062f249-4a63-43a1-8847-2f59346ef4a0&projectId=2dd913a0-fd4c-43f1-b4f3-f0d48537bce8","E60BC9BA6D4B4D37BAA89EA262FF0030-2025-05-16-06-01-56","","null","","[""<span style=\""color: red; font-size: 24px\""> NOW RECORDING</span><p>Please say out loud all the images you saw in part 1 of the experiment, as many as you can remember. The images can be said in any order.</p>""]","","2","dog_causal"
"","","","","","image-button-response","23","618544","0.0-21.0-0.0","E60BC9BA6D4B4D37BAA89EA262FF0030","E60BC9BA6D4B4D37BAA89EA262FF0030","a062f249-4a63-43a1-8847-2f59346ef4a0","2dd913a0-fd4c-43f1-b4f3-f0d48537bce8","{""part"":""2"",""participantId"":""E60BC9BA6D4B4D37BAA89EA262FF0030"",""assignmentId"":""a062f249-4a63-43a1-8847-2f59346ef4a0"",""projectId"":""2dd913a0-fd4c-43f1-b4f3-f0d48537bce8""}","https://test12345.live/?part=2&participantId=E60BC9BA6D4B4D37BAA89EA262FF0030&assignmentId=a062f249-4a63-43a1-8847-2f59346ef4a0&projectId=2dd913a0-fd4c-43f1-b4f3-f0d48537bce8","E60BC9BA6D4B4D37BAA89EA262FF0030-2025-05-16-06-01-56","","null","","images/semantic_sequence/cat_care_semantic/cat_care_semantic_0.png","null","",""
"","","","","","html-audio-response","24","653754","0.0-22.0","E60BC9BA6D4B4D37BAA89EA262FF0030","E60BC9BA6D4B4D37BAA89EA262FF0030","a062f249-4a63-43a1-8847-2f59346ef4a0","2dd913a0-fd4c-43f1-b4f3-f0d48537bce8","{""part"":""2"",""participantId"":""E60BC9BA6D4B4D37BAA89EA262FF0030"",""assignmentId"":""a062f249-4a63-43a1-8847-2f59346ef4a0"",""projectId"":""2dd913a0-fd4c-43f1-b4f3-f0d48537bce8""}","https://test12345.live/?part=2&participantId=E60BC9BA6D4B4D37BAA89EA262FF0030&assignmentId=a062f249-4a63-43a1-8847-2f59346ef4a0&projectId=2dd913a0-fd4c-43f1-b4f3-f0d48537bce8","E60BC9BA6D4B4D37BAA89EA262FF0030-2025-05-16-06-01-56","","34487","","[""<span style=\""color: red; font-size: 24px\""> NOW RECORDING</span><p>Please say out loud all the images you saw in part 1 of the experiment, as many as you can remember. The images can be said in any order.</p>""]","","2","cat_care_semantic"
"","","","","","image-button-response","25","659766","0.0-23.0-0.0","E60BC9BA6D4B4D37BAA89EA262FF0030","E60BC9BA6D4B4D37BAA89EA262FF0030","a062f249-4a63-43a1-8847-2f59346ef4a0","2dd913a0-fd4c-43f1-b4f3-f0d48537bce8","{""part"":""2"",""participantId"":""E60BC9BA6D4B4D37BAA89EA262FF0030"",""assignmentId"":""a062f249-4a63-43a1-8847-2f59346ef4a0"",""projectId"":""2dd913a0-fd4c-43f1-b4f3-f0d48537bce8""}","https://test12345.live/?part=2&participantId=E60BC9BA6D4B4D37BAA89EA262FF0030&assignmentId=a062f249-4a63-43a1-8847-2f59346ef4a0&projectId=2dd913a0-fd4c-43f1-b4f3-f0d48537bce8","E60BC9BA6D4B4D37BAA89EA262FF0030-2025-05-16-06-01-56","","null","","images/causal_sequence/package_causal/package_causal_0.png","null","",""
"","","","","","html-audio-response","26","703004","0.0-24.0","E60BC9BA6D4B4D37BAA89EA262FF0030","E60BC9BA6D4B4D37BAA89EA262FF0030","a062f249-4a63-43a1-8847-2f59346ef4a0","2dd913a0-fd4c-43f1-b4f3-f0d48537bce8","{""part"":""2"",""participantId"":""E60BC9BA6D4B4D37BAA89EA262FF0030"",""assignmentId"":""a062f249-4a63-43a1-8847-2f59346ef4a0"",""projectId"":""2dd913a0-fd4c-43f1-b4f3-f0d48537bce8""}","https://test12345.live/?part=2&participantId=E60BC9BA6D4B4D37BAA89EA262FF0030&assignmentId=a062f249-4a63-43a1-8847-2f59346ef4a0&projectId=2dd913a0-fd4c-43f1-b4f3-f0d48537bce8","E60BC9BA6D4B4D37BAA89EA262FF0030-2025-05-16-06-01-56","","42331","","[""<span style=\""color: red; font-size: 24px\""> NOW RECORDING</span><p>Please say out loud all the images you saw in part 1 of the experiment, as many as you can remember. The images can be said in any order.</p>""]","","2","package_causal"
"","","","","","image-button-response","27","709018","0.0-25.0-0.0","E60BC9BA6D4B4D37BAA89EA262FF0030","E60BC9BA6D4B4D37BAA89EA262FF0030","a062f249-4a63-43a1-8847-2f59346ef4a0","2dd913a0-fd4c-43f1-b4f3-f0d48537bce8","{""part"":""2"",""participantId"":""E60BC9BA6D4B4D37BAA89EA262FF0030"",""assignmentId"":""a062f249-4a63-43a1-8847-2f59346ef4a0"",""projectId"":""2dd913a0-fd4c-43f1-b4f3-f0d48537bce8""}","https://test12345.live/?part=2&participantId=E60BC9BA6D4B4D37BAA89EA262FF0030&assignmentId=a062f249-4a63-43a1-8847-2f59346ef4a0&projectId=2dd913a0-fd4c-43f1-b4f3-f0d48537bce8","E60BC9BA6D4B4D37BAA89EA262FF0030-2025-05-16-06-01-56","","null","","images/semantic_sequence/self_care_activities_semantic/self_care_activities_semantic_0.png","null","",""
"","","","","","html-audio-response","28","744119","0.0-26.0","E60BC9BA6D4B4D37BAA89EA262FF0030","E60BC9BA6D4B4D37BAA89EA262FF0030","a062f249-4a63-43a1-8847-2f59346ef4a0","2dd913a0-fd4c-43f1-b4f3-f0d48537bce8","{""part"":""2"",""participantId"":""E60BC9BA6D4B4D37BAA89EA262FF0030"",""assignmentId"":""a062f249-4a63-43a1-8847-2f59346ef4a0"",""projectId"":""2dd913a0-fd4c-43f1-b4f3-f0d48537bce8""}","https://test12345.live/?part=2&participantId=E60BC9BA6D4B4D37BAA89EA262FF0030&assignmentId=a062f249-4a63-43a1-8847-2f59346ef4a0&projectId=2dd913a0-fd4c-43f1-b4f3-f0d48537bce8","E60BC9BA6D4B4D37BAA89EA262FF0030-2025-05-16-06-01-56","","34325","","[""<span style=\""color: red; font-size: 24px\""> NOW RECORDING</span><p>Please say out loud all the images you saw in part 1 of the experiment, as many as you can remember. The images can be said in any order.</p>""]","","1","self_care_activities_semantic"
"","","","","","image-button-response","29","750133","0.0-27.0-0.0","E60BC9BA6D4B4D37BAA89EA262FF0030","E60BC9BA6D4B4D37BAA89EA262FF0030","a062f249-4a63-43a1-8847-2f59346ef4a0","2dd913a0-fd4c-43f1-b4f3-f0d48537bce8","{""part"":""2"",""participantId"":""E60BC9BA6D4B4D37BAA89EA262FF0030"",""assignmentId"":""a062f249-4a63-43a1-8847-2f59346ef4a0"",""projectId"":""2dd913a0-fd4c-43f1-b4f3-f0d48537bce8""}","https://test12345.live/?part=2&participantId=E60BC9BA6D4B4D37BAA89EA262FF0030&assignmentId=a062f249-4a63-43a1-8847-2f59346ef4a0&projectId=2dd913a0-fd4c-43f1-b4f3-f0d48537bce8","E60BC9BA6D4B4D37BAA89EA262FF0030-2025-05-16-06-01-56","","null","","images/semantic_sequence/visiting_cities_semantic/visiting_cities_semantic_0.png","null","",""
"","","","","","html-audio-response","30","806968","0.0-28.0","E60BC9BA6D4B4D37BAA89EA262FF0030","E60BC9BA6D4B4D37BAA89EA262FF0030","a062f249-4a63-43a1-8847-2f59346ef4a0","2dd913a0-fd4c-43f1-b4f3-f0d48537bce8","{""part"":""2"",""participantId"":""E60BC9BA6D4B4D37BAA89EA262FF0030"",""assignmentId"":""a062f249-4a63-43a1-8847-2f59346ef4a0"",""projectId"":""2dd913a0-fd4c-43f1-b4f3-f0d48537bce8""}","https://test12345.live/?part=2&participantId=E60BC9BA6D4B4D37BAA89EA262FF0030&assignmentId=a062f249-4a63-43a1-8847-2f59346ef4a0&projectId=2dd913a0-fd4c-43f1-b4f3-f0d48537bce8","E60BC9BA6D4B4D37BAA89EA262FF0030-2025-05-16-06-01-56","","null","","[""<span style=\""color: red; font-size: 24px\""> NOW RECORDING</span><p>Please say out loud all the images you saw in part 1 of the experiment, as many as you can remember. The images can be said in any order.</p>""]","","2","visiting_cities_semantic"
"","","","","","image-button-response","31","812976","0.0-29.0-0.0","E60BC9BA6D4B4D37BAA89EA262FF0030","E60BC9BA6D4B4D37BAA89EA262FF0030","a062f249-4a63-43a1-8847-2f59346ef4a0","2dd913a0-fd4c-43f1-b4f3-f0d48537bce8","{""part"":""2"",""participantId"":""E60BC9BA6D4B4D37BAA89EA262FF0030"",""assignmentId"":""a062f249-4a63-43a1-8847-2f59346ef4a0"",""projectId"":""2dd913a0-fd4c-43f1-b4f3-f0d48537bce8""}","https://test12345.live/?part=2&participantId=E60BC9BA6D4B4D37BAA89EA262FF0030&assignmentId=a062f249-4a63-43a1-8847-2f59346ef4a0&projectId=2dd913a0-fd4c-43f1-b4f3-f0d48537bce8","E60BC9BA6D4B4D37BAA89EA262FF0030-2025-05-16-06-01-56","","null","","images/semantic_sequence/housework_semantic/housework_semantic_0.png","null","",""
"","","","","","html-audio-response","32","869154","0.0-30.0","E60BC9BA6D4B4D37BAA89EA262FF0030","E60BC9BA6D4B4D37BAA89EA262FF0030","a062f249-4a63-43a1-8847-2f59346ef4a0","2dd913a0-fd4c-43f1-b4f3-f0d48537bce8","{""part"":""2"",""participantId"":""E60BC9BA6D4B4D37BAA89EA262FF0030"",""assignmentId"":""a062f249-4a63-43a1-8847-2f59346ef4a0"",""projectId"":""2dd913a0-fd4c-43f1-b4f3-f0d48537bce8""}","https://test12345.live/?part=2&participantId=E60BC9BA6D4B4D37BAA89EA262FF0030&assignmentId=a062f249-4a63-43a1-8847-2f59346ef4a0&projectId=2dd913a0-fd4c-43f1-b4f3-f0d48537bce8","E60BC9BA6D4B4D37BAA89EA262FF0030-2025-05-16-06-01-56","","null","","[""<span style=\""color: red; font-size: 24px\""> NOW RECORDING</span><p>Please say out loud all the images you saw in part 1 of the experiment, as many as you can remember. The images can be said in any order.</p>""]","","2","housework_semantic"
"","","","","","image-button-response","33","875169","0.0-31.0-0.0","E60BC9BA6D4B4D37BAA89EA262FF0030","E60BC9BA6D4B4D37BAA89EA262FF0030","a062f249-4a63-43a1-8847-2f59346ef4a0","2dd913a0-fd4c-43f1-b4f3-f0d48537bce8","{""part"":""2"",""participantId"":""E60BC9BA6D4B4D37BAA89EA262FF0030"",""assignmentId"":""a062f249-4a63-43a1-8847-2f59346ef4a0"",""projectId"":""2dd913a0-fd4c-43f1-b4f3-f0d48537bce8""}","https://test12345.live/?part=2&participantId=E60BC9BA6D4B4D37BAA89EA262FF0030&assignmentId=a062f249-4a63-43a1-8847-2f59346ef4a0&projectId=2dd913a0-fd4c-43f1-b4f3-f0d48537bce8","E60BC9BA6D4B4D37BAA89EA262FF0030-2025-05-16-06-01-56","","null","","images/causal_sequence/the_performance_causal/the_performance_causal_0.png","null","",""
"","","","","","html-audio-response","34","931818","0.0-32.0","E60BC9BA6D4B4D37BAA89EA262FF0030","E60BC9BA6D4B4D37BAA89EA262FF0030","a062f249-4a63-43a1-8847-2f59346ef4a0","2dd913a0-fd4c-43f1-b4f3-f0d48537bce8","{""part"":""2"",""participantId"":""E60BC9BA6D4B4D37BAA89EA262FF0030"",""assignmentId"":""a062f249-4a63-43a1-8847-2f59346ef4a0"",""projectId"":""2dd913a0-fd4c-43f1-b4f3-f0d48537bce8""}","https://test12345.live/?part=2&participantId=E60BC9BA6D4B4D37BAA89EA262FF0030&assignmentId=a062f249-4a63-43a1-8847-2f59346ef4a0&projectId=2dd913a0-fd4c-43f1-b4f3-f0d48537bce8","E60BC9BA6D4B4D37BAA89EA262FF0030-2025-05-16-06-01-56","","null","","[""<span style=\""color: red; font-size: 24px\""> NOW RECORDING</span><p>Please say out loud all the images you saw in part 1 of the experiment, as many as you can remember. The images can be said in any order.</p>""]","","13","the_performance_causal"
"","","","","","image-button-response","35","937826","0.0-33.0-0.0","E60BC9BA6D4B4D37BAA89EA262FF0030","E60BC9BA6D4B4D37BAA89EA262FF0030","a062f249-4a63-43a1-8847-2f59346ef4a0","2dd913a0-fd4c-43f1-b4f3-f0d48537bce8","{""part"":""2"",""participantId"":""E60BC9BA6D4B4D37BAA89EA262FF0030"",""assignmentId"":""a062f249-4a63-43a1-8847-2f59346ef4a0"",""projectId"":""2dd913a0-fd4c-43f1-b4f3-f0d48537bce8""}","https://test12345.live/?part=2&participantId=E60BC9BA6D4B4D37BAA89EA262FF0030&assignmentId=a062f249-4a63-43a1-8847-2f59346ef4a0&projectId=2dd913a0-fd4c-43f1-b4f3-f0d48537bce8","E60BC9BA6D4B4D37BAA89EA262FF0030-2025-05-16-06-01-56","","null","","images/causal_sequence/museum_causal/museum_causal_0.png","null","",""
"","","","","","html-audio-response","36","990718","0.0-34.0","E60BC9BA6D4B4D37BAA89EA262FF0030","E60BC9BA6D4B4D37BAA89EA262FF0030","a062f249-4a63-43a1-8847-2f59346ef4a0","2dd913a0-fd4c-43f1-b4f3-f0d48537bce8","{""part"":""2"",""participantId"":""E60BC9BA6D4B4D37BAA89EA262FF0030"",""assignmentId"":""a062f249-4a63-43a1-8847-2f59346ef4a0"",""projectId"":""2dd913a0-fd4c-43f1-b4f3-f0d48537bce8""}","https://test12345.live/?part=2&participantId=E60BC9BA6D4B4D37BAA89EA262FF0030&assignmentId=a062f249-4a63-43a1-8847-2f59346ef4a0&projectId=2dd913a0-fd4c-43f1-b4f3-f0d48537bce8","E60BC9BA6D4B4D37BAA89EA262FF0030-2025-05-16-06-01-56","","52129","","[""<span style=\""color: red; font-size: 24px\""> NOW RECORDING</span><p>Please say out loud all the images you saw in part 1 of the experiment, as many as you can remember. The images can be said in any order.</p>""]","","2","museum_causal"
"","","","","","image-button-response","37","996726","0.0-35.0-0.0","E60BC9BA6D4B4D37BAA89EA262FF0030","E60BC9BA6D4B4D37BAA89EA262FF0030","a062f249-4a63-43a1-8847-2f59346ef4a0","2dd913a0-fd4c-43f1-b4f3-f0d48537bce8","{""part"":""2"",""participantId"":""E60BC9BA6D4B4D37BAA89EA262FF0030"",""assignmentId"":""a062f249-4a63-43a1-8847-2f59346ef4a0"",""projectId"":""2dd913a0-fd4c-43f1-b4f3-f0d48537bce8""}","https://test12345.live/?part=2&participantId=E60BC9BA6D4B4D37BAA89EA262FF0030&assignmentId=a062f249-4a63-43a1-8847-2f59346ef4a0&projectId=2dd913a0-fd4c-43f1-b4f3-f0d48537bce8","E60BC9BA6D4B4D37BAA89EA262FF0030-2025-05-16-06-01-56","","null","","images/semantic_sequence/using_technology_semantic/using_technology_semantic_0.png","null","",""
"","","","","","html-audio-response","38","1035153","0.0-36.0","E60BC9BA6D4B4D37BAA89EA262FF0030","E60BC9BA6D4B4D37BAA89EA262FF0030","a062f249-4a63-43a1-8847-2f59346ef4a0","2dd913a0-fd4c-43f1-b4f3-f0d48537bce8","{""part"":""2"",""participantId"":""E60BC9BA6D4B4D37BAA89EA262FF0030"",""assignmentId"":""a062f249-4a63-43a1-8847-2f59346ef4a0"",""projectId"":""2dd913a0-fd4c-43f1-b4f3-f0d48537bce8""}","https://test12345.live/?part=2&participantId=E60BC9BA6D4B4D37BAA89EA262FF0030&assignmentId=a062f249-4a63-43a1-8847-2f59346ef4a0&projectId=2dd913a0-fd4c-43f1-b4f3-f0d48537bce8","E60BC9BA6D4B4D37BAA89EA262FF0030-2025-05-16-06-01-56","","37332","","[""<span style=\""color: red; font-size: 24px\""> NOW RECORDING</span><p>Please say out loud all the images you saw in part 1 of the experiment, as many as you can remember. The images can be said in any order.</p>""]","","2","using_technology_semantic"
"","","","","","image-button-response","39","1041163","0.0-37.0-0.0","E60BC9BA6D4B4D37BAA89EA262FF0030","E60BC9BA6D4B4D37BAA89EA262FF0030","a062f249-4a63-43a1-8847-2f59346ef4a0","2dd913a0-fd4c-43f1-b4f3-f0d48537bce8","{""part"":""2"",""participantId"":""E60BC9BA6D4B4D37BAA89EA262FF0030"",""assignmentId"":""a062f249-4a63-43a1-8847-2f59346ef4a0"",""projectId"":""2dd913a0-fd4c-43f1-b4f3-f0d48537bce8""}","https://test12345.live/?part=2&participantId=E60BC9BA6D4B4D37BAA89EA262FF0030&assignmentId=a062f249-4a63-43a1-8847-2f59346ef4a0&projectId=2dd913a0-fd4c-43f1-b4f3-f0d48537bce8","E60BC9BA6D4B4D37BAA89EA262FF0030-2025-05-16-06-01-56","","null","","images/schematic_sequence/flight_scheme/flight_scheme_0.png","null","",""
"","","","","","html-audio-response","40","1101036","0.0-38.0","E60BC9BA6D4B4D37BAA89EA262FF0030","E60BC9BA6D4B4D37BAA89EA262FF0030","a062f249-4a63-43a1-8847-2f59346ef4a0","2dd913a0-fd4c-43f1-b4f3-f0d48537bce8","{""part"":""2"",""participantId"":""E60BC9BA6D4B4D37BAA89EA262FF0030"",""assignmentId"":""a062f249-4a63-43a1-8847-2f59346ef4a0"",""projectId"":""2dd913a0-fd4c-43f1-b4f3-f0d48537bce8""}","https://test12345.live/?part=2&participantId=E60BC9BA6D4B4D37BAA89EA262FF0030&assignmentId=a062f249-4a63-43a1-8847-2f59346ef4a0&projectId=2dd913a0-fd4c-43f1-b4f3-f0d48537bce8","E60BC9BA6D4B4D37BAA89EA262FF0030-2025-05-16-06-01-56","","null","","[""<span style=\""color: red; font-size: 24px\""> NOW RECORDING</span><p>Please say out loud all the images you saw in part 1 of the experiment, as many as you can remember. The images can be said in any order.</p>""]","","6","flight_scheme"
"","","","","","image-button-response","41","1107042","0.0-39.0-0.0","E60BC9BA6D4B4D37BAA89EA262FF0030","E60BC9BA6D4B4D37BAA89EA262FF0030","a062f249-4a63-43a1-8847-2f59346ef4a0","2dd913a0-fd4c-43f1-b4f3-f0d48537bce8","{""part"":""2"",""participantId"":""E60BC9BA6D4B4D37BAA89EA262FF0030"",""assignmentId"":""a062f249-4a63-43a1-8847-2f59346ef4a0"",""projectId"":""2dd913a0-fd4c-43f1-b4f3-f0d48537bce8""}","https://test12345.live/?part=2&participantId=E60BC9BA6D4B4D37BAA89EA262FF0030&assignmentId=a062f249-4a63-43a1-8847-2f59346ef4a0&projectId=2dd913a0-fd4c-43f1-b4f3-f0d48537bce8","E60BC9BA6D4B4D37BAA89EA262FF0030-2025-05-16-06-01-56","","null","","images/semantic_sequence/physical_activity_semantic/physical_activity_semantic_0.png","null","",""
"","","","","","html-audio-response","42","1164252","0.0-40.0","E60BC9BA6D4B4D37BAA89EA262FF0030","E60BC9BA6D4B4D37BAA89EA262FF0030","a062f249-4a63-43a1-8847-2f59346ef4a0","2dd913a0-fd4c-43f1-b4f3-f0d48537bce8","{""part"":""2"",""participantId"":""E60BC9BA6D4B4D37BAA89EA262FF0030"",""assignmentId"":""a062f249-4a63-43a1-8847-2f59346ef4a0"",""projectId"":""2dd913a0-fd4c-43f1-b4f3-f0d48537bce8""}","https://test12345.live/?part=2&participantId=E60BC9BA6D4B4D37BAA89EA262FF0030&assignmentId=a062f249-4a63-43a1-8847-2f59346ef4a0&projectId=2dd913a0-fd4c-43f1-b4f3-f0d48537bce8","E60BC9BA6D4B4D37BAA89EA262FF0030-2025-05-16-06-01-56","","null","","[""<span style=\""color: red; font-size: 24px\""> NOW RECORDING</span><p>Please say out loud all the images you saw in part 1 of the experiment, as many as you can remember. The images can be said in any order.</p>""]","","2","physical_activity_semantic"
"","","","","","image-button-response","43","1170258","0.0-41.0-0.0","E60BC9BA6D4B4D37BAA89EA262FF0030","E60BC9BA6D4B4D37BAA89EA262FF0030","a062f249-4a63-43a1-8847-2f59346ef4a0","2dd913a0-fd4c-43f1-b4f3-f0d48537bce8","{""part"":""2"",""participantId"":""E60BC9BA6D4B4D37BAA89EA262FF0030"",""assignmentId"":""a062f249-4a63-43a1-8847-2f59346ef4a0"",""projectId"":""2dd913a0-fd4c-43f1-b4f3-f0d48537bce8""}","https://test12345.live/?part=2&participantId=E60BC9BA6D4B4D37BAA89EA262FF0030&assignmentId=a062f249-4a63-43a1-8847-2f59346ef4a0&projectId=2dd913a0-fd4c-43f1-b4f3-f0d48537bce8","E60BC9BA6D4B4D37BAA89EA262FF0030-2025-05-16-06-01-56","","null","","images/semantic_sequence/maintaining_a_car_semantic/maintaining_a_car_semantic_0.png","null","",""
"","","","","","html-audio-response","44","1226368","0.0-42.0","E60BC9BA6D4B4D37BAA89EA262FF0030","E60BC9BA6D4B4D37BAA89EA262FF0030","a062f249-4a63-43a1-8847-2f59346ef4a0","2dd913a0-fd4c-43f1-b4f3-f0d48537bce8","{""part"":""2"",""participantId"":""E60BC9BA6D4B4D37BAA89EA262FF0030"",""assignmentId"":""a062f249-4a63-43a1-8847-2f59346ef4a0"",""projectId"":""2dd913a0-fd4c-43f1-b4f3-f0d48537bce8""}","https://test12345.live/?part=2&participantId=E60BC9BA6D4B4D37BAA89EA262FF0030&assignmentId=a062f249-4a63-43a1-8847-2f59346ef4a0&projectId=2dd913a0-fd4c-43f1-b4f3-f0d48537bce8","E60BC9BA6D4B4D37BAA89EA262FF0030-2025-05-16-06-01-56","","null","","[""<span style=\""color: red; font-size: 24px\""> NOW RECORDING</span><p>Please say out loud all the images you saw in part 1 of the experiment, as many as you can remember. The images can be said in any order.</p>""]","","2","maintaining_a_car_semantic"
"","","","","","image-button-response","45","1232376","0.0-43.0-0.0","E60BC9BA6D4B4D37BAA89EA262FF0030","E60BC9BA6D4B4D37BAA89EA262FF0030","a062f249-4a63-43a1-8847-2f59346ef4a0","2dd913a0-fd4c-43f1-b4f3-f0d48537bce8","{""part"":""2"",""participantId"":""E60BC9BA6D4B4D37BAA89EA262FF0030"",""assignmentId"":""a062f249-4a63-43a1-8847-2f59346ef4a0"",""projectId"":""2dd913a0-fd4c-43f1-b4f3-f0d48537bce8""}","https://test12345.live/?part=2&participantId=E60BC9BA6D4B4D37BAA89EA262FF0030&assignmentId=a062f249-4a63-43a1-8847-2f59346ef4a0&projectId=2dd913a0-fd4c-43f1-b4f3-f0d48537bce8","E60BC9BA6D4B4D37BAA89EA262FF0030-2025-05-16-06-01-56","","null","","images/semantic_sequence/redecorating_semantic/redecorating_semantic_0.png","null","",""
"","","","","","html-audio-response","46","1257821","0.0-44.0","E60BC9BA6D4B4D37BAA89EA262FF0030","E60BC9BA6D4B4D37BAA89EA262FF0030","a062f249-4a63-43a1-8847-2f59346ef4a0","2dd913a0-fd4c-43f1-b4f3-f0d48537bce8","{""part"":""2"",""participantId"":""E60BC9BA6D4B4D37BAA89EA262FF0030"",""assignmentId"":""a062f249-4a63-43a1-8847-2f59346ef4a0"",""projectId"":""2dd913a0-fd4c-43f1-b4f3-f0d48537bce8""}","https://test12345.live/?part=2&participantId=E60BC9BA6D4B4D37BAA89EA262FF0030&assignmentId=a062f249-4a63-43a1-8847-2f59346ef4a0&projectId=2dd913a0-fd4c-43f1-b4f3-f0d48537bce8","E60BC9BA6D4B4D37BAA89EA262FF0030-2025-05-16-06-01-56","","24817","","[""<span style=\""color: red; font-size: 24px\""> NOW RECORDING</span><p>Please say out loud all the images you saw in part 1 of the experiment, as many as you can remember. The images can be said in any order.</p>""]","","2","redecorating_semantic"
"","","","","","image-button-response","47","1263829","0.0-45.0-0.0","E60BC9BA6D4B4D37BAA89EA262FF0030","E60BC9BA6D4B4D37BAA89EA262FF0030","a062f249-4a63-43a1-8847-2f59346ef4a0","2dd913a0-fd4c-43f1-b4f3-f0d48537bce8","{""part"":""2"",""participantId"":""E60BC9BA6D4B4D37BAA89EA262FF0030"",""assignmentId"":""a062f249-4a63-43a1-8847-2f59346ef4a0"",""projectId"":""2dd913a0-fd4c-43f1-b4f3-f0d48537bce8""}","https://test12345.live/?part=2&participantId=E60BC9BA6D4B4D37BAA89EA262FF0030&assignmentId=a062f249-4a63-43a1-8847-2f59346ef4a0&projectId=2dd913a0-fd4c-43f1-b4f3-f0d48537bce8","E60BC9BA6D4B4D37BAA89EA262FF0030-2025-05-16-06-01-56","","null","","images/schematic_sequence/interview_scheme/interview_scheme_0.png","null","",""
"","","","","","html-audio-response","48","1320318","0.0-46.0","E60BC9BA6D4B4D37BAA89EA262FF0030","E60BC9BA6D4B4D37BAA89EA262FF0030","a062f249-4a63-43a1-8847-2f59346ef4a0","2dd913a0-fd4c-43f1-b4f3-f0d48537bce8","{""part"":""2"",""participantId"":""E60BC9BA6D4B4D37BAA89EA262FF0030"",""assignmentId"":""a062f249-4a63-43a1-8847-2f59346ef4a0"",""projectId"":""2dd913a0-fd4c-43f1-b4f3-f0d48537bce8""}","https://test12345.live/?part=2&participantId=E60BC9BA6D4B4D37BAA89EA262FF0030&assignmentId=a062f249-4a63-43a1-8847-2f59346ef4a0&projectId=2dd913a0-fd4c-43f1-b4f3-f0d48537bce8","E60BC9BA6D4B4D37BAA89EA262FF0030-2025-05-16-06-01-56","","null","","[""<span style=\""color: red; font-size: 24px\""> NOW RECORDING</span><p>Please say out loud all the images you saw in part 1 of the experiment, as many as you can remember. The images can be said in any order.</p>""]","","2","interview_scheme"
"","","","","","image-button-response","49","1326327","0.0-47.0-0.0","E60BC9BA6D4B4D37BAA89EA262FF0030","E60BC9BA6D4B4D37BAA89EA262FF0030","a062f249-4a63-43a1-8847-2f59346ef4a0","2dd913a0-fd4c-43f1-b4f3-f0d48537bce8","{""part"":""2"",""participantId"":""E60BC9BA6D4B4D37BAA89EA262FF0030"",""assignmentId"":""a062f249-4a63-43a1-8847-2f59346ef4a0"",""projectId"":""2dd913a0-fd4c-43f1-b4f3-f0d48537bce8""}","https://test12345.live/?part=2&participantId=E60BC9BA6D4B4D37BAA89EA262FF0030&assignmentId=a062f249-4a63-43a1-8847-2f59346ef4a0&projectId=2dd913a0-fd4c-43f1-b4f3-f0d48537bce8","E60BC9BA6D4B4D37BAA89EA262FF0030-2025-05-16-06-01-56","","null","","images/schematic_sequence/supermarket_scheme/supermarket_scheme_0.png","null","",""
"","","","","","html-audio-response","50","1375974","0.0-48.0","E60BC9BA6D4B4D37BAA89EA262FF0030","E60BC9BA6D4B4D37BAA89EA262FF0030","a062f249-4a63-43a1-8847-2f59346ef4a0","2dd913a0-fd4c-43f1-b4f3-f0d48537bce8","{""part"":""2"",""participantId"":""E60BC9BA6D4B4D37BAA89EA262FF0030"",""assignmentId"":""a062f249-4a63-43a1-8847-2f59346ef4a0"",""projectId"":""2dd913a0-fd4c-43f1-b4f3-f0d48537bce8""}","https://test12345.live/?part=2&participantId=E60BC9BA6D4B4D37BAA89EA262FF0030&assignmentId=a062f249-4a63-43a1-8847-2f59346ef4a0&projectId=2dd913a0-fd4c-43f1-b4f3-f0d48537bce8","E60BC9BA6D4B4D37BAA89EA262FF0030-2025-05-16-06-01-56","","48967","","[""<span style=\""color: red; font-size: 24px\""> NOW RECORDING</span><p>Please say out loud all the images you saw in part 1 of the experiment, as many as you can remember. The images can be said in any order.</p>""]","","3","supermarket_scheme"
"","","","","","image-button-response","51","1381984","0.0-49.0-0.0","E60BC9BA6D4B4D37BAA89EA262FF0030","E60BC9BA6D4B4D37BAA89EA262FF0030","a062f249-4a63-43a1-8847-2f59346ef4a0","2dd913a0-fd4c-43f1-b4f3-f0d48537bce8","{""part"":""2"",""participantId"":""E60BC9BA6D4B4D37BAA89EA262FF0030"",""assignmentId"":""a062f249-4a63-43a1-8847-2f59346ef4a0"",""projectId"":""2dd913a0-fd4c-43f1-b4f3-f0d48537bce8""}","https://test12345.live/?part=2&participantId=E60BC9BA6D4B4D37BAA89EA262FF0030&assignmentId=a062f249-4a63-43a1-8847-2f59346ef4a0&projectId=2dd913a0-fd4c-43f1-b4f3-f0d48537bce8","E60BC9BA6D4B4D37BAA89EA262FF0030-2025-05-16-06-01-56","","null","","images/semantic_sequence/kitchen_operations_semantic/kitchen_operations_semantic_0.png","null","",""
"","","","","","html-audio-response","52","1418890","0.0-50.0","E60BC9BA6D4B4D37BAA89EA262FF0030","E60BC9BA6D4B4D37BAA89EA262FF0030","a062f249-4a63-43a1-8847-2f59346ef4a0","2dd913a0-fd4c-43f1-b4f3-f0d48537bce8","{""part"":""2"",""participantId"":""E60BC9BA6D4B4D37BAA89EA262FF0030"",""assignmentId"":""a062f249-4a63-43a1-8847-2f59346ef4a0"",""projectId"":""2dd913a0-fd4c-43f1-b4f3-f0d48537bce8""}","https://test12345.live/?part=2&participantId=E60BC9BA6D4B4D37BAA89EA262FF0030&assignmentId=a062f249-4a63-43a1-8847-2f59346ef4a0&projectId=2dd913a0-fd4c-43f1-b4f3-f0d48537bce8","E60BC9BA6D4B4D37BAA89EA262FF0030-2025-05-16-06-01-56","","36315","","[""<span style=\""color: red; font-size: 24px\""> NOW RECORDING</span><p>Please say out loud all the images you saw in part 1 of the experiment, as many as you can remember. The images can be said in any order.</p>""]","","2","kitchen_operations_semantic"
"","","","","","image-button-response","53","1424903","0.0-51.0-0.0","E60BC9BA6D4B4D37BAA89EA262FF0030","E60BC9BA6D4B4D37BAA89EA262FF0030","a062f249-4a63-43a1-8847-2f59346ef4a0","2dd913a0-fd4c-43f1-b4f3-f0d48537bce8","{""part"":""2"",""participantId"":""E60BC9BA6D4B4D37BAA89EA262FF0030"",""assignmentId"":""a062f249-4a63-43a1-8847-2f59346ef4a0"",""projectId"":""2dd913a0-fd4c-43f1-b4f3-f0d48537bce8""}","https://test12345.live/?part=2&participantId=E60BC9BA6D4B4D37BAA89EA262FF0030&assignmentId=a062f249-4a63-43a1-8847-2f59346ef4a0&projectId=2dd913a0-fd4c-43f1-b4f3-f0d48537bce8","E60BC9BA6D4B4D37BAA89EA262FF0030-2025-05-16-06-01-56","","null","","images/semantic_sequence/exploring_nature_semantic/exploring_nature_semantic_0.png","null","",""
"","","","","","html-audio-response","54","1460986","0.0-52.0","E60BC9BA6D4B4D37BAA89EA262FF0030","E60BC9BA6D4B4D37BAA89EA262FF0030","a062f249-4a63-43a1-8847-2f59346ef4a0","2dd913a0-fd4c-43f1-b4f3-f0d48537bce8","{""part"":""2"",""participantId"":""E60BC9BA6D4B4D37BAA89EA262FF0030"",""assignmentId"":""a062f249-4a63-43a1-8847-2f59346ef4a0"",""projectId"":""2dd913a0-fd4c-43f1-b4f3-f0d48537bce8""}","https://test12345.live/?part=2&participantId=E60BC9BA6D4B4D37BAA89EA262FF0030&assignmentId=a062f249-4a63-43a1-8847-2f59346ef4a0&projectId=2dd913a0-fd4c-43f1-b4f3-f0d48537bce8","E60BC9BA6D4B4D37BAA89EA262FF0030-2025-05-16-06-01-56","","34981","","[""<span style=\""color: red; font-size: 24px\""> NOW RECORDING</span><p>Please say out loud all the images you saw in part 1 of the experiment, as many as you can remember. The images can be said in any order.</p>""]","","7","exploring_nature_semantic"
"","","","","","image-button-response","55","1466994","0.0-53.0-0.0","E60BC9BA6D4B4D37BAA89EA262FF0030","E60BC9BA6D4B4D37BAA89EA262FF0030","a062f249-4a63-43a1-8847-2f59346ef4a0","2dd913a0-fd4c-43f1-b4f3-f0d48537bce8","{""part"":""2"",""participantId"":""E60BC9BA6D4B4D37BAA89EA262FF0030"",""assignmentId"":""a062f249-4a63-43a1-8847-2f59346ef4a0"",""projectId"":""2dd913a0-fd4c-43f1-b4f3-f0d48537bce8""}","https://test12345.live/?part=2&participantId=E60BC9BA6D4B4D37BAA89EA262FF0030&assignmentId=a062f249-4a63-43a1-8847-2f59346ef4a0&projectId=2dd913a0-fd4c-43f1-b4f3-f0d48537bce8","E60BC9BA6D4B4D37BAA89EA262FF0030-2025-05-16-06-01-56","","null","","images/schematic_sequence/restaurant_scheme/restaurant_scheme_0.png","null","",""
"","","","","","html-audio-response","56","1523618","0.0-54.0","E60BC9BA6D4B4D37BAA89EA262FF0030","E60BC9BA6D4B4D37BAA89EA262FF0030","a062f249-4a63-43a1-8847-2f59346ef4a0","2dd913a0-fd4c-43f1-b4f3-f0d48537bce8","{""part"":""2"",""participantId"":""E60BC9BA6D4B4D37BAA89EA262FF0030"",""assignmentId"":""a062f249-4a63-43a1-8847-2f59346ef4a0"",""projectId"":""2dd913a0-fd4c-43f1-b4f3-f0d48537bce8""}","https://test12345.live/?part=2&participantId=E60BC9BA6D4B4D37BAA89EA262FF0030&assignmentId=a062f249-4a63-43a1-8847-2f59346ef4a0&projectId=2dd913a0-fd4c-43f1-b4f3-f0d48537bce8","E60BC9BA6D4B4D37BAA89EA262FF0030-2025-05-16-06-01-56","","null","","[""<span style=\""color: red; font-size: 24px\""> NOW RECORDING</span><p>Please say out loud all the images you saw in part 1 of the experiment, as many as you can remember. The images can be said in any order.</p>""]","","2","restaurant_scheme"
"","","","","","image-button-response","57","1529626","0.0-55.0-0.0","E60BC9BA6D4B4D37BAA89EA262FF0030","E60BC9BA6D4B4D37BAA89EA262FF0030","a062f249-4a63-43a1-8847-2f59346ef4a0","2dd913a0-fd4c-43f1-b4f3-f0d48537bce8","{""part"":""2"",""participantId"":""E60BC9BA6D4B4D37BAA89EA262FF0030"",""assignmentId"":""a062f249-4a63-43a1-8847-2f59346ef4a0"",""projectId"":""2dd913a0-fd4c-43f1-b4f3-f0d48537bce8""}","https://test12345.live/?part=2&participantId=E60BC9BA6D4B4D37BAA89EA262FF0030&assignmentId=a062f249-4a63-43a1-8847-2f59346ef4a0&projectId=2dd913a0-fd4c-43f1-b4f3-f0d48537bce8","E60BC9BA6D4B4D37BAA89EA262FF0030-2025-05-16-06-01-56","","null","","images/causal_sequence/coin_causal/coin_causal_0.png","null","",""
"","","","","","html-audio-response","58","1563638","0.0-56.0","E60BC9BA6D4B4D37BAA89EA262FF0030","E60BC9BA6D4B4D37BAA89EA262FF0030","a062f249-4a63-43a1-8847-2f59346ef4a0","2dd913a0-fd4c-43f1-b4f3-f0d48537bce8","{""part"":""2"",""participantId"":""E60BC9BA6D4B4D37BAA89EA262FF0030"",""assignmentId"":""a062f249-4a63-43a1-8847-2f59346ef4a0"",""projectId"":""2dd913a0-fd4c-43f1-b4f3-f0d48537bce8""}","https://test12345.live/?part=2&participantId=E60BC9BA6D4B4D37BAA89EA262FF0030&assignmentId=a062f249-4a63-43a1-8847-2f59346ef4a0&projectId=2dd913a0-fd4c-43f1-b4f3-f0d48537bce8","E60BC9BA6D4B4D37BAA89EA262FF0030-2025-05-16-06-01-56","","33348","","[""<span style=\""color: red; font-size: 24px\""> NOW RECORDING</span><p>Please say out loud all the images you saw in part 1 of the experiment, as many as you can remember. The images can be said in any order.</p>""]","","2","coin_causal"
"","","","","","survey-text","59","1568720","0.0-57.0","E60BC9BA6D4B4D37BAA89EA262FF0030","E60BC9BA6D4B4D37BAA89EA262FF0030","a062f249-4a63-43a1-8847-2f59346ef4a0","2dd913a0-fd4c-43f1-b4f3-f0d48537bce8","{""part"":""2"",""participantId"":""E60BC9BA6D4B4D37BAA89EA262FF0030"",""assignmentId"":""a062f249-4a63-43a1-8847-2f59346ef4a0"",""projectId"":""2dd913a0-fd4c-43f1-b4f3-f0d48537bce8""}","https://test12345.live/?part=2&participantId=E60BC9BA6D4B4D37BAA89EA262FF0030&assignmentId=a062f249-4a63-43a1-8847-2f59346ef4a0&projectId=2dd913a0-fd4c-43f1-b4f3-f0d48537bce8","E60BC9BA6D4B4D37BAA89EA262FF0030-2025-05-16-06-01-56","","5073","","","{""Q0"":""Female"",""Q1"":""30""}","",""
"","","","","","instructions","60","1583868","0.0-58.0","E60BC9BA6D4B4D37BAA89EA262FF0030","E60BC9BA6D4B4D37BAA89EA262FF0030","a062f249-4a63-43a1-8847-2f59346ef4a0","2dd913a0-fd4c-43f1-b4f3-f0d48537bce8","{""part"":""2"",""participantId"":""E60BC9BA6D4B4D37BAA89EA262FF0030"",""assignmentId"":""a062f249-4a63-43a1-8847-2f59346ef4a0"",""projectId"":""2dd913a0-fd4c-43f1-b4f3-f0d48537bce8""}","https://test12345.live/?part=2&participantId=E60BC9BA6D4B4D37BAA89EA262FF0030&assignmentId=a062f249-4a63-43a1-8847-2f59346ef4a0&projectId=2dd913a0-fd4c-43f1-b4f3-f0d48537bce8","E60BC9BA6D4B4D37BAA89EA262FF0030-2025-05-16-06-01-56","[{""page_index"":0,""viewing_time"":15148}]","15148","","","","",""
"","","","","","survey-text","61","1586569","0.0-59.0","E60BC9BA6D4B4D37BAA89EA262FF0030","E60BC9BA6D4B4D37BAA89EA262FF0030","a062f249-4a63-43a1-8847-2f59346ef4a0","2dd913a0-fd4c-43f1-b4f3-f0d48537bce8","{""part"":""2"",""participantId"":""E60BC9BA6D4B4D37BAA89EA262FF0030"",""assignmentId"":""a062f249-4a63-43a1-8847-2f59346ef4a0"",""projectId"":""2dd913a0-fd4c-43f1-b4f3-f0d48537bce8""}","https://test12345.live/?part=2&participantId=E60BC9BA6D4B4D37BAA89EA262FF0030&assignmentId=a062f249-4a63-43a1-8847-2f59346ef4a0&projectId=2dd913a0-fd4c-43f1-b4f3-f0d48537bce8","E60BC9BA6D4B4D37BAA89EA262FF0030-2025-05-16-06-01-56","","2700","","","{""Q0"":""AJFHBG896""}","",""
