"success","timeout","failed_images","failed_audio","failed_video","trial_type","trial_index","time_elapsed","internal_node_id","subject","subject_id","study_id","session_id","urlvar","current_url","audio_id","view_history","rt","device_id","stimulus","response","estimated_stimulus_onset","seq_name"
"true","false","[]","[]","[]","preload","0","17540","0.0-0.0","E667F3EBE3634605B2953BFAA3A0A434","E667F3EBE3634605B2953BFAA3A0A434","0198c401-1a2b-7e08-aabb-d24c3d92c50a","0198c3e5-90db-7030-b026-3fe33584d632","{""num_scrambled_semantic"":""8"",""num_scrambled_causal"":""4"",""num_scrambled_schematic"":""4"",""participantId"":""E667F3EBE3634605B2953BFAA3A0A434"",""assignmentId"":""0198c401-1a2b-7e08-aabb-d24c3d92c50a"",""projectId"":""0198c3e5-90db-7030-b026-3fe33584d632""}","https://test12345.live/?num_scrambled_semantic=8&num_scrambled_causal=4&num_scrambled_schematic=4&participantId=E667F3EBE3634605B2953BFAA3A0A434&assignmentId=0198c401-1a2b-7e08-aabb-d24c3d92c50a&projectId=0198c3e5-90db-7030-b026-3fe33584d632","E667F3EBE3634605B2953BFAA3A0A434-2025-08-19-20-36-15","","","","","","",""
"","","","","","instructions","1","30313","0.0-1.0","E667F3EBE3634605B2953BFAA3A0A434","E667F3EBE3634605B2953BFAA3A0A434","0198c401-1a2b-7e08-aabb-d24c3d92c50a","0198c3e5-90db-7030-b026-3fe33584d632","{""num_scrambled_semantic"":""8"",""num_scrambled_causal"":""4"",""num_scrambled_schematic"":""4"",""participantId"":""E667F3EBE3634605B2953BFAA3A0A434"",""assignmentId"":""0198c401-1a2b-7e08-aabb-d24c3d92c50a"",""projectId"":""0198c3e5-90db-7030-b026-3fe33584d632""}","https://test12345.live/?num_scrambled_semantic=8&num_scrambled_causal=4&num_scrambled_schematic=4&participantId=E667F3EBE3634605B2953BFAA3A0A434&assignmentId=0198c401-1a2b-7e08-aabb-d24c3d92c50a&projectId=0198c3e5-90db-7030-b026-3fe33584d632","E667F3EBE3634605B2953BFAA3A0A434-2025-08-19-20-36-15","[{""page_index"":0,""viewing_time"":12770}]","12772","","","","",""
"","","","","","instructions","2","64318","0.0-2.0","E667F3EBE3634605B2953BFAA3A0A434","E667F3EBE3634605B2953BFAA3A0A434","0198c401-1a2b-7e08-aabb-d24c3d92c50a","0198c3e5-90db-7030-b026-3fe33584d632","{""num_scrambled_semantic"":""8"",""num_scrambled_causal"":""4"",""num_scrambled_schematic"":""4"",""participantId"":""E667F3EBE3634605B2953BFAA3A0A434"",""assignmentId"":""0198c401-1a2b-7e08-aabb-d24c3d92c50a"",""projectId"":""0198c3e5-90db-7030-b026-3fe33584d632""}","https://test12345.live/?num_scrambled_semantic=8&num_scrambled_causal=4&num_scrambled_schematic=4&participantId=E667F3EBE3634605B2953BFAA3A0A434&assignmentId=0198c401-1a2b-7e08-aabb-d24c3d92c50a&projectId=0198c3e5-90db-7030-b026-3fe33584d632","E667F3EBE3634605B2953BFAA3A0A434-2025-08-19-20-36-15","[{""page_index"":0,""viewing_time"":34004}]","34005","","","","",""
"true","","","","","fullscreen","3","68436","0.0-3.0","E667F3EBE3634605B2953BFAA3A0A434","E667F3EBE3634605B2953BFAA3A0A434","0198c401-1a2b-7e08-aabb-d24c3d92c50a","0198c3e5-90db-7030-b026-3fe33584d632","{""num_scrambled_semantic"":""8"",""num_scrambled_causal"":""4"",""num_scrambled_schematic"":""4"",""participantId"":""E667F3EBE3634605B2953BFAA3A0A434"",""assignmentId"":""0198c401-1a2b-7e08-aabb-d24c3d92c50a"",""projectId"":""0198c3e5-90db-7030-b026-3fe33584d632""}","https://test12345.live/?num_scrambled_semantic=8&num_scrambled_causal=4&num_scrambled_schematic=4&participantId=E667F3EBE3634605B2953BFAA3A0A434&assignmentId=0198c401-1a2b-7e08-aabb-d24c3d92c50a&projectId=0198c3e5-90db-7030-b026-3fe33584d632","E667F3EBE3634605B2953BFAA3A0A434-2025-08-19-20-36-15","","3109","","","","",""
"","","","","","initialize-microphone","4","73997","0.0-4.0-0.0","E667F3EBE3634605B2953BFAA3A0A434","E667F3EBE3634605B2953BFAA3A0A434","0198c401-1a2b-7e08-aabb-d24c3d92c50a","0198c3e5-90db-7030-b026-3fe33584d632","{""num_scrambled_semantic"":""8"",""num_scrambled_causal"":""4"",""num_scrambled_schematic"":""4"",""participantId"":""E667F3EBE3634605B2953BFAA3A0A434"",""assignmentId"":""0198c401-1a2b-7e08-aabb-d24c3d92c50a"",""projectId"":""0198c3e5-90db-7030-b026-3fe33584d632""}","https://test12345.live/?num_scrambled_semantic=8&num_scrambled_causal=4&num_scrambled_schematic=4&participantId=E667F3EBE3634605B2953BFAA3A0A434&assignmentId=0198c401-1a2b-7e08-aabb-d24c3d92c50a&projectId=0198c3e5-90db-7030-b026-3fe33584d632","E667F3EBE3634605B2953BFAA3A0A434-2025-08-19-20-36-15","","","9728a1b8b5e731d21ec4e45f5bf62f21b0be52d1f75cde8a425e0ee5cead5416","","","",""
"","","","","","html-audio-response","5","143321","0.0-4.0-1.0","E667F3EBE3634605B2953BFAA3A0A434","E667F3EBE3634605B2953BFAA3A0A434","0198c401-1a2b-7e08-aabb-d24c3d92c50a","0198c3e5-90db-7030-b026-3fe33584d632","{""num_scrambled_semantic"":""8"",""num_scrambled_causal"":""4"",""num_scrambled_schematic"":""4"",""participantId"":""E667F3EBE3634605B2953BFAA3A0A434"",""assignmentId"":""0198c401-1a2b-7e08-aabb-d24c3d92c50a"",""projectId"":""0198c3e5-90db-7030-b026-3fe33584d632""}","https://test12345.live/?num_scrambled_semantic=8&num_scrambled_causal=4&num_scrambled_schematic=4&participantId=E667F3EBE3634605B2953BFAA3A0A434&assignmentId=0198c401-1a2b-7e08-aabb-d24c3d92c50a&projectId=0198c3e5-90db-7030-b026-3fe33584d632","E667F3EBE3634605B2953BFAA3A0A434-2025-08-19-20-36-15","","4287","","<span style=""color: red; font-size: 24px""> NOW RECORDING</span>
        <p>Please test Microphone</p>","","3",""
"","","","","","html-button-response","6","145429","0.0-4.0-2.0","E667F3EBE3634605B2953BFAA3A0A434","E667F3EBE3634605B2953BFAA3A0A434","0198c401-1a2b-7e08-aabb-d24c3d92c50a","0198c3e5-90db-7030-b026-3fe33584d632","{""num_scrambled_semantic"":""8"",""num_scrambled_causal"":""4"",""num_scrambled_schematic"":""4"",""participantId"":""E667F3EBE3634605B2953BFAA3A0A434"",""assignmentId"":""0198c401-1a2b-7e08-aabb-d24c3d92c50a"",""projectId"":""0198c3e5-90db-7030-b026-3fe33584d632""}","https://test12345.live/?num_scrambled_semantic=8&num_scrambled_causal=4&num_scrambled_schematic=4&participantId=E667F3EBE3634605B2953BFAA3A0A434&assignmentId=0198c401-1a2b-7e08-aabb-d24c3d92c50a&projectId=0198c3e5-90db-7030-b026-3fe33584d632","E667F3EBE3634605B2953BFAA3A0A434-2025-08-19-20-36-15","","2105","","<p style=""font-size:48px; color:red;"">Is Microphone OK?</p>","1","",""
"","","","","","instructions","7","186731","0.0-5.0","E667F3EBE3634605B2953BFAA3A0A434","E667F3EBE3634605B2953BFAA3A0A434","0198c401-1a2b-7e08-aabb-d24c3d92c50a","0198c3e5-90db-7030-b026-3fe33584d632","{""num_scrambled_semantic"":""8"",""num_scrambled_causal"":""4"",""num_scrambled_schematic"":""4"",""participantId"":""E667F3EBE3634605B2953BFAA3A0A434"",""assignmentId"":""0198c401-1a2b-7e08-aabb-d24c3d92c50a"",""projectId"":""0198c3e5-90db-7030-b026-3fe33584d632""}","https://test12345.live/?num_scrambled_semantic=8&num_scrambled_causal=4&num_scrambled_schematic=4&participantId=E667F3EBE3634605B2953BFAA3A0A434&assignmentId=0198c401-1a2b-7e08-aabb-d24c3d92c50a&projectId=0198c3e5-90db-7030-b026-3fe33584d632","E667F3EBE3634605B2953BFAA3A0A434-2025-08-19-20-36-15","[{""page_index"":0,""viewing_time"":3460},{""page_index"":1,""viewing_time"":12988},{""page_index"":2,""viewing_time"":24852}]","41301","","","","",""
"","","","","","image-button-response","8","192744","0.0-6.0-0.0","E667F3EBE3634605B2953BFAA3A0A434","E667F3EBE3634605B2953BFAA3A0A434","0198c401-1a2b-7e08-aabb-d24c3d92c50a","0198c3e5-90db-7030-b026-3fe33584d632","{""num_scrambled_semantic"":""8"",""num_scrambled_causal"":""4"",""num_scrambled_schematic"":""4"",""participantId"":""E667F3EBE3634605B2953BFAA3A0A434"",""assignmentId"":""0198c401-1a2b-7e08-aabb-d24c3d92c50a"",""projectId"":""0198c3e5-90db-7030-b026-3fe33584d632""}","https://test12345.live/?num_scrambled_semantic=8&num_scrambled_causal=4&num_scrambled_schematic=4&participantId=E667F3EBE3634605B2953BFAA3A0A434&assignmentId=0198c401-1a2b-7e08-aabb-d24c3d92c50a&projectId=0198c3e5-90db-7030-b026-3fe33584d632","E667F3EBE3634605B2953BFAA3A0A434-2025-08-19-20-36-15","","null","","images/instructions/movie_0.png","null","",""
"","","","","","html-audio-response","9","232542","0.0-7.0","E667F3EBE3634605B2953BFAA3A0A434","E667F3EBE3634605B2953BFAA3A0A434","0198c401-1a2b-7e08-aabb-d24c3d92c50a","0198c3e5-90db-7030-b026-3fe33584d632","{""num_scrambled_semantic"":""8"",""num_scrambled_causal"":""4"",""num_scrambled_schematic"":""4"",""participantId"":""E667F3EBE3634605B2953BFAA3A0A434"",""assignmentId"":""0198c401-1a2b-7e08-aabb-d24c3d92c50a"",""projectId"":""0198c3e5-90db-7030-b026-3fe33584d632""}","https://test12345.live/?num_scrambled_semantic=8&num_scrambled_causal=4&num_scrambled_schematic=4&participantId=E667F3EBE3634605B2953BFAA3A0A434&assignmentId=0198c401-1a2b-7e08-aabb-d24c3d92c50a&projectId=0198c3e5-90db-7030-b026-3fe33584d632","E667F3EBE3634605B2953BFAA3A0A434-2025-08-19-20-36-15","","20272","","[""<span style=\""color: red; font-size: 24px\""> NOW RECORDING</span><p>Please say out loud all the images you saw in part 1 of the experiment, as many as you can remember. The images can be said in any order.</p>""]","","3",""
"","","","","","instructions","10","236054","0.0-8.0","E667F3EBE3634605B2953BFAA3A0A434","E667F3EBE3634605B2953BFAA3A0A434","0198c401-1a2b-7e08-aabb-d24c3d92c50a","0198c3e5-90db-7030-b026-3fe33584d632","{""num_scrambled_semantic"":""8"",""num_scrambled_causal"":""4"",""num_scrambled_schematic"":""4"",""participantId"":""E667F3EBE3634605B2953BFAA3A0A434"",""assignmentId"":""0198c401-1a2b-7e08-aabb-d24c3d92c50a"",""projectId"":""0198c3e5-90db-7030-b026-3fe33584d632""}","https://test12345.live/?num_scrambled_semantic=8&num_scrambled_causal=4&num_scrambled_schematic=4&participantId=E667F3EBE3634605B2953BFAA3A0A434&assignmentId=0198c401-1a2b-7e08-aabb-d24c3d92c50a&projectId=0198c3e5-90db-7030-b026-3fe33584d632","E667F3EBE3634605B2953BFAA3A0A434-2025-08-19-20-36-15","[{""page_index"":0,""viewing_time"":3506}]","3506","","","","",""
"","","","","","image-button-response","11","242064","0.0-9.0-0.0","E667F3EBE3634605B2953BFAA3A0A434","E667F3EBE3634605B2953BFAA3A0A434","0198c401-1a2b-7e08-aabb-d24c3d92c50a","0198c3e5-90db-7030-b026-3fe33584d632","{""num_scrambled_semantic"":""8"",""num_scrambled_causal"":""4"",""num_scrambled_schematic"":""4"",""participantId"":""E667F3EBE3634605B2953BFAA3A0A434"",""assignmentId"":""0198c401-1a2b-7e08-aabb-d24c3d92c50a"",""projectId"":""0198c3e5-90db-7030-b026-3fe33584d632""}","https://test12345.live/?num_scrambled_semantic=8&num_scrambled_causal=4&num_scrambled_schematic=4&participantId=E667F3EBE3634605B2953BFAA3A0A434&assignmentId=0198c401-1a2b-7e08-aabb-d24c3d92c50a&projectId=0198c3e5-90db-7030-b026-3fe33584d632","E667F3EBE3634605B2953BFAA3A0A434-2025-08-19-20-36-15","","null","","images/causal_sequence/dog_causal/dog_causal_0.png","null","",""
"","","","","","html-audio-response","12","318128","0.0-10.0","E667F3EBE3634605B2953BFAA3A0A434","E667F3EBE3634605B2953BFAA3A0A434","0198c401-1a2b-7e08-aabb-d24c3d92c50a","0198c3e5-90db-7030-b026-3fe33584d632","{""num_scrambled_semantic"":""8"",""num_scrambled_causal"":""4"",""num_scrambled_schematic"":""4"",""participantId"":""E667F3EBE3634605B2953BFAA3A0A434"",""assignmentId"":""0198c401-1a2b-7e08-aabb-d24c3d92c50a"",""projectId"":""0198c3e5-90db-7030-b026-3fe33584d632""}","https://test12345.live/?num_scrambled_semantic=8&num_scrambled_causal=4&num_scrambled_schematic=4&participantId=E667F3EBE3634605B2953BFAA3A0A434&assignmentId=0198c401-1a2b-7e08-aabb-d24c3d92c50a&projectId=0198c3e5-90db-7030-b026-3fe33584d632","E667F3EBE3634605B2953BFAA3A0A434-2025-08-19-20-36-15","","4362","","[""<span style=\""color: red; font-size: 24px\""> NOW RECORDING</span><p>Please say out loud all the images you saw, following the storyline they create. Try to recall the sequence of events as they unfolded in the story, rather than the order in which they appeared on the screen.</p>""]","","3","dog_causal"
"","","","","","image-button-response","13","324138","0.0-11.0-0.0","E667F3EBE3634605B2953BFAA3A0A434","E667F3EBE3634605B2953BFAA3A0A434","0198c401-1a2b-7e08-aabb-d24c3d92c50a","0198c3e5-90db-7030-b026-3fe33584d632","{""num_scrambled_semantic"":""8"",""num_scrambled_causal"":""4"",""num_scrambled_schematic"":""4"",""participantId"":""E667F3EBE3634605B2953BFAA3A0A434"",""assignmentId"":""0198c401-1a2b-7e08-aabb-d24c3d92c50a"",""projectId"":""0198c3e5-90db-7030-b026-3fe33584d632""}","https://test12345.live/?num_scrambled_semantic=8&num_scrambled_causal=4&num_scrambled_schematic=4&participantId=E667F3EBE3634605B2953BFAA3A0A434&assignmentId=0198c401-1a2b-7e08-aabb-d24c3d92c50a&projectId=0198c3e5-90db-7030-b026-3fe33584d632","E667F3EBE3634605B2953BFAA3A0A434-2025-08-19-20-36-15","","null","","images/semantic_sequence/cat_care_semantic/cat_care_semantic_0.png","null","",""
"","","","","","html-audio-response","14","350215","0.0-12.0","E667F3EBE3634605B2953BFAA3A0A434","E667F3EBE3634605B2953BFAA3A0A434","0198c401-1a2b-7e08-aabb-d24c3d92c50a","0198c3e5-90db-7030-b026-3fe33584d632","{""num_scrambled_semantic"":""8"",""num_scrambled_causal"":""4"",""num_scrambled_schematic"":""4"",""participantId"":""E667F3EBE3634605B2953BFAA3A0A434"",""assignmentId"":""0198c401-1a2b-7e08-aabb-d24c3d92c50a"",""projectId"":""0198c3e5-90db-7030-b026-3fe33584d632""}","https://test12345.live/?num_scrambled_semantic=8&num_scrambled_causal=4&num_scrambled_schematic=4&participantId=E667F3EBE3634605B2953BFAA3A0A434&assignmentId=0198c401-1a2b-7e08-aabb-d24c3d92c50a&projectId=0198c3e5-90db-7030-b026-3fe33584d632","E667F3EBE3634605B2953BFAA3A0A434-2025-08-19-20-36-15","","24631","","[""<span style=\""color: red; font-size: 24px\""> NOW RECORDING</span><p>Please say out loud all the images you saw, following the storyline they create. Try to recall the sequence of events as they unfolded in the story, rather than the order in which they appeared on the screen.</p>""]","","2","cat_care_semantic"
"","","","","","image-button-response","15","356227","0.0-13.0-0.0","E667F3EBE3634605B2953BFAA3A0A434","E667F3EBE3634605B2953BFAA3A0A434","0198c401-1a2b-7e08-aabb-d24c3d92c50a","0198c3e5-90db-7030-b026-3fe33584d632","{""num_scrambled_semantic"":""8"",""num_scrambled_causal"":""4"",""num_scrambled_schematic"":""4"",""participantId"":""E667F3EBE3634605B2953BFAA3A0A434"",""assignmentId"":""0198c401-1a2b-7e08-aabb-d24c3d92c50a"",""projectId"":""0198c3e5-90db-7030-b026-3fe33584d632""}","https://test12345.live/?num_scrambled_semantic=8&num_scrambled_causal=4&num_scrambled_schematic=4&participantId=E667F3EBE3634605B2953BFAA3A0A434&assignmentId=0198c401-1a2b-7e08-aabb-d24c3d92c50a&projectId=0198c3e5-90db-7030-b026-3fe33584d632","E667F3EBE3634605B2953BFAA3A0A434-2025-08-19-20-36-15","","null","","images/causal_sequence/package_causal/package_causal_0.png","null","",""
"","","","","","html-audio-response","16","384263","0.0-14.0","E667F3EBE3634605B2953BFAA3A0A434","E667F3EBE3634605B2953BFAA3A0A434","0198c401-1a2b-7e08-aabb-d24c3d92c50a","0198c3e5-90db-7030-b026-3fe33584d632","{""num_scrambled_semantic"":""8"",""num_scrambled_causal"":""4"",""num_scrambled_schematic"":""4"",""participantId"":""E667F3EBE3634605B2953BFAA3A0A434"",""assignmentId"":""0198c401-1a2b-7e08-aabb-d24c3d92c50a"",""projectId"":""0198c3e5-90db-7030-b026-3fe33584d632""}","https://test12345.live/?num_scrambled_semantic=8&num_scrambled_causal=4&num_scrambled_schematic=4&participantId=E667F3EBE3634605B2953BFAA3A0A434&assignmentId=0198c401-1a2b-7e08-aabb-d24c3d92c50a&projectId=0198c3e5-90db-7030-b026-3fe33584d632","E667F3EBE3634605B2953BFAA3A0A434-2025-08-19-20-36-15","","26492","","[""<span style=\""color: red; font-size: 24px\""> NOW RECORDING</span><p>Please say out loud all the images you saw, following the storyline they create. Try to recall the sequence of events as they unfolded in the story, rather than the order in which they appeared on the screen.</p>""]","","3","package_causal"
"","","","","","image-button-response","17","390276","0.0-15.0-0.0","E667F3EBE3634605B2953BFAA3A0A434","E667F3EBE3634605B2953BFAA3A0A434","0198c401-1a2b-7e08-aabb-d24c3d92c50a","0198c3e5-90db-7030-b026-3fe33584d632","{""num_scrambled_semantic"":""8"",""num_scrambled_causal"":""4"",""num_scrambled_schematic"":""4"",""participantId"":""E667F3EBE3634605B2953BFAA3A0A434"",""assignmentId"":""0198c401-1a2b-7e08-aabb-d24c3d92c50a"",""projectId"":""0198c3e5-90db-7030-b026-3fe33584d632""}","https://test12345.live/?num_scrambled_semantic=8&num_scrambled_causal=4&num_scrambled_schematic=4&participantId=E667F3EBE3634605B2953BFAA3A0A434&assignmentId=0198c401-1a2b-7e08-aabb-d24c3d92c50a&projectId=0198c3e5-90db-7030-b026-3fe33584d632","E667F3EBE3634605B2953BFAA3A0A434-2025-08-19-20-36-15","","null","","images/causal_sequence/saving_a_cat_causal/saving_a_cat_causal_0.png","null","",""
"","","","","","html-audio-response","18","417742","0.0-16.0","E667F3EBE3634605B2953BFAA3A0A434","E667F3EBE3634605B2953BFAA3A0A434","0198c401-1a2b-7e08-aabb-d24c3d92c50a","0198c3e5-90db-7030-b026-3fe33584d632","{""num_scrambled_semantic"":""8"",""num_scrambled_causal"":""4"",""num_scrambled_schematic"":""4"",""participantId"":""E667F3EBE3634605B2953BFAA3A0A434"",""assignmentId"":""0198c401-1a2b-7e08-aabb-d24c3d92c50a"",""projectId"":""0198c3e5-90db-7030-b026-3fe33584d632""}","https://test12345.live/?num_scrambled_semantic=8&num_scrambled_causal=4&num_scrambled_schematic=4&participantId=E667F3EBE3634605B2953BFAA3A0A434&assignmentId=0198c401-1a2b-7e08-aabb-d24c3d92c50a&projectId=0198c3e5-90db-7030-b026-3fe33584d632","E667F3EBE3634605B2953BFAA3A0A434-2025-08-19-20-36-15","","24613","","[""<span style=\""color: red; font-size: 24px\""> NOW RECORDING</span><p>Please say out loud all the images you saw, following the storyline they create. Try to recall the sequence of events as they unfolded in the story, rather than the order in which they appeared on the screen.</p>""]","","2","saving_a_cat_causal"
"","","","","","image-button-response","19","423751","0.0-17.0-0.0","E667F3EBE3634605B2953BFAA3A0A434","E667F3EBE3634605B2953BFAA3A0A434","0198c401-1a2b-7e08-aabb-d24c3d92c50a","0198c3e5-90db-7030-b026-3fe33584d632","{""num_scrambled_semantic"":""8"",""num_scrambled_causal"":""4"",""num_scrambled_schematic"":""4"",""participantId"":""E667F3EBE3634605B2953BFAA3A0A434"",""assignmentId"":""0198c401-1a2b-7e08-aabb-d24c3d92c50a"",""projectId"":""0198c3e5-90db-7030-b026-3fe33584d632""}","https://test12345.live/?num_scrambled_semantic=8&num_scrambled_causal=4&num_scrambled_schematic=4&participantId=E667F3EBE3634605B2953BFAA3A0A434&assignmentId=0198c401-1a2b-7e08-aabb-d24c3d92c50a&projectId=0198c3e5-90db-7030-b026-3fe33584d632","E667F3EBE3634605B2953BFAA3A0A434-2025-08-19-20-36-15","","null","","images/causal_sequence/museum_causal/museum_causal_0.png","null","",""
"","","","","","html-audio-response","20","437518","0.0-18.0","E667F3EBE3634605B2953BFAA3A0A434","E667F3EBE3634605B2953BFAA3A0A434","0198c401-1a2b-7e08-aabb-d24c3d92c50a","0198c3e5-90db-7030-b026-3fe33584d632","{""num_scrambled_semantic"":""8"",""num_scrambled_causal"":""4"",""num_scrambled_schematic"":""4"",""participantId"":""E667F3EBE3634605B2953BFAA3A0A434"",""assignmentId"":""0198c401-1a2b-7e08-aabb-d24c3d92c50a"",""projectId"":""0198c3e5-90db-7030-b026-3fe33584d632""}","https://test12345.live/?num_scrambled_semantic=8&num_scrambled_causal=4&num_scrambled_schematic=4&participantId=E667F3EBE3634605B2953BFAA3A0A434&assignmentId=0198c401-1a2b-7e08-aabb-d24c3d92c50a&projectId=0198c3e5-90db-7030-b026-3fe33584d632","E667F3EBE3634605B2953BFAA3A0A434-2025-08-19-20-36-15","","10231","","[""<span style=\""color: red; font-size: 24px\""> NOW RECORDING</span><p>Please say out loud all the images you saw, following the storyline they create. Try to recall the sequence of events as they unfolded in the story, rather than the order in which they appeared on the screen.</p>""]","","2","museum_causal"
"","","","","","image-button-response","21","443528","0.0-19.0-0.0","E667F3EBE3634605B2953BFAA3A0A434","E667F3EBE3634605B2953BFAA3A0A434","0198c401-1a2b-7e08-aabb-d24c3d92c50a","0198c3e5-90db-7030-b026-3fe33584d632","{""num_scrambled_semantic"":""8"",""num_scrambled_causal"":""4"",""num_scrambled_schematic"":""4"",""participantId"":""E667F3EBE3634605B2953BFAA3A0A434"",""assignmentId"":""0198c401-1a2b-7e08-aabb-d24c3d92c50a"",""projectId"":""0198c3e5-90db-7030-b026-3fe33584d632""}","https://test12345.live/?num_scrambled_semantic=8&num_scrambled_causal=4&num_scrambled_schematic=4&participantId=E667F3EBE3634605B2953BFAA3A0A434&assignmentId=0198c401-1a2b-7e08-aabb-d24c3d92c50a&projectId=0198c3e5-90db-7030-b026-3fe33584d632","E667F3EBE3634605B2953BFAA3A0A434-2025-08-19-20-36-15","","null","","images/semantic_sequence/housework_semantic/housework_semantic_0.png","null","",""
"","","","","","html-audio-response","22","466425","0.0-20.0","E667F3EBE3634605B2953BFAA3A0A434","E667F3EBE3634605B2953BFAA3A0A434","0198c401-1a2b-7e08-aabb-d24c3d92c50a","0198c3e5-90db-7030-b026-3fe33584d632","{""num_scrambled_semantic"":""8"",""num_scrambled_causal"":""4"",""num_scrambled_schematic"":""4"",""participantId"":""E667F3EBE3634605B2953BFAA3A0A434"",""assignmentId"":""0198c401-1a2b-7e08-aabb-d24c3d92c50a"",""projectId"":""0198c3e5-90db-7030-b026-3fe33584d632""}","https://test12345.live/?num_scrambled_semantic=8&num_scrambled_causal=4&num_scrambled_schematic=4&participantId=E667F3EBE3634605B2953BFAA3A0A434&assignmentId=0198c401-1a2b-7e08-aabb-d24c3d92c50a&projectId=0198c3e5-90db-7030-b026-3fe33584d632","E667F3EBE3634605B2953BFAA3A0A434-2025-08-19-20-36-15","","21358","","[""<span style=\""color: red; font-size: 24px\""> NOW RECORDING</span><p>Please say out loud all the images you saw, following the storyline they create. Try to recall the sequence of events as they unfolded in the story, rather than the order in which they appeared on the screen.</p>""]","","2","housework_semantic"
"","","","","","image-button-response","23","472434","0.0-21.0-0.0","E667F3EBE3634605B2953BFAA3A0A434","E667F3EBE3634605B2953BFAA3A0A434","0198c401-1a2b-7e08-aabb-d24c3d92c50a","0198c3e5-90db-7030-b026-3fe33584d632","{""num_scrambled_semantic"":""8"",""num_scrambled_causal"":""4"",""num_scrambled_schematic"":""4"",""participantId"":""E667F3EBE3634605B2953BFAA3A0A434"",""assignmentId"":""0198c401-1a2b-7e08-aabb-d24c3d92c50a"",""projectId"":""0198c3e5-90db-7030-b026-3fe33584d632""}","https://test12345.live/?num_scrambled_semantic=8&num_scrambled_causal=4&num_scrambled_schematic=4&participantId=E667F3EBE3634605B2953BFAA3A0A434&assignmentId=0198c401-1a2b-7e08-aabb-d24c3d92c50a&projectId=0198c3e5-90db-7030-b026-3fe33584d632","E667F3EBE3634605B2953BFAA3A0A434-2025-08-19-20-36-15","","null","","images/semantic_sequence/redecorating_semantic/redecorating_semantic_0.png","null","",""
"","","","","","html-audio-response","24","497944","0.0-22.0","E667F3EBE3634605B2953BFAA3A0A434","E667F3EBE3634605B2953BFAA3A0A434","0198c401-1a2b-7e08-aabb-d24c3d92c50a","0198c3e5-90db-7030-b026-3fe33584d632","{""num_scrambled_semantic"":""8"",""num_scrambled_causal"":""4"",""num_scrambled_schematic"":""4"",""participantId"":""E667F3EBE3634605B2953BFAA3A0A434"",""assignmentId"":""0198c401-1a2b-7e08-aabb-d24c3d92c50a"",""projectId"":""0198c3e5-90db-7030-b026-3fe33584d632""}","https://test12345.live/?num_scrambled_semantic=8&num_scrambled_causal=4&num_scrambled_schematic=4&participantId=E667F3EBE3634605B2953BFAA3A0A434&assignmentId=0198c401-1a2b-7e08-aabb-d24c3d92c50a&projectId=0198c3e5-90db-7030-b026-3fe33584d632","E667F3EBE3634605B2953BFAA3A0A434-2025-08-19-20-36-15","","23057","","[""<span style=\""color: red; font-size: 24px\""> NOW RECORDING</span><p>Please say out loud all the images you saw, following the storyline they create. Try to recall the sequence of events as they unfolded in the story, rather than the order in which they appeared on the screen.</p>""]","","2","redecorating_semantic"
"","","","","","image-button-response","25","503954","0.0-23.0-0.0","E667F3EBE3634605B2953BFAA3A0A434","E667F3EBE3634605B2953BFAA3A0A434","0198c401-1a2b-7e08-aabb-d24c3d92c50a","0198c3e5-90db-7030-b026-3fe33584d632","{""num_scrambled_semantic"":""8"",""num_scrambled_causal"":""4"",""num_scrambled_schematic"":""4"",""participantId"":""E667F3EBE3634605B2953BFAA3A0A434"",""assignmentId"":""0198c401-1a2b-7e08-aabb-d24c3d92c50a"",""projectId"":""0198c3e5-90db-7030-b026-3fe33584d632""}","https://test12345.live/?num_scrambled_semantic=8&num_scrambled_causal=4&num_scrambled_schematic=4&participantId=E667F3EBE3634605B2953BFAA3A0A434&assignmentId=0198c401-1a2b-7e08-aabb-d24c3d92c50a&projectId=0198c3e5-90db-7030-b026-3fe33584d632","E667F3EBE3634605B2953BFAA3A0A434-2025-08-19-20-36-15","","null","","images/semantic_sequence/maintaining_a_car_semantic/maintaining_a_car_semantic_0.png","null","",""
"","","","","","html-audio-response","26","536240","0.0-24.0","E667F3EBE3634605B2953BFAA3A0A434","E667F3EBE3634605B2953BFAA3A0A434","0198c401-1a2b-7e08-aabb-d24c3d92c50a","0198c3e5-90db-7030-b026-3fe33584d632","{""num_scrambled_semantic"":""8"",""num_scrambled_causal"":""4"",""num_scrambled_schematic"":""4"",""participantId"":""E667F3EBE3634605B2953BFAA3A0A434"",""assignmentId"":""0198c401-1a2b-7e08-aabb-d24c3d92c50a"",""projectId"":""0198c3e5-90db-7030-b026-3fe33584d632""}","https://test12345.live/?num_scrambled_semantic=8&num_scrambled_causal=4&num_scrambled_schematic=4&participantId=E667F3EBE3634605B2953BFAA3A0A434&assignmentId=0198c401-1a2b-7e08-aabb-d24c3d92c50a&projectId=0198c3e5-90db-7030-b026-3fe33584d632","E667F3EBE3634605B2953BFAA3A0A434-2025-08-19-20-36-15","","28913","","[""<span style=\""color: red; font-size: 24px\""> NOW RECORDING</span><p>Please say out loud all the images you saw, following the storyline they create. Try to recall the sequence of events as they unfolded in the story, rather than the order in which they appeared on the screen.</p>""]","","3","maintaining_a_car_semantic"
"","","","","","image-button-response","27","542252","0.0-25.0-0.0","E667F3EBE3634605B2953BFAA3A0A434","E667F3EBE3634605B2953BFAA3A0A434","0198c401-1a2b-7e08-aabb-d24c3d92c50a","0198c3e5-90db-7030-b026-3fe33584d632","{""num_scrambled_semantic"":""8"",""num_scrambled_causal"":""4"",""num_scrambled_schematic"":""4"",""participantId"":""E667F3EBE3634605B2953BFAA3A0A434"",""assignmentId"":""0198c401-1a2b-7e08-aabb-d24c3d92c50a"",""projectId"":""0198c3e5-90db-7030-b026-3fe33584d632""}","https://test12345.live/?num_scrambled_semantic=8&num_scrambled_causal=4&num_scrambled_schematic=4&participantId=E667F3EBE3634605B2953BFAA3A0A434&assignmentId=0198c401-1a2b-7e08-aabb-d24c3d92c50a&projectId=0198c3e5-90db-7030-b026-3fe33584d632","E667F3EBE3634605B2953BFAA3A0A434-2025-08-19-20-36-15","","null","","images/semantic_sequence/creative_activities_semantic/creative_activities_semantic_0.png","null","",""
"","","","","","html-audio-response","28","558474","0.0-26.0","E667F3EBE3634605B2953BFAA3A0A434","E667F3EBE3634605B2953BFAA3A0A434","0198c401-1a2b-7e08-aabb-d24c3d92c50a","0198c3e5-90db-7030-b026-3fe33584d632","{""num_scrambled_semantic"":""8"",""num_scrambled_causal"":""4"",""num_scrambled_schematic"":""4"",""participantId"":""E667F3EBE3634605B2953BFAA3A0A434"",""assignmentId"":""0198c401-1a2b-7e08-aabb-d24c3d92c50a"",""projectId"":""0198c3e5-90db-7030-b026-3fe33584d632""}","https://test12345.live/?num_scrambled_semantic=8&num_scrambled_causal=4&num_scrambled_schematic=4&participantId=E667F3EBE3634605B2953BFAA3A0A434&assignmentId=0198c401-1a2b-7e08-aabb-d24c3d92c50a&projectId=0198c3e5-90db-7030-b026-3fe33584d632","E667F3EBE3634605B2953BFAA3A0A434-2025-08-19-20-36-15","","14917","","[""<span style=\""color: red; font-size: 24px\""> NOW RECORDING</span><p>Please say out loud all the images you saw, following the storyline they create. Try to recall the sequence of events as they unfolded in the story, rather than the order in which they appeared on the screen.</p>""]","","2","creative_activities_semantic"
"","","","","","image-button-response","29","564482","0.0-27.0-0.0","E667F3EBE3634605B2953BFAA3A0A434","E667F3EBE3634605B2953BFAA3A0A434","0198c401-1a2b-7e08-aabb-d24c3d92c50a","0198c3e5-90db-7030-b026-3fe33584d632","{""num_scrambled_semantic"":""8"",""num_scrambled_causal"":""4"",""num_scrambled_schematic"":""4"",""participantId"":""E667F3EBE3634605B2953BFAA3A0A434"",""assignmentId"":""0198c401-1a2b-7e08-aabb-d24c3d92c50a"",""projectId"":""0198c3e5-90db-7030-b026-3fe33584d632""}","https://test12345.live/?num_scrambled_semantic=8&num_scrambled_causal=4&num_scrambled_schematic=4&participantId=E667F3EBE3634605B2953BFAA3A0A434&assignmentId=0198c401-1a2b-7e08-aabb-d24c3d92c50a&projectId=0198c3e5-90db-7030-b026-3fe33584d632","E667F3EBE3634605B2953BFAA3A0A434-2025-08-19-20-36-15","","null","","images/semantic_sequence/using_technology_semantic/using_technology_semantic_0.png","null","",""
"","","","","","html-audio-response","30","584634","0.0-28.0","E667F3EBE3634605B2953BFAA3A0A434","E667F3EBE3634605B2953BFAA3A0A434","0198c401-1a2b-7e08-aabb-d24c3d92c50a","0198c3e5-90db-7030-b026-3fe33584d632","{""num_scrambled_semantic"":""8"",""num_scrambled_causal"":""4"",""num_scrambled_schematic"":""4"",""participantId"":""E667F3EBE3634605B2953BFAA3A0A434"",""assignmentId"":""0198c401-1a2b-7e08-aabb-d24c3d92c50a"",""projectId"":""0198c3e5-90db-7030-b026-3fe33584d632""}","https://test12345.live/?num_scrambled_semantic=8&num_scrambled_causal=4&num_scrambled_schematic=4&participantId=E667F3EBE3634605B2953BFAA3A0A434&assignmentId=0198c401-1a2b-7e08-aabb-d24c3d92c50a&projectId=0198c3e5-90db-7030-b026-3fe33584d632","E667F3EBE3634605B2953BFAA3A0A434-2025-08-19-20-36-15","","17706","","[""<span style=\""color: red; font-size: 24px\""> NOW RECORDING</span><p>Please say out loud all the images you saw, following the storyline they create. Try to recall the sequence of events as they unfolded in the story, rather than the order in which they appeared on the screen.</p>""]","","2","using_technology_semantic"
"","","","","","image-button-response","31","590646","0.0-29.0-0.0","E667F3EBE3634605B2953BFAA3A0A434","E667F3EBE3634605B2953BFAA3A0A434","0198c401-1a2b-7e08-aabb-d24c3d92c50a","0198c3e5-90db-7030-b026-3fe33584d632","{""num_scrambled_semantic"":""8"",""num_scrambled_causal"":""4"",""num_scrambled_schematic"":""4"",""participantId"":""E667F3EBE3634605B2953BFAA3A0A434"",""assignmentId"":""0198c401-1a2b-7e08-aabb-d24c3d92c50a"",""projectId"":""0198c3e5-90db-7030-b026-3fe33584d632""}","https://test12345.live/?num_scrambled_semantic=8&num_scrambled_causal=4&num_scrambled_schematic=4&participantId=E667F3EBE3634605B2953BFAA3A0A434&assignmentId=0198c401-1a2b-7e08-aabb-d24c3d92c50a&projectId=0198c3e5-90db-7030-b026-3fe33584d632","E667F3EBE3634605B2953BFAA3A0A434-2025-08-19-20-36-15","","null","","images/semantic_sequence/physical_activity_semantic/physical_activity_semantic_0.png","null","",""
"","","","","","html-audio-response","32","600202","0.0-30.0","E667F3EBE3634605B2953BFAA3A0A434","E667F3EBE3634605B2953BFAA3A0A434","0198c401-1a2b-7e08-aabb-d24c3d92c50a","0198c3e5-90db-7030-b026-3fe33584d632","{""num_scrambled_semantic"":""8"",""num_scrambled_causal"":""4"",""num_scrambled_schematic"":""4"",""participantId"":""E667F3EBE3634605B2953BFAA3A0A434"",""assignmentId"":""0198c401-1a2b-7e08-aabb-d24c3d92c50a"",""projectId"":""0198c3e5-90db-7030-b026-3fe33584d632""}","https://test12345.live/?num_scrambled_semantic=8&num_scrambled_causal=4&num_scrambled_schematic=4&participantId=E667F3EBE3634605B2953BFAA3A0A434&assignmentId=0198c401-1a2b-7e08-aabb-d24c3d92c50a&projectId=0198c3e5-90db-7030-b026-3fe33584d632","E667F3EBE3634605B2953BFAA3A0A434-2025-08-19-20-36-15","","4107","","[""<span style=\""color: red; font-size: 24px\""> NOW RECORDING</span><p>Please say out loud all the images you saw, following the storyline they create. Try to recall the sequence of events as they unfolded in the story, rather than the order in which they appeared on the screen.</p>""]","","2","physical_activity_semantic"
"","","","","","image-button-response","33","606212","0.0-31.0-0.0","E667F3EBE3634605B2953BFAA3A0A434","E667F3EBE3634605B2953BFAA3A0A434","0198c401-1a2b-7e08-aabb-d24c3d92c50a","0198c3e5-90db-7030-b026-3fe33584d632","{""num_scrambled_semantic"":""8"",""num_scrambled_causal"":""4"",""num_scrambled_schematic"":""4"",""participantId"":""E667F3EBE3634605B2953BFAA3A0A434"",""assignmentId"":""0198c401-1a2b-7e08-aabb-d24c3d92c50a"",""projectId"":""0198c3e5-90db-7030-b026-3fe33584d632""}","https://test12345.live/?num_scrambled_semantic=8&num_scrambled_causal=4&num_scrambled_schematic=4&participantId=E667F3EBE3634605B2953BFAA3A0A434&assignmentId=0198c401-1a2b-7e08-aabb-d24c3d92c50a&projectId=0198c3e5-90db-7030-b026-3fe33584d632","E667F3EBE3634605B2953BFAA3A0A434-2025-08-19-20-36-15","","null","","images/causal_sequence/coin_causal/coin_causal_0.png","null","",""
"","","","","","html-audio-response","34","637937","0.0-32.0","E667F3EBE3634605B2953BFAA3A0A434","E667F3EBE3634605B2953BFAA3A0A434","0198c401-1a2b-7e08-aabb-d24c3d92c50a","0198c3e5-90db-7030-b026-3fe33584d632","{""num_scrambled_semantic"":""8"",""num_scrambled_causal"":""4"",""num_scrambled_schematic"":""4"",""participantId"":""E667F3EBE3634605B2953BFAA3A0A434"",""assignmentId"":""0198c401-1a2b-7e08-aabb-d24c3d92c50a"",""projectId"":""0198c3e5-90db-7030-b026-3fe33584d632""}","https://test12345.live/?num_scrambled_semantic=8&num_scrambled_causal=4&num_scrambled_schematic=4&participantId=E667F3EBE3634605B2953BFAA3A0A434&assignmentId=0198c401-1a2b-7e08-aabb-d24c3d92c50a&projectId=0198c3e5-90db-7030-b026-3fe33584d632","E667F3EBE3634605B2953BFAA3A0A434-2025-08-19-20-36-15","","29941","","[""<span style=\""color: red; font-size: 24px\""> NOW RECORDING</span><p>Please say out loud all the images you saw, following the storyline they create. Try to recall the sequence of events as they unfolded in the story, rather than the order in which they appeared on the screen.</p>""]","","2","coin_causal"
"","","","","","image-button-response","35","643946","0.0-33.0-0.0","E667F3EBE3634605B2953BFAA3A0A434","E667F3EBE3634605B2953BFAA3A0A434","0198c401-1a2b-7e08-aabb-d24c3d92c50a","0198c3e5-90db-7030-b026-3fe33584d632","{""num_scrambled_semantic"":""8"",""num_scrambled_causal"":""4"",""num_scrambled_schematic"":""4"",""participantId"":""E667F3EBE3634605B2953BFAA3A0A434"",""assignmentId"":""0198c401-1a2b-7e08-aabb-d24c3d92c50a"",""projectId"":""0198c3e5-90db-7030-b026-3fe33584d632""}","https://test12345.live/?num_scrambled_semantic=8&num_scrambled_causal=4&num_scrambled_schematic=4&participantId=E667F3EBE3634605B2953BFAA3A0A434&assignmentId=0198c401-1a2b-7e08-aabb-d24c3d92c50a&projectId=0198c3e5-90db-7030-b026-3fe33584d632","E667F3EBE3634605B2953BFAA3A0A434-2025-08-19-20-36-15","","null","","images/causal_sequence/the_performance_causal/the_performance_causal_0.png","null","",""
"","","","","","html-audio-response","36","672148","0.0-34.0","E667F3EBE3634605B2953BFAA3A0A434","E667F3EBE3634605B2953BFAA3A0A434","0198c401-1a2b-7e08-aabb-d24c3d92c50a","0198c3e5-90db-7030-b026-3fe33584d632","{""num_scrambled_semantic"":""8"",""num_scrambled_causal"":""4"",""num_scrambled_schematic"":""4"",""participantId"":""E667F3EBE3634605B2953BFAA3A0A434"",""assignmentId"":""0198c401-1a2b-7e08-aabb-d24c3d92c50a"",""projectId"":""0198c3e5-90db-7030-b026-3fe33584d632""}","https://test12345.live/?num_scrambled_semantic=8&num_scrambled_causal=4&num_scrambled_schematic=4&participantId=E667F3EBE3634605B2953BFAA3A0A434&assignmentId=0198c401-1a2b-7e08-aabb-d24c3d92c50a&projectId=0198c3e5-90db-7030-b026-3fe33584d632","E667F3EBE3634605B2953BFAA3A0A434-2025-08-19-20-36-15","","25797","","[""<span style=\""color: red; font-size: 24px\""> NOW RECORDING</span><p>Please say out loud all the images you saw, following the storyline they create. Try to recall the sequence of events as they unfolded in the story, rather than the order in which they appeared on the screen.</p>""]","","2","the_performance_causal"
"","","","","","survey-text","37","683149","0.0-35.0","E667F3EBE3634605B2953BFAA3A0A434","E667F3EBE3634605B2953BFAA3A0A434","0198c401-1a2b-7e08-aabb-d24c3d92c50a","0198c3e5-90db-7030-b026-3fe33584d632","{""num_scrambled_semantic"":""8"",""num_scrambled_causal"":""4"",""num_scrambled_schematic"":""4"",""participantId"":""E667F3EBE3634605B2953BFAA3A0A434"",""assignmentId"":""0198c401-1a2b-7e08-aabb-d24c3d92c50a"",""projectId"":""0198c3e5-90db-7030-b026-3fe33584d632""}","https://test12345.live/?num_scrambled_semantic=8&num_scrambled_causal=4&num_scrambled_schematic=4&participantId=E667F3EBE3634605B2953BFAA3A0A434&assignmentId=0198c401-1a2b-7e08-aabb-d24c3d92c50a&projectId=0198c3e5-90db-7030-b026-3fe33584d632","E667F3EBE3634605B2953BFAA3A0A434-2025-08-19-20-36-15","","10991","","","{""Q0"":""Female"",""Q1"":""33""}","",""
"","","","","","instructions","38","692656","0.0-36.0","E667F3EBE3634605B2953BFAA3A0A434","E667F3EBE3634605B2953BFAA3A0A434","0198c401-1a2b-7e08-aabb-d24c3d92c50a","0198c3e5-90db-7030-b026-3fe33584d632","{""num_scrambled_semantic"":""8"",""num_scrambled_causal"":""4"",""num_scrambled_schematic"":""4"",""participantId"":""E667F3EBE3634605B2953BFAA3A0A434"",""assignmentId"":""0198c401-1a2b-7e08-aabb-d24c3d92c50a"",""projectId"":""0198c3e5-90db-7030-b026-3fe33584d632""}","https://test12345.live/?num_scrambled_semantic=8&num_scrambled_causal=4&num_scrambled_schematic=4&participantId=E667F3EBE3634605B2953BFAA3A0A434&assignmentId=0198c401-1a2b-7e08-aabb-d24c3d92c50a&projectId=0198c3e5-90db-7030-b026-3fe33584d632","E667F3EBE3634605B2953BFAA3A0A434-2025-08-19-20-36-15","[{""page_index"":0,""viewing_time"":9505}]","9506","","","","",""
"","","","","","survey-text","39","705039","0.0-37.0","E667F3EBE3634605B2953BFAA3A0A434","E667F3EBE3634605B2953BFAA3A0A434","0198c401-1a2b-7e08-aabb-d24c3d92c50a","0198c3e5-90db-7030-b026-3fe33584d632","{""num_scrambled_semantic"":""8"",""num_scrambled_causal"":""4"",""num_scrambled_schematic"":""4"",""participantId"":""E667F3EBE3634605B2953BFAA3A0A434"",""assignmentId"":""0198c401-1a2b-7e08-aabb-d24c3d92c50a"",""projectId"":""0198c3e5-90db-7030-b026-3fe33584d632""}","https://test12345.live/?num_scrambled_semantic=8&num_scrambled_causal=4&num_scrambled_schematic=4&participantId=E667F3EBE3634605B2953BFAA3A0A434&assignmentId=0198c401-1a2b-7e08-aabb-d24c3d92c50a&projectId=0198c3e5-90db-7030-b026-3fe33584d632","E667F3EBE3634605B2953BFAA3A0A434-2025-08-19-20-36-15","","12380","","","{""Q0"":""AJFHBG896""}","",""
