"success","timeout","failed_images","failed_audio","failed_video","trial_type","trial_index","time_elapsed","internal_node_id","subject","subject_id","study_id","session_id","urlvar","current_url","audio_id","view_history","rt","device_id","stimulus","response","estimated_stimulus_onset","seq_name"
"true","false","[]","[]","[]","preload","0","14525","0.0-0.0","EAEDBD6CC4E342278970CC7CF90FEBA0","EAEDBD6CC4E342278970CC7CF90FEBA0","0198bfbb-5e58-7c66-97eb-f70a8f71ae01","0198beef-981a-7243-9790-051e10551090","{""num_scrambled_semantic"":""8"",""num_scrambled_causal"":""4"",""num_scrambled_schematic"":""4"",""participantId"":""EAEDBD6CC4E342278970CC7CF90FEBA0"",""assignmentId"":""0198bfbb-5e58-7c66-97eb-f70a8f71ae01"",""projectId"":""0198beef-981a-7243-9790-051e10551090""}","https://test12345.live/?num_scrambled_semantic=8&num_scrambled_causal=4&num_scrambled_schematic=4&participantId=EAEDBD6CC4E342278970CC7CF90FEBA0&assignmentId=0198bfbb-5e58-7c66-97eb-f70a8f71ae01&projectId=0198beef-981a-7243-9790-051e10551090","EAEDBD6CC4E342278970CC7CF90FEBA0-2025-08-19-00-38-14","","","","","","",""
"","","","","","instructions","1","40919","0.0-1.0","EAEDBD6CC4E342278970CC7CF90FEBA0","EAEDBD6CC4E342278970CC7CF90FEBA0","0198bfbb-5e58-7c66-97eb-f70a8f71ae01","0198beef-981a-7243-9790-051e10551090","{""num_scrambled_semantic"":""8"",""num_scrambled_causal"":""4"",""num_scrambled_schematic"":""4"",""participantId"":""EAEDBD6CC4E342278970CC7CF90FEBA0"",""assignmentId"":""0198bfbb-5e58-7c66-97eb-f70a8f71ae01"",""projectId"":""0198beef-981a-7243-9790-051e10551090""}","https://test12345.live/?num_scrambled_semantic=8&num_scrambled_causal=4&num_scrambled_schematic=4&participantId=EAEDBD6CC4E342278970CC7CF90FEBA0&assignmentId=0198bfbb-5e58-7c66-97eb-f70a8f71ae01&projectId=0198beef-981a-7243-9790-051e10551090","EAEDBD6CC4E342278970CC7CF90FEBA0-2025-08-19-00-38-14","[{""page_index"":0,""viewing_time"":26393}]","26394","","","","",""
"","","","","","instructions","2","48885","0.0-2.0","EAEDBD6CC4E342278970CC7CF90FEBA0","EAEDBD6CC4E342278970CC7CF90FEBA0","0198bfbb-5e58-7c66-97eb-f70a8f71ae01","0198beef-981a-7243-9790-051e10551090","{""num_scrambled_semantic"":""8"",""num_scrambled_causal"":""4"",""num_scrambled_schematic"":""4"",""participantId"":""EAEDBD6CC4E342278970CC7CF90FEBA0"",""assignmentId"":""0198bfbb-5e58-7c66-97eb-f70a8f71ae01"",""projectId"":""0198beef-981a-7243-9790-051e10551090""}","https://test12345.live/?num_scrambled_semantic=8&num_scrambled_causal=4&num_scrambled_schematic=4&participantId=EAEDBD6CC4E342278970CC7CF90FEBA0&assignmentId=0198bfbb-5e58-7c66-97eb-f70a8f71ae01&projectId=0198beef-981a-7243-9790-051e10551090","EAEDBD6CC4E342278970CC7CF90FEBA0-2025-08-19-00-38-14","[{""page_index"":0,""viewing_time"":7965}]","7965","","","","",""
"true","","","","","fullscreen","3","53016","0.0-3.0","EAEDBD6CC4E342278970CC7CF90FEBA0","EAEDBD6CC4E342278970CC7CF90FEBA0","0198bfbb-5e58-7c66-97eb-f70a8f71ae01","0198beef-981a-7243-9790-051e10551090","{""num_scrambled_semantic"":""8"",""num_scrambled_causal"":""4"",""num_scrambled_schematic"":""4"",""participantId"":""EAEDBD6CC4E342278970CC7CF90FEBA0"",""assignmentId"":""0198bfbb-5e58-7c66-97eb-f70a8f71ae01"",""projectId"":""0198beef-981a-7243-9790-051e10551090""}","https://test12345.live/?num_scrambled_semantic=8&num_scrambled_causal=4&num_scrambled_schematic=4&participantId=EAEDBD6CC4E342278970CC7CF90FEBA0&assignmentId=0198bfbb-5e58-7c66-97eb-f70a8f71ae01&projectId=0198beef-981a-7243-9790-051e10551090","EAEDBD6CC4E342278970CC7CF90FEBA0-2025-08-19-00-38-14","","3123","","","","",""
"","","","","","initialize-microphone","4","58167","0.0-4.0-0.0","EAEDBD6CC4E342278970CC7CF90FEBA0","EAEDBD6CC4E342278970CC7CF90FEBA0","0198bfbb-5e58-7c66-97eb-f70a8f71ae01","0198beef-981a-7243-9790-051e10551090","{""num_scrambled_semantic"":""8"",""num_scrambled_causal"":""4"",""num_scrambled_schematic"":""4"",""participantId"":""EAEDBD6CC4E342278970CC7CF90FEBA0"",""assignmentId"":""0198bfbb-5e58-7c66-97eb-f70a8f71ae01"",""projectId"":""0198beef-981a-7243-9790-051e10551090""}","https://test12345.live/?num_scrambled_semantic=8&num_scrambled_causal=4&num_scrambled_schematic=4&participantId=EAEDBD6CC4E342278970CC7CF90FEBA0&assignmentId=0198bfbb-5e58-7c66-97eb-f70a8f71ae01&projectId=0198beef-981a-7243-9790-051e10551090","EAEDBD6CC4E342278970CC7CF90FEBA0-2025-08-19-00-38-14","","","40b83c3367a0fdbad7d83d4b4c6cb7889ddaa20880db50cd03b497db1c046aa6","","","",""
"","","","","","html-audio-response","5","67334","0.0-4.0-1.0","EAEDBD6CC4E342278970CC7CF90FEBA0","EAEDBD6CC4E342278970CC7CF90FEBA0","0198bfbb-5e58-7c66-97eb-f70a8f71ae01","0198beef-981a-7243-9790-051e10551090","{""num_scrambled_semantic"":""8"",""num_scrambled_causal"":""4"",""num_scrambled_schematic"":""4"",""participantId"":""EAEDBD6CC4E342278970CC7CF90FEBA0"",""assignmentId"":""0198bfbb-5e58-7c66-97eb-f70a8f71ae01"",""projectId"":""0198beef-981a-7243-9790-051e10551090""}","https://test12345.live/?num_scrambled_semantic=8&num_scrambled_causal=4&num_scrambled_schematic=4&participantId=EAEDBD6CC4E342278970CC7CF90FEBA0&assignmentId=0198bfbb-5e58-7c66-97eb-f70a8f71ae01&projectId=0198beef-981a-7243-9790-051e10551090","EAEDBD6CC4E342278970CC7CF90FEBA0-2025-08-19-00-38-14","","2638","","<span style=""color: red; font-size: 24px""> NOW RECORDING</span>
        <p>Please test Microphone</p>","","5",""
"","","","","","html-button-response","6","68610","0.0-4.0-2.0","EAEDBD6CC4E342278970CC7CF90FEBA0","EAEDBD6CC4E342278970CC7CF90FEBA0","0198bfbb-5e58-7c66-97eb-f70a8f71ae01","0198beef-981a-7243-9790-051e10551090","{""num_scrambled_semantic"":""8"",""num_scrambled_causal"":""4"",""num_scrambled_schematic"":""4"",""participantId"":""EAEDBD6CC4E342278970CC7CF90FEBA0"",""assignmentId"":""0198bfbb-5e58-7c66-97eb-f70a8f71ae01"",""projectId"":""0198beef-981a-7243-9790-051e10551090""}","https://test12345.live/?num_scrambled_semantic=8&num_scrambled_causal=4&num_scrambled_schematic=4&participantId=EAEDBD6CC4E342278970CC7CF90FEBA0&assignmentId=0198bfbb-5e58-7c66-97eb-f70a8f71ae01&projectId=0198beef-981a-7243-9790-051e10551090","EAEDBD6CC4E342278970CC7CF90FEBA0-2025-08-19-00-38-14","","1275","","<p style=""font-size:48px; color:red;"">Is Microphone OK?</p>","1","",""
"","","","","","instructions","7","81770","0.0-5.0","EAEDBD6CC4E342278970CC7CF90FEBA0","EAEDBD6CC4E342278970CC7CF90FEBA0","0198bfbb-5e58-7c66-97eb-f70a8f71ae01","0198beef-981a-7243-9790-051e10551090","{""num_scrambled_semantic"":""8"",""num_scrambled_causal"":""4"",""num_scrambled_schematic"":""4"",""participantId"":""EAEDBD6CC4E342278970CC7CF90FEBA0"",""assignmentId"":""0198bfbb-5e58-7c66-97eb-f70a8f71ae01"",""projectId"":""0198beef-981a-7243-9790-051e10551090""}","https://test12345.live/?num_scrambled_semantic=8&num_scrambled_causal=4&num_scrambled_schematic=4&participantId=EAEDBD6CC4E342278970CC7CF90FEBA0&assignmentId=0198bfbb-5e58-7c66-97eb-f70a8f71ae01&projectId=0198beef-981a-7243-9790-051e10551090","EAEDBD6CC4E342278970CC7CF90FEBA0-2025-08-19-00-38-14","[{""page_index"":0,""viewing_time"":1331},{""page_index"":1,""viewing_time"":5286},{""page_index"":2,""viewing_time"":6542}]","13159","","","","",""
"","","","","","image-button-response","8","87777","0.0-6.0-0.0","EAEDBD6CC4E342278970CC7CF90FEBA0","EAEDBD6CC4E342278970CC7CF90FEBA0","0198bfbb-5e58-7c66-97eb-f70a8f71ae01","0198beef-981a-7243-9790-051e10551090","{""num_scrambled_semantic"":""8"",""num_scrambled_causal"":""4"",""num_scrambled_schematic"":""4"",""participantId"":""EAEDBD6CC4E342278970CC7CF90FEBA0"",""assignmentId"":""0198bfbb-5e58-7c66-97eb-f70a8f71ae01"",""projectId"":""0198beef-981a-7243-9790-051e10551090""}","https://test12345.live/?num_scrambled_semantic=8&num_scrambled_causal=4&num_scrambled_schematic=4&participantId=EAEDBD6CC4E342278970CC7CF90FEBA0&assignmentId=0198bfbb-5e58-7c66-97eb-f70a8f71ae01&projectId=0198beef-981a-7243-9790-051e10551090","EAEDBD6CC4E342278970CC7CF90FEBA0-2025-08-19-00-38-14","","null","","images/instructions/movie_0.png","null","",""
"","","","","","html-audio-response","9","103456","0.0-7.0","EAEDBD6CC4E342278970CC7CF90FEBA0","EAEDBD6CC4E342278970CC7CF90FEBA0","0198bfbb-5e58-7c66-97eb-f70a8f71ae01","0198beef-981a-7243-9790-051e10551090","{""num_scrambled_semantic"":""8"",""num_scrambled_causal"":""4"",""num_scrambled_schematic"":""4"",""participantId"":""EAEDBD6CC4E342278970CC7CF90FEBA0"",""assignmentId"":""0198bfbb-5e58-7c66-97eb-f70a8f71ae01"",""projectId"":""0198beef-981a-7243-9790-051e10551090""}","https://test12345.live/?num_scrambled_semantic=8&num_scrambled_causal=4&num_scrambled_schematic=4&participantId=EAEDBD6CC4E342278970CC7CF90FEBA0&assignmentId=0198bfbb-5e58-7c66-97eb-f70a8f71ae01&projectId=0198beef-981a-7243-9790-051e10551090","EAEDBD6CC4E342278970CC7CF90FEBA0-2025-08-19-00-38-14","","14625","","[""<span style=\""color: red; font-size: 24px\""> NOW RECORDING</span><p>Please say out loud all the images you saw in part 1 of the experiment, as many as you can remember. The images can be said in any order.</p>""]","","2",""
"","","","","","instructions","10","104746","0.0-8.0","EAEDBD6CC4E342278970CC7CF90FEBA0","EAEDBD6CC4E342278970CC7CF90FEBA0","0198bfbb-5e58-7c66-97eb-f70a8f71ae01","0198beef-981a-7243-9790-051e10551090","{""num_scrambled_semantic"":""8"",""num_scrambled_causal"":""4"",""num_scrambled_schematic"":""4"",""participantId"":""EAEDBD6CC4E342278970CC7CF90FEBA0"",""assignmentId"":""0198bfbb-5e58-7c66-97eb-f70a8f71ae01"",""projectId"":""0198beef-981a-7243-9790-051e10551090""}","https://test12345.live/?num_scrambled_semantic=8&num_scrambled_causal=4&num_scrambled_schematic=4&participantId=EAEDBD6CC4E342278970CC7CF90FEBA0&assignmentId=0198bfbb-5e58-7c66-97eb-f70a8f71ae01&projectId=0198beef-981a-7243-9790-051e10551090","EAEDBD6CC4E342278970CC7CF90FEBA0-2025-08-19-00-38-14","[{""page_index"":0,""viewing_time"":1285}]","1285","","","","",""
"","","","","","image-button-response","11","110762","0.0-9.0-0.0","EAEDBD6CC4E342278970CC7CF90FEBA0","EAEDBD6CC4E342278970CC7CF90FEBA0","0198bfbb-5e58-7c66-97eb-f70a8f71ae01","0198beef-981a-7243-9790-051e10551090","{""num_scrambled_semantic"":""8"",""num_scrambled_causal"":""4"",""num_scrambled_schematic"":""4"",""participantId"":""EAEDBD6CC4E342278970CC7CF90FEBA0"",""assignmentId"":""0198bfbb-5e58-7c66-97eb-f70a8f71ae01"",""projectId"":""0198beef-981a-7243-9790-051e10551090""}","https://test12345.live/?num_scrambled_semantic=8&num_scrambled_causal=4&num_scrambled_schematic=4&participantId=EAEDBD6CC4E342278970CC7CF90FEBA0&assignmentId=0198bfbb-5e58-7c66-97eb-f70a8f71ae01&projectId=0198beef-981a-7243-9790-051e10551090","EAEDBD6CC4E342278970CC7CF90FEBA0-2025-08-19-00-38-14","","null","","images/causal_sequence/dog_causal/dog_causal_0.png","null","",""
"","","","","","html-audio-response","12","147937","0.0-10.0","EAEDBD6CC4E342278970CC7CF90FEBA0","EAEDBD6CC4E342278970CC7CF90FEBA0","0198bfbb-5e58-7c66-97eb-f70a8f71ae01","0198beef-981a-7243-9790-051e10551090","{""num_scrambled_semantic"":""8"",""num_scrambled_causal"":""4"",""num_scrambled_schematic"":""4"",""participantId"":""EAEDBD6CC4E342278970CC7CF90FEBA0"",""assignmentId"":""0198bfbb-5e58-7c66-97eb-f70a8f71ae01"",""projectId"":""0198beef-981a-7243-9790-051e10551090""}","https://test12345.live/?num_scrambled_semantic=8&num_scrambled_causal=4&num_scrambled_schematic=4&participantId=EAEDBD6CC4E342278970CC7CF90FEBA0&assignmentId=0198bfbb-5e58-7c66-97eb-f70a8f71ae01&projectId=0198beef-981a-7243-9790-051e10551090","EAEDBD6CC4E342278970CC7CF90FEBA0-2025-08-19-00-38-14","","35901","","[""<span style=\""color: red; font-size: 24px\""> NOW RECORDING</span><p>Please say out loud all the images you saw in part 1 of the experiment, as many as you can remember. The images can be said in any order.</p>""]","","2","dog_causal"
"","","","","","image-button-response","13","153954","0.0-11.0-0.0","EAEDBD6CC4E342278970CC7CF90FEBA0","EAEDBD6CC4E342278970CC7CF90FEBA0","0198bfbb-5e58-7c66-97eb-f70a8f71ae01","0198beef-981a-7243-9790-051e10551090","{""num_scrambled_semantic"":""8"",""num_scrambled_causal"":""4"",""num_scrambled_schematic"":""4"",""participantId"":""EAEDBD6CC4E342278970CC7CF90FEBA0"",""assignmentId"":""0198bfbb-5e58-7c66-97eb-f70a8f71ae01"",""projectId"":""0198beef-981a-7243-9790-051e10551090""}","https://test12345.live/?num_scrambled_semantic=8&num_scrambled_causal=4&num_scrambled_schematic=4&participantId=EAEDBD6CC4E342278970CC7CF90FEBA0&assignmentId=0198bfbb-5e58-7c66-97eb-f70a8f71ae01&projectId=0198beef-981a-7243-9790-051e10551090","EAEDBD6CC4E342278970CC7CF90FEBA0-2025-08-19-00-38-14","","null","","images/semantic_sequence/housework_semantic/housework_semantic_0.png","null","",""
"","","","","","html-audio-response","14","167767","0.0-12.0","EAEDBD6CC4E342278970CC7CF90FEBA0","EAEDBD6CC4E342278970CC7CF90FEBA0","0198bfbb-5e58-7c66-97eb-f70a8f71ae01","0198beef-981a-7243-9790-051e10551090","{""num_scrambled_semantic"":""8"",""num_scrambled_causal"":""4"",""num_scrambled_schematic"":""4"",""participantId"":""EAEDBD6CC4E342278970CC7CF90FEBA0"",""assignmentId"":""0198bfbb-5e58-7c66-97eb-f70a8f71ae01"",""projectId"":""0198beef-981a-7243-9790-051e10551090""}","https://test12345.live/?num_scrambled_semantic=8&num_scrambled_causal=4&num_scrambled_schematic=4&participantId=EAEDBD6CC4E342278970CC7CF90FEBA0&assignmentId=0198bfbb-5e58-7c66-97eb-f70a8f71ae01&projectId=0198beef-981a-7243-9790-051e10551090","EAEDBD6CC4E342278970CC7CF90FEBA0-2025-08-19-00-38-14","","12400","","[""<span style=\""color: red; font-size: 24px\""> NOW RECORDING</span><p>Please say out loud all the images you saw in part 1 of the experiment, as many as you can remember. The images can be said in any order.</p>""]","","2","housework_semantic"
"","","","","","image-button-response","15","173776","0.0-13.0-0.0","EAEDBD6CC4E342278970CC7CF90FEBA0","EAEDBD6CC4E342278970CC7CF90FEBA0","0198bfbb-5e58-7c66-97eb-f70a8f71ae01","0198beef-981a-7243-9790-051e10551090","{""num_scrambled_semantic"":""8"",""num_scrambled_causal"":""4"",""num_scrambled_schematic"":""4"",""participantId"":""EAEDBD6CC4E342278970CC7CF90FEBA0"",""assignmentId"":""0198bfbb-5e58-7c66-97eb-f70a8f71ae01"",""projectId"":""0198beef-981a-7243-9790-051e10551090""}","https://test12345.live/?num_scrambled_semantic=8&num_scrambled_causal=4&num_scrambled_schematic=4&participantId=EAEDBD6CC4E342278970CC7CF90FEBA0&assignmentId=0198bfbb-5e58-7c66-97eb-f70a8f71ae01&projectId=0198beef-981a-7243-9790-051e10551090","EAEDBD6CC4E342278970CC7CF90FEBA0-2025-08-19-00-38-14","","null","","images/semantic_sequence/using_technology_semantic/using_technology_semantic_0.png","null","",""
"","","","","","html-audio-response","16","199342","0.0-14.0","EAEDBD6CC4E342278970CC7CF90FEBA0","EAEDBD6CC4E342278970CC7CF90FEBA0","0198bfbb-5e58-7c66-97eb-f70a8f71ae01","0198beef-981a-7243-9790-051e10551090","{""num_scrambled_semantic"":""8"",""num_scrambled_causal"":""4"",""num_scrambled_schematic"":""4"",""participantId"":""EAEDBD6CC4E342278970CC7CF90FEBA0"",""assignmentId"":""0198bfbb-5e58-7c66-97eb-f70a8f71ae01"",""projectId"":""0198beef-981a-7243-9790-051e10551090""}","https://test12345.live/?num_scrambled_semantic=8&num_scrambled_causal=4&num_scrambled_schematic=4&participantId=EAEDBD6CC4E342278970CC7CF90FEBA0&assignmentId=0198bfbb-5e58-7c66-97eb-f70a8f71ae01&projectId=0198beef-981a-7243-9790-051e10551090","EAEDBD6CC4E342278970CC7CF90FEBA0-2025-08-19-00-38-14","","24462","","[""<span style=\""color: red; font-size: 24px\""> NOW RECORDING</span><p>Please say out loud all the images you saw in part 1 of the experiment, as many as you can remember. The images can be said in any order.</p>""]","","2","using_technology_semantic"
"","","","","","image-button-response","17","205353","0.0-15.0-0.0","EAEDBD6CC4E342278970CC7CF90FEBA0","EAEDBD6CC4E342278970CC7CF90FEBA0","0198bfbb-5e58-7c66-97eb-f70a8f71ae01","0198beef-981a-7243-9790-051e10551090","{""num_scrambled_semantic"":""8"",""num_scrambled_causal"":""4"",""num_scrambled_schematic"":""4"",""participantId"":""EAEDBD6CC4E342278970CC7CF90FEBA0"",""assignmentId"":""0198bfbb-5e58-7c66-97eb-f70a8f71ae01"",""projectId"":""0198beef-981a-7243-9790-051e10551090""}","https://test12345.live/?num_scrambled_semantic=8&num_scrambled_causal=4&num_scrambled_schematic=4&participantId=EAEDBD6CC4E342278970CC7CF90FEBA0&assignmentId=0198bfbb-5e58-7c66-97eb-f70a8f71ae01&projectId=0198beef-981a-7243-9790-051e10551090","EAEDBD6CC4E342278970CC7CF90FEBA0-2025-08-19-00-38-14","","null","","images/causal_sequence/saving_a_cat_causal/saving_a_cat_causal_0.png","null","",""
"","","","","","html-audio-response","18","241531","0.0-16.0","EAEDBD6CC4E342278970CC7CF90FEBA0","EAEDBD6CC4E342278970CC7CF90FEBA0","0198bfbb-5e58-7c66-97eb-f70a8f71ae01","0198beef-981a-7243-9790-051e10551090","{""num_scrambled_semantic"":""8"",""num_scrambled_causal"":""4"",""num_scrambled_schematic"":""4"",""participantId"":""EAEDBD6CC4E342278970CC7CF90FEBA0"",""assignmentId"":""0198bfbb-5e58-7c66-97eb-f70a8f71ae01"",""projectId"":""0198beef-981a-7243-9790-051e10551090""}","https://test12345.live/?num_scrambled_semantic=8&num_scrambled_causal=4&num_scrambled_schematic=4&participantId=EAEDBD6CC4E342278970CC7CF90FEBA0&assignmentId=0198bfbb-5e58-7c66-97eb-f70a8f71ae01&projectId=0198beef-981a-7243-9790-051e10551090","EAEDBD6CC4E342278970CC7CF90FEBA0-2025-08-19-00-38-14","","26196","","[""<span style=\""color: red; font-size: 24px\""> NOW RECORDING</span><p>Please say out loud all the images you saw in part 1 of the experiment, as many as you can remember. The images can be said in any order.</p>""]","","2","saving_a_cat_causal"
"","","","","","image-button-response","19","247540","0.0-17.0-0.0","EAEDBD6CC4E342278970CC7CF90FEBA0","EAEDBD6CC4E342278970CC7CF90FEBA0","0198bfbb-5e58-7c66-97eb-f70a8f71ae01","0198beef-981a-7243-9790-051e10551090","{""num_scrambled_semantic"":""8"",""num_scrambled_causal"":""4"",""num_scrambled_schematic"":""4"",""participantId"":""EAEDBD6CC4E342278970CC7CF90FEBA0"",""assignmentId"":""0198bfbb-5e58-7c66-97eb-f70a8f71ae01"",""projectId"":""0198beef-981a-7243-9790-051e10551090""}","https://test12345.live/?num_scrambled_semantic=8&num_scrambled_causal=4&num_scrambled_schematic=4&participantId=EAEDBD6CC4E342278970CC7CF90FEBA0&assignmentId=0198bfbb-5e58-7c66-97eb-f70a8f71ae01&projectId=0198beef-981a-7243-9790-051e10551090","EAEDBD6CC4E342278970CC7CF90FEBA0-2025-08-19-00-38-14","","null","","images/causal_sequence/museum_causal/museum_causal_0.png","null","",""
"","","","","","html-audio-response","20","278682","0.0-18.0","EAEDBD6CC4E342278970CC7CF90FEBA0","EAEDBD6CC4E342278970CC7CF90FEBA0","0198bfbb-5e58-7c66-97eb-f70a8f71ae01","0198beef-981a-7243-9790-051e10551090","{""num_scrambled_semantic"":""8"",""num_scrambled_causal"":""4"",""num_scrambled_schematic"":""4"",""participantId"":""EAEDBD6CC4E342278970CC7CF90FEBA0"",""assignmentId"":""0198bfbb-5e58-7c66-97eb-f70a8f71ae01"",""projectId"":""0198beef-981a-7243-9790-051e10551090""}","https://test12345.live/?num_scrambled_semantic=8&num_scrambled_causal=4&num_scrambled_schematic=4&participantId=EAEDBD6CC4E342278970CC7CF90FEBA0&assignmentId=0198bfbb-5e58-7c66-97eb-f70a8f71ae01&projectId=0198beef-981a-7243-9790-051e10551090","EAEDBD6CC4E342278970CC7CF90FEBA0-2025-08-19-00-38-14","","29566","","[""<span style=\""color: red; font-size: 24px\""> NOW RECORDING</span><p>Please say out loud all the images you saw in part 1 of the experiment, as many as you can remember. The images can be said in any order.</p>""]","","2","museum_causal"
"","","","","","image-button-response","21","284704","0.0-19.0-0.0","EAEDBD6CC4E342278970CC7CF90FEBA0","EAEDBD6CC4E342278970CC7CF90FEBA0","0198bfbb-5e58-7c66-97eb-f70a8f71ae01","0198beef-981a-7243-9790-051e10551090","{""num_scrambled_semantic"":""8"",""num_scrambled_causal"":""4"",""num_scrambled_schematic"":""4"",""participantId"":""EAEDBD6CC4E342278970CC7CF90FEBA0"",""assignmentId"":""0198bfbb-5e58-7c66-97eb-f70a8f71ae01"",""projectId"":""0198beef-981a-7243-9790-051e10551090""}","https://test12345.live/?num_scrambled_semantic=8&num_scrambled_causal=4&num_scrambled_schematic=4&participantId=EAEDBD6CC4E342278970CC7CF90FEBA0&assignmentId=0198bfbb-5e58-7c66-97eb-f70a8f71ae01&projectId=0198beef-981a-7243-9790-051e10551090","EAEDBD6CC4E342278970CC7CF90FEBA0-2025-08-19-00-38-14","","null","","images/semantic_sequence/physical_activity_semantic/physical_activity_semantic_0.png","null","",""
"","","","","","html-audio-response","22","306267","0.0-20.0","EAEDBD6CC4E342278970CC7CF90FEBA0","EAEDBD6CC4E342278970CC7CF90FEBA0","0198bfbb-5e58-7c66-97eb-f70a8f71ae01","0198beef-981a-7243-9790-051e10551090","{""num_scrambled_semantic"":""8"",""num_scrambled_causal"":""4"",""num_scrambled_schematic"":""4"",""participantId"":""EAEDBD6CC4E342278970CC7CF90FEBA0"",""assignmentId"":""0198bfbb-5e58-7c66-97eb-f70a8f71ae01"",""projectId"":""0198beef-981a-7243-9790-051e10551090""}","https://test12345.live/?num_scrambled_semantic=8&num_scrambled_causal=4&num_scrambled_schematic=4&participantId=EAEDBD6CC4E342278970CC7CF90FEBA0&assignmentId=0198bfbb-5e58-7c66-97eb-f70a8f71ae01&projectId=0198beef-981a-7243-9790-051e10551090","EAEDBD6CC4E342278970CC7CF90FEBA0-2025-08-19-00-38-14","","20183","","[""<span style=\""color: red; font-size: 24px\""> NOW RECORDING</span><p>Please say out loud all the images you saw in part 1 of the experiment, as many as you can remember. The images can be said in any order.</p>""]","","2","physical_activity_semantic"
"","","","","","image-button-response","23","312274","0.0-21.0-0.0","EAEDBD6CC4E342278970CC7CF90FEBA0","EAEDBD6CC4E342278970CC7CF90FEBA0","0198bfbb-5e58-7c66-97eb-f70a8f71ae01","0198beef-981a-7243-9790-051e10551090","{""num_scrambled_semantic"":""8"",""num_scrambled_causal"":""4"",""num_scrambled_schematic"":""4"",""participantId"":""EAEDBD6CC4E342278970CC7CF90FEBA0"",""assignmentId"":""0198bfbb-5e58-7c66-97eb-f70a8f71ae01"",""projectId"":""0198beef-981a-7243-9790-051e10551090""}","https://test12345.live/?num_scrambled_semantic=8&num_scrambled_causal=4&num_scrambled_schematic=4&participantId=EAEDBD6CC4E342278970CC7CF90FEBA0&assignmentId=0198bfbb-5e58-7c66-97eb-f70a8f71ae01&projectId=0198beef-981a-7243-9790-051e10551090","EAEDBD6CC4E342278970CC7CF90FEBA0-2025-08-19-00-38-14","","null","","images/semantic_sequence/creative_activities_semantic/creative_activities_semantic_0.png","null","",""
"","","","","","html-audio-response","24","327872","0.0-22.0","EAEDBD6CC4E342278970CC7CF90FEBA0","EAEDBD6CC4E342278970CC7CF90FEBA0","0198bfbb-5e58-7c66-97eb-f70a8f71ae01","0198beef-981a-7243-9790-051e10551090","{""num_scrambled_semantic"":""8"",""num_scrambled_causal"":""4"",""num_scrambled_schematic"":""4"",""participantId"":""EAEDBD6CC4E342278970CC7CF90FEBA0"",""assignmentId"":""0198bfbb-5e58-7c66-97eb-f70a8f71ae01"",""projectId"":""0198beef-981a-7243-9790-051e10551090""}","https://test12345.live/?num_scrambled_semantic=8&num_scrambled_causal=4&num_scrambled_schematic=4&participantId=EAEDBD6CC4E342278970CC7CF90FEBA0&assignmentId=0198bfbb-5e58-7c66-97eb-f70a8f71ae01&projectId=0198beef-981a-7243-9790-051e10551090","EAEDBD6CC4E342278970CC7CF90FEBA0-2025-08-19-00-38-14","","14543","","[""<span style=\""color: red; font-size: 24px\""> NOW RECORDING</span><p>Please say out loud all the images you saw in part 1 of the experiment, as many as you can remember. The images can be said in any order.</p>""]","","1","creative_activities_semantic"
"","","","","","image-button-response","25","333888","0.0-23.0-0.0","EAEDBD6CC4E342278970CC7CF90FEBA0","EAEDBD6CC4E342278970CC7CF90FEBA0","0198bfbb-5e58-7c66-97eb-f70a8f71ae01","0198beef-981a-7243-9790-051e10551090","{""num_scrambled_semantic"":""8"",""num_scrambled_causal"":""4"",""num_scrambled_schematic"":""4"",""participantId"":""EAEDBD6CC4E342278970CC7CF90FEBA0"",""assignmentId"":""0198bfbb-5e58-7c66-97eb-f70a8f71ae01"",""projectId"":""0198beef-981a-7243-9790-051e10551090""}","https://test12345.live/?num_scrambled_semantic=8&num_scrambled_causal=4&num_scrambled_schematic=4&participantId=EAEDBD6CC4E342278970CC7CF90FEBA0&assignmentId=0198bfbb-5e58-7c66-97eb-f70a8f71ae01&projectId=0198beef-981a-7243-9790-051e10551090","EAEDBD6CC4E342278970CC7CF90FEBA0-2025-08-19-00-38-14","","null","","images/causal_sequence/the_performance_causal/the_performance_causal_0.png","null","",""
"","","","","","html-audio-response","26","369489","0.0-24.0","EAEDBD6CC4E342278970CC7CF90FEBA0","EAEDBD6CC4E342278970CC7CF90FEBA0","0198bfbb-5e58-7c66-97eb-f70a8f71ae01","0198beef-981a-7243-9790-051e10551090","{""num_scrambled_semantic"":""8"",""num_scrambled_causal"":""4"",""num_scrambled_schematic"":""4"",""participantId"":""EAEDBD6CC4E342278970CC7CF90FEBA0"",""assignmentId"":""0198bfbb-5e58-7c66-97eb-f70a8f71ae01"",""projectId"":""0198beef-981a-7243-9790-051e10551090""}","https://test12345.live/?num_scrambled_semantic=8&num_scrambled_causal=4&num_scrambled_schematic=4&participantId=EAEDBD6CC4E342278970CC7CF90FEBA0&assignmentId=0198bfbb-5e58-7c66-97eb-f70a8f71ae01&projectId=0198beef-981a-7243-9790-051e10551090","EAEDBD6CC4E342278970CC7CF90FEBA0-2025-08-19-00-38-14","","34551","","[""<span style=\""color: red; font-size: 24px\""> NOW RECORDING</span><p>Please say out loud all the images you saw in part 1 of the experiment, as many as you can remember. The images can be said in any order.</p>""]","","2","the_performance_causal"
"","","","","","image-button-response","27","375502","0.0-25.0-0.0","EAEDBD6CC4E342278970CC7CF90FEBA0","EAEDBD6CC4E342278970CC7CF90FEBA0","0198bfbb-5e58-7c66-97eb-f70a8f71ae01","0198beef-981a-7243-9790-051e10551090","{""num_scrambled_semantic"":""8"",""num_scrambled_causal"":""4"",""num_scrambled_schematic"":""4"",""participantId"":""EAEDBD6CC4E342278970CC7CF90FEBA0"",""assignmentId"":""0198bfbb-5e58-7c66-97eb-f70a8f71ae01"",""projectId"":""0198beef-981a-7243-9790-051e10551090""}","https://test12345.live/?num_scrambled_semantic=8&num_scrambled_causal=4&num_scrambled_schematic=4&participantId=EAEDBD6CC4E342278970CC7CF90FEBA0&assignmentId=0198bfbb-5e58-7c66-97eb-f70a8f71ae01&projectId=0198beef-981a-7243-9790-051e10551090","EAEDBD6CC4E342278970CC7CF90FEBA0-2025-08-19-00-38-14","","null","","images/semantic_sequence/maintaining_a_car_semantic/maintaining_a_car_semantic_0.png","null","",""
"","","","","","html-audio-response","28","393389","0.0-26.0","EAEDBD6CC4E342278970CC7CF90FEBA0","EAEDBD6CC4E342278970CC7CF90FEBA0","0198bfbb-5e58-7c66-97eb-f70a8f71ae01","0198beef-981a-7243-9790-051e10551090","{""num_scrambled_semantic"":""8"",""num_scrambled_causal"":""4"",""num_scrambled_schematic"":""4"",""participantId"":""EAEDBD6CC4E342278970CC7CF90FEBA0"",""assignmentId"":""0198bfbb-5e58-7c66-97eb-f70a8f71ae01"",""projectId"":""0198beef-981a-7243-9790-051e10551090""}","https://test12345.live/?num_scrambled_semantic=8&num_scrambled_causal=4&num_scrambled_schematic=4&participantId=EAEDBD6CC4E342278970CC7CF90FEBA0&assignmentId=0198bfbb-5e58-7c66-97eb-f70a8f71ae01&projectId=0198beef-981a-7243-9790-051e10551090","EAEDBD6CC4E342278970CC7CF90FEBA0-2025-08-19-00-38-14","","16722","","[""<span style=\""color: red; font-size: 24px\""> NOW RECORDING</span><p>Please say out loud all the images you saw in part 1 of the experiment, as many as you can remember. The images can be said in any order.</p>""]","","2","maintaining_a_car_semantic"
"","","","","","image-button-response","29","399399","0.0-27.0-0.0","EAEDBD6CC4E342278970CC7CF90FEBA0","EAEDBD6CC4E342278970CC7CF90FEBA0","0198bfbb-5e58-7c66-97eb-f70a8f71ae01","0198beef-981a-7243-9790-051e10551090","{""num_scrambled_semantic"":""8"",""num_scrambled_causal"":""4"",""num_scrambled_schematic"":""4"",""participantId"":""EAEDBD6CC4E342278970CC7CF90FEBA0"",""assignmentId"":""0198bfbb-5e58-7c66-97eb-f70a8f71ae01"",""projectId"":""0198beef-981a-7243-9790-051e10551090""}","https://test12345.live/?num_scrambled_semantic=8&num_scrambled_causal=4&num_scrambled_schematic=4&participantId=EAEDBD6CC4E342278970CC7CF90FEBA0&assignmentId=0198bfbb-5e58-7c66-97eb-f70a8f71ae01&projectId=0198beef-981a-7243-9790-051e10551090","EAEDBD6CC4E342278970CC7CF90FEBA0-2025-08-19-00-38-14","","null","","images/causal_sequence/coin_causal/coin_causal_0.png","null","",""
"","","","","","html-audio-response","30","435678","0.0-28.0","EAEDBD6CC4E342278970CC7CF90FEBA0","EAEDBD6CC4E342278970CC7CF90FEBA0","0198bfbb-5e58-7c66-97eb-f70a8f71ae01","0198beef-981a-7243-9790-051e10551090","{""num_scrambled_semantic"":""8"",""num_scrambled_causal"":""4"",""num_scrambled_schematic"":""4"",""participantId"":""EAEDBD6CC4E342278970CC7CF90FEBA0"",""assignmentId"":""0198bfbb-5e58-7c66-97eb-f70a8f71ae01"",""projectId"":""0198beef-981a-7243-9790-051e10551090""}","https://test12345.live/?num_scrambled_semantic=8&num_scrambled_causal=4&num_scrambled_schematic=4&participantId=EAEDBD6CC4E342278970CC7CF90FEBA0&assignmentId=0198bfbb-5e58-7c66-97eb-f70a8f71ae01&projectId=0198beef-981a-7243-9790-051e10551090","EAEDBD6CC4E342278970CC7CF90FEBA0-2025-08-19-00-38-14","","33158","","[""<span style=\""color: red; font-size: 24px\""> NOW RECORDING</span><p>Please say out loud all the images you saw in part 1 of the experiment, as many as you can remember. The images can be said in any order.</p>""]","","2","coin_causal"
"","","","","","image-button-response","31","441710","0.0-29.0-0.0","EAEDBD6CC4E342278970CC7CF90FEBA0","EAEDBD6CC4E342278970CC7CF90FEBA0","0198bfbb-5e58-7c66-97eb-f70a8f71ae01","0198beef-981a-7243-9790-051e10551090","{""num_scrambled_semantic"":""8"",""num_scrambled_causal"":""4"",""num_scrambled_schematic"":""4"",""participantId"":""EAEDBD6CC4E342278970CC7CF90FEBA0"",""assignmentId"":""0198bfbb-5e58-7c66-97eb-f70a8f71ae01"",""projectId"":""0198beef-981a-7243-9790-051e10551090""}","https://test12345.live/?num_scrambled_semantic=8&num_scrambled_causal=4&num_scrambled_schematic=4&participantId=EAEDBD6CC4E342278970CC7CF90FEBA0&assignmentId=0198bfbb-5e58-7c66-97eb-f70a8f71ae01&projectId=0198beef-981a-7243-9790-051e10551090","EAEDBD6CC4E342278970CC7CF90FEBA0-2025-08-19-00-38-14","","null","","images/semantic_sequence/cat_care_semantic/cat_care_semantic_0.png","null","",""
"","","","","","html-audio-response","32","456921","0.0-30.0","EAEDBD6CC4E342278970CC7CF90FEBA0","EAEDBD6CC4E342278970CC7CF90FEBA0","0198bfbb-5e58-7c66-97eb-f70a8f71ae01","0198beef-981a-7243-9790-051e10551090","{""num_scrambled_semantic"":""8"",""num_scrambled_causal"":""4"",""num_scrambled_schematic"":""4"",""participantId"":""EAEDBD6CC4E342278970CC7CF90FEBA0"",""assignmentId"":""0198bfbb-5e58-7c66-97eb-f70a8f71ae01"",""projectId"":""0198beef-981a-7243-9790-051e10551090""}","https://test12345.live/?num_scrambled_semantic=8&num_scrambled_causal=4&num_scrambled_schematic=4&participantId=EAEDBD6CC4E342278970CC7CF90FEBA0&assignmentId=0198bfbb-5e58-7c66-97eb-f70a8f71ae01&projectId=0198beef-981a-7243-9790-051e10551090","EAEDBD6CC4E342278970CC7CF90FEBA0-2025-08-19-00-38-14","","13822","","[""<span style=\""color: red; font-size: 24px\""> NOW RECORDING</span><p>Please say out loud all the images you saw in part 1 of the experiment, as many as you can remember. The images can be said in any order.</p>""]","","2","cat_care_semantic"
"","","","","","image-button-response","33","462932","0.0-31.0-0.0","EAEDBD6CC4E342278970CC7CF90FEBA0","EAEDBD6CC4E342278970CC7CF90FEBA0","0198bfbb-5e58-7c66-97eb-f70a8f71ae01","0198beef-981a-7243-9790-051e10551090","{""num_scrambled_semantic"":""8"",""num_scrambled_causal"":""4"",""num_scrambled_schematic"":""4"",""participantId"":""EAEDBD6CC4E342278970CC7CF90FEBA0"",""assignmentId"":""0198bfbb-5e58-7c66-97eb-f70a8f71ae01"",""projectId"":""0198beef-981a-7243-9790-051e10551090""}","https://test12345.live/?num_scrambled_semantic=8&num_scrambled_causal=4&num_scrambled_schematic=4&participantId=EAEDBD6CC4E342278970CC7CF90FEBA0&assignmentId=0198bfbb-5e58-7c66-97eb-f70a8f71ae01&projectId=0198beef-981a-7243-9790-051e10551090","EAEDBD6CC4E342278970CC7CF90FEBA0-2025-08-19-00-38-14","","null","","images/semantic_sequence/redecorating_semantic/redecorating_semantic_0.png","null","",""
"","","","","","html-audio-response","34","477779","0.0-32.0","EAEDBD6CC4E342278970CC7CF90FEBA0","EAEDBD6CC4E342278970CC7CF90FEBA0","0198bfbb-5e58-7c66-97eb-f70a8f71ae01","0198beef-981a-7243-9790-051e10551090","{""num_scrambled_semantic"":""8"",""num_scrambled_causal"":""4"",""num_scrambled_schematic"":""4"",""participantId"":""EAEDBD6CC4E342278970CC7CF90FEBA0"",""assignmentId"":""0198bfbb-5e58-7c66-97eb-f70a8f71ae01"",""projectId"":""0198beef-981a-7243-9790-051e10551090""}","https://test12345.live/?num_scrambled_semantic=8&num_scrambled_causal=4&num_scrambled_schematic=4&participantId=EAEDBD6CC4E342278970CC7CF90FEBA0&assignmentId=0198bfbb-5e58-7c66-97eb-f70a8f71ae01&projectId=0198beef-981a-7243-9790-051e10551090","EAEDBD6CC4E342278970CC7CF90FEBA0-2025-08-19-00-38-14","","13646","","[""<span style=\""color: red; font-size: 24px\""> NOW RECORDING</span><p>Please say out loud all the images you saw in part 1 of the experiment, as many as you can remember. The images can be said in any order.</p>""]","","2","redecorating_semantic"
"","","","","","image-button-response","35","483793","0.0-33.0-0.0","EAEDBD6CC4E342278970CC7CF90FEBA0","EAEDBD6CC4E342278970CC7CF90FEBA0","0198bfbb-5e58-7c66-97eb-f70a8f71ae01","0198beef-981a-7243-9790-051e10551090","{""num_scrambled_semantic"":""8"",""num_scrambled_causal"":""4"",""num_scrambled_schematic"":""4"",""participantId"":""EAEDBD6CC4E342278970CC7CF90FEBA0"",""assignmentId"":""0198bfbb-5e58-7c66-97eb-f70a8f71ae01"",""projectId"":""0198beef-981a-7243-9790-051e10551090""}","https://test12345.live/?num_scrambled_semantic=8&num_scrambled_causal=4&num_scrambled_schematic=4&participantId=EAEDBD6CC4E342278970CC7CF90FEBA0&assignmentId=0198bfbb-5e58-7c66-97eb-f70a8f71ae01&projectId=0198beef-981a-7243-9790-051e10551090","EAEDBD6CC4E342278970CC7CF90FEBA0-2025-08-19-00-38-14","","null","","images/causal_sequence/package_causal/package_causal_0.png","null","",""
"","","","","","html-audio-response","36","503689","0.0-34.0","EAEDBD6CC4E342278970CC7CF90FEBA0","EAEDBD6CC4E342278970CC7CF90FEBA0","0198bfbb-5e58-7c66-97eb-f70a8f71ae01","0198beef-981a-7243-9790-051e10551090","{""num_scrambled_semantic"":""8"",""num_scrambled_causal"":""4"",""num_scrambled_schematic"":""4"",""participantId"":""EAEDBD6CC4E342278970CC7CF90FEBA0"",""assignmentId"":""0198bfbb-5e58-7c66-97eb-f70a8f71ae01"",""projectId"":""0198beef-981a-7243-9790-051e10551090""}","https://test12345.live/?num_scrambled_semantic=8&num_scrambled_causal=4&num_scrambled_schematic=4&participantId=EAEDBD6CC4E342278970CC7CF90FEBA0&assignmentId=0198bfbb-5e58-7c66-97eb-f70a8f71ae01&projectId=0198beef-981a-7243-9790-051e10551090","EAEDBD6CC4E342278970CC7CF90FEBA0-2025-08-19-00-38-14","","18624","","[""<span style=\""color: red; font-size: 24px\""> NOW RECORDING</span><p>Please say out loud all the images you saw in part 1 of the experiment, as many as you can remember. The images can be said in any order.</p>""]","","2","package_causal"
"","","","","","survey-text","37","510374","0.0-35.0","EAEDBD6CC4E342278970CC7CF90FEBA0","EAEDBD6CC4E342278970CC7CF90FEBA0","0198bfbb-5e58-7c66-97eb-f70a8f71ae01","0198beef-981a-7243-9790-051e10551090","{""num_scrambled_semantic"":""8"",""num_scrambled_causal"":""4"",""num_scrambled_schematic"":""4"",""participantId"":""EAEDBD6CC4E342278970CC7CF90FEBA0"",""assignmentId"":""0198bfbb-5e58-7c66-97eb-f70a8f71ae01"",""projectId"":""0198beef-981a-7243-9790-051e10551090""}","https://test12345.live/?num_scrambled_semantic=8&num_scrambled_causal=4&num_scrambled_schematic=4&participantId=EAEDBD6CC4E342278970CC7CF90FEBA0&assignmentId=0198bfbb-5e58-7c66-97eb-f70a8f71ae01&projectId=0198beef-981a-7243-9790-051e10551090","EAEDBD6CC4E342278970CC7CF90FEBA0-2025-08-19-00-38-14","","6676","","","{""Q0"":""Female"",""Q1"":""27""}","",""
"","","","","","instructions","38","514611","0.0-36.0","EAEDBD6CC4E342278970CC7CF90FEBA0","EAEDBD6CC4E342278970CC7CF90FEBA0","0198bfbb-5e58-7c66-97eb-f70a8f71ae01","0198beef-981a-7243-9790-051e10551090","{""num_scrambled_semantic"":""8"",""num_scrambled_causal"":""4"",""num_scrambled_schematic"":""4"",""participantId"":""EAEDBD6CC4E342278970CC7CF90FEBA0"",""assignmentId"":""0198bfbb-5e58-7c66-97eb-f70a8f71ae01"",""projectId"":""0198beef-981a-7243-9790-051e10551090""}","https://test12345.live/?num_scrambled_semantic=8&num_scrambled_causal=4&num_scrambled_schematic=4&participantId=EAEDBD6CC4E342278970CC7CF90FEBA0&assignmentId=0198bfbb-5e58-7c66-97eb-f70a8f71ae01&projectId=0198beef-981a-7243-9790-051e10551090","EAEDBD6CC4E342278970CC7CF90FEBA0-2025-08-19-00-38-14","[{""page_index"":0,""viewing_time"":4237}]","4237","","","","",""
"","","","","","survey-text","39","525830","0.0-37.0","EAEDBD6CC4E342278970CC7CF90FEBA0","EAEDBD6CC4E342278970CC7CF90FEBA0","0198bfbb-5e58-7c66-97eb-f70a8f71ae01","0198beef-981a-7243-9790-051e10551090","{""num_scrambled_semantic"":""8"",""num_scrambled_causal"":""4"",""num_scrambled_schematic"":""4"",""participantId"":""EAEDBD6CC4E342278970CC7CF90FEBA0"",""assignmentId"":""0198bfbb-5e58-7c66-97eb-f70a8f71ae01"",""projectId"":""0198beef-981a-7243-9790-051e10551090""}","https://test12345.live/?num_scrambled_semantic=8&num_scrambled_causal=4&num_scrambled_schematic=4&participantId=EAEDBD6CC4E342278970CC7CF90FEBA0&assignmentId=0198bfbb-5e58-7c66-97eb-f70a8f71ae01&projectId=0198beef-981a-7243-9790-051e10551090","EAEDBD6CC4E342278970CC7CF90FEBA0-2025-08-19-00-38-14","","11217","","","{""Q0"":""AJFHBG896""}","",""
