"success","timeout","failed_images","failed_audio","failed_video","trial_type","trial_index","time_elapsed","internal_node_id","subject","subject_id","study_id","session_id","urlvar","current_url","audio_id","view_history","rt","device_id","stimulus","response","estimated_stimulus_onset","seq_name"
"true","false","[]","[]","[]","preload","0","13966","0.0-0.0","EC3133DD818C4C2390386BB259BE656A","EC3133DD818C4C2390386BB259BE656A","0198c322-bd8f-722d-ac51-91e101cb69e5","0198c320-653a-770c-93e4-41e10e7faa5f","{""num_scrambled_semantic"":""8"",""num_scrambled_causal"":""4"",""num_scrambled_schematic"":""4"",""participantId"":""EC3133DD818C4C2390386BB259BE656A"",""assignmentId"":""0198c322-bd8f-722d-ac51-91e101cb69e5"",""projectId"":""0198c320-653a-770c-93e4-41e10e7faa5f""}","https://test12345.live/?num_scrambled_semantic=8&num_scrambled_causal=4&num_scrambled_schematic=4&participantId=EC3133DD818C4C2390386BB259BE656A&assignmentId=0198c322-bd8f-722d-ac51-91e101cb69e5&projectId=0198c320-653a-770c-93e4-41e10e7faa5f","EC3133DD818C4C2390386BB259BE656A-2025-08-19-16-36-08","","","","","","",""
"","","","","","instructions","1","31749","0.0-1.0","EC3133DD818C4C2390386BB259BE656A","EC3133DD818C4C2390386BB259BE656A","0198c322-bd8f-722d-ac51-91e101cb69e5","0198c320-653a-770c-93e4-41e10e7faa5f","{""num_scrambled_semantic"":""8"",""num_scrambled_causal"":""4"",""num_scrambled_schematic"":""4"",""participantId"":""EC3133DD818C4C2390386BB259BE656A"",""assignmentId"":""0198c322-bd8f-722d-ac51-91e101cb69e5"",""projectId"":""0198c320-653a-770c-93e4-41e10e7faa5f""}","https://test12345.live/?num_scrambled_semantic=8&num_scrambled_causal=4&num_scrambled_schematic=4&participantId=EC3133DD818C4C2390386BB259BE656A&assignmentId=0198c322-bd8f-722d-ac51-91e101cb69e5&projectId=0198c320-653a-770c-93e4-41e10e7faa5f","EC3133DD818C4C2390386BB259BE656A-2025-08-19-16-36-08","[{""page_index"":0,""viewing_time"":17781}]","17782","","","","",""
"","","","","","instructions","2","39667","0.0-2.0","EC3133DD818C4C2390386BB259BE656A","EC3133DD818C4C2390386BB259BE656A","0198c322-bd8f-722d-ac51-91e101cb69e5","0198c320-653a-770c-93e4-41e10e7faa5f","{""num_scrambled_semantic"":""8"",""num_scrambled_causal"":""4"",""num_scrambled_schematic"":""4"",""participantId"":""EC3133DD818C4C2390386BB259BE656A"",""assignmentId"":""0198c322-bd8f-722d-ac51-91e101cb69e5"",""projectId"":""0198c320-653a-770c-93e4-41e10e7faa5f""}","https://test12345.live/?num_scrambled_semantic=8&num_scrambled_causal=4&num_scrambled_schematic=4&participantId=EC3133DD818C4C2390386BB259BE656A&assignmentId=0198c322-bd8f-722d-ac51-91e101cb69e5&projectId=0198c320-653a-770c-93e4-41e10e7faa5f","EC3133DD818C4C2390386BB259BE656A-2025-08-19-16-36-08","[{""page_index"":0,""viewing_time"":7915}]","7916","","","","",""
"true","","","","","fullscreen","3","46512","0.0-3.0","EC3133DD818C4C2390386BB259BE656A","EC3133DD818C4C2390386BB259BE656A","0198c322-bd8f-722d-ac51-91e101cb69e5","0198c320-653a-770c-93e4-41e10e7faa5f","{""num_scrambled_semantic"":""8"",""num_scrambled_causal"":""4"",""num_scrambled_schematic"":""4"",""participantId"":""EC3133DD818C4C2390386BB259BE656A"",""assignmentId"":""0198c322-bd8f-722d-ac51-91e101cb69e5"",""projectId"":""0198c320-653a-770c-93e4-41e10e7faa5f""}","https://test12345.live/?num_scrambled_semantic=8&num_scrambled_causal=4&num_scrambled_schematic=4&participantId=EC3133DD818C4C2390386BB259BE656A&assignmentId=0198c322-bd8f-722d-ac51-91e101cb69e5&projectId=0198c320-653a-770c-93e4-41e10e7faa5f","EC3133DD818C4C2390386BB259BE656A-2025-08-19-16-36-08","","5833","","","","",""
"","","","","","initialize-microphone","4","132479","0.0-4.0-0.0","EC3133DD818C4C2390386BB259BE656A","EC3133DD818C4C2390386BB259BE656A","0198c322-bd8f-722d-ac51-91e101cb69e5","0198c320-653a-770c-93e4-41e10e7faa5f","{""num_scrambled_semantic"":""8"",""num_scrambled_causal"":""4"",""num_scrambled_schematic"":""4"",""participantId"":""EC3133DD818C4C2390386BB259BE656A"",""assignmentId"":""0198c322-bd8f-722d-ac51-91e101cb69e5"",""projectId"":""0198c320-653a-770c-93e4-41e10e7faa5f""}","https://test12345.live/?num_scrambled_semantic=8&num_scrambled_causal=4&num_scrambled_schematic=4&participantId=EC3133DD818C4C2390386BB259BE656A&assignmentId=0198c322-bd8f-722d-ac51-91e101cb69e5&projectId=0198c320-653a-770c-93e4-41e10e7faa5f","EC3133DD818C4C2390386BB259BE656A-2025-08-19-16-36-08","","","9cb01195fa6a4e715a473c8aa845e36f06bb07610247abaedaf9864547666a71","","","",""
"","","","","","html-audio-response","5","247129","0.0-4.0-1.0","EC3133DD818C4C2390386BB259BE656A","EC3133DD818C4C2390386BB259BE656A","0198c322-bd8f-722d-ac51-91e101cb69e5","0198c320-653a-770c-93e4-41e10e7faa5f","{""num_scrambled_semantic"":""8"",""num_scrambled_causal"":""4"",""num_scrambled_schematic"":""4"",""participantId"":""EC3133DD818C4C2390386BB259BE656A"",""assignmentId"":""0198c322-bd8f-722d-ac51-91e101cb69e5"",""projectId"":""0198c320-653a-770c-93e4-41e10e7faa5f""}","https://test12345.live/?num_scrambled_semantic=8&num_scrambled_causal=4&num_scrambled_schematic=4&participantId=EC3133DD818C4C2390386BB259BE656A&assignmentId=0198c322-bd8f-722d-ac51-91e101cb69e5&projectId=0198c320-653a-770c-93e4-41e10e7faa5f","EC3133DD818C4C2390386BB259BE656A-2025-08-19-16-36-08","","1133","","<span style=""color: red; font-size: 24px""> NOW RECORDING</span>
        <p>Please test Microphone</p>","","6",""
"","","","","","html-button-response","6","248638","0.0-4.0-2.0","EC3133DD818C4C2390386BB259BE656A","EC3133DD818C4C2390386BB259BE656A","0198c322-bd8f-722d-ac51-91e101cb69e5","0198c320-653a-770c-93e4-41e10e7faa5f","{""num_scrambled_semantic"":""8"",""num_scrambled_causal"":""4"",""num_scrambled_schematic"":""4"",""participantId"":""EC3133DD818C4C2390386BB259BE656A"",""assignmentId"":""0198c322-bd8f-722d-ac51-91e101cb69e5"",""projectId"":""0198c320-653a-770c-93e4-41e10e7faa5f""}","https://test12345.live/?num_scrambled_semantic=8&num_scrambled_causal=4&num_scrambled_schematic=4&participantId=EC3133DD818C4C2390386BB259BE656A&assignmentId=0198c322-bd8f-722d-ac51-91e101cb69e5&projectId=0198c320-653a-770c-93e4-41e10e7faa5f","EC3133DD818C4C2390386BB259BE656A-2025-08-19-16-36-08","","1506","","<p style=""font-size:48px; color:red;"">Is Microphone OK?</p>","1","",""
"","","","","","instructions","7","264688","0.0-5.0","EC3133DD818C4C2390386BB259BE656A","EC3133DD818C4C2390386BB259BE656A","0198c322-bd8f-722d-ac51-91e101cb69e5","0198c320-653a-770c-93e4-41e10e7faa5f","{""num_scrambled_semantic"":""8"",""num_scrambled_causal"":""4"",""num_scrambled_schematic"":""4"",""participantId"":""EC3133DD818C4C2390386BB259BE656A"",""assignmentId"":""0198c322-bd8f-722d-ac51-91e101cb69e5"",""projectId"":""0198c320-653a-770c-93e4-41e10e7faa5f""}","https://test12345.live/?num_scrambled_semantic=8&num_scrambled_causal=4&num_scrambled_schematic=4&participantId=EC3133DD818C4C2390386BB259BE656A&assignmentId=0198c322-bd8f-722d-ac51-91e101cb69e5&projectId=0198c320-653a-770c-93e4-41e10e7faa5f","EC3133DD818C4C2390386BB259BE656A-2025-08-19-16-36-08","[{""page_index"":0,""viewing_time"":1211},{""page_index"":1,""viewing_time"":1262},{""page_index"":2,""viewing_time"":13575}]","16048","","","","",""
"","","","","","image-button-response","8","270697","0.0-6.0-0.0","EC3133DD818C4C2390386BB259BE656A","EC3133DD818C4C2390386BB259BE656A","0198c322-bd8f-722d-ac51-91e101cb69e5","0198c320-653a-770c-93e4-41e10e7faa5f","{""num_scrambled_semantic"":""8"",""num_scrambled_causal"":""4"",""num_scrambled_schematic"":""4"",""participantId"":""EC3133DD818C4C2390386BB259BE656A"",""assignmentId"":""0198c322-bd8f-722d-ac51-91e101cb69e5"",""projectId"":""0198c320-653a-770c-93e4-41e10e7faa5f""}","https://test12345.live/?num_scrambled_semantic=8&num_scrambled_causal=4&num_scrambled_schematic=4&participantId=EC3133DD818C4C2390386BB259BE656A&assignmentId=0198c322-bd8f-722d-ac51-91e101cb69e5&projectId=0198c320-653a-770c-93e4-41e10e7faa5f","EC3133DD818C4C2390386BB259BE656A-2025-08-19-16-36-08","","null","","images/instructions/movie_0.png","null","",""
"","","","","","html-audio-response","9","327014","0.0-7.0","EC3133DD818C4C2390386BB259BE656A","EC3133DD818C4C2390386BB259BE656A","0198c322-bd8f-722d-ac51-91e101cb69e5","0198c320-653a-770c-93e4-41e10e7faa5f","{""num_scrambled_semantic"":""8"",""num_scrambled_causal"":""4"",""num_scrambled_schematic"":""4"",""participantId"":""EC3133DD818C4C2390386BB259BE656A"",""assignmentId"":""0198c322-bd8f-722d-ac51-91e101cb69e5"",""projectId"":""0198c320-653a-770c-93e4-41e10e7faa5f""}","https://test12345.live/?num_scrambled_semantic=8&num_scrambled_causal=4&num_scrambled_schematic=4&participantId=EC3133DD818C4C2390386BB259BE656A&assignmentId=0198c322-bd8f-722d-ac51-91e101cb69e5&projectId=0198c320-653a-770c-93e4-41e10e7faa5f","EC3133DD818C4C2390386BB259BE656A-2025-08-19-16-36-08","","25773","","[""<span style=\""color: red; font-size: 24px\""> NOW RECORDING</span><p>Please say out loud all the images you saw in part 1 of the experiment, as many as you can remember. The images can be said in any order.</p>""]","","4",""
"","","","","","instructions","10","329462","0.0-8.0","EC3133DD818C4C2390386BB259BE656A","EC3133DD818C4C2390386BB259BE656A","0198c322-bd8f-722d-ac51-91e101cb69e5","0198c320-653a-770c-93e4-41e10e7faa5f","{""num_scrambled_semantic"":""8"",""num_scrambled_causal"":""4"",""num_scrambled_schematic"":""4"",""participantId"":""EC3133DD818C4C2390386BB259BE656A"",""assignmentId"":""0198c322-bd8f-722d-ac51-91e101cb69e5"",""projectId"":""0198c320-653a-770c-93e4-41e10e7faa5f""}","https://test12345.live/?num_scrambled_semantic=8&num_scrambled_causal=4&num_scrambled_schematic=4&participantId=EC3133DD818C4C2390386BB259BE656A&assignmentId=0198c322-bd8f-722d-ac51-91e101cb69e5&projectId=0198c320-653a-770c-93e4-41e10e7faa5f","EC3133DD818C4C2390386BB259BE656A-2025-08-19-16-36-08","[{""page_index"":0,""viewing_time"":2431}]","2432","","","","",""
"","","","","","image-button-response","11","335465","0.0-9.0-0.0","EC3133DD818C4C2390386BB259BE656A","EC3133DD818C4C2390386BB259BE656A","0198c322-bd8f-722d-ac51-91e101cb69e5","0198c320-653a-770c-93e4-41e10e7faa5f","{""num_scrambled_semantic"":""8"",""num_scrambled_causal"":""4"",""num_scrambled_schematic"":""4"",""participantId"":""EC3133DD818C4C2390386BB259BE656A"",""assignmentId"":""0198c322-bd8f-722d-ac51-91e101cb69e5"",""projectId"":""0198c320-653a-770c-93e4-41e10e7faa5f""}","https://test12345.live/?num_scrambled_semantic=8&num_scrambled_causal=4&num_scrambled_schematic=4&participantId=EC3133DD818C4C2390386BB259BE656A&assignmentId=0198c322-bd8f-722d-ac51-91e101cb69e5&projectId=0198c320-653a-770c-93e4-41e10e7faa5f","EC3133DD818C4C2390386BB259BE656A-2025-08-19-16-36-08","","null","","images/causal_sequence/coin_causal/coin_causal_0.png","null","",""
"","","","","","html-audio-response","12","374680","0.0-10.0","EC3133DD818C4C2390386BB259BE656A","EC3133DD818C4C2390386BB259BE656A","0198c322-bd8f-722d-ac51-91e101cb69e5","0198c320-653a-770c-93e4-41e10e7faa5f","{""num_scrambled_semantic"":""8"",""num_scrambled_causal"":""4"",""num_scrambled_schematic"":""4"",""participantId"":""EC3133DD818C4C2390386BB259BE656A"",""assignmentId"":""0198c322-bd8f-722d-ac51-91e101cb69e5"",""projectId"":""0198c320-653a-770c-93e4-41e10e7faa5f""}","https://test12345.live/?num_scrambled_semantic=8&num_scrambled_causal=4&num_scrambled_schematic=4&participantId=EC3133DD818C4C2390386BB259BE656A&assignmentId=0198c322-bd8f-722d-ac51-91e101cb69e5&projectId=0198c320-653a-770c-93e4-41e10e7faa5f","EC3133DD818C4C2390386BB259BE656A-2025-08-19-16-36-08","","34301","","[""<span style=\""color: red; font-size: 24px\""> NOW RECORDING</span><p>Please say out loud all the images you saw in part 1 of the experiment, as many as you can remember. The images can be said in any order.</p>""]","","4","coin_causal"
"","","","","","image-button-response","13","380722","0.0-11.0-0.0","EC3133DD818C4C2390386BB259BE656A","EC3133DD818C4C2390386BB259BE656A","0198c322-bd8f-722d-ac51-91e101cb69e5","0198c320-653a-770c-93e4-41e10e7faa5f","{""num_scrambled_semantic"":""8"",""num_scrambled_causal"":""4"",""num_scrambled_schematic"":""4"",""participantId"":""EC3133DD818C4C2390386BB259BE656A"",""assignmentId"":""0198c322-bd8f-722d-ac51-91e101cb69e5"",""projectId"":""0198c320-653a-770c-93e4-41e10e7faa5f""}","https://test12345.live/?num_scrambled_semantic=8&num_scrambled_causal=4&num_scrambled_schematic=4&participantId=EC3133DD818C4C2390386BB259BE656A&assignmentId=0198c322-bd8f-722d-ac51-91e101cb69e5&projectId=0198c320-653a-770c-93e4-41e10e7faa5f","EC3133DD818C4C2390386BB259BE656A-2025-08-19-16-36-08","","null","","images/causal_sequence/saving_a_cat_causal/saving_a_cat_causal_0.png","null","",""
"","","","","","html-audio-response","14","463374","0.0-12.0","EC3133DD818C4C2390386BB259BE656A","EC3133DD818C4C2390386BB259BE656A","0198c322-bd8f-722d-ac51-91e101cb69e5","0198c320-653a-770c-93e4-41e10e7faa5f","{""num_scrambled_semantic"":""8"",""num_scrambled_causal"":""4"",""num_scrambled_schematic"":""4"",""participantId"":""EC3133DD818C4C2390386BB259BE656A"",""assignmentId"":""0198c322-bd8f-722d-ac51-91e101cb69e5"",""projectId"":""0198c320-653a-770c-93e4-41e10e7faa5f""}","https://test12345.live/?num_scrambled_semantic=8&num_scrambled_causal=4&num_scrambled_schematic=4&participantId=EC3133DD818C4C2390386BB259BE656A&assignmentId=0198c322-bd8f-722d-ac51-91e101cb69e5&projectId=0198c320-653a-770c-93e4-41e10e7faa5f","EC3133DD818C4C2390386BB259BE656A-2025-08-19-16-36-08","","21033","","[""<span style=\""color: red; font-size: 24px\""> NOW RECORDING</span><p>Please say out loud all the images you saw in part 1 of the experiment, as many as you can remember. The images can be said in any order.</p>""]","","2","saving_a_cat_causal"
"","","","","","image-button-response","15","469399","0.0-13.0-0.0","EC3133DD818C4C2390386BB259BE656A","EC3133DD818C4C2390386BB259BE656A","0198c322-bd8f-722d-ac51-91e101cb69e5","0198c320-653a-770c-93e4-41e10e7faa5f","{""num_scrambled_semantic"":""8"",""num_scrambled_causal"":""4"",""num_scrambled_schematic"":""4"",""participantId"":""EC3133DD818C4C2390386BB259BE656A"",""assignmentId"":""0198c322-bd8f-722d-ac51-91e101cb69e5"",""projectId"":""0198c320-653a-770c-93e4-41e10e7faa5f""}","https://test12345.live/?num_scrambled_semantic=8&num_scrambled_causal=4&num_scrambled_schematic=4&participantId=EC3133DD818C4C2390386BB259BE656A&assignmentId=0198c322-bd8f-722d-ac51-91e101cb69e5&projectId=0198c320-653a-770c-93e4-41e10e7faa5f","EC3133DD818C4C2390386BB259BE656A-2025-08-19-16-36-08","","null","","images/semantic_sequence/maintaining_a_car_semantic/maintaining_a_car_semantic_0.png","null","",""
"","","","","","html-audio-response","16","509358","0.0-14.0","EC3133DD818C4C2390386BB259BE656A","EC3133DD818C4C2390386BB259BE656A","0198c322-bd8f-722d-ac51-91e101cb69e5","0198c320-653a-770c-93e4-41e10e7faa5f","{""num_scrambled_semantic"":""8"",""num_scrambled_causal"":""4"",""num_scrambled_schematic"":""4"",""participantId"":""EC3133DD818C4C2390386BB259BE656A"",""assignmentId"":""0198c322-bd8f-722d-ac51-91e101cb69e5"",""projectId"":""0198c320-653a-770c-93e4-41e10e7faa5f""}","https://test12345.live/?num_scrambled_semantic=8&num_scrambled_causal=4&num_scrambled_schematic=4&participantId=EC3133DD818C4C2390386BB259BE656A&assignmentId=0198c322-bd8f-722d-ac51-91e101cb69e5&projectId=0198c320-653a-770c-93e4-41e10e7faa5f","EC3133DD818C4C2390386BB259BE656A-2025-08-19-16-36-08","","1363","","[""<span style=\""color: red; font-size: 24px\""> NOW RECORDING</span><p>Please say out loud all the images you saw in part 1 of the experiment, as many as you can remember. The images can be said in any order.</p>""]","","4","maintaining_a_car_semantic"
"","","","","","image-button-response","17","515362","0.0-15.0-0.0","EC3133DD818C4C2390386BB259BE656A","EC3133DD818C4C2390386BB259BE656A","0198c322-bd8f-722d-ac51-91e101cb69e5","0198c320-653a-770c-93e4-41e10e7faa5f","{""num_scrambled_semantic"":""8"",""num_scrambled_causal"":""4"",""num_scrambled_schematic"":""4"",""participantId"":""EC3133DD818C4C2390386BB259BE656A"",""assignmentId"":""0198c322-bd8f-722d-ac51-91e101cb69e5"",""projectId"":""0198c320-653a-770c-93e4-41e10e7faa5f""}","https://test12345.live/?num_scrambled_semantic=8&num_scrambled_causal=4&num_scrambled_schematic=4&participantId=EC3133DD818C4C2390386BB259BE656A&assignmentId=0198c322-bd8f-722d-ac51-91e101cb69e5&projectId=0198c320-653a-770c-93e4-41e10e7faa5f","EC3133DD818C4C2390386BB259BE656A-2025-08-19-16-36-08","","null","","images/semantic_sequence/housework_semantic/housework_semantic_0.png","null","",""
"","","","","","html-audio-response","18","555849","0.0-16.0","EC3133DD818C4C2390386BB259BE656A","EC3133DD818C4C2390386BB259BE656A","0198c322-bd8f-722d-ac51-91e101cb69e5","0198c320-653a-770c-93e4-41e10e7faa5f","{""num_scrambled_semantic"":""8"",""num_scrambled_causal"":""4"",""num_scrambled_schematic"":""4"",""participantId"":""EC3133DD818C4C2390386BB259BE656A"",""assignmentId"":""0198c322-bd8f-722d-ac51-91e101cb69e5"",""projectId"":""0198c320-653a-770c-93e4-41e10e7faa5f""}","https://test12345.live/?num_scrambled_semantic=8&num_scrambled_causal=4&num_scrambled_schematic=4&participantId=EC3133DD818C4C2390386BB259BE656A&assignmentId=0198c322-bd8f-722d-ac51-91e101cb69e5&projectId=0198c320-653a-770c-93e4-41e10e7faa5f","EC3133DD818C4C2390386BB259BE656A-2025-08-19-16-36-08","","28950","","[""<span style=\""color: red; font-size: 24px\""> NOW RECORDING</span><p>Please say out loud all the images you saw in part 1 of the experiment, as many as you can remember. The images can be said in any order.</p>""]","","2","housework_semantic"
"","","","","","image-button-response","19","561888","0.0-17.0-0.0","EC3133DD818C4C2390386BB259BE656A","EC3133DD818C4C2390386BB259BE656A","0198c322-bd8f-722d-ac51-91e101cb69e5","0198c320-653a-770c-93e4-41e10e7faa5f","{""num_scrambled_semantic"":""8"",""num_scrambled_causal"":""4"",""num_scrambled_schematic"":""4"",""participantId"":""EC3133DD818C4C2390386BB259BE656A"",""assignmentId"":""0198c322-bd8f-722d-ac51-91e101cb69e5"",""projectId"":""0198c320-653a-770c-93e4-41e10e7faa5f""}","https://test12345.live/?num_scrambled_semantic=8&num_scrambled_causal=4&num_scrambled_schematic=4&participantId=EC3133DD818C4C2390386BB259BE656A&assignmentId=0198c322-bd8f-722d-ac51-91e101cb69e5&projectId=0198c320-653a-770c-93e4-41e10e7faa5f","EC3133DD818C4C2390386BB259BE656A-2025-08-19-16-36-08","","null","","images/semantic_sequence/cat_care_semantic/cat_care_semantic_0.png","null","",""
"","","","","","html-audio-response","20","592207","0.0-18.0","EC3133DD818C4C2390386BB259BE656A","EC3133DD818C4C2390386BB259BE656A","0198c322-bd8f-722d-ac51-91e101cb69e5","0198c320-653a-770c-93e4-41e10e7faa5f","{""num_scrambled_semantic"":""8"",""num_scrambled_causal"":""4"",""num_scrambled_schematic"":""4"",""participantId"":""EC3133DD818C4C2390386BB259BE656A"",""assignmentId"":""0198c322-bd8f-722d-ac51-91e101cb69e5"",""projectId"":""0198c320-653a-770c-93e4-41e10e7faa5f""}","https://test12345.live/?num_scrambled_semantic=8&num_scrambled_causal=4&num_scrambled_schematic=4&participantId=EC3133DD818C4C2390386BB259BE656A&assignmentId=0198c322-bd8f-722d-ac51-91e101cb69e5&projectId=0198c320-653a-770c-93e4-41e10e7faa5f","EC3133DD818C4C2390386BB259BE656A-2025-08-19-16-36-08","","27769","","[""<span style=\""color: red; font-size: 24px\""> NOW RECORDING</span><p>Please say out loud all the images you saw in part 1 of the experiment, as many as you can remember. The images can be said in any order.</p>""]","","1","cat_care_semantic"
"","","","","","image-button-response","21","598245","0.0-19.0-0.0","EC3133DD818C4C2390386BB259BE656A","EC3133DD818C4C2390386BB259BE656A","0198c322-bd8f-722d-ac51-91e101cb69e5","0198c320-653a-770c-93e4-41e10e7faa5f","{""num_scrambled_semantic"":""8"",""num_scrambled_causal"":""4"",""num_scrambled_schematic"":""4"",""participantId"":""EC3133DD818C4C2390386BB259BE656A"",""assignmentId"":""0198c322-bd8f-722d-ac51-91e101cb69e5"",""projectId"":""0198c320-653a-770c-93e4-41e10e7faa5f""}","https://test12345.live/?num_scrambled_semantic=8&num_scrambled_causal=4&num_scrambled_schematic=4&participantId=EC3133DD818C4C2390386BB259BE656A&assignmentId=0198c322-bd8f-722d-ac51-91e101cb69e5&projectId=0198c320-653a-770c-93e4-41e10e7faa5f","EC3133DD818C4C2390386BB259BE656A-2025-08-19-16-36-08","","null","","images/causal_sequence/museum_causal/museum_causal_0.png","null","",""
"","","","","","html-audio-response","22","630161","0.0-20.0","EC3133DD818C4C2390386BB259BE656A","EC3133DD818C4C2390386BB259BE656A","0198c322-bd8f-722d-ac51-91e101cb69e5","0198c320-653a-770c-93e4-41e10e7faa5f","{""num_scrambled_semantic"":""8"",""num_scrambled_causal"":""4"",""num_scrambled_schematic"":""4"",""participantId"":""EC3133DD818C4C2390386BB259BE656A"",""assignmentId"":""0198c322-bd8f-722d-ac51-91e101cb69e5"",""projectId"":""0198c320-653a-770c-93e4-41e10e7faa5f""}","https://test12345.live/?num_scrambled_semantic=8&num_scrambled_causal=4&num_scrambled_schematic=4&participantId=EC3133DD818C4C2390386BB259BE656A&assignmentId=0198c322-bd8f-722d-ac51-91e101cb69e5&projectId=0198c320-653a-770c-93e4-41e10e7faa5f","EC3133DD818C4C2390386BB259BE656A-2025-08-19-16-36-08","","25443","","[""<span style=\""color: red; font-size: 24px\""> NOW RECORDING</span><p>Please say out loud all the images you saw in part 1 of the experiment, as many as you can remember. The images can be said in any order.</p>""]","","3","museum_causal"
"","","","","","image-button-response","23","636178","0.0-21.0-0.0","EC3133DD818C4C2390386BB259BE656A","EC3133DD818C4C2390386BB259BE656A","0198c322-bd8f-722d-ac51-91e101cb69e5","0198c320-653a-770c-93e4-41e10e7faa5f","{""num_scrambled_semantic"":""8"",""num_scrambled_causal"":""4"",""num_scrambled_schematic"":""4"",""participantId"":""EC3133DD818C4C2390386BB259BE656A"",""assignmentId"":""0198c322-bd8f-722d-ac51-91e101cb69e5"",""projectId"":""0198c320-653a-770c-93e4-41e10e7faa5f""}","https://test12345.live/?num_scrambled_semantic=8&num_scrambled_causal=4&num_scrambled_schematic=4&participantId=EC3133DD818C4C2390386BB259BE656A&assignmentId=0198c322-bd8f-722d-ac51-91e101cb69e5&projectId=0198c320-653a-770c-93e4-41e10e7faa5f","EC3133DD818C4C2390386BB259BE656A-2025-08-19-16-36-08","","null","","images/causal_sequence/package_causal/package_causal_0.png","null","",""
"","","","","","html-audio-response","24","662796","0.0-22.0","EC3133DD818C4C2390386BB259BE656A","EC3133DD818C4C2390386BB259BE656A","0198c322-bd8f-722d-ac51-91e101cb69e5","0198c320-653a-770c-93e4-41e10e7faa5f","{""num_scrambled_semantic"":""8"",""num_scrambled_causal"":""4"",""num_scrambled_schematic"":""4"",""participantId"":""EC3133DD818C4C2390386BB259BE656A"",""assignmentId"":""0198c322-bd8f-722d-ac51-91e101cb69e5"",""projectId"":""0198c320-653a-770c-93e4-41e10e7faa5f""}","https://test12345.live/?num_scrambled_semantic=8&num_scrambled_causal=4&num_scrambled_schematic=4&participantId=EC3133DD818C4C2390386BB259BE656A&assignmentId=0198c322-bd8f-722d-ac51-91e101cb69e5&projectId=0198c320-653a-770c-93e4-41e10e7faa5f","EC3133DD818C4C2390386BB259BE656A-2025-08-19-16-36-08","","23313","","[""<span style=\""color: red; font-size: 24px\""> NOW RECORDING</span><p>Please say out loud all the images you saw in part 1 of the experiment, as many as you can remember. The images can be said in any order.</p>""]","","3","package_causal"
"","","","","","image-button-response","25","668832","0.0-23.0-0.0","EC3133DD818C4C2390386BB259BE656A","EC3133DD818C4C2390386BB259BE656A","0198c322-bd8f-722d-ac51-91e101cb69e5","0198c320-653a-770c-93e4-41e10e7faa5f","{""num_scrambled_semantic"":""8"",""num_scrambled_causal"":""4"",""num_scrambled_schematic"":""4"",""participantId"":""EC3133DD818C4C2390386BB259BE656A"",""assignmentId"":""0198c322-bd8f-722d-ac51-91e101cb69e5"",""projectId"":""0198c320-653a-770c-93e4-41e10e7faa5f""}","https://test12345.live/?num_scrambled_semantic=8&num_scrambled_causal=4&num_scrambled_schematic=4&participantId=EC3133DD818C4C2390386BB259BE656A&assignmentId=0198c322-bd8f-722d-ac51-91e101cb69e5&projectId=0198c320-653a-770c-93e4-41e10e7faa5f","EC3133DD818C4C2390386BB259BE656A-2025-08-19-16-36-08","","null","","images/causal_sequence/the_performance_causal/the_performance_causal_0.png","null","",""
"","","","","","html-audio-response","26","695511","0.0-24.0","EC3133DD818C4C2390386BB259BE656A","EC3133DD818C4C2390386BB259BE656A","0198c322-bd8f-722d-ac51-91e101cb69e5","0198c320-653a-770c-93e4-41e10e7faa5f","{""num_scrambled_semantic"":""8"",""num_scrambled_causal"":""4"",""num_scrambled_schematic"":""4"",""participantId"":""EC3133DD818C4C2390386BB259BE656A"",""assignmentId"":""0198c322-bd8f-722d-ac51-91e101cb69e5"",""projectId"":""0198c320-653a-770c-93e4-41e10e7faa5f""}","https://test12345.live/?num_scrambled_semantic=8&num_scrambled_causal=4&num_scrambled_schematic=4&participantId=EC3133DD818C4C2390386BB259BE656A&assignmentId=0198c322-bd8f-722d-ac51-91e101cb69e5&projectId=0198c320-653a-770c-93e4-41e10e7faa5f","EC3133DD818C4C2390386BB259BE656A-2025-08-19-16-36-08","","25376","","[""<span style=\""color: red; font-size: 24px\""> NOW RECORDING</span><p>Please say out loud all the images you saw in part 1 of the experiment, as many as you can remember. The images can be said in any order.</p>""]","","3","the_performance_causal"
"","","","","","image-button-response","27","701526","0.0-25.0-0.0","EC3133DD818C4C2390386BB259BE656A","EC3133DD818C4C2390386BB259BE656A","0198c322-bd8f-722d-ac51-91e101cb69e5","0198c320-653a-770c-93e4-41e10e7faa5f","{""num_scrambled_semantic"":""8"",""num_scrambled_causal"":""4"",""num_scrambled_schematic"":""4"",""participantId"":""EC3133DD818C4C2390386BB259BE656A"",""assignmentId"":""0198c322-bd8f-722d-ac51-91e101cb69e5"",""projectId"":""0198c320-653a-770c-93e4-41e10e7faa5f""}","https://test12345.live/?num_scrambled_semantic=8&num_scrambled_causal=4&num_scrambled_schematic=4&participantId=EC3133DD818C4C2390386BB259BE656A&assignmentId=0198c322-bd8f-722d-ac51-91e101cb69e5&projectId=0198c320-653a-770c-93e4-41e10e7faa5f","EC3133DD818C4C2390386BB259BE656A-2025-08-19-16-36-08","","null","","images/semantic_sequence/redecorating_semantic/redecorating_semantic_0.png","null","",""
"","","","","","html-audio-response","28","729244","0.0-26.0","EC3133DD818C4C2390386BB259BE656A","EC3133DD818C4C2390386BB259BE656A","0198c322-bd8f-722d-ac51-91e101cb69e5","0198c320-653a-770c-93e4-41e10e7faa5f","{""num_scrambled_semantic"":""8"",""num_scrambled_causal"":""4"",""num_scrambled_schematic"":""4"",""participantId"":""EC3133DD818C4C2390386BB259BE656A"",""assignmentId"":""0198c322-bd8f-722d-ac51-91e101cb69e5"",""projectId"":""0198c320-653a-770c-93e4-41e10e7faa5f""}","https://test12345.live/?num_scrambled_semantic=8&num_scrambled_causal=4&num_scrambled_schematic=4&participantId=EC3133DD818C4C2390386BB259BE656A&assignmentId=0198c322-bd8f-722d-ac51-91e101cb69e5&projectId=0198c320-653a-770c-93e4-41e10e7faa5f","EC3133DD818C4C2390386BB259BE656A-2025-08-19-16-36-08","","26359","","[""<span style=\""color: red; font-size: 24px\""> NOW RECORDING</span><p>Please say out loud all the images you saw in part 1 of the experiment, as many as you can remember. The images can be said in any order.</p>""]","","3","redecorating_semantic"
"","","","","","image-button-response","29","735281","0.0-27.0-0.0","EC3133DD818C4C2390386BB259BE656A","EC3133DD818C4C2390386BB259BE656A","0198c322-bd8f-722d-ac51-91e101cb69e5","0198c320-653a-770c-93e4-41e10e7faa5f","{""num_scrambled_semantic"":""8"",""num_scrambled_causal"":""4"",""num_scrambled_schematic"":""4"",""participantId"":""EC3133DD818C4C2390386BB259BE656A"",""assignmentId"":""0198c322-bd8f-722d-ac51-91e101cb69e5"",""projectId"":""0198c320-653a-770c-93e4-41e10e7faa5f""}","https://test12345.live/?num_scrambled_semantic=8&num_scrambled_causal=4&num_scrambled_schematic=4&participantId=EC3133DD818C4C2390386BB259BE656A&assignmentId=0198c322-bd8f-722d-ac51-91e101cb69e5&projectId=0198c320-653a-770c-93e4-41e10e7faa5f","EC3133DD818C4C2390386BB259BE656A-2025-08-19-16-36-08","","null","","images/semantic_sequence/creative_activities_semantic/creative_activities_semantic_0.png","null","",""
"","","","","","html-audio-response","30","760677","0.0-28.0","EC3133DD818C4C2390386BB259BE656A","EC3133DD818C4C2390386BB259BE656A","0198c322-bd8f-722d-ac51-91e101cb69e5","0198c320-653a-770c-93e4-41e10e7faa5f","{""num_scrambled_semantic"":""8"",""num_scrambled_causal"":""4"",""num_scrambled_schematic"":""4"",""participantId"":""EC3133DD818C4C2390386BB259BE656A"",""assignmentId"":""0198c322-bd8f-722d-ac51-91e101cb69e5"",""projectId"":""0198c320-653a-770c-93e4-41e10e7faa5f""}","https://test12345.live/?num_scrambled_semantic=8&num_scrambled_causal=4&num_scrambled_schematic=4&participantId=EC3133DD818C4C2390386BB259BE656A&assignmentId=0198c322-bd8f-722d-ac51-91e101cb69e5&projectId=0198c320-653a-770c-93e4-41e10e7faa5f","EC3133DD818C4C2390386BB259BE656A-2025-08-19-16-36-08","","23682","","[""<span style=\""color: red; font-size: 24px\""> NOW RECORDING</span><p>Please say out loud all the images you saw in part 1 of the experiment, as many as you can remember. The images can be said in any order.</p>""]","","3","creative_activities_semantic"
"","","","","","image-button-response","31","766698","0.0-29.0-0.0","EC3133DD818C4C2390386BB259BE656A","EC3133DD818C4C2390386BB259BE656A","0198c322-bd8f-722d-ac51-91e101cb69e5","0198c320-653a-770c-93e4-41e10e7faa5f","{""num_scrambled_semantic"":""8"",""num_scrambled_causal"":""4"",""num_scrambled_schematic"":""4"",""participantId"":""EC3133DD818C4C2390386BB259BE656A"",""assignmentId"":""0198c322-bd8f-722d-ac51-91e101cb69e5"",""projectId"":""0198c320-653a-770c-93e4-41e10e7faa5f""}","https://test12345.live/?num_scrambled_semantic=8&num_scrambled_causal=4&num_scrambled_schematic=4&participantId=EC3133DD818C4C2390386BB259BE656A&assignmentId=0198c322-bd8f-722d-ac51-91e101cb69e5&projectId=0198c320-653a-770c-93e4-41e10e7faa5f","EC3133DD818C4C2390386BB259BE656A-2025-08-19-16-36-08","","null","","images/semantic_sequence/physical_activity_semantic/physical_activity_semantic_0.png","null","",""
"","","","","","html-audio-response","32","788764","0.0-30.0","EC3133DD818C4C2390386BB259BE656A","EC3133DD818C4C2390386BB259BE656A","0198c322-bd8f-722d-ac51-91e101cb69e5","0198c320-653a-770c-93e4-41e10e7faa5f","{""num_scrambled_semantic"":""8"",""num_scrambled_causal"":""4"",""num_scrambled_schematic"":""4"",""participantId"":""EC3133DD818C4C2390386BB259BE656A"",""assignmentId"":""0198c322-bd8f-722d-ac51-91e101cb69e5"",""projectId"":""0198c320-653a-770c-93e4-41e10e7faa5f""}","https://test12345.live/?num_scrambled_semantic=8&num_scrambled_causal=4&num_scrambled_schematic=4&participantId=EC3133DD818C4C2390386BB259BE656A&assignmentId=0198c322-bd8f-722d-ac51-91e101cb69e5&projectId=0198c320-653a-770c-93e4-41e10e7faa5f","EC3133DD818C4C2390386BB259BE656A-2025-08-19-16-36-08","","20738","","[""<span style=\""color: red; font-size: 24px\""> NOW RECORDING</span><p>Please say out loud all the images you saw in part 1 of the experiment, as many as you can remember. The images can be said in any order.</p>""]","","3","physical_activity_semantic"
"","","","","","image-button-response","33","794795","0.0-31.0-0.0","EC3133DD818C4C2390386BB259BE656A","EC3133DD818C4C2390386BB259BE656A","0198c322-bd8f-722d-ac51-91e101cb69e5","0198c320-653a-770c-93e4-41e10e7faa5f","{""num_scrambled_semantic"":""8"",""num_scrambled_causal"":""4"",""num_scrambled_schematic"":""4"",""participantId"":""EC3133DD818C4C2390386BB259BE656A"",""assignmentId"":""0198c322-bd8f-722d-ac51-91e101cb69e5"",""projectId"":""0198c320-653a-770c-93e4-41e10e7faa5f""}","https://test12345.live/?num_scrambled_semantic=8&num_scrambled_causal=4&num_scrambled_schematic=4&participantId=EC3133DD818C4C2390386BB259BE656A&assignmentId=0198c322-bd8f-722d-ac51-91e101cb69e5&projectId=0198c320-653a-770c-93e4-41e10e7faa5f","EC3133DD818C4C2390386BB259BE656A-2025-08-19-16-36-08","","null","","images/causal_sequence/dog_causal/dog_causal_0.png","null","",""
"","","","","","html-audio-response","34","820935","0.0-32.0","EC3133DD818C4C2390386BB259BE656A","EC3133DD818C4C2390386BB259BE656A","0198c322-bd8f-722d-ac51-91e101cb69e5","0198c320-653a-770c-93e4-41e10e7faa5f","{""num_scrambled_semantic"":""8"",""num_scrambled_causal"":""4"",""num_scrambled_schematic"":""4"",""participantId"":""EC3133DD818C4C2390386BB259BE656A"",""assignmentId"":""0198c322-bd8f-722d-ac51-91e101cb69e5"",""projectId"":""0198c320-653a-770c-93e4-41e10e7faa5f""}","https://test12345.live/?num_scrambled_semantic=8&num_scrambled_causal=4&num_scrambled_schematic=4&participantId=EC3133DD818C4C2390386BB259BE656A&assignmentId=0198c322-bd8f-722d-ac51-91e101cb69e5&projectId=0198c320-653a-770c-93e4-41e10e7faa5f","EC3133DD818C4C2390386BB259BE656A-2025-08-19-16-36-08","","24388","","[""<span style=\""color: red; font-size: 24px\""> NOW RECORDING</span><p>Please say out loud all the images you saw in part 1 of the experiment, as many as you can remember. The images can be said in any order.</p>""]","","3","dog_causal"
"","","","","","image-button-response","35","826962","0.0-33.0-0.0","EC3133DD818C4C2390386BB259BE656A","EC3133DD818C4C2390386BB259BE656A","0198c322-bd8f-722d-ac51-91e101cb69e5","0198c320-653a-770c-93e4-41e10e7faa5f","{""num_scrambled_semantic"":""8"",""num_scrambled_causal"":""4"",""num_scrambled_schematic"":""4"",""participantId"":""EC3133DD818C4C2390386BB259BE656A"",""assignmentId"":""0198c322-bd8f-722d-ac51-91e101cb69e5"",""projectId"":""0198c320-653a-770c-93e4-41e10e7faa5f""}","https://test12345.live/?num_scrambled_semantic=8&num_scrambled_causal=4&num_scrambled_schematic=4&participantId=EC3133DD818C4C2390386BB259BE656A&assignmentId=0198c322-bd8f-722d-ac51-91e101cb69e5&projectId=0198c320-653a-770c-93e4-41e10e7faa5f","EC3133DD818C4C2390386BB259BE656A-2025-08-19-16-36-08","","null","","images/semantic_sequence/using_technology_semantic/using_technology_semantic_0.png","null","",""
"","","","","","html-audio-response","36","864199","0.0-34.0","EC3133DD818C4C2390386BB259BE656A","EC3133DD818C4C2390386BB259BE656A","0198c322-bd8f-722d-ac51-91e101cb69e5","0198c320-653a-770c-93e4-41e10e7faa5f","{""num_scrambled_semantic"":""8"",""num_scrambled_causal"":""4"",""num_scrambled_schematic"":""4"",""participantId"":""EC3133DD818C4C2390386BB259BE656A"",""assignmentId"":""0198c322-bd8f-722d-ac51-91e101cb69e5"",""projectId"":""0198c320-653a-770c-93e4-41e10e7faa5f""}","https://test12345.live/?num_scrambled_semantic=8&num_scrambled_causal=4&num_scrambled_schematic=4&participantId=EC3133DD818C4C2390386BB259BE656A&assignmentId=0198c322-bd8f-722d-ac51-91e101cb69e5&projectId=0198c320-653a-770c-93e4-41e10e7faa5f","EC3133DD818C4C2390386BB259BE656A-2025-08-19-16-36-08","","24166","","[""<span style=\""color: red; font-size: 24px\""> NOW RECORDING</span><p>Please say out loud all the images you saw in part 1 of the experiment, as many as you can remember. The images can be said in any order.</p>""]","","4","using_technology_semantic"
"","","","","","survey-text","37","877067","0.0-35.0","EC3133DD818C4C2390386BB259BE656A","EC3133DD818C4C2390386BB259BE656A","0198c322-bd8f-722d-ac51-91e101cb69e5","0198c320-653a-770c-93e4-41e10e7faa5f","{""num_scrambled_semantic"":""8"",""num_scrambled_causal"":""4"",""num_scrambled_schematic"":""4"",""participantId"":""EC3133DD818C4C2390386BB259BE656A"",""assignmentId"":""0198c322-bd8f-722d-ac51-91e101cb69e5"",""projectId"":""0198c320-653a-770c-93e4-41e10e7faa5f""}","https://test12345.live/?num_scrambled_semantic=8&num_scrambled_causal=4&num_scrambled_schematic=4&participantId=EC3133DD818C4C2390386BB259BE656A&assignmentId=0198c322-bd8f-722d-ac51-91e101cb69e5&projectId=0198c320-653a-770c-93e4-41e10e7faa5f","EC3133DD818C4C2390386BB259BE656A-2025-08-19-16-36-08","","12844","","","{""Q0"":""Female"",""Q1"":""20""}","",""
"","","","","","instructions","38","881945","0.0-36.0","EC3133DD818C4C2390386BB259BE656A","EC3133DD818C4C2390386BB259BE656A","0198c322-bd8f-722d-ac51-91e101cb69e5","0198c320-653a-770c-93e4-41e10e7faa5f","{""num_scrambled_semantic"":""8"",""num_scrambled_causal"":""4"",""num_scrambled_schematic"":""4"",""participantId"":""EC3133DD818C4C2390386BB259BE656A"",""assignmentId"":""0198c322-bd8f-722d-ac51-91e101cb69e5"",""projectId"":""0198c320-653a-770c-93e4-41e10e7faa5f""}","https://test12345.live/?num_scrambled_semantic=8&num_scrambled_causal=4&num_scrambled_schematic=4&participantId=EC3133DD818C4C2390386BB259BE656A&assignmentId=0198c322-bd8f-722d-ac51-91e101cb69e5&projectId=0198c320-653a-770c-93e4-41e10e7faa5f","EC3133DD818C4C2390386BB259BE656A-2025-08-19-16-36-08","[{""page_index"":0,""viewing_time"":4876}]","4877","","","","",""
"","","","","","survey-text","39","886046","0.0-37.0","EC3133DD818C4C2390386BB259BE656A","EC3133DD818C4C2390386BB259BE656A","0198c322-bd8f-722d-ac51-91e101cb69e5","0198c320-653a-770c-93e4-41e10e7faa5f","{""num_scrambled_semantic"":""8"",""num_scrambled_causal"":""4"",""num_scrambled_schematic"":""4"",""participantId"":""EC3133DD818C4C2390386BB259BE656A"",""assignmentId"":""0198c322-bd8f-722d-ac51-91e101cb69e5"",""projectId"":""0198c320-653a-770c-93e4-41e10e7faa5f""}","https://test12345.live/?num_scrambled_semantic=8&num_scrambled_causal=4&num_scrambled_schematic=4&participantId=EC3133DD818C4C2390386BB259BE656A&assignmentId=0198c322-bd8f-722d-ac51-91e101cb69e5&projectId=0198c320-653a-770c-93e4-41e10e7faa5f","EC3133DD818C4C2390386BB259BE656A-2025-08-19-16-36-08","","4095","","","{""Q0"":""AJFHBG896""}","",""
