"success","timeout","failed_images","failed_audio","failed_video","trial_type","trial_index","time_elapsed","internal_node_id","subject","subject_id","study_id","session_id","urlvar","current_url","audio_id","view_history","rt","device_id","stimulus","response","estimated_stimulus_onset","seq_name"
"true","false","[]","[]","[]","preload","0","5712","0.0-0.0","ED9A8849B97549E7B49FF01230BC550F","ED9A8849B97549E7B49FF01230BC550F","0198c232-4fa9-786d-8b22-47e447008dc9","0198c075-3de9-7cab-996b-8cffe1adb15f","{""num_scrambled_semantic"":""8"",""num_scrambled_causal"":""4"",""num_scrambled_schematic"":""4"",""participantId"":""ED9A8849B97549E7B49FF01230BC550F"",""assignmentId"":""0198c232-4fa9-786d-8b22-47e447008dc9"",""projectId"":""0198c075-3de9-7cab-996b-8cffe1adb15f""}","https://test12345.live/?num_scrambled_semantic=8&num_scrambled_causal=4&num_scrambled_schematic=4&participantId=ED9A8849B97549E7B49FF01230BC550F&assignmentId=0198c232-4fa9-786d-8b22-47e447008dc9&projectId=0198c075-3de9-7cab-996b-8cffe1adb15f","ED9A8849B97549E7B49FF01230BC550F-2025-08-19-12-03-22","","","","","","",""
"","","","","","instructions","1","18294","0.0-1.0","ED9A8849B97549E7B49FF01230BC550F","ED9A8849B97549E7B49FF01230BC550F","0198c232-4fa9-786d-8b22-47e447008dc9","0198c075-3de9-7cab-996b-8cffe1adb15f","{""num_scrambled_semantic"":""8"",""num_scrambled_causal"":""4"",""num_scrambled_schematic"":""4"",""participantId"":""ED9A8849B97549E7B49FF01230BC550F"",""assignmentId"":""0198c232-4fa9-786d-8b22-47e447008dc9"",""projectId"":""0198c075-3de9-7cab-996b-8cffe1adb15f""}","https://test12345.live/?num_scrambled_semantic=8&num_scrambled_causal=4&num_scrambled_schematic=4&participantId=ED9A8849B97549E7B49FF01230BC550F&assignmentId=0198c232-4fa9-786d-8b22-47e447008dc9&projectId=0198c075-3de9-7cab-996b-8cffe1adb15f","ED9A8849B97549E7B49FF01230BC550F-2025-08-19-12-03-22","[{""page_index"":0,""viewing_time"":12582}]","12582","","","","",""
"","","","","","instructions","2","21180","0.0-2.0","ED9A8849B97549E7B49FF01230BC550F","ED9A8849B97549E7B49FF01230BC550F","0198c232-4fa9-786d-8b22-47e447008dc9","0198c075-3de9-7cab-996b-8cffe1adb15f","{""num_scrambled_semantic"":""8"",""num_scrambled_causal"":""4"",""num_scrambled_schematic"":""4"",""participantId"":""ED9A8849B97549E7B49FF01230BC550F"",""assignmentId"":""0198c232-4fa9-786d-8b22-47e447008dc9"",""projectId"":""0198c075-3de9-7cab-996b-8cffe1adb15f""}","https://test12345.live/?num_scrambled_semantic=8&num_scrambled_causal=4&num_scrambled_schematic=4&participantId=ED9A8849B97549E7B49FF01230BC550F&assignmentId=0198c232-4fa9-786d-8b22-47e447008dc9&projectId=0198c075-3de9-7cab-996b-8cffe1adb15f","ED9A8849B97549E7B49FF01230BC550F-2025-08-19-12-03-22","[{""page_index"":0,""viewing_time"":2885}]","2885","","","","",""
"true","","","","","fullscreen","3","24792","0.0-3.0","ED9A8849B97549E7B49FF01230BC550F","ED9A8849B97549E7B49FF01230BC550F","0198c232-4fa9-786d-8b22-47e447008dc9","0198c075-3de9-7cab-996b-8cffe1adb15f","{""num_scrambled_semantic"":""8"",""num_scrambled_causal"":""4"",""num_scrambled_schematic"":""4"",""participantId"":""ED9A8849B97549E7B49FF01230BC550F"",""assignmentId"":""0198c232-4fa9-786d-8b22-47e447008dc9"",""projectId"":""0198c075-3de9-7cab-996b-8cffe1adb15f""}","https://test12345.live/?num_scrambled_semantic=8&num_scrambled_causal=4&num_scrambled_schematic=4&participantId=ED9A8849B97549E7B49FF01230BC550F&assignmentId=0198c232-4fa9-786d-8b22-47e447008dc9&projectId=0198c075-3de9-7cab-996b-8cffe1adb15f","ED9A8849B97549E7B49FF01230BC550F-2025-08-19-12-03-22","","2608","","","","",""
"","","","","","initialize-microphone","4","30780","0.0-4.0-0.0","ED9A8849B97549E7B49FF01230BC550F","ED9A8849B97549E7B49FF01230BC550F","0198c232-4fa9-786d-8b22-47e447008dc9","0198c075-3de9-7cab-996b-8cffe1adb15f","{""num_scrambled_semantic"":""8"",""num_scrambled_causal"":""4"",""num_scrambled_schematic"":""4"",""participantId"":""ED9A8849B97549E7B49FF01230BC550F"",""assignmentId"":""0198c232-4fa9-786d-8b22-47e447008dc9"",""projectId"":""0198c075-3de9-7cab-996b-8cffe1adb15f""}","https://test12345.live/?num_scrambled_semantic=8&num_scrambled_causal=4&num_scrambled_schematic=4&participantId=ED9A8849B97549E7B49FF01230BC550F&assignmentId=0198c232-4fa9-786d-8b22-47e447008dc9&projectId=0198c075-3de9-7cab-996b-8cffe1adb15f","ED9A8849B97549E7B49FF01230BC550F-2025-08-19-12-03-22","","","8a84f008e44df4e57f20ee97cce47ee6bcffd41bd08c34f9cb06d9f846b9ab71","","","",""
"","","","","","html-audio-response","5","38968","0.0-4.0-1.0","ED9A8849B97549E7B49FF01230BC550F","ED9A8849B97549E7B49FF01230BC550F","0198c232-4fa9-786d-8b22-47e447008dc9","0198c075-3de9-7cab-996b-8cffe1adb15f","{""num_scrambled_semantic"":""8"",""num_scrambled_causal"":""4"",""num_scrambled_schematic"":""4"",""participantId"":""ED9A8849B97549E7B49FF01230BC550F"",""assignmentId"":""0198c232-4fa9-786d-8b22-47e447008dc9"",""projectId"":""0198c075-3de9-7cab-996b-8cffe1adb15f""}","https://test12345.live/?num_scrambled_semantic=8&num_scrambled_causal=4&num_scrambled_schematic=4&participantId=ED9A8849B97549E7B49FF01230BC550F&assignmentId=0198c232-4fa9-786d-8b22-47e447008dc9&projectId=0198c075-3de9-7cab-996b-8cffe1adb15f","ED9A8849B97549E7B49FF01230BC550F-2025-08-19-12-03-22","","2364","","<span style=""color: red; font-size: 24px""> NOW RECORDING</span>
        <p>Please test Microphone</p>","","5",""
"","","","","","html-button-response","6","41662","0.0-4.0-2.0","ED9A8849B97549E7B49FF01230BC550F","ED9A8849B97549E7B49FF01230BC550F","0198c232-4fa9-786d-8b22-47e447008dc9","0198c075-3de9-7cab-996b-8cffe1adb15f","{""num_scrambled_semantic"":""8"",""num_scrambled_causal"":""4"",""num_scrambled_schematic"":""4"",""participantId"":""ED9A8849B97549E7B49FF01230BC550F"",""assignmentId"":""0198c232-4fa9-786d-8b22-47e447008dc9"",""projectId"":""0198c075-3de9-7cab-996b-8cffe1adb15f""}","https://test12345.live/?num_scrambled_semantic=8&num_scrambled_causal=4&num_scrambled_schematic=4&participantId=ED9A8849B97549E7B49FF01230BC550F&assignmentId=0198c232-4fa9-786d-8b22-47e447008dc9&projectId=0198c075-3de9-7cab-996b-8cffe1adb15f","ED9A8849B97549E7B49FF01230BC550F-2025-08-19-12-03-22","","2693","","<p style=""font-size:48px; color:red;"">Is Microphone OK?</p>","1","",""
"","","","","","instructions","7","47004","0.0-5.0","ED9A8849B97549E7B49FF01230BC550F","ED9A8849B97549E7B49FF01230BC550F","0198c232-4fa9-786d-8b22-47e447008dc9","0198c075-3de9-7cab-996b-8cffe1adb15f","{""num_scrambled_semantic"":""8"",""num_scrambled_causal"":""4"",""num_scrambled_schematic"":""4"",""participantId"":""ED9A8849B97549E7B49FF01230BC550F"",""assignmentId"":""0198c232-4fa9-786d-8b22-47e447008dc9"",""projectId"":""0198c075-3de9-7cab-996b-8cffe1adb15f""}","https://test12345.live/?num_scrambled_semantic=8&num_scrambled_causal=4&num_scrambled_schematic=4&participantId=ED9A8849B97549E7B49FF01230BC550F&assignmentId=0198c232-4fa9-786d-8b22-47e447008dc9&projectId=0198c075-3de9-7cab-996b-8cffe1adb15f","ED9A8849B97549E7B49FF01230BC550F-2025-08-19-12-03-22","[{""page_index"":0,""viewing_time"":1454},{""page_index"":1,""viewing_time"":2236},{""page_index"":2,""viewing_time"":1650}]","5341","","","","",""
"","","","","","image-button-response","8","53017","0.0-6.0-0.0","ED9A8849B97549E7B49FF01230BC550F","ED9A8849B97549E7B49FF01230BC550F","0198c232-4fa9-786d-8b22-47e447008dc9","0198c075-3de9-7cab-996b-8cffe1adb15f","{""num_scrambled_semantic"":""8"",""num_scrambled_causal"":""4"",""num_scrambled_schematic"":""4"",""participantId"":""ED9A8849B97549E7B49FF01230BC550F"",""assignmentId"":""0198c232-4fa9-786d-8b22-47e447008dc9"",""projectId"":""0198c075-3de9-7cab-996b-8cffe1adb15f""}","https://test12345.live/?num_scrambled_semantic=8&num_scrambled_causal=4&num_scrambled_schematic=4&participantId=ED9A8849B97549E7B49FF01230BC550F&assignmentId=0198c232-4fa9-786d-8b22-47e447008dc9&projectId=0198c075-3de9-7cab-996b-8cffe1adb15f","ED9A8849B97549E7B49FF01230BC550F-2025-08-19-12-03-22","","null","","images/instructions/movie_0.png","null","",""
"","","","","","html-audio-response","9","71111","0.0-7.0","ED9A8849B97549E7B49FF01230BC550F","ED9A8849B97549E7B49FF01230BC550F","0198c232-4fa9-786d-8b22-47e447008dc9","0198c075-3de9-7cab-996b-8cffe1adb15f","{""num_scrambled_semantic"":""8"",""num_scrambled_causal"":""4"",""num_scrambled_schematic"":""4"",""participantId"":""ED9A8849B97549E7B49FF01230BC550F"",""assignmentId"":""0198c232-4fa9-786d-8b22-47e447008dc9"",""projectId"":""0198c075-3de9-7cab-996b-8cffe1adb15f""}","https://test12345.live/?num_scrambled_semantic=8&num_scrambled_causal=4&num_scrambled_schematic=4&participantId=ED9A8849B97549E7B49FF01230BC550F&assignmentId=0198c232-4fa9-786d-8b22-47e447008dc9&projectId=0198c075-3de9-7cab-996b-8cffe1adb15f","ED9A8849B97549E7B49FF01230BC550F-2025-08-19-12-03-22","","7338","","[""<span style=\""color: red; font-size: 24px\""> NOW RECORDING</span><p>Please say out loud all the images you saw in part 1 of the experiment, as many as you can remember. The images can be said in any order.</p>""]","","1",""
"","","","","","instructions","10","73379","0.0-8.0","ED9A8849B97549E7B49FF01230BC550F","ED9A8849B97549E7B49FF01230BC550F","0198c232-4fa9-786d-8b22-47e447008dc9","0198c075-3de9-7cab-996b-8cffe1adb15f","{""num_scrambled_semantic"":""8"",""num_scrambled_causal"":""4"",""num_scrambled_schematic"":""4"",""participantId"":""ED9A8849B97549E7B49FF01230BC550F"",""assignmentId"":""0198c232-4fa9-786d-8b22-47e447008dc9"",""projectId"":""0198c075-3de9-7cab-996b-8cffe1adb15f""}","https://test12345.live/?num_scrambled_semantic=8&num_scrambled_causal=4&num_scrambled_schematic=4&participantId=ED9A8849B97549E7B49FF01230BC550F&assignmentId=0198c232-4fa9-786d-8b22-47e447008dc9&projectId=0198c075-3de9-7cab-996b-8cffe1adb15f","ED9A8849B97549E7B49FF01230BC550F-2025-08-19-12-03-22","[{""page_index"":0,""viewing_time"":2265}]","2265","","","","",""
"","","","","","image-button-response","11","79383","0.0-9.0-0.0","ED9A8849B97549E7B49FF01230BC550F","ED9A8849B97549E7B49FF01230BC550F","0198c232-4fa9-786d-8b22-47e447008dc9","0198c075-3de9-7cab-996b-8cffe1adb15f","{""num_scrambled_semantic"":""8"",""num_scrambled_causal"":""4"",""num_scrambled_schematic"":""4"",""participantId"":""ED9A8849B97549E7B49FF01230BC550F"",""assignmentId"":""0198c232-4fa9-786d-8b22-47e447008dc9"",""projectId"":""0198c075-3de9-7cab-996b-8cffe1adb15f""}","https://test12345.live/?num_scrambled_semantic=8&num_scrambled_causal=4&num_scrambled_schematic=4&participantId=ED9A8849B97549E7B49FF01230BC550F&assignmentId=0198c232-4fa9-786d-8b22-47e447008dc9&projectId=0198c075-3de9-7cab-996b-8cffe1adb15f","ED9A8849B97549E7B49FF01230BC550F-2025-08-19-12-03-22","","null","","images/semantic_sequence/creative_activities_semantic/creative_activities_semantic_0.png","null","",""
"","","","","","html-audio-response","12","92827","0.0-10.0","ED9A8849B97549E7B49FF01230BC550F","ED9A8849B97549E7B49FF01230BC550F","0198c232-4fa9-786d-8b22-47e447008dc9","0198c075-3de9-7cab-996b-8cffe1adb15f","{""num_scrambled_semantic"":""8"",""num_scrambled_causal"":""4"",""num_scrambled_schematic"":""4"",""participantId"":""ED9A8849B97549E7B49FF01230BC550F"",""assignmentId"":""0198c232-4fa9-786d-8b22-47e447008dc9"",""projectId"":""0198c075-3de9-7cab-996b-8cffe1adb15f""}","https://test12345.live/?num_scrambled_semantic=8&num_scrambled_causal=4&num_scrambled_schematic=4&participantId=ED9A8849B97549E7B49FF01230BC550F&assignmentId=0198c232-4fa9-786d-8b22-47e447008dc9&projectId=0198c075-3de9-7cab-996b-8cffe1adb15f","ED9A8849B97549E7B49FF01230BC550F-2025-08-19-12-03-22","","12333","","[""<span style=\""color: red; font-size: 24px\""> NOW RECORDING</span><p>Please say out loud all the images you saw in part 1 of the experiment, as many as you can remember. The images can be said in any order.</p>""]","","2","creative_activities_semantic"
"","","","","","image-button-response","13","98833","0.0-11.0-0.0","ED9A8849B97549E7B49FF01230BC550F","ED9A8849B97549E7B49FF01230BC550F","0198c232-4fa9-786d-8b22-47e447008dc9","0198c075-3de9-7cab-996b-8cffe1adb15f","{""num_scrambled_semantic"":""8"",""num_scrambled_causal"":""4"",""num_scrambled_schematic"":""4"",""participantId"":""ED9A8849B97549E7B49FF01230BC550F"",""assignmentId"":""0198c232-4fa9-786d-8b22-47e447008dc9"",""projectId"":""0198c075-3de9-7cab-996b-8cffe1adb15f""}","https://test12345.live/?num_scrambled_semantic=8&num_scrambled_causal=4&num_scrambled_schematic=4&participantId=ED9A8849B97549E7B49FF01230BC550F&assignmentId=0198c232-4fa9-786d-8b22-47e447008dc9&projectId=0198c075-3de9-7cab-996b-8cffe1adb15f","ED9A8849B97549E7B49FF01230BC550F-2025-08-19-12-03-22","","null","","images/semantic_sequence/physical_activity_semantic/physical_activity_semantic_0.png","null","",""
"","","","","","html-audio-response","14","111114","0.0-12.0","ED9A8849B97549E7B49FF01230BC550F","ED9A8849B97549E7B49FF01230BC550F","0198c232-4fa9-786d-8b22-47e447008dc9","0198c075-3de9-7cab-996b-8cffe1adb15f","{""num_scrambled_semantic"":""8"",""num_scrambled_causal"":""4"",""num_scrambled_schematic"":""4"",""participantId"":""ED9A8849B97549E7B49FF01230BC550F"",""assignmentId"":""0198c232-4fa9-786d-8b22-47e447008dc9"",""projectId"":""0198c075-3de9-7cab-996b-8cffe1adb15f""}","https://test12345.live/?num_scrambled_semantic=8&num_scrambled_causal=4&num_scrambled_schematic=4&participantId=ED9A8849B97549E7B49FF01230BC550F&assignmentId=0198c232-4fa9-786d-8b22-47e447008dc9&projectId=0198c075-3de9-7cab-996b-8cffe1adb15f","ED9A8849B97549E7B49FF01230BC550F-2025-08-19-12-03-22","","11464","","[""<span style=\""color: red; font-size: 24px\""> NOW RECORDING</span><p>Please say out loud all the images you saw in part 1 of the experiment, as many as you can remember. The images can be said in any order.</p>""]","","1","physical_activity_semantic"
"","","","","","image-button-response","15","117130","0.0-13.0-0.0","ED9A8849B97549E7B49FF01230BC550F","ED9A8849B97549E7B49FF01230BC550F","0198c232-4fa9-786d-8b22-47e447008dc9","0198c075-3de9-7cab-996b-8cffe1adb15f","{""num_scrambled_semantic"":""8"",""num_scrambled_causal"":""4"",""num_scrambled_schematic"":""4"",""participantId"":""ED9A8849B97549E7B49FF01230BC550F"",""assignmentId"":""0198c232-4fa9-786d-8b22-47e447008dc9"",""projectId"":""0198c075-3de9-7cab-996b-8cffe1adb15f""}","https://test12345.live/?num_scrambled_semantic=8&num_scrambled_causal=4&num_scrambled_schematic=4&participantId=ED9A8849B97549E7B49FF01230BC550F&assignmentId=0198c232-4fa9-786d-8b22-47e447008dc9&projectId=0198c075-3de9-7cab-996b-8cffe1adb15f","ED9A8849B97549E7B49FF01230BC550F-2025-08-19-12-03-22","","null","","images/causal_sequence/saving_a_cat_causal/saving_a_cat_causal_0.png","null","",""
"","","","","","html-audio-response","16","125610","0.0-14.0","ED9A8849B97549E7B49FF01230BC550F","ED9A8849B97549E7B49FF01230BC550F","0198c232-4fa9-786d-8b22-47e447008dc9","0198c075-3de9-7cab-996b-8cffe1adb15f","{""num_scrambled_semantic"":""8"",""num_scrambled_causal"":""4"",""num_scrambled_schematic"":""4"",""participantId"":""ED9A8849B97549E7B49FF01230BC550F"",""assignmentId"":""0198c232-4fa9-786d-8b22-47e447008dc9"",""projectId"":""0198c075-3de9-7cab-996b-8cffe1adb15f""}","https://test12345.live/?num_scrambled_semantic=8&num_scrambled_causal=4&num_scrambled_schematic=4&participantId=ED9A8849B97549E7B49FF01230BC550F&assignmentId=0198c232-4fa9-786d-8b22-47e447008dc9&projectId=0198c075-3de9-7cab-996b-8cffe1adb15f","ED9A8849B97549E7B49FF01230BC550F-2025-08-19-12-03-22","","7779","","[""<span style=\""color: red; font-size: 24px\""> NOW RECORDING</span><p>Please say out loud all the images you saw in part 1 of the experiment, as many as you can remember. The images can be said in any order.</p>""]","","2","saving_a_cat_causal"
"","","","","","image-button-response","17","131615","0.0-15.0-0.0","ED9A8849B97549E7B49FF01230BC550F","ED9A8849B97549E7B49FF01230BC550F","0198c232-4fa9-786d-8b22-47e447008dc9","0198c075-3de9-7cab-996b-8cffe1adb15f","{""num_scrambled_semantic"":""8"",""num_scrambled_causal"":""4"",""num_scrambled_schematic"":""4"",""participantId"":""ED9A8849B97549E7B49FF01230BC550F"",""assignmentId"":""0198c232-4fa9-786d-8b22-47e447008dc9"",""projectId"":""0198c075-3de9-7cab-996b-8cffe1adb15f""}","https://test12345.live/?num_scrambled_semantic=8&num_scrambled_causal=4&num_scrambled_schematic=4&participantId=ED9A8849B97549E7B49FF01230BC550F&assignmentId=0198c232-4fa9-786d-8b22-47e447008dc9&projectId=0198c075-3de9-7cab-996b-8cffe1adb15f","ED9A8849B97549E7B49FF01230BC550F-2025-08-19-12-03-22","","null","","images/semantic_sequence/housework_semantic/housework_semantic_0.png","null","",""
"","","","","","html-audio-response","18","132732","0.0-16.0","ED9A8849B97549E7B49FF01230BC550F","ED9A8849B97549E7B49FF01230BC550F","0198c232-4fa9-786d-8b22-47e447008dc9","0198c075-3de9-7cab-996b-8cffe1adb15f","{""num_scrambled_semantic"":""8"",""num_scrambled_causal"":""4"",""num_scrambled_schematic"":""4"",""participantId"":""ED9A8849B97549E7B49FF01230BC550F"",""assignmentId"":""0198c232-4fa9-786d-8b22-47e447008dc9"",""projectId"":""0198c075-3de9-7cab-996b-8cffe1adb15f""}","https://test12345.live/?num_scrambled_semantic=8&num_scrambled_causal=4&num_scrambled_schematic=4&participantId=ED9A8849B97549E7B49FF01230BC550F&assignmentId=0198c232-4fa9-786d-8b22-47e447008dc9&projectId=0198c075-3de9-7cab-996b-8cffe1adb15f","ED9A8849B97549E7B49FF01230BC550F-2025-08-19-12-03-22","","457","","[""<span style=\""color: red; font-size: 24px\""> NOW RECORDING</span><p>Please say out loud all the images you saw in part 1 of the experiment, as many as you can remember. The images can be said in any order.</p>""]","","2","housework_semantic"
"","","","","","image-button-response","19","138745","0.0-17.0-0.0","ED9A8849B97549E7B49FF01230BC550F","ED9A8849B97549E7B49FF01230BC550F","0198c232-4fa9-786d-8b22-47e447008dc9","0198c075-3de9-7cab-996b-8cffe1adb15f","{""num_scrambled_semantic"":""8"",""num_scrambled_causal"":""4"",""num_scrambled_schematic"":""4"",""participantId"":""ED9A8849B97549E7B49FF01230BC550F"",""assignmentId"":""0198c232-4fa9-786d-8b22-47e447008dc9"",""projectId"":""0198c075-3de9-7cab-996b-8cffe1adb15f""}","https://test12345.live/?num_scrambled_semantic=8&num_scrambled_causal=4&num_scrambled_schematic=4&participantId=ED9A8849B97549E7B49FF01230BC550F&assignmentId=0198c232-4fa9-786d-8b22-47e447008dc9&projectId=0198c075-3de9-7cab-996b-8cffe1adb15f","ED9A8849B97549E7B49FF01230BC550F-2025-08-19-12-03-22","","null","","images/causal_sequence/the_performance_causal/the_performance_causal_0.png","null","",""
"","","","","","html-audio-response","20","146219","0.0-18.0","ED9A8849B97549E7B49FF01230BC550F","ED9A8849B97549E7B49FF01230BC550F","0198c232-4fa9-786d-8b22-47e447008dc9","0198c075-3de9-7cab-996b-8cffe1adb15f","{""num_scrambled_semantic"":""8"",""num_scrambled_causal"":""4"",""num_scrambled_schematic"":""4"",""participantId"":""ED9A8849B97549E7B49FF01230BC550F"",""assignmentId"":""0198c232-4fa9-786d-8b22-47e447008dc9"",""projectId"":""0198c075-3de9-7cab-996b-8cffe1adb15f""}","https://test12345.live/?num_scrambled_semantic=8&num_scrambled_causal=4&num_scrambled_schematic=4&participantId=ED9A8849B97549E7B49FF01230BC550F&assignmentId=0198c232-4fa9-786d-8b22-47e447008dc9&projectId=0198c075-3de9-7cab-996b-8cffe1adb15f","ED9A8849B97549E7B49FF01230BC550F-2025-08-19-12-03-22","","6553","","[""<span style=\""color: red; font-size: 24px\""> NOW RECORDING</span><p>Please say out loud all the images you saw in part 1 of the experiment, as many as you can remember. The images can be said in any order.</p>""]","","19","the_performance_causal"
"","","","","","image-button-response","21","152234","0.0-19.0-0.0","ED9A8849B97549E7B49FF01230BC550F","ED9A8849B97549E7B49FF01230BC550F","0198c232-4fa9-786d-8b22-47e447008dc9","0198c075-3de9-7cab-996b-8cffe1adb15f","{""num_scrambled_semantic"":""8"",""num_scrambled_causal"":""4"",""num_scrambled_schematic"":""4"",""participantId"":""ED9A8849B97549E7B49FF01230BC550F"",""assignmentId"":""0198c232-4fa9-786d-8b22-47e447008dc9"",""projectId"":""0198c075-3de9-7cab-996b-8cffe1adb15f""}","https://test12345.live/?num_scrambled_semantic=8&num_scrambled_causal=4&num_scrambled_schematic=4&participantId=ED9A8849B97549E7B49FF01230BC550F&assignmentId=0198c232-4fa9-786d-8b22-47e447008dc9&projectId=0198c075-3de9-7cab-996b-8cffe1adb15f","ED9A8849B97549E7B49FF01230BC550F-2025-08-19-12-03-22","","null","","images/causal_sequence/museum_causal/museum_causal_0.png","null","",""
"","","","","","html-audio-response","22","164281","0.0-20.0","ED9A8849B97549E7B49FF01230BC550F","ED9A8849B97549E7B49FF01230BC550F","0198c232-4fa9-786d-8b22-47e447008dc9","0198c075-3de9-7cab-996b-8cffe1adb15f","{""num_scrambled_semantic"":""8"",""num_scrambled_causal"":""4"",""num_scrambled_schematic"":""4"",""participantId"":""ED9A8849B97549E7B49FF01230BC550F"",""assignmentId"":""0198c232-4fa9-786d-8b22-47e447008dc9"",""projectId"":""0198c075-3de9-7cab-996b-8cffe1adb15f""}","https://test12345.live/?num_scrambled_semantic=8&num_scrambled_causal=4&num_scrambled_schematic=4&participantId=ED9A8849B97549E7B49FF01230BC550F&assignmentId=0198c232-4fa9-786d-8b22-47e447008dc9&projectId=0198c075-3de9-7cab-996b-8cffe1adb15f","ED9A8849B97549E7B49FF01230BC550F-2025-08-19-12-03-22","","6963","","[""<span style=\""color: red; font-size: 24px\""> NOW RECORDING</span><p>Please say out loud all the images you saw in part 1 of the experiment, as many as you can remember. The images can be said in any order.</p>""]","","2","museum_causal"
"","","","","","image-button-response","23","170287","0.0-21.0-0.0","ED9A8849B97549E7B49FF01230BC550F","ED9A8849B97549E7B49FF01230BC550F","0198c232-4fa9-786d-8b22-47e447008dc9","0198c075-3de9-7cab-996b-8cffe1adb15f","{""num_scrambled_semantic"":""8"",""num_scrambled_causal"":""4"",""num_scrambled_schematic"":""4"",""participantId"":""ED9A8849B97549E7B49FF01230BC550F"",""assignmentId"":""0198c232-4fa9-786d-8b22-47e447008dc9"",""projectId"":""0198c075-3de9-7cab-996b-8cffe1adb15f""}","https://test12345.live/?num_scrambled_semantic=8&num_scrambled_causal=4&num_scrambled_schematic=4&participantId=ED9A8849B97549E7B49FF01230BC550F&assignmentId=0198c232-4fa9-786d-8b22-47e447008dc9&projectId=0198c075-3de9-7cab-996b-8cffe1adb15f","ED9A8849B97549E7B49FF01230BC550F-2025-08-19-12-03-22","","null","","images/causal_sequence/dog_causal/dog_causal_0.png","null","",""
"","","","","","html-audio-response","24","176891","0.0-22.0","ED9A8849B97549E7B49FF01230BC550F","ED9A8849B97549E7B49FF01230BC550F","0198c232-4fa9-786d-8b22-47e447008dc9","0198c075-3de9-7cab-996b-8cffe1adb15f","{""num_scrambled_semantic"":""8"",""num_scrambled_causal"":""4"",""num_scrambled_schematic"":""4"",""participantId"":""ED9A8849B97549E7B49FF01230BC550F"",""assignmentId"":""0198c232-4fa9-786d-8b22-47e447008dc9"",""projectId"":""0198c075-3de9-7cab-996b-8cffe1adb15f""}","https://test12345.live/?num_scrambled_semantic=8&num_scrambled_causal=4&num_scrambled_schematic=4&participantId=ED9A8849B97549E7B49FF01230BC550F&assignmentId=0198c232-4fa9-786d-8b22-47e447008dc9&projectId=0198c075-3de9-7cab-996b-8cffe1adb15f","ED9A8849B97549E7B49FF01230BC550F-2025-08-19-12-03-22","","5543","","[""<span style=\""color: red; font-size: 24px\""> NOW RECORDING</span><p>Please say out loud all the images you saw in part 1 of the experiment, as many as you can remember. The images can be said in any order.</p>""]","","2","dog_causal"
"","","","","","image-button-response","25","182905","0.0-23.0-0.0","ED9A8849B97549E7B49FF01230BC550F","ED9A8849B97549E7B49FF01230BC550F","0198c232-4fa9-786d-8b22-47e447008dc9","0198c075-3de9-7cab-996b-8cffe1adb15f","{""num_scrambled_semantic"":""8"",""num_scrambled_causal"":""4"",""num_scrambled_schematic"":""4"",""participantId"":""ED9A8849B97549E7B49FF01230BC550F"",""assignmentId"":""0198c232-4fa9-786d-8b22-47e447008dc9"",""projectId"":""0198c075-3de9-7cab-996b-8cffe1adb15f""}","https://test12345.live/?num_scrambled_semantic=8&num_scrambled_causal=4&num_scrambled_schematic=4&participantId=ED9A8849B97549E7B49FF01230BC550F&assignmentId=0198c232-4fa9-786d-8b22-47e447008dc9&projectId=0198c075-3de9-7cab-996b-8cffe1adb15f","ED9A8849B97549E7B49FF01230BC550F-2025-08-19-12-03-22","","null","","images/semantic_sequence/using_technology_semantic/using_technology_semantic_0.png","null","",""
"","","","","","html-audio-response","26","191657","0.0-24.0","ED9A8849B97549E7B49FF01230BC550F","ED9A8849B97549E7B49FF01230BC550F","0198c232-4fa9-786d-8b22-47e447008dc9","0198c075-3de9-7cab-996b-8cffe1adb15f","{""num_scrambled_semantic"":""8"",""num_scrambled_causal"":""4"",""num_scrambled_schematic"":""4"",""participantId"":""ED9A8849B97549E7B49FF01230BC550F"",""assignmentId"":""0198c232-4fa9-786d-8b22-47e447008dc9"",""projectId"":""0198c075-3de9-7cab-996b-8cffe1adb15f""}","https://test12345.live/?num_scrambled_semantic=8&num_scrambled_causal=4&num_scrambled_schematic=4&participantId=ED9A8849B97549E7B49FF01230BC550F&assignmentId=0198c232-4fa9-786d-8b22-47e447008dc9&projectId=0198c075-3de9-7cab-996b-8cffe1adb15f","ED9A8849B97549E7B49FF01230BC550F-2025-08-19-12-03-22","","4845","","[""<span style=\""color: red; font-size: 24px\""> NOW RECORDING</span><p>Please say out loud all the images you saw in part 1 of the experiment, as many as you can remember. The images can be said in any order.</p>""]","","1","using_technology_semantic"
"","","","","","image-button-response","27","197663","0.0-25.0-0.0","ED9A8849B97549E7B49FF01230BC550F","ED9A8849B97549E7B49FF01230BC550F","0198c232-4fa9-786d-8b22-47e447008dc9","0198c075-3de9-7cab-996b-8cffe1adb15f","{""num_scrambled_semantic"":""8"",""num_scrambled_causal"":""4"",""num_scrambled_schematic"":""4"",""participantId"":""ED9A8849B97549E7B49FF01230BC550F"",""assignmentId"":""0198c232-4fa9-786d-8b22-47e447008dc9"",""projectId"":""0198c075-3de9-7cab-996b-8cffe1adb15f""}","https://test12345.live/?num_scrambled_semantic=8&num_scrambled_causal=4&num_scrambled_schematic=4&participantId=ED9A8849B97549E7B49FF01230BC550F&assignmentId=0198c232-4fa9-786d-8b22-47e447008dc9&projectId=0198c075-3de9-7cab-996b-8cffe1adb15f","ED9A8849B97549E7B49FF01230BC550F-2025-08-19-12-03-22","","null","","images/semantic_sequence/cat_care_semantic/cat_care_semantic_0.png","null","",""
"","","","","","html-audio-response","28","206162","0.0-26.0","ED9A8849B97549E7B49FF01230BC550F","ED9A8849B97549E7B49FF01230BC550F","0198c232-4fa9-786d-8b22-47e447008dc9","0198c075-3de9-7cab-996b-8cffe1adb15f","{""num_scrambled_semantic"":""8"",""num_scrambled_causal"":""4"",""num_scrambled_schematic"":""4"",""participantId"":""ED9A8849B97549E7B49FF01230BC550F"",""assignmentId"":""0198c232-4fa9-786d-8b22-47e447008dc9"",""projectId"":""0198c075-3de9-7cab-996b-8cffe1adb15f""}","https://test12345.live/?num_scrambled_semantic=8&num_scrambled_causal=4&num_scrambled_schematic=4&participantId=ED9A8849B97549E7B49FF01230BC550F&assignmentId=0198c232-4fa9-786d-8b22-47e447008dc9&projectId=0198c075-3de9-7cab-996b-8cffe1adb15f","ED9A8849B97549E7B49FF01230BC550F-2025-08-19-12-03-22","","7506","","[""<span style=\""color: red; font-size: 24px\""> NOW RECORDING</span><p>Please say out loud all the images you saw in part 1 of the experiment, as many as you can remember. The images can be said in any order.</p>""]","","2","cat_care_semantic"
"","","","","","image-button-response","29","212180","0.0-27.0-0.0","ED9A8849B97549E7B49FF01230BC550F","ED9A8849B97549E7B49FF01230BC550F","0198c232-4fa9-786d-8b22-47e447008dc9","0198c075-3de9-7cab-996b-8cffe1adb15f","{""num_scrambled_semantic"":""8"",""num_scrambled_causal"":""4"",""num_scrambled_schematic"":""4"",""participantId"":""ED9A8849B97549E7B49FF01230BC550F"",""assignmentId"":""0198c232-4fa9-786d-8b22-47e447008dc9"",""projectId"":""0198c075-3de9-7cab-996b-8cffe1adb15f""}","https://test12345.live/?num_scrambled_semantic=8&num_scrambled_causal=4&num_scrambled_schematic=4&participantId=ED9A8849B97549E7B49FF01230BC550F&assignmentId=0198c232-4fa9-786d-8b22-47e447008dc9&projectId=0198c075-3de9-7cab-996b-8cffe1adb15f","ED9A8849B97549E7B49FF01230BC550F-2025-08-19-12-03-22","","null","","images/causal_sequence/package_causal/package_causal_0.png","null","",""
"","","","","","html-audio-response","30","225308","0.0-28.0","ED9A8849B97549E7B49FF01230BC550F","ED9A8849B97549E7B49FF01230BC550F","0198c232-4fa9-786d-8b22-47e447008dc9","0198c075-3de9-7cab-996b-8cffe1adb15f","{""num_scrambled_semantic"":""8"",""num_scrambled_causal"":""4"",""num_scrambled_schematic"":""4"",""participantId"":""ED9A8849B97549E7B49FF01230BC550F"",""assignmentId"":""0198c232-4fa9-786d-8b22-47e447008dc9"",""projectId"":""0198c075-3de9-7cab-996b-8cffe1adb15f""}","https://test12345.live/?num_scrambled_semantic=8&num_scrambled_causal=4&num_scrambled_schematic=4&participantId=ED9A8849B97549E7B49FF01230BC550F&assignmentId=0198c232-4fa9-786d-8b22-47e447008dc9&projectId=0198c075-3de9-7cab-996b-8cffe1adb15f","ED9A8849B97549E7B49FF01230BC550F-2025-08-19-12-03-22","","11819","","[""<span style=\""color: red; font-size: 24px\""> NOW RECORDING</span><p>Please say out loud all the images you saw in part 1 of the experiment, as many as you can remember. The images can be said in any order.</p>""]","","2","package_causal"
"","","","","","image-button-response","31","231321","0.0-29.0-0.0","ED9A8849B97549E7B49FF01230BC550F","ED9A8849B97549E7B49FF01230BC550F","0198c232-4fa9-786d-8b22-47e447008dc9","0198c075-3de9-7cab-996b-8cffe1adb15f","{""num_scrambled_semantic"":""8"",""num_scrambled_causal"":""4"",""num_scrambled_schematic"":""4"",""participantId"":""ED9A8849B97549E7B49FF01230BC550F"",""assignmentId"":""0198c232-4fa9-786d-8b22-47e447008dc9"",""projectId"":""0198c075-3de9-7cab-996b-8cffe1adb15f""}","https://test12345.live/?num_scrambled_semantic=8&num_scrambled_causal=4&num_scrambled_schematic=4&participantId=ED9A8849B97549E7B49FF01230BC550F&assignmentId=0198c232-4fa9-786d-8b22-47e447008dc9&projectId=0198c075-3de9-7cab-996b-8cffe1adb15f","ED9A8849B97549E7B49FF01230BC550F-2025-08-19-12-03-22","","null","","images/semantic_sequence/maintaining_a_car_semantic/maintaining_a_car_semantic_0.png","null","",""
"","","","","","html-audio-response","32","237324","0.0-30.0","ED9A8849B97549E7B49FF01230BC550F","ED9A8849B97549E7B49FF01230BC550F","0198c232-4fa9-786d-8b22-47e447008dc9","0198c075-3de9-7cab-996b-8cffe1adb15f","{""num_scrambled_semantic"":""8"",""num_scrambled_causal"":""4"",""num_scrambled_schematic"":""4"",""participantId"":""ED9A8849B97549E7B49FF01230BC550F"",""assignmentId"":""0198c232-4fa9-786d-8b22-47e447008dc9"",""projectId"":""0198c075-3de9-7cab-996b-8cffe1adb15f""}","https://test12345.live/?num_scrambled_semantic=8&num_scrambled_causal=4&num_scrambled_schematic=4&participantId=ED9A8849B97549E7B49FF01230BC550F&assignmentId=0198c232-4fa9-786d-8b22-47e447008dc9&projectId=0198c075-3de9-7cab-996b-8cffe1adb15f","ED9A8849B97549E7B49FF01230BC550F-2025-08-19-12-03-22","","5191","","[""<span style=\""color: red; font-size: 24px\""> NOW RECORDING</span><p>Please say out loud all the images you saw in part 1 of the experiment, as many as you can remember. The images can be said in any order.</p>""]","","2","maintaining_a_car_semantic"
"","","","","","image-button-response","33","243343","0.0-31.0-0.0","ED9A8849B97549E7B49FF01230BC550F","ED9A8849B97549E7B49FF01230BC550F","0198c232-4fa9-786d-8b22-47e447008dc9","0198c075-3de9-7cab-996b-8cffe1adb15f","{""num_scrambled_semantic"":""8"",""num_scrambled_causal"":""4"",""num_scrambled_schematic"":""4"",""participantId"":""ED9A8849B97549E7B49FF01230BC550F"",""assignmentId"":""0198c232-4fa9-786d-8b22-47e447008dc9"",""projectId"":""0198c075-3de9-7cab-996b-8cffe1adb15f""}","https://test12345.live/?num_scrambled_semantic=8&num_scrambled_causal=4&num_scrambled_schematic=4&participantId=ED9A8849B97549E7B49FF01230BC550F&assignmentId=0198c232-4fa9-786d-8b22-47e447008dc9&projectId=0198c075-3de9-7cab-996b-8cffe1adb15f","ED9A8849B97549E7B49FF01230BC550F-2025-08-19-12-03-22","","null","","images/semantic_sequence/redecorating_semantic/redecorating_semantic_0.png","null","",""
"","","","","","html-audio-response","34","249797","0.0-32.0","ED9A8849B97549E7B49FF01230BC550F","ED9A8849B97549E7B49FF01230BC550F","0198c232-4fa9-786d-8b22-47e447008dc9","0198c075-3de9-7cab-996b-8cffe1adb15f","{""num_scrambled_semantic"":""8"",""num_scrambled_causal"":""4"",""num_scrambled_schematic"":""4"",""participantId"":""ED9A8849B97549E7B49FF01230BC550F"",""assignmentId"":""0198c232-4fa9-786d-8b22-47e447008dc9"",""projectId"":""0198c075-3de9-7cab-996b-8cffe1adb15f""}","https://test12345.live/?num_scrambled_semantic=8&num_scrambled_causal=4&num_scrambled_schematic=4&participantId=ED9A8849B97549E7B49FF01230BC550F&assignmentId=0198c232-4fa9-786d-8b22-47e447008dc9&projectId=0198c075-3de9-7cab-996b-8cffe1adb15f","ED9A8849B97549E7B49FF01230BC550F-2025-08-19-12-03-22","","5697","","[""<span style=\""color: red; font-size: 24px\""> NOW RECORDING</span><p>Please say out loud all the images you saw in part 1 of the experiment, as many as you can remember. The images can be said in any order.</p>""]","","2","redecorating_semantic"
"","","","","","image-button-response","35","255805","0.0-33.0-0.0","ED9A8849B97549E7B49FF01230BC550F","ED9A8849B97549E7B49FF01230BC550F","0198c232-4fa9-786d-8b22-47e447008dc9","0198c075-3de9-7cab-996b-8cffe1adb15f","{""num_scrambled_semantic"":""8"",""num_scrambled_causal"":""4"",""num_scrambled_schematic"":""4"",""participantId"":""ED9A8849B97549E7B49FF01230BC550F"",""assignmentId"":""0198c232-4fa9-786d-8b22-47e447008dc9"",""projectId"":""0198c075-3de9-7cab-996b-8cffe1adb15f""}","https://test12345.live/?num_scrambled_semantic=8&num_scrambled_causal=4&num_scrambled_schematic=4&participantId=ED9A8849B97549E7B49FF01230BC550F&assignmentId=0198c232-4fa9-786d-8b22-47e447008dc9&projectId=0198c075-3de9-7cab-996b-8cffe1adb15f","ED9A8849B97549E7B49FF01230BC550F-2025-08-19-12-03-22","","null","","images/causal_sequence/coin_causal/coin_causal_0.png","null","",""
"","","","","","html-audio-response","36","265352","0.0-34.0","ED9A8849B97549E7B49FF01230BC550F","ED9A8849B97549E7B49FF01230BC550F","0198c232-4fa9-786d-8b22-47e447008dc9","0198c075-3de9-7cab-996b-8cffe1adb15f","{""num_scrambled_semantic"":""8"",""num_scrambled_causal"":""4"",""num_scrambled_schematic"":""4"",""participantId"":""ED9A8849B97549E7B49FF01230BC550F"",""assignmentId"":""0198c232-4fa9-786d-8b22-47e447008dc9"",""projectId"":""0198c075-3de9-7cab-996b-8cffe1adb15f""}","https://test12345.live/?num_scrambled_semantic=8&num_scrambled_causal=4&num_scrambled_schematic=4&participantId=ED9A8849B97549E7B49FF01230BC550F&assignmentId=0198c232-4fa9-786d-8b22-47e447008dc9&projectId=0198c075-3de9-7cab-996b-8cffe1adb15f","ED9A8849B97549E7B49FF01230BC550F-2025-08-19-12-03-22","","8763","","[""<span style=\""color: red; font-size: 24px\""> NOW RECORDING</span><p>Please say out loud all the images you saw in part 1 of the experiment, as many as you can remember. The images can be said in any order.</p>""]","","2","coin_causal"
"","","","","","survey-text","37","270404","0.0-35.0","ED9A8849B97549E7B49FF01230BC550F","ED9A8849B97549E7B49FF01230BC550F","0198c232-4fa9-786d-8b22-47e447008dc9","0198c075-3de9-7cab-996b-8cffe1adb15f","{""num_scrambled_semantic"":""8"",""num_scrambled_causal"":""4"",""num_scrambled_schematic"":""4"",""participantId"":""ED9A8849B97549E7B49FF01230BC550F"",""assignmentId"":""0198c232-4fa9-786d-8b22-47e447008dc9"",""projectId"":""0198c075-3de9-7cab-996b-8cffe1adb15f""}","https://test12345.live/?num_scrambled_semantic=8&num_scrambled_causal=4&num_scrambled_schematic=4&participantId=ED9A8849B97549E7B49FF01230BC550F&assignmentId=0198c232-4fa9-786d-8b22-47e447008dc9&projectId=0198c075-3de9-7cab-996b-8cffe1adb15f","ED9A8849B97549E7B49FF01230BC550F-2025-08-19-12-03-22","","5045","","","{""Q0"":""Male"",""Q1"":""31""}","",""
"","","","","","instructions","38","290664","0.0-36.0","ED9A8849B97549E7B49FF01230BC550F","ED9A8849B97549E7B49FF01230BC550F","0198c232-4fa9-786d-8b22-47e447008dc9","0198c075-3de9-7cab-996b-8cffe1adb15f","{""num_scrambled_semantic"":""8"",""num_scrambled_causal"":""4"",""num_scrambled_schematic"":""4"",""participantId"":""ED9A8849B97549E7B49FF01230BC550F"",""assignmentId"":""0198c232-4fa9-786d-8b22-47e447008dc9"",""projectId"":""0198c075-3de9-7cab-996b-8cffe1adb15f""}","https://test12345.live/?num_scrambled_semantic=8&num_scrambled_causal=4&num_scrambled_schematic=4&participantId=ED9A8849B97549E7B49FF01230BC550F&assignmentId=0198c232-4fa9-786d-8b22-47e447008dc9&projectId=0198c075-3de9-7cab-996b-8cffe1adb15f","ED9A8849B97549E7B49FF01230BC550F-2025-08-19-12-03-22","[{""page_index"":0,""viewing_time"":20260}]","20260","","","","",""
"","","","","","survey-text","39","293065","0.0-37.0","ED9A8849B97549E7B49FF01230BC550F","ED9A8849B97549E7B49FF01230BC550F","0198c232-4fa9-786d-8b22-47e447008dc9","0198c075-3de9-7cab-996b-8cffe1adb15f","{""num_scrambled_semantic"":""8"",""num_scrambled_causal"":""4"",""num_scrambled_schematic"":""4"",""participantId"":""ED9A8849B97549E7B49FF01230BC550F"",""assignmentId"":""0198c232-4fa9-786d-8b22-47e447008dc9"",""projectId"":""0198c075-3de9-7cab-996b-8cffe1adb15f""}","https://test12345.live/?num_scrambled_semantic=8&num_scrambled_causal=4&num_scrambled_schematic=4&participantId=ED9A8849B97549E7B49FF01230BC550F&assignmentId=0198c232-4fa9-786d-8b22-47e447008dc9&projectId=0198c075-3de9-7cab-996b-8cffe1adb15f","ED9A8849B97549E7B49FF01230BC550F-2025-08-19-12-03-22","","2399","","","{""Q0"":""AJFHBG896""}","",""
