"success","timeout","failed_images","failed_audio","failed_video","trial_type","trial_index","time_elapsed","internal_node_id","subject","subject_id","study_id","session_id","urlvar","current_url","audio_id","view_history","rt","device_id","stimulus","response","estimated_stimulus_onset","seq_name"
"true","false","[]","[]","[]","preload","0","22107","0.0-0.0","F22A38139CA34CA380C5E1036542E2DC","F22A38139CA34CA380C5E1036542E2DC","c89209ee-d3d9-420d-9037-ee4e24f60c7c","9596d7a2-d401-47b1-aedd-70105f5f2f42","{""part"":""2"",""participantId"":""F22A38139CA34CA380C5E1036542E2DC"",""assignmentId"":""c89209ee-d3d9-420d-9037-ee4e24f60c7c"",""projectId"":""9596d7a2-d401-47b1-aedd-70105f5f2f42""}","https://test12345.live/?part=2&participantId=F22A38139CA34CA380C5E1036542E2DC&assignmentId=c89209ee-d3d9-420d-9037-ee4e24f60c7c&projectId=9596d7a2-d401-47b1-aedd-70105f5f2f42","F22A38139CA34CA380C5E1036542E2DC-2025-05-28-19-03-34","","","","","","",""
"","","","","","instructions","1","205075","0.0-1.0","F22A38139CA34CA380C5E1036542E2DC","F22A38139CA34CA380C5E1036542E2DC","c89209ee-d3d9-420d-9037-ee4e24f60c7c","9596d7a2-d401-47b1-aedd-70105f5f2f42","{""part"":""2"",""participantId"":""F22A38139CA34CA380C5E1036542E2DC"",""assignmentId"":""c89209ee-d3d9-420d-9037-ee4e24f60c7c"",""projectId"":""9596d7a2-d401-47b1-aedd-70105f5f2f42""}","https://test12345.live/?part=2&participantId=F22A38139CA34CA380C5E1036542E2DC&assignmentId=c89209ee-d3d9-420d-9037-ee4e24f60c7c&projectId=9596d7a2-d401-47b1-aedd-70105f5f2f42","F22A38139CA34CA380C5E1036542E2DC-2025-05-28-19-03-34","[{""page_index"":0,""viewing_time"":182965}]","182966","","","","",""
"","","","","","instructions","2","211314","0.0-2.0","F22A38139CA34CA380C5E1036542E2DC","F22A38139CA34CA380C5E1036542E2DC","c89209ee-d3d9-420d-9037-ee4e24f60c7c","9596d7a2-d401-47b1-aedd-70105f5f2f42","{""part"":""2"",""participantId"":""F22A38139CA34CA380C5E1036542E2DC"",""assignmentId"":""c89209ee-d3d9-420d-9037-ee4e24f60c7c"",""projectId"":""9596d7a2-d401-47b1-aedd-70105f5f2f42""}","https://test12345.live/?part=2&participantId=F22A38139CA34CA380C5E1036542E2DC&assignmentId=c89209ee-d3d9-420d-9037-ee4e24f60c7c&projectId=9596d7a2-d401-47b1-aedd-70105f5f2f42","F22A38139CA34CA380C5E1036542E2DC-2025-05-28-19-03-34","[{""page_index"":0,""viewing_time"":6237}]","6238","","","","",""
"true","","","","","fullscreen","3","214064","0.0-3.0","F22A38139CA34CA380C5E1036542E2DC","F22A38139CA34CA380C5E1036542E2DC","c89209ee-d3d9-420d-9037-ee4e24f60c7c","9596d7a2-d401-47b1-aedd-70105f5f2f42","{""part"":""2"",""participantId"":""F22A38139CA34CA380C5E1036542E2DC"",""assignmentId"":""c89209ee-d3d9-420d-9037-ee4e24f60c7c"",""projectId"":""9596d7a2-d401-47b1-aedd-70105f5f2f42""}","https://test12345.live/?part=2&participantId=F22A38139CA34CA380C5E1036542E2DC&assignmentId=c89209ee-d3d9-420d-9037-ee4e24f60c7c&projectId=9596d7a2-d401-47b1-aedd-70105f5f2f42","F22A38139CA34CA380C5E1036542E2DC-2025-05-28-19-03-34","","1701","","","","",""
"","","","","","initialize-microphone","4","215797","0.0-4.0-0.0","F22A38139CA34CA380C5E1036542E2DC","F22A38139CA34CA380C5E1036542E2DC","c89209ee-d3d9-420d-9037-ee4e24f60c7c","9596d7a2-d401-47b1-aedd-70105f5f2f42","{""part"":""2"",""participantId"":""F22A38139CA34CA380C5E1036542E2DC"",""assignmentId"":""c89209ee-d3d9-420d-9037-ee4e24f60c7c"",""projectId"":""9596d7a2-d401-47b1-aedd-70105f5f2f42""}","https://test12345.live/?part=2&participantId=F22A38139CA34CA380C5E1036542E2DC&assignmentId=c89209ee-d3d9-420d-9037-ee4e24f60c7c&projectId=9596d7a2-d401-47b1-aedd-70105f5f2f42","F22A38139CA34CA380C5E1036542E2DC-2025-05-28-19-03-34","","","5d32bba4efabee08c472d3284afc4f4178ba36ab6429649648583eb0c3ff8311","","","",""
"","","","","","html-audio-response","5","222082","0.0-4.0-1.0","F22A38139CA34CA380C5E1036542E2DC","F22A38139CA34CA380C5E1036542E2DC","c89209ee-d3d9-420d-9037-ee4e24f60c7c","9596d7a2-d401-47b1-aedd-70105f5f2f42","{""part"":""2"",""participantId"":""F22A38139CA34CA380C5E1036542E2DC"",""assignmentId"":""c89209ee-d3d9-420d-9037-ee4e24f60c7c"",""projectId"":""9596d7a2-d401-47b1-aedd-70105f5f2f42""}","https://test12345.live/?part=2&participantId=F22A38139CA34CA380C5E1036542E2DC&assignmentId=c89209ee-d3d9-420d-9037-ee4e24f60c7c&projectId=9596d7a2-d401-47b1-aedd-70105f5f2f42","F22A38139CA34CA380C5E1036542E2DC-2025-05-28-19-03-34","","2482","","<span style=""color: red; font-size: 24px""> NOW RECORDING</span>
        <p>Please test Microphone</p>","","6",""
"","","","","","html-button-response","6","223339","0.0-4.0-2.0","F22A38139CA34CA380C5E1036542E2DC","F22A38139CA34CA380C5E1036542E2DC","c89209ee-d3d9-420d-9037-ee4e24f60c7c","9596d7a2-d401-47b1-aedd-70105f5f2f42","{""part"":""2"",""participantId"":""F22A38139CA34CA380C5E1036542E2DC"",""assignmentId"":""c89209ee-d3d9-420d-9037-ee4e24f60c7c"",""projectId"":""9596d7a2-d401-47b1-aedd-70105f5f2f42""}","https://test12345.live/?part=2&participantId=F22A38139CA34CA380C5E1036542E2DC&assignmentId=c89209ee-d3d9-420d-9037-ee4e24f60c7c&projectId=9596d7a2-d401-47b1-aedd-70105f5f2f42","F22A38139CA34CA380C5E1036542E2DC-2025-05-28-19-03-34","","1255","","<p style=""font-size:48px; color:red;"">Is Microphone OK?</p>","1","",""
"","","","","","instructions","7","234437","0.0-5.0","F22A38139CA34CA380C5E1036542E2DC","F22A38139CA34CA380C5E1036542E2DC","c89209ee-d3d9-420d-9037-ee4e24f60c7c","9596d7a2-d401-47b1-aedd-70105f5f2f42","{""part"":""2"",""participantId"":""F22A38139CA34CA380C5E1036542E2DC"",""assignmentId"":""c89209ee-d3d9-420d-9037-ee4e24f60c7c"",""projectId"":""9596d7a2-d401-47b1-aedd-70105f5f2f42""}","https://test12345.live/?part=2&participantId=F22A38139CA34CA380C5E1036542E2DC&assignmentId=c89209ee-d3d9-420d-9037-ee4e24f60c7c&projectId=9596d7a2-d401-47b1-aedd-70105f5f2f42","F22A38139CA34CA380C5E1036542E2DC-2025-05-28-19-03-34","[{""page_index"":0,""viewing_time"":848},{""page_index"":1,""viewing_time"":3289},{""page_index"":2,""viewing_time"":6960}]","11097","","","","",""
"","","","","","image-button-response","8","240492","0.0-6.0-0.0","F22A38139CA34CA380C5E1036542E2DC","F22A38139CA34CA380C5E1036542E2DC","c89209ee-d3d9-420d-9037-ee4e24f60c7c","9596d7a2-d401-47b1-aedd-70105f5f2f42","{""part"":""2"",""participantId"":""F22A38139CA34CA380C5E1036542E2DC"",""assignmentId"":""c89209ee-d3d9-420d-9037-ee4e24f60c7c"",""projectId"":""9596d7a2-d401-47b1-aedd-70105f5f2f42""}","https://test12345.live/?part=2&participantId=F22A38139CA34CA380C5E1036542E2DC&assignmentId=c89209ee-d3d9-420d-9037-ee4e24f60c7c&projectId=9596d7a2-d401-47b1-aedd-70105f5f2f42","F22A38139CA34CA380C5E1036542E2DC-2025-05-28-19-03-34","","null","","images/instructions/movie_0.png","null","",""
"","","","","","html-audio-response","9","262492","0.0-7.0","F22A38139CA34CA380C5E1036542E2DC","F22A38139CA34CA380C5E1036542E2DC","c89209ee-d3d9-420d-9037-ee4e24f60c7c","9596d7a2-d401-47b1-aedd-70105f5f2f42","{""part"":""2"",""participantId"":""F22A38139CA34CA380C5E1036542E2DC"",""assignmentId"":""c89209ee-d3d9-420d-9037-ee4e24f60c7c"",""projectId"":""9596d7a2-d401-47b1-aedd-70105f5f2f42""}","https://test12345.live/?part=2&participantId=F22A38139CA34CA380C5E1036542E2DC&assignmentId=c89209ee-d3d9-420d-9037-ee4e24f60c7c&projectId=9596d7a2-d401-47b1-aedd-70105f5f2f42","F22A38139CA34CA380C5E1036542E2DC-2025-05-28-19-03-34","","21023","","[""<span style=\""color: red; font-size: 24px\""> NOW RECORDING</span><p>Please say out loud all the images you saw in part 1 of the experiment, in the exact order you saw them. Try to recall as many images as you can, but remember: getting the order right is more important than the number of images you recall.</p>""]","","2",""
"","","","","","instructions","10","263391","0.0-8.0","F22A38139CA34CA380C5E1036542E2DC","F22A38139CA34CA380C5E1036542E2DC","c89209ee-d3d9-420d-9037-ee4e24f60c7c","9596d7a2-d401-47b1-aedd-70105f5f2f42","{""part"":""2"",""participantId"":""F22A38139CA34CA380C5E1036542E2DC"",""assignmentId"":""c89209ee-d3d9-420d-9037-ee4e24f60c7c"",""projectId"":""9596d7a2-d401-47b1-aedd-70105f5f2f42""}","https://test12345.live/?part=2&participantId=F22A38139CA34CA380C5E1036542E2DC&assignmentId=c89209ee-d3d9-420d-9037-ee4e24f60c7c&projectId=9596d7a2-d401-47b1-aedd-70105f5f2f42","F22A38139CA34CA380C5E1036542E2DC-2025-05-28-19-03-34","[{""page_index"":0,""viewing_time"":893}]","893","","","","",""
"","","","","","image-button-response","11","269392","0.0-9.0-0.0","F22A38139CA34CA380C5E1036542E2DC","F22A38139CA34CA380C5E1036542E2DC","c89209ee-d3d9-420d-9037-ee4e24f60c7c","9596d7a2-d401-47b1-aedd-70105f5f2f42","{""part"":""2"",""participantId"":""F22A38139CA34CA380C5E1036542E2DC"",""assignmentId"":""c89209ee-d3d9-420d-9037-ee4e24f60c7c"",""projectId"":""9596d7a2-d401-47b1-aedd-70105f5f2f42""}","https://test12345.live/?part=2&participantId=F22A38139CA34CA380C5E1036542E2DC&assignmentId=c89209ee-d3d9-420d-9037-ee4e24f60c7c&projectId=9596d7a2-d401-47b1-aedd-70105f5f2f42","F22A38139CA34CA380C5E1036542E2DC-2025-05-28-19-03-34","","null","","images/semantic_sequence/market_semantic/market_semantic_0.png","null","",""
"","","","","","html-audio-response","12","295698","0.0-10.0","F22A38139CA34CA380C5E1036542E2DC","F22A38139CA34CA380C5E1036542E2DC","c89209ee-d3d9-420d-9037-ee4e24f60c7c","9596d7a2-d401-47b1-aedd-70105f5f2f42","{""part"":""2"",""participantId"":""F22A38139CA34CA380C5E1036542E2DC"",""assignmentId"":""c89209ee-d3d9-420d-9037-ee4e24f60c7c"",""projectId"":""9596d7a2-d401-47b1-aedd-70105f5f2f42""}","https://test12345.live/?part=2&participantId=F22A38139CA34CA380C5E1036542E2DC&assignmentId=c89209ee-d3d9-420d-9037-ee4e24f60c7c&projectId=9596d7a2-d401-47b1-aedd-70105f5f2f42","F22A38139CA34CA380C5E1036542E2DC-2025-05-28-19-03-34","","25126","","[""<span style=\""color: red; font-size: 24px\""> NOW RECORDING</span><p>Please say out loud all the images you saw in part 1 of the experiment, in the exact order you saw them. Try to recall as many images as you can, but remember: getting the order right is more important than the number of images you recall. </p>""]","","1","market_semantic"
"","","","","","image-button-response","13","301712","0.0-11.0-0.0","F22A38139CA34CA380C5E1036542E2DC","F22A38139CA34CA380C5E1036542E2DC","c89209ee-d3d9-420d-9037-ee4e24f60c7c","9596d7a2-d401-47b1-aedd-70105f5f2f42","{""part"":""2"",""participantId"":""F22A38139CA34CA380C5E1036542E2DC"",""assignmentId"":""c89209ee-d3d9-420d-9037-ee4e24f60c7c"",""projectId"":""9596d7a2-d401-47b1-aedd-70105f5f2f42""}","https://test12345.live/?part=2&participantId=F22A38139CA34CA380C5E1036542E2DC&assignmentId=c89209ee-d3d9-420d-9037-ee4e24f60c7c&projectId=9596d7a2-d401-47b1-aedd-70105f5f2f42","F22A38139CA34CA380C5E1036542E2DC-2025-05-28-19-03-34","","null","","images/semantic_sequence/redecorating_semantic/redecorating_semantic_0.png","null","",""
"","","","","","html-audio-response","14","323081","0.0-12.0","F22A38139CA34CA380C5E1036542E2DC","F22A38139CA34CA380C5E1036542E2DC","c89209ee-d3d9-420d-9037-ee4e24f60c7c","9596d7a2-d401-47b1-aedd-70105f5f2f42","{""part"":""2"",""participantId"":""F22A38139CA34CA380C5E1036542E2DC"",""assignmentId"":""c89209ee-d3d9-420d-9037-ee4e24f60c7c"",""projectId"":""9596d7a2-d401-47b1-aedd-70105f5f2f42""}","https://test12345.live/?part=2&participantId=F22A38139CA34CA380C5E1036542E2DC&assignmentId=c89209ee-d3d9-420d-9037-ee4e24f60c7c&projectId=9596d7a2-d401-47b1-aedd-70105f5f2f42","F22A38139CA34CA380C5E1036542E2DC-2025-05-28-19-03-34","","20250","","[""<span style=\""color: red; font-size: 24px\""> NOW RECORDING</span><p>Please say out loud all the images you saw in part 1 of the experiment, in the exact order you saw them. Try to recall as many images as you can, but remember: getting the order right is more important than the number of images you recall. </p>""]","","1","redecorating_semantic"
"","","","","","image-button-response","15","329102","0.0-13.0-0.0","F22A38139CA34CA380C5E1036542E2DC","F22A38139CA34CA380C5E1036542E2DC","c89209ee-d3d9-420d-9037-ee4e24f60c7c","9596d7a2-d401-47b1-aedd-70105f5f2f42","{""part"":""2"",""participantId"":""F22A38139CA34CA380C5E1036542E2DC"",""assignmentId"":""c89209ee-d3d9-420d-9037-ee4e24f60c7c"",""projectId"":""9596d7a2-d401-47b1-aedd-70105f5f2f42""}","https://test12345.live/?part=2&participantId=F22A38139CA34CA380C5E1036542E2DC&assignmentId=c89209ee-d3d9-420d-9037-ee4e24f60c7c&projectId=9596d7a2-d401-47b1-aedd-70105f5f2f42","F22A38139CA34CA380C5E1036542E2DC-2025-05-28-19-03-34","","null","","images/causal_sequence/saving_a_cat_causal/saving_a_cat_causal_0.png","null","",""
"","","","","","html-audio-response","16","358543","0.0-14.0","F22A38139CA34CA380C5E1036542E2DC","F22A38139CA34CA380C5E1036542E2DC","c89209ee-d3d9-420d-9037-ee4e24f60c7c","9596d7a2-d401-47b1-aedd-70105f5f2f42","{""part"":""2"",""participantId"":""F22A38139CA34CA380C5E1036542E2DC"",""assignmentId"":""c89209ee-d3d9-420d-9037-ee4e24f60c7c"",""projectId"":""9596d7a2-d401-47b1-aedd-70105f5f2f42""}","https://test12345.live/?part=2&participantId=F22A38139CA34CA380C5E1036542E2DC&assignmentId=c89209ee-d3d9-420d-9037-ee4e24f60c7c&projectId=9596d7a2-d401-47b1-aedd-70105f5f2f42","F22A38139CA34CA380C5E1036542E2DC-2025-05-28-19-03-34","","28338","","[""<span style=\""color: red; font-size: 24px\""> NOW RECORDING</span><p>Please say out loud all the images you saw in part 1 of the experiment, in the exact order you saw them. Try to recall as many images as you can, but remember: getting the order right is more important than the number of images you recall. </p>""]","","10","saving_a_cat_causal"
"","","","","","image-button-response","17","364554","0.0-15.0-0.0","F22A38139CA34CA380C5E1036542E2DC","F22A38139CA34CA380C5E1036542E2DC","c89209ee-d3d9-420d-9037-ee4e24f60c7c","9596d7a2-d401-47b1-aedd-70105f5f2f42","{""part"":""2"",""participantId"":""F22A38139CA34CA380C5E1036542E2DC"",""assignmentId"":""c89209ee-d3d9-420d-9037-ee4e24f60c7c"",""projectId"":""9596d7a2-d401-47b1-aedd-70105f5f2f42""}","https://test12345.live/?part=2&participantId=F22A38139CA34CA380C5E1036542E2DC&assignmentId=c89209ee-d3d9-420d-9037-ee4e24f60c7c&projectId=9596d7a2-d401-47b1-aedd-70105f5f2f42","F22A38139CA34CA380C5E1036542E2DC-2025-05-28-19-03-34","","null","","images/semantic_sequence/self_care_activities_semantic/self_care_activities_semantic_0.png","null","",""
"","","","","","html-audio-response","18","381952","0.0-16.0","F22A38139CA34CA380C5E1036542E2DC","F22A38139CA34CA380C5E1036542E2DC","c89209ee-d3d9-420d-9037-ee4e24f60c7c","9596d7a2-d401-47b1-aedd-70105f5f2f42","{""part"":""2"",""participantId"":""F22A38139CA34CA380C5E1036542E2DC"",""assignmentId"":""c89209ee-d3d9-420d-9037-ee4e24f60c7c"",""projectId"":""9596d7a2-d401-47b1-aedd-70105f5f2f42""}","https://test12345.live/?part=2&participantId=F22A38139CA34CA380C5E1036542E2DC&assignmentId=c89209ee-d3d9-420d-9037-ee4e24f60c7c&projectId=9596d7a2-d401-47b1-aedd-70105f5f2f42","F22A38139CA34CA380C5E1036542E2DC-2025-05-28-19-03-34","","15793","","[""<span style=\""color: red; font-size: 24px\""> NOW RECORDING</span><p>Please say out loud all the images you saw in part 1 of the experiment, in the exact order you saw them. Try to recall as many images as you can, but remember: getting the order right is more important than the number of images you recall. </p>""]","","1","self_care_activities_semantic"
"","","","","","image-button-response","19","387958","0.0-17.0-0.0","F22A38139CA34CA380C5E1036542E2DC","F22A38139CA34CA380C5E1036542E2DC","c89209ee-d3d9-420d-9037-ee4e24f60c7c","9596d7a2-d401-47b1-aedd-70105f5f2f42","{""part"":""2"",""participantId"":""F22A38139CA34CA380C5E1036542E2DC"",""assignmentId"":""c89209ee-d3d9-420d-9037-ee4e24f60c7c"",""projectId"":""9596d7a2-d401-47b1-aedd-70105f5f2f42""}","https://test12345.live/?part=2&participantId=F22A38139CA34CA380C5E1036542E2DC&assignmentId=c89209ee-d3d9-420d-9037-ee4e24f60c7c&projectId=9596d7a2-d401-47b1-aedd-70105f5f2f42","F22A38139CA34CA380C5E1036542E2DC-2025-05-28-19-03-34","","null","","images/causal_sequence/the_performance_causal/the_performance_causal_0.png","null","",""
"","","","","","html-audio-response","20","408186","0.0-18.0","F22A38139CA34CA380C5E1036542E2DC","F22A38139CA34CA380C5E1036542E2DC","c89209ee-d3d9-420d-9037-ee4e24f60c7c","9596d7a2-d401-47b1-aedd-70105f5f2f42","{""part"":""2"",""participantId"":""F22A38139CA34CA380C5E1036542E2DC"",""assignmentId"":""c89209ee-d3d9-420d-9037-ee4e24f60c7c"",""projectId"":""9596d7a2-d401-47b1-aedd-70105f5f2f42""}","https://test12345.live/?part=2&participantId=F22A38139CA34CA380C5E1036542E2DC&assignmentId=c89209ee-d3d9-420d-9037-ee4e24f60c7c&projectId=9596d7a2-d401-47b1-aedd-70105f5f2f42","F22A38139CA34CA380C5E1036542E2DC-2025-05-28-19-03-34","","19319","","[""<span style=\""color: red; font-size: 24px\""> NOW RECORDING</span><p>Please say out loud all the images you saw in part 1 of the experiment, in the exact order you saw them. Try to recall as many images as you can, but remember: getting the order right is more important than the number of images you recall. </p>""]","","1","the_performance_causal"
"","","","","","image-button-response","21","414204","0.0-19.0-0.0","F22A38139CA34CA380C5E1036542E2DC","F22A38139CA34CA380C5E1036542E2DC","c89209ee-d3d9-420d-9037-ee4e24f60c7c","9596d7a2-d401-47b1-aedd-70105f5f2f42","{""part"":""2"",""participantId"":""F22A38139CA34CA380C5E1036542E2DC"",""assignmentId"":""c89209ee-d3d9-420d-9037-ee4e24f60c7c"",""projectId"":""9596d7a2-d401-47b1-aedd-70105f5f2f42""}","https://test12345.live/?part=2&participantId=F22A38139CA34CA380C5E1036542E2DC&assignmentId=c89209ee-d3d9-420d-9037-ee4e24f60c7c&projectId=9596d7a2-d401-47b1-aedd-70105f5f2f42","F22A38139CA34CA380C5E1036542E2DC-2025-05-28-19-03-34","","null","","images/semantic_sequence/exploring_nature_semantic/exploring_nature_semantic_0.png","null","",""
"","","","","","html-audio-response","22","430532","0.0-20.0","F22A38139CA34CA380C5E1036542E2DC","F22A38139CA34CA380C5E1036542E2DC","c89209ee-d3d9-420d-9037-ee4e24f60c7c","9596d7a2-d401-47b1-aedd-70105f5f2f42","{""part"":""2"",""participantId"":""F22A38139CA34CA380C5E1036542E2DC"",""assignmentId"":""c89209ee-d3d9-420d-9037-ee4e24f60c7c"",""projectId"":""9596d7a2-d401-47b1-aedd-70105f5f2f42""}","https://test12345.live/?part=2&participantId=F22A38139CA34CA380C5E1036542E2DC&assignmentId=c89209ee-d3d9-420d-9037-ee4e24f60c7c&projectId=9596d7a2-d401-47b1-aedd-70105f5f2f42","F22A38139CA34CA380C5E1036542E2DC-2025-05-28-19-03-34","","15201","","[""<span style=\""color: red; font-size: 24px\""> NOW RECORDING</span><p>Please say out loud all the images you saw in part 1 of the experiment, in the exact order you saw them. Try to recall as many images as you can, but remember: getting the order right is more important than the number of images you recall. </p>""]","","1","exploring_nature_semantic"
"","","","","","image-button-response","23","436547","0.0-21.0-0.0","F22A38139CA34CA380C5E1036542E2DC","F22A38139CA34CA380C5E1036542E2DC","c89209ee-d3d9-420d-9037-ee4e24f60c7c","9596d7a2-d401-47b1-aedd-70105f5f2f42","{""part"":""2"",""participantId"":""F22A38139CA34CA380C5E1036542E2DC"",""assignmentId"":""c89209ee-d3d9-420d-9037-ee4e24f60c7c"",""projectId"":""9596d7a2-d401-47b1-aedd-70105f5f2f42""}","https://test12345.live/?part=2&participantId=F22A38139CA34CA380C5E1036542E2DC&assignmentId=c89209ee-d3d9-420d-9037-ee4e24f60c7c&projectId=9596d7a2-d401-47b1-aedd-70105f5f2f42","F22A38139CA34CA380C5E1036542E2DC-2025-05-28-19-03-34","","null","","images/semantic_sequence/physical_activity_semantic/physical_activity_semantic_0.png","null","",""
"","","","","","html-audio-response","24","458180","0.0-22.0","F22A38139CA34CA380C5E1036542E2DC","F22A38139CA34CA380C5E1036542E2DC","c89209ee-d3d9-420d-9037-ee4e24f60c7c","9596d7a2-d401-47b1-aedd-70105f5f2f42","{""part"":""2"",""participantId"":""F22A38139CA34CA380C5E1036542E2DC"",""assignmentId"":""c89209ee-d3d9-420d-9037-ee4e24f60c7c"",""projectId"":""9596d7a2-d401-47b1-aedd-70105f5f2f42""}","https://test12345.live/?part=2&participantId=F22A38139CA34CA380C5E1036542E2DC&assignmentId=c89209ee-d3d9-420d-9037-ee4e24f60c7c&projectId=9596d7a2-d401-47b1-aedd-70105f5f2f42","F22A38139CA34CA380C5E1036542E2DC-2025-05-28-19-03-34","","19530","","[""<span style=\""color: red; font-size: 24px\""> NOW RECORDING</span><p>Please say out loud all the images you saw in part 1 of the experiment, in the exact order you saw them. Try to recall as many images as you can, but remember: getting the order right is more important than the number of images you recall. </p>""]","","1","physical_activity_semantic"
"","","","","","image-button-response","25","464196","0.0-23.0-0.0","F22A38139CA34CA380C5E1036542E2DC","F22A38139CA34CA380C5E1036542E2DC","c89209ee-d3d9-420d-9037-ee4e24f60c7c","9596d7a2-d401-47b1-aedd-70105f5f2f42","{""part"":""2"",""participantId"":""F22A38139CA34CA380C5E1036542E2DC"",""assignmentId"":""c89209ee-d3d9-420d-9037-ee4e24f60c7c"",""projectId"":""9596d7a2-d401-47b1-aedd-70105f5f2f42""}","https://test12345.live/?part=2&participantId=F22A38139CA34CA380C5E1036542E2DC&assignmentId=c89209ee-d3d9-420d-9037-ee4e24f60c7c&projectId=9596d7a2-d401-47b1-aedd-70105f5f2f42","F22A38139CA34CA380C5E1036542E2DC-2025-05-28-19-03-34","","null","","images/semantic_sequence/maintaining_a_car_semantic/maintaining_a_car_semantic_0.png","null","",""
"","","","","","html-audio-response","26","486426","0.0-24.0","F22A38139CA34CA380C5E1036542E2DC","F22A38139CA34CA380C5E1036542E2DC","c89209ee-d3d9-420d-9037-ee4e24f60c7c","9596d7a2-d401-47b1-aedd-70105f5f2f42","{""part"":""2"",""participantId"":""F22A38139CA34CA380C5E1036542E2DC"",""assignmentId"":""c89209ee-d3d9-420d-9037-ee4e24f60c7c"",""projectId"":""9596d7a2-d401-47b1-aedd-70105f5f2f42""}","https://test12345.live/?part=2&participantId=F22A38139CA34CA380C5E1036542E2DC&assignmentId=c89209ee-d3d9-420d-9037-ee4e24f60c7c&projectId=9596d7a2-d401-47b1-aedd-70105f5f2f42","F22A38139CA34CA380C5E1036542E2DC-2025-05-28-19-03-34","","21354","","[""<span style=\""color: red; font-size: 24px\""> NOW RECORDING</span><p>Please say out loud all the images you saw in part 1 of the experiment, in the exact order you saw them. Try to recall as many images as you can, but remember: getting the order right is more important than the number of images you recall. </p>""]","","1","maintaining_a_car_semantic"
"","","","","","image-button-response","27","492434","0.0-25.0-0.0","F22A38139CA34CA380C5E1036542E2DC","F22A38139CA34CA380C5E1036542E2DC","c89209ee-d3d9-420d-9037-ee4e24f60c7c","9596d7a2-d401-47b1-aedd-70105f5f2f42","{""part"":""2"",""participantId"":""F22A38139CA34CA380C5E1036542E2DC"",""assignmentId"":""c89209ee-d3d9-420d-9037-ee4e24f60c7c"",""projectId"":""9596d7a2-d401-47b1-aedd-70105f5f2f42""}","https://test12345.live/?part=2&participantId=F22A38139CA34CA380C5E1036542E2DC&assignmentId=c89209ee-d3d9-420d-9037-ee4e24f60c7c&projectId=9596d7a2-d401-47b1-aedd-70105f5f2f42","F22A38139CA34CA380C5E1036542E2DC-2025-05-28-19-03-34","","null","","images/semantic_sequence/kitchen_operations_semantic/kitchen_operations_semantic_0.png","null","",""
"","","","","","html-audio-response","28","501168","0.0-26.0","F22A38139CA34CA380C5E1036542E2DC","F22A38139CA34CA380C5E1036542E2DC","c89209ee-d3d9-420d-9037-ee4e24f60c7c","9596d7a2-d401-47b1-aedd-70105f5f2f42","{""part"":""2"",""participantId"":""F22A38139CA34CA380C5E1036542E2DC"",""assignmentId"":""c89209ee-d3d9-420d-9037-ee4e24f60c7c"",""projectId"":""9596d7a2-d401-47b1-aedd-70105f5f2f42""}","https://test12345.live/?part=2&participantId=F22A38139CA34CA380C5E1036542E2DC&assignmentId=c89209ee-d3d9-420d-9037-ee4e24f60c7c&projectId=9596d7a2-d401-47b1-aedd-70105f5f2f42","F22A38139CA34CA380C5E1036542E2DC-2025-05-28-19-03-34","","7973","","[""<span style=\""color: red; font-size: 24px\""> NOW RECORDING</span><p>Please say out loud all the images you saw in part 1 of the experiment, in the exact order you saw them. Try to recall as many images as you can, but remember: getting the order right is more important than the number of images you recall. </p>""]","","2","kitchen_operations_semantic"
"","","","","","image-button-response","29","507176","0.0-27.0-0.0","F22A38139CA34CA380C5E1036542E2DC","F22A38139CA34CA380C5E1036542E2DC","c89209ee-d3d9-420d-9037-ee4e24f60c7c","9596d7a2-d401-47b1-aedd-70105f5f2f42","{""part"":""2"",""participantId"":""F22A38139CA34CA380C5E1036542E2DC"",""assignmentId"":""c89209ee-d3d9-420d-9037-ee4e24f60c7c"",""projectId"":""9596d7a2-d401-47b1-aedd-70105f5f2f42""}","https://test12345.live/?part=2&participantId=F22A38139CA34CA380C5E1036542E2DC&assignmentId=c89209ee-d3d9-420d-9037-ee4e24f60c7c&projectId=9596d7a2-d401-47b1-aedd-70105f5f2f42","F22A38139CA34CA380C5E1036542E2DC-2025-05-28-19-03-34","","null","","images/semantic_sequence/cat_care_semantic/cat_care_semantic_0.png","null","",""
"","","","","","html-audio-response","30","519437","0.0-28.0","F22A38139CA34CA380C5E1036542E2DC","F22A38139CA34CA380C5E1036542E2DC","c89209ee-d3d9-420d-9037-ee4e24f60c7c","9596d7a2-d401-47b1-aedd-70105f5f2f42","{""part"":""2"",""participantId"":""F22A38139CA34CA380C5E1036542E2DC"",""assignmentId"":""c89209ee-d3d9-420d-9037-ee4e24f60c7c"",""projectId"":""9596d7a2-d401-47b1-aedd-70105f5f2f42""}","https://test12345.live/?part=2&participantId=F22A38139CA34CA380C5E1036542E2DC&assignmentId=c89209ee-d3d9-420d-9037-ee4e24f60c7c&projectId=9596d7a2-d401-47b1-aedd-70105f5f2f42","F22A38139CA34CA380C5E1036542E2DC-2025-05-28-19-03-34","","11115","","[""<span style=\""color: red; font-size: 24px\""> NOW RECORDING</span><p>Please say out loud all the images you saw in part 1 of the experiment, in the exact order you saw them. Try to recall as many images as you can, but remember: getting the order right is more important than the number of images you recall. </p>""]","","2","cat_care_semantic"
"","","","","","image-button-response","31","525454","0.0-29.0-0.0","F22A38139CA34CA380C5E1036542E2DC","F22A38139CA34CA380C5E1036542E2DC","c89209ee-d3d9-420d-9037-ee4e24f60c7c","9596d7a2-d401-47b1-aedd-70105f5f2f42","{""part"":""2"",""participantId"":""F22A38139CA34CA380C5E1036542E2DC"",""assignmentId"":""c89209ee-d3d9-420d-9037-ee4e24f60c7c"",""projectId"":""9596d7a2-d401-47b1-aedd-70105f5f2f42""}","https://test12345.live/?part=2&participantId=F22A38139CA34CA380C5E1036542E2DC&assignmentId=c89209ee-d3d9-420d-9037-ee4e24f60c7c&projectId=9596d7a2-d401-47b1-aedd-70105f5f2f42","F22A38139CA34CA380C5E1036542E2DC-2025-05-28-19-03-34","","null","","images/semantic_sequence/creative_activities_semantic/creative_activities_semantic_0.png","null","",""
"","","","","","html-audio-response","32","561292","0.0-30.0","F22A38139CA34CA380C5E1036542E2DC","F22A38139CA34CA380C5E1036542E2DC","c89209ee-d3d9-420d-9037-ee4e24f60c7c","9596d7a2-d401-47b1-aedd-70105f5f2f42","{""part"":""2"",""participantId"":""F22A38139CA34CA380C5E1036542E2DC"",""assignmentId"":""c89209ee-d3d9-420d-9037-ee4e24f60c7c"",""projectId"":""9596d7a2-d401-47b1-aedd-70105f5f2f42""}","https://test12345.live/?part=2&participantId=F22A38139CA34CA380C5E1036542E2DC&assignmentId=c89209ee-d3d9-420d-9037-ee4e24f60c7c&projectId=9596d7a2-d401-47b1-aedd-70105f5f2f42","F22A38139CA34CA380C5E1036542E2DC-2025-05-28-19-03-34","","7059","","[""<span style=\""color: red; font-size: 24px\""> NOW RECORDING</span><p>Please say out loud all the images you saw in part 1 of the experiment, in the exact order you saw them. Try to recall as many images as you can, but remember: getting the order right is more important than the number of images you recall. </p>""]","","11","creative_activities_semantic"
"","","","","","image-button-response","33","567310","0.0-31.0-0.0","F22A38139CA34CA380C5E1036542E2DC","F22A38139CA34CA380C5E1036542E2DC","c89209ee-d3d9-420d-9037-ee4e24f60c7c","9596d7a2-d401-47b1-aedd-70105f5f2f42","{""part"":""2"",""participantId"":""F22A38139CA34CA380C5E1036542E2DC"",""assignmentId"":""c89209ee-d3d9-420d-9037-ee4e24f60c7c"",""projectId"":""9596d7a2-d401-47b1-aedd-70105f5f2f42""}","https://test12345.live/?part=2&participantId=F22A38139CA34CA380C5E1036542E2DC&assignmentId=c89209ee-d3d9-420d-9037-ee4e24f60c7c&projectId=9596d7a2-d401-47b1-aedd-70105f5f2f42","F22A38139CA34CA380C5E1036542E2DC-2025-05-28-19-03-34","","null","","images/causal_sequence/package_causal/package_causal_0.png","null","",""
"","","","","","html-audio-response","34","585280","0.0-32.0","F22A38139CA34CA380C5E1036542E2DC","F22A38139CA34CA380C5E1036542E2DC","c89209ee-d3d9-420d-9037-ee4e24f60c7c","9596d7a2-d401-47b1-aedd-70105f5f2f42","{""part"":""2"",""participantId"":""F22A38139CA34CA380C5E1036542E2DC"",""assignmentId"":""c89209ee-d3d9-420d-9037-ee4e24f60c7c"",""projectId"":""9596d7a2-d401-47b1-aedd-70105f5f2f42""}","https://test12345.live/?part=2&participantId=F22A38139CA34CA380C5E1036542E2DC&assignmentId=c89209ee-d3d9-420d-9037-ee4e24f60c7c&projectId=9596d7a2-d401-47b1-aedd-70105f5f2f42","F22A38139CA34CA380C5E1036542E2DC-2025-05-28-19-03-34","","17210","","[""<span style=\""color: red; font-size: 24px\""> NOW RECORDING</span><p>Please say out loud all the images you saw in part 1 of the experiment, in the exact order you saw them. Try to recall as many images as you can, but remember: getting the order right is more important than the number of images you recall. </p>""]","","1","package_causal"
"","","","","","image-button-response","35","591296","0.0-33.0-0.0","F22A38139CA34CA380C5E1036542E2DC","F22A38139CA34CA380C5E1036542E2DC","c89209ee-d3d9-420d-9037-ee4e24f60c7c","9596d7a2-d401-47b1-aedd-70105f5f2f42","{""part"":""2"",""participantId"":""F22A38139CA34CA380C5E1036542E2DC"",""assignmentId"":""c89209ee-d3d9-420d-9037-ee4e24f60c7c"",""projectId"":""9596d7a2-d401-47b1-aedd-70105f5f2f42""}","https://test12345.live/?part=2&participantId=F22A38139CA34CA380C5E1036542E2DC&assignmentId=c89209ee-d3d9-420d-9037-ee4e24f60c7c&projectId=9596d7a2-d401-47b1-aedd-70105f5f2f42","F22A38139CA34CA380C5E1036542E2DC-2025-05-28-19-03-34","","null","","images/semantic_sequence/visiting_cities_semantic/visiting_cities_semantic_0.png","null","",""
"","","","","","html-audio-response","36","610803","0.0-34.0","F22A38139CA34CA380C5E1036542E2DC","F22A38139CA34CA380C5E1036542E2DC","c89209ee-d3d9-420d-9037-ee4e24f60c7c","9596d7a2-d401-47b1-aedd-70105f5f2f42","{""part"":""2"",""participantId"":""F22A38139CA34CA380C5E1036542E2DC"",""assignmentId"":""c89209ee-d3d9-420d-9037-ee4e24f60c7c"",""projectId"":""9596d7a2-d401-47b1-aedd-70105f5f2f42""}","https://test12345.live/?part=2&participantId=F22A38139CA34CA380C5E1036542E2DC&assignmentId=c89209ee-d3d9-420d-9037-ee4e24f60c7c&projectId=9596d7a2-d401-47b1-aedd-70105f5f2f42","F22A38139CA34CA380C5E1036542E2DC-2025-05-28-19-03-34","","14741","","[""<span style=\""color: red; font-size: 24px\""> NOW RECORDING</span><p>Please say out loud all the images you saw in part 1 of the experiment, in the exact order you saw them. Try to recall as many images as you can, but remember: getting the order right is more important than the number of images you recall. </p>""]","","1","visiting_cities_semantic"
"","","","","","instructions","37","828712","0.0-35.0","F22A38139CA34CA380C5E1036542E2DC","F22A38139CA34CA380C5E1036542E2DC","c89209ee-d3d9-420d-9037-ee4e24f60c7c","9596d7a2-d401-47b1-aedd-70105f5f2f42","{""part"":""2"",""participantId"":""F22A38139CA34CA380C5E1036542E2DC"",""assignmentId"":""c89209ee-d3d9-420d-9037-ee4e24f60c7c"",""projectId"":""9596d7a2-d401-47b1-aedd-70105f5f2f42""}","https://test12345.live/?part=2&participantId=F22A38139CA34CA380C5E1036542E2DC&assignmentId=c89209ee-d3d9-420d-9037-ee4e24f60c7c&projectId=9596d7a2-d401-47b1-aedd-70105f5f2f42","F22A38139CA34CA380C5E1036542E2DC-2025-05-28-19-03-34","[{""page_index"":0,""viewing_time"":217905}]","217905","","","","",""
"","","","","","image-button-response","38","834713","0.0-36.0-0.0","F22A38139CA34CA380C5E1036542E2DC","F22A38139CA34CA380C5E1036542E2DC","c89209ee-d3d9-420d-9037-ee4e24f60c7c","9596d7a2-d401-47b1-aedd-70105f5f2f42","{""part"":""2"",""participantId"":""F22A38139CA34CA380C5E1036542E2DC"",""assignmentId"":""c89209ee-d3d9-420d-9037-ee4e24f60c7c"",""projectId"":""9596d7a2-d401-47b1-aedd-70105f5f2f42""}","https://test12345.live/?part=2&participantId=F22A38139CA34CA380C5E1036542E2DC&assignmentId=c89209ee-d3d9-420d-9037-ee4e24f60c7c&projectId=9596d7a2-d401-47b1-aedd-70105f5f2f42","F22A38139CA34CA380C5E1036542E2DC-2025-05-28-19-03-34","","null","","images/schematic_sequence/flight_scheme/flight_scheme_0.png","null","",""
"","","","","","html-audio-response","39","840850","0.0-37.0","F22A38139CA34CA380C5E1036542E2DC","F22A38139CA34CA380C5E1036542E2DC","c89209ee-d3d9-420d-9037-ee4e24f60c7c","9596d7a2-d401-47b1-aedd-70105f5f2f42","{""part"":""2"",""participantId"":""F22A38139CA34CA380C5E1036542E2DC"",""assignmentId"":""c89209ee-d3d9-420d-9037-ee4e24f60c7c"",""projectId"":""9596d7a2-d401-47b1-aedd-70105f5f2f42""}","https://test12345.live/?part=2&participantId=F22A38139CA34CA380C5E1036542E2DC&assignmentId=c89209ee-d3d9-420d-9037-ee4e24f60c7c&projectId=9596d7a2-d401-47b1-aedd-70105f5f2f42","F22A38139CA34CA380C5E1036542E2DC-2025-05-28-19-03-34","","5333","","[""<span style=\""color: red; font-size: 24px\""> NOW RECORDING</span><p>Please say out loud all the images you saw in part 1 of the experiment, in the exact order you saw them. Try to recall as many images as you can, but remember: getting the order right is more important than the number of images you recall. </p>""]","","1","flight_scheme"
"","","","","","image-button-response","40","846858","0.0-38.0-0.0","F22A38139CA34CA380C5E1036542E2DC","F22A38139CA34CA380C5E1036542E2DC","c89209ee-d3d9-420d-9037-ee4e24f60c7c","9596d7a2-d401-47b1-aedd-70105f5f2f42","{""part"":""2"",""participantId"":""F22A38139CA34CA380C5E1036542E2DC"",""assignmentId"":""c89209ee-d3d9-420d-9037-ee4e24f60c7c"",""projectId"":""9596d7a2-d401-47b1-aedd-70105f5f2f42""}","https://test12345.live/?part=2&participantId=F22A38139CA34CA380C5E1036542E2DC&assignmentId=c89209ee-d3d9-420d-9037-ee4e24f60c7c&projectId=9596d7a2-d401-47b1-aedd-70105f5f2f42","F22A38139CA34CA380C5E1036542E2DC-2025-05-28-19-03-34","","null","","images/schematic_sequence/interview_scheme/interview_scheme_0.png","null","",""
"","","","","","html-audio-response","41","863460","0.0-39.0","F22A38139CA34CA380C5E1036542E2DC","F22A38139CA34CA380C5E1036542E2DC","c89209ee-d3d9-420d-9037-ee4e24f60c7c","9596d7a2-d401-47b1-aedd-70105f5f2f42","{""part"":""2"",""participantId"":""F22A38139CA34CA380C5E1036542E2DC"",""assignmentId"":""c89209ee-d3d9-420d-9037-ee4e24f60c7c"",""projectId"":""9596d7a2-d401-47b1-aedd-70105f5f2f42""}","https://test12345.live/?part=2&participantId=F22A38139CA34CA380C5E1036542E2DC&assignmentId=c89209ee-d3d9-420d-9037-ee4e24f60c7c&projectId=9596d7a2-d401-47b1-aedd-70105f5f2f42","F22A38139CA34CA380C5E1036542E2DC-2025-05-28-19-03-34","","15346","","[""<span style=\""color: red; font-size: 24px\""> NOW RECORDING</span><p>Please say out loud all the images you saw in part 1 of the experiment, in the exact order you saw them. Try to recall as many images as you can, but remember: getting the order right is more important than the number of images you recall. </p>""]","","1","interview_scheme"
"","","","","","image-button-response","42","869478","0.0-40.0-0.0","F22A38139CA34CA380C5E1036542E2DC","F22A38139CA34CA380C5E1036542E2DC","c89209ee-d3d9-420d-9037-ee4e24f60c7c","9596d7a2-d401-47b1-aedd-70105f5f2f42","{""part"":""2"",""participantId"":""F22A38139CA34CA380C5E1036542E2DC"",""assignmentId"":""c89209ee-d3d9-420d-9037-ee4e24f60c7c"",""projectId"":""9596d7a2-d401-47b1-aedd-70105f5f2f42""}","https://test12345.live/?part=2&participantId=F22A38139CA34CA380C5E1036542E2DC&assignmentId=c89209ee-d3d9-420d-9037-ee4e24f60c7c&projectId=9596d7a2-d401-47b1-aedd-70105f5f2f42","F22A38139CA34CA380C5E1036542E2DC-2025-05-28-19-03-34","","null","","images/causal_sequence/coin_causal/coin_causal_0.png","null","",""
"","","","","","html-audio-response","43","877304","0.0-41.0","F22A38139CA34CA380C5E1036542E2DC","F22A38139CA34CA380C5E1036542E2DC","c89209ee-d3d9-420d-9037-ee4e24f60c7c","9596d7a2-d401-47b1-aedd-70105f5f2f42","{""part"":""2"",""participantId"":""F22A38139CA34CA380C5E1036542E2DC"",""assignmentId"":""c89209ee-d3d9-420d-9037-ee4e24f60c7c"",""projectId"":""9596d7a2-d401-47b1-aedd-70105f5f2f42""}","https://test12345.live/?part=2&participantId=F22A38139CA34CA380C5E1036542E2DC&assignmentId=c89209ee-d3d9-420d-9037-ee4e24f60c7c&projectId=9596d7a2-d401-47b1-aedd-70105f5f2f42","F22A38139CA34CA380C5E1036542E2DC-2025-05-28-19-03-34","","6736","","[""<span style=\""color: red; font-size: 24px\""> NOW RECORDING</span><p>Please say out loud all the images you saw in part 1 of the experiment, in the exact order you saw them. Try to recall as many images as you can, but remember: getting the order right is more important than the number of images you recall. </p>""]","","1","coin_causal"
"","","","","","image-button-response","44","883320","0.0-42.0-0.0","F22A38139CA34CA380C5E1036542E2DC","F22A38139CA34CA380C5E1036542E2DC","c89209ee-d3d9-420d-9037-ee4e24f60c7c","9596d7a2-d401-47b1-aedd-70105f5f2f42","{""part"":""2"",""participantId"":""F22A38139CA34CA380C5E1036542E2DC"",""assignmentId"":""c89209ee-d3d9-420d-9037-ee4e24f60c7c"",""projectId"":""9596d7a2-d401-47b1-aedd-70105f5f2f42""}","https://test12345.live/?part=2&participantId=F22A38139CA34CA380C5E1036542E2DC&assignmentId=c89209ee-d3d9-420d-9037-ee4e24f60c7c&projectId=9596d7a2-d401-47b1-aedd-70105f5f2f42","F22A38139CA34CA380C5E1036542E2DC-2025-05-28-19-03-34","","null","","images/schematic_sequence/supermarket_scheme/supermarket_scheme_0.png","null","",""
"","","","","","html-audio-response","45","902148","0.0-43.0","F22A38139CA34CA380C5E1036542E2DC","F22A38139CA34CA380C5E1036542E2DC","c89209ee-d3d9-420d-9037-ee4e24f60c7c","9596d7a2-d401-47b1-aedd-70105f5f2f42","{""part"":""2"",""participantId"":""F22A38139CA34CA380C5E1036542E2DC"",""assignmentId"":""c89209ee-d3d9-420d-9037-ee4e24f60c7c"",""projectId"":""9596d7a2-d401-47b1-aedd-70105f5f2f42""}","https://test12345.live/?part=2&participantId=F22A38139CA34CA380C5E1036542E2DC&assignmentId=c89209ee-d3d9-420d-9037-ee4e24f60c7c&projectId=9596d7a2-d401-47b1-aedd-70105f5f2f42","F22A38139CA34CA380C5E1036542E2DC-2025-05-28-19-03-34","","17937","","[""<span style=\""color: red; font-size: 24px\""> NOW RECORDING</span><p>Please say out loud all the images you saw in part 1 of the experiment, in the exact order you saw them. Try to recall as many images as you can, but remember: getting the order right is more important than the number of images you recall. </p>""]","","1","supermarket_scheme"
"","","","","","image-button-response","46","908168","0.0-44.0-0.0","F22A38139CA34CA380C5E1036542E2DC","F22A38139CA34CA380C5E1036542E2DC","c89209ee-d3d9-420d-9037-ee4e24f60c7c","9596d7a2-d401-47b1-aedd-70105f5f2f42","{""part"":""2"",""participantId"":""F22A38139CA34CA380C5E1036542E2DC"",""assignmentId"":""c89209ee-d3d9-420d-9037-ee4e24f60c7c"",""projectId"":""9596d7a2-d401-47b1-aedd-70105f5f2f42""}","https://test12345.live/?part=2&participantId=F22A38139CA34CA380C5E1036542E2DC&assignmentId=c89209ee-d3d9-420d-9037-ee4e24f60c7c&projectId=9596d7a2-d401-47b1-aedd-70105f5f2f42","F22A38139CA34CA380C5E1036542E2DC-2025-05-28-19-03-34","","null","","images/semantic_sequence/housework_semantic/housework_semantic_0.png","null","",""
"","","","","","html-audio-response","47","918730","0.0-45.0","F22A38139CA34CA380C5E1036542E2DC","F22A38139CA34CA380C5E1036542E2DC","c89209ee-d3d9-420d-9037-ee4e24f60c7c","9596d7a2-d401-47b1-aedd-70105f5f2f42","{""part"":""2"",""participantId"":""F22A38139CA34CA380C5E1036542E2DC"",""assignmentId"":""c89209ee-d3d9-420d-9037-ee4e24f60c7c"",""projectId"":""9596d7a2-d401-47b1-aedd-70105f5f2f42""}","https://test12345.live/?part=2&participantId=F22A38139CA34CA380C5E1036542E2DC&assignmentId=c89209ee-d3d9-420d-9037-ee4e24f60c7c&projectId=9596d7a2-d401-47b1-aedd-70105f5f2f42","F22A38139CA34CA380C5E1036542E2DC-2025-05-28-19-03-34","","9689","","[""<span style=\""color: red; font-size: 24px\""> NOW RECORDING</span><p>Please say out loud all the images you saw in part 1 of the experiment, in the exact order you saw them. Try to recall as many images as you can, but remember: getting the order right is more important than the number of images you recall. </p>""]","","1","housework_semantic"
"","","","","","image-button-response","48","924742","0.0-46.0-0.0","F22A38139CA34CA380C5E1036542E2DC","F22A38139CA34CA380C5E1036542E2DC","c89209ee-d3d9-420d-9037-ee4e24f60c7c","9596d7a2-d401-47b1-aedd-70105f5f2f42","{""part"":""2"",""participantId"":""F22A38139CA34CA380C5E1036542E2DC"",""assignmentId"":""c89209ee-d3d9-420d-9037-ee4e24f60c7c"",""projectId"":""9596d7a2-d401-47b1-aedd-70105f5f2f42""}","https://test12345.live/?part=2&participantId=F22A38139CA34CA380C5E1036542E2DC&assignmentId=c89209ee-d3d9-420d-9037-ee4e24f60c7c&projectId=9596d7a2-d401-47b1-aedd-70105f5f2f42","F22A38139CA34CA380C5E1036542E2DC-2025-05-28-19-03-34","","null","","images/causal_sequence/museum_causal/museum_causal_0.png","null","",""
"","","","","","html-audio-response","49","934277","0.0-47.0","F22A38139CA34CA380C5E1036542E2DC","F22A38139CA34CA380C5E1036542E2DC","c89209ee-d3d9-420d-9037-ee4e24f60c7c","9596d7a2-d401-47b1-aedd-70105f5f2f42","{""part"":""2"",""participantId"":""F22A38139CA34CA380C5E1036542E2DC"",""assignmentId"":""c89209ee-d3d9-420d-9037-ee4e24f60c7c"",""projectId"":""9596d7a2-d401-47b1-aedd-70105f5f2f42""}","https://test12345.live/?part=2&participantId=F22A38139CA34CA380C5E1036542E2DC&assignmentId=c89209ee-d3d9-420d-9037-ee4e24f60c7c&projectId=9596d7a2-d401-47b1-aedd-70105f5f2f42","F22A38139CA34CA380C5E1036542E2DC-2025-05-28-19-03-34","","8091","","[""<span style=\""color: red; font-size: 24px\""> NOW RECORDING</span><p>Please say out loud all the images you saw in part 1 of the experiment, in the exact order you saw them. Try to recall as many images as you can, but remember: getting the order right is more important than the number of images you recall. </p>""]","","1","museum_causal"
"","","","","","image-button-response","50","940282","0.0-48.0-0.0","F22A38139CA34CA380C5E1036542E2DC","F22A38139CA34CA380C5E1036542E2DC","c89209ee-d3d9-420d-9037-ee4e24f60c7c","9596d7a2-d401-47b1-aedd-70105f5f2f42","{""part"":""2"",""participantId"":""F22A38139CA34CA380C5E1036542E2DC"",""assignmentId"":""c89209ee-d3d9-420d-9037-ee4e24f60c7c"",""projectId"":""9596d7a2-d401-47b1-aedd-70105f5f2f42""}","https://test12345.live/?part=2&participantId=F22A38139CA34CA380C5E1036542E2DC&assignmentId=c89209ee-d3d9-420d-9037-ee4e24f60c7c&projectId=9596d7a2-d401-47b1-aedd-70105f5f2f42","F22A38139CA34CA380C5E1036542E2DC-2025-05-28-19-03-34","","null","","images/semantic_sequence/using_technology_semantic/using_technology_semantic_0.png","null","",""
"","","","","","html-audio-response","51","951796","0.0-49.0","F22A38139CA34CA380C5E1036542E2DC","F22A38139CA34CA380C5E1036542E2DC","c89209ee-d3d9-420d-9037-ee4e24f60c7c","9596d7a2-d401-47b1-aedd-70105f5f2f42","{""part"":""2"",""participantId"":""F22A38139CA34CA380C5E1036542E2DC"",""assignmentId"":""c89209ee-d3d9-420d-9037-ee4e24f60c7c"",""projectId"":""9596d7a2-d401-47b1-aedd-70105f5f2f42""}","https://test12345.live/?part=2&participantId=F22A38139CA34CA380C5E1036542E2DC&assignmentId=c89209ee-d3d9-420d-9037-ee4e24f60c7c&projectId=9596d7a2-d401-47b1-aedd-70105f5f2f42","F22A38139CA34CA380C5E1036542E2DC-2025-05-28-19-03-34","","10445","","[""<span style=\""color: red; font-size: 24px\""> NOW RECORDING</span><p>Please say out loud all the images you saw in part 1 of the experiment, in the exact order you saw them. Try to recall as many images as you can, but remember: getting the order right is more important than the number of images you recall. </p>""]","","1","using_technology_semantic"
"","","","","","image-button-response","52","957811","0.0-50.0-0.0","F22A38139CA34CA380C5E1036542E2DC","F22A38139CA34CA380C5E1036542E2DC","c89209ee-d3d9-420d-9037-ee4e24f60c7c","9596d7a2-d401-47b1-aedd-70105f5f2f42","{""part"":""2"",""participantId"":""F22A38139CA34CA380C5E1036542E2DC"",""assignmentId"":""c89209ee-d3d9-420d-9037-ee4e24f60c7c"",""projectId"":""9596d7a2-d401-47b1-aedd-70105f5f2f42""}","https://test12345.live/?part=2&participantId=F22A38139CA34CA380C5E1036542E2DC&assignmentId=c89209ee-d3d9-420d-9037-ee4e24f60c7c&projectId=9596d7a2-d401-47b1-aedd-70105f5f2f42","F22A38139CA34CA380C5E1036542E2DC-2025-05-28-19-03-34","","null","","images/schematic_sequence/restaurant_scheme/restaurant_scheme_0.png","null","",""
"","","","","","html-audio-response","53","973526","0.0-51.0","F22A38139CA34CA380C5E1036542E2DC","F22A38139CA34CA380C5E1036542E2DC","c89209ee-d3d9-420d-9037-ee4e24f60c7c","9596d7a2-d401-47b1-aedd-70105f5f2f42","{""part"":""2"",""participantId"":""F22A38139CA34CA380C5E1036542E2DC"",""assignmentId"":""c89209ee-d3d9-420d-9037-ee4e24f60c7c"",""projectId"":""9596d7a2-d401-47b1-aedd-70105f5f2f42""}","https://test12345.live/?part=2&participantId=F22A38139CA34CA380C5E1036542E2DC&assignmentId=c89209ee-d3d9-420d-9037-ee4e24f60c7c&projectId=9596d7a2-d401-47b1-aedd-70105f5f2f42","F22A38139CA34CA380C5E1036542E2DC-2025-05-28-19-03-34","","1902","","[""<span style=\""color: red; font-size: 24px\""> NOW RECORDING</span><p>Please say out loud all the images you saw in part 1 of the experiment, in the exact order you saw them. Try to recall as many images as you can, but remember: getting the order right is more important than the number of images you recall. </p>""]","","2","restaurant_scheme"
"","","","","","image-button-response","54","979536","0.0-52.0-0.0","F22A38139CA34CA380C5E1036542E2DC","F22A38139CA34CA380C5E1036542E2DC","c89209ee-d3d9-420d-9037-ee4e24f60c7c","9596d7a2-d401-47b1-aedd-70105f5f2f42","{""part"":""2"",""participantId"":""F22A38139CA34CA380C5E1036542E2DC"",""assignmentId"":""c89209ee-d3d9-420d-9037-ee4e24f60c7c"",""projectId"":""9596d7a2-d401-47b1-aedd-70105f5f2f42""}","https://test12345.live/?part=2&participantId=F22A38139CA34CA380C5E1036542E2DC&assignmentId=c89209ee-d3d9-420d-9037-ee4e24f60c7c&projectId=9596d7a2-d401-47b1-aedd-70105f5f2f42","F22A38139CA34CA380C5E1036542E2DC-2025-05-28-19-03-34","","null","","images/causal_sequence/dog_causal/dog_causal_0.png","null","",""
"","","","","","html-audio-response","55","1002811","0.0-53.0","F22A38139CA34CA380C5E1036542E2DC","F22A38139CA34CA380C5E1036542E2DC","c89209ee-d3d9-420d-9037-ee4e24f60c7c","9596d7a2-d401-47b1-aedd-70105f5f2f42","{""part"":""2"",""participantId"":""F22A38139CA34CA380C5E1036542E2DC"",""assignmentId"":""c89209ee-d3d9-420d-9037-ee4e24f60c7c"",""projectId"":""9596d7a2-d401-47b1-aedd-70105f5f2f42""}","https://test12345.live/?part=2&participantId=F22A38139CA34CA380C5E1036542E2DC&assignmentId=c89209ee-d3d9-420d-9037-ee4e24f60c7c&projectId=9596d7a2-d401-47b1-aedd-70105f5f2f42","F22A38139CA34CA380C5E1036542E2DC-2025-05-28-19-03-34","","22464","","[""<span style=\""color: red; font-size: 24px\""> NOW RECORDING</span><p>Please say out loud all the images you saw in part 1 of the experiment, in the exact order you saw them. Try to recall as many images as you can, but remember: getting the order right is more important than the number of images you recall. </p>""]","","18","dog_causal"
"","","","","","image-button-response","56","1008816","0.0-54.0-0.0","F22A38139CA34CA380C5E1036542E2DC","F22A38139CA34CA380C5E1036542E2DC","c89209ee-d3d9-420d-9037-ee4e24f60c7c","9596d7a2-d401-47b1-aedd-70105f5f2f42","{""part"":""2"",""participantId"":""F22A38139CA34CA380C5E1036542E2DC"",""assignmentId"":""c89209ee-d3d9-420d-9037-ee4e24f60c7c"",""projectId"":""9596d7a2-d401-47b1-aedd-70105f5f2f42""}","https://test12345.live/?part=2&participantId=F22A38139CA34CA380C5E1036542E2DC&assignmentId=c89209ee-d3d9-420d-9037-ee4e24f60c7c&projectId=9596d7a2-d401-47b1-aedd-70105f5f2f42","F22A38139CA34CA380C5E1036542E2DC-2025-05-28-19-03-34","","null","","images/schematic_sequence/hotel_scheme/hotel_scheme_0.png","null","",""
"","","","","","html-audio-response","57","1013956","0.0-55.0","F22A38139CA34CA380C5E1036542E2DC","F22A38139CA34CA380C5E1036542E2DC","c89209ee-d3d9-420d-9037-ee4e24f60c7c","9596d7a2-d401-47b1-aedd-70105f5f2f42","{""part"":""2"",""participantId"":""F22A38139CA34CA380C5E1036542E2DC"",""assignmentId"":""c89209ee-d3d9-420d-9037-ee4e24f60c7c"",""projectId"":""9596d7a2-d401-47b1-aedd-70105f5f2f42""}","https://test12345.live/?part=2&participantId=F22A38139CA34CA380C5E1036542E2DC&assignmentId=c89209ee-d3d9-420d-9037-ee4e24f60c7c&projectId=9596d7a2-d401-47b1-aedd-70105f5f2f42","F22A38139CA34CA380C5E1036542E2DC-2025-05-28-19-03-34","","3964","","[""<span style=\""color: red; font-size: 24px\""> NOW RECORDING</span><p>Please say out loud all the images you saw in part 1 of the experiment, in the exact order you saw them. Try to recall as many images as you can, but remember: getting the order right is more important than the number of images you recall. </p>""]","","17","hotel_scheme"
"","","","","","image-button-response","58","1019960","0.0-56.0-0.0","F22A38139CA34CA380C5E1036542E2DC","F22A38139CA34CA380C5E1036542E2DC","c89209ee-d3d9-420d-9037-ee4e24f60c7c","9596d7a2-d401-47b1-aedd-70105f5f2f42","{""part"":""2"",""participantId"":""F22A38139CA34CA380C5E1036542E2DC"",""assignmentId"":""c89209ee-d3d9-420d-9037-ee4e24f60c7c"",""projectId"":""9596d7a2-d401-47b1-aedd-70105f5f2f42""}","https://test12345.live/?part=2&participantId=F22A38139CA34CA380C5E1036542E2DC&assignmentId=c89209ee-d3d9-420d-9037-ee4e24f60c7c&projectId=9596d7a2-d401-47b1-aedd-70105f5f2f42","F22A38139CA34CA380C5E1036542E2DC-2025-05-28-19-03-34","","null","","images/schematic_sequence/dinner_party_scheme/dinner_party_scheme_0.png","null","",""
"","","","","","html-audio-response","59","1036275","0.0-57.0","F22A38139CA34CA380C5E1036542E2DC","F22A38139CA34CA380C5E1036542E2DC","c89209ee-d3d9-420d-9037-ee4e24f60c7c","9596d7a2-d401-47b1-aedd-70105f5f2f42","{""part"":""2"",""participantId"":""F22A38139CA34CA380C5E1036542E2DC"",""assignmentId"":""c89209ee-d3d9-420d-9037-ee4e24f60c7c"",""projectId"":""9596d7a2-d401-47b1-aedd-70105f5f2f42""}","https://test12345.live/?part=2&participantId=F22A38139CA34CA380C5E1036542E2DC&assignmentId=c89209ee-d3d9-420d-9037-ee4e24f60c7c&projectId=9596d7a2-d401-47b1-aedd-70105f5f2f42","F22A38139CA34CA380C5E1036542E2DC-2025-05-28-19-03-34","","15627","","[""<span style=\""color: red; font-size: 24px\""> NOW RECORDING</span><p>Please say out loud all the images you saw in part 1 of the experiment, in the exact order you saw them. Try to recall as many images as you can, but remember: getting the order right is more important than the number of images you recall. </p>""]","","1","dinner_party_scheme"
"","","","","","survey-text","60","1042210","0.0-58.0","F22A38139CA34CA380C5E1036542E2DC","F22A38139CA34CA380C5E1036542E2DC","c89209ee-d3d9-420d-9037-ee4e24f60c7c","9596d7a2-d401-47b1-aedd-70105f5f2f42","{""part"":""2"",""participantId"":""F22A38139CA34CA380C5E1036542E2DC"",""assignmentId"":""c89209ee-d3d9-420d-9037-ee4e24f60c7c"",""projectId"":""9596d7a2-d401-47b1-aedd-70105f5f2f42""}","https://test12345.live/?part=2&participantId=F22A38139CA34CA380C5E1036542E2DC&assignmentId=c89209ee-d3d9-420d-9037-ee4e24f60c7c&projectId=9596d7a2-d401-47b1-aedd-70105f5f2f42","F22A38139CA34CA380C5E1036542E2DC-2025-05-28-19-03-34","","5926","","","{""Q0"":""Male"",""Q1"":""20""}","",""
"","","","","","instructions","61","1047308","0.0-59.0","F22A38139CA34CA380C5E1036542E2DC","F22A38139CA34CA380C5E1036542E2DC","c89209ee-d3d9-420d-9037-ee4e24f60c7c","9596d7a2-d401-47b1-aedd-70105f5f2f42","{""part"":""2"",""participantId"":""F22A38139CA34CA380C5E1036542E2DC"",""assignmentId"":""c89209ee-d3d9-420d-9037-ee4e24f60c7c"",""projectId"":""9596d7a2-d401-47b1-aedd-70105f5f2f42""}","https://test12345.live/?part=2&participantId=F22A38139CA34CA380C5E1036542E2DC&assignmentId=c89209ee-d3d9-420d-9037-ee4e24f60c7c&projectId=9596d7a2-d401-47b1-aedd-70105f5f2f42","F22A38139CA34CA380C5E1036542E2DC-2025-05-28-19-03-34","[{""page_index"":0,""viewing_time"":5097}]","5098","","","","",""
"","","","","","survey-text","62","1049863","0.0-60.0","F22A38139CA34CA380C5E1036542E2DC","F22A38139CA34CA380C5E1036542E2DC","c89209ee-d3d9-420d-9037-ee4e24f60c7c","9596d7a2-d401-47b1-aedd-70105f5f2f42","{""part"":""2"",""participantId"":""F22A38139CA34CA380C5E1036542E2DC"",""assignmentId"":""c89209ee-d3d9-420d-9037-ee4e24f60c7c"",""projectId"":""9596d7a2-d401-47b1-aedd-70105f5f2f42""}","https://test12345.live/?part=2&participantId=F22A38139CA34CA380C5E1036542E2DC&assignmentId=c89209ee-d3d9-420d-9037-ee4e24f60c7c&projectId=9596d7a2-d401-47b1-aedd-70105f5f2f42","F22A38139CA34CA380C5E1036542E2DC-2025-05-28-19-03-34","","2553","","","{""Q0"":""AJFHBG896""}","",""
