"success","timeout","failed_images","failed_audio","failed_video","trial_type","trial_index","time_elapsed","internal_node_id","subject","subject_id","study_id","session_id","urlvar","current_url","audio_id","view_history","rt","device_id","stimulus","response","estimated_stimulus_onset","seq_name"
"true","false","[]","[]","[]","preload","0","22950","0.0-0.0","F42D2DF08BD943ADB2893569F9A78647","F42D2DF08BD943ADB2893569F9A78647","0198bf28-5f61-71e7-8437-bbdb3f283d9a","0198beef-981a-7243-9790-051e10551090","{""num_scrambled_semantic"":""8"",""num_scrambled_causal"":""4"",""num_scrambled_schematic"":""4"",""participantId"":""F42D2DF08BD943ADB2893569F9A78647"",""assignmentId"":""0198bf28-5f61-71e7-8437-bbdb3f283d9a"",""projectId"":""0198beef-981a-7243-9790-051e10551090""}","https://test12345.live/?num_scrambled_semantic=8&num_scrambled_causal=4&num_scrambled_schematic=4&participantId=F42D2DF08BD943ADB2893569F9A78647&assignmentId=0198bf28-5f61-71e7-8437-bbdb3f283d9a&projectId=0198beef-981a-7243-9790-051e10551090","F42D2DF08BD943ADB2893569F9A78647-2025-08-18-22-06-32","","","","","","",""
"","","","","","instructions","1","58215","0.0-1.0","F42D2DF08BD943ADB2893569F9A78647","F42D2DF08BD943ADB2893569F9A78647","0198bf28-5f61-71e7-8437-bbdb3f283d9a","0198beef-981a-7243-9790-051e10551090","{""num_scrambled_semantic"":""8"",""num_scrambled_causal"":""4"",""num_scrambled_schematic"":""4"",""participantId"":""F42D2DF08BD943ADB2893569F9A78647"",""assignmentId"":""0198bf28-5f61-71e7-8437-bbdb3f283d9a"",""projectId"":""0198beef-981a-7243-9790-051e10551090""}","https://test12345.live/?num_scrambled_semantic=8&num_scrambled_causal=4&num_scrambled_schematic=4&participantId=F42D2DF08BD943ADB2893569F9A78647&assignmentId=0198bf28-5f61-71e7-8437-bbdb3f283d9a&projectId=0198beef-981a-7243-9790-051e10551090","F42D2DF08BD943ADB2893569F9A78647-2025-08-18-22-06-32","[{""page_index"":0,""viewing_time"":35264}]","35265","","","","",""
"","","","","","instructions","2","69114","0.0-2.0","F42D2DF08BD943ADB2893569F9A78647","F42D2DF08BD943ADB2893569F9A78647","0198bf28-5f61-71e7-8437-bbdb3f283d9a","0198beef-981a-7243-9790-051e10551090","{""num_scrambled_semantic"":""8"",""num_scrambled_causal"":""4"",""num_scrambled_schematic"":""4"",""participantId"":""F42D2DF08BD943ADB2893569F9A78647"",""assignmentId"":""0198bf28-5f61-71e7-8437-bbdb3f283d9a"",""projectId"":""0198beef-981a-7243-9790-051e10551090""}","https://test12345.live/?num_scrambled_semantic=8&num_scrambled_causal=4&num_scrambled_schematic=4&participantId=F42D2DF08BD943ADB2893569F9A78647&assignmentId=0198bf28-5f61-71e7-8437-bbdb3f283d9a&projectId=0198beef-981a-7243-9790-051e10551090","F42D2DF08BD943ADB2893569F9A78647-2025-08-18-22-06-32","[{""page_index"":0,""viewing_time"":10897}]","10898","","","","",""
"true","","","","","fullscreen","3","71525","0.0-3.0","F42D2DF08BD943ADB2893569F9A78647","F42D2DF08BD943ADB2893569F9A78647","0198bf28-5f61-71e7-8437-bbdb3f283d9a","0198beef-981a-7243-9790-051e10551090","{""num_scrambled_semantic"":""8"",""num_scrambled_causal"":""4"",""num_scrambled_schematic"":""4"",""participantId"":""F42D2DF08BD943ADB2893569F9A78647"",""assignmentId"":""0198bf28-5f61-71e7-8437-bbdb3f283d9a"",""projectId"":""0198beef-981a-7243-9790-051e10551090""}","https://test12345.live/?num_scrambled_semantic=8&num_scrambled_causal=4&num_scrambled_schematic=4&participantId=F42D2DF08BD943ADB2893569F9A78647&assignmentId=0198bf28-5f61-71e7-8437-bbdb3f283d9a&projectId=0198beef-981a-7243-9790-051e10551090","F42D2DF08BD943ADB2893569F9A78647-2025-08-18-22-06-32","","1408","","","","",""
"","","","","","initialize-microphone","4","75776","0.0-4.0-0.0","F42D2DF08BD943ADB2893569F9A78647","F42D2DF08BD943ADB2893569F9A78647","0198bf28-5f61-71e7-8437-bbdb3f283d9a","0198beef-981a-7243-9790-051e10551090","{""num_scrambled_semantic"":""8"",""num_scrambled_causal"":""4"",""num_scrambled_schematic"":""4"",""participantId"":""F42D2DF08BD943ADB2893569F9A78647"",""assignmentId"":""0198bf28-5f61-71e7-8437-bbdb3f283d9a"",""projectId"":""0198beef-981a-7243-9790-051e10551090""}","https://test12345.live/?num_scrambled_semantic=8&num_scrambled_causal=4&num_scrambled_schematic=4&participantId=F42D2DF08BD943ADB2893569F9A78647&assignmentId=0198bf28-5f61-71e7-8437-bbdb3f283d9a&projectId=0198beef-981a-7243-9790-051e10551090","F42D2DF08BD943ADB2893569F9A78647-2025-08-18-22-06-32","","","5850dfbd958f8020af64f42631db97ddb3709da193c40f438a310d37994ecea2","","","",""
"","","","","","html-audio-response","5","85903","0.0-4.0-1.0","F42D2DF08BD943ADB2893569F9A78647","F42D2DF08BD943ADB2893569F9A78647","0198bf28-5f61-71e7-8437-bbdb3f283d9a","0198beef-981a-7243-9790-051e10551090","{""num_scrambled_semantic"":""8"",""num_scrambled_causal"":""4"",""num_scrambled_schematic"":""4"",""participantId"":""F42D2DF08BD943ADB2893569F9A78647"",""assignmentId"":""0198bf28-5f61-71e7-8437-bbdb3f283d9a"",""projectId"":""0198beef-981a-7243-9790-051e10551090""}","https://test12345.live/?num_scrambled_semantic=8&num_scrambled_causal=4&num_scrambled_schematic=4&participantId=F42D2DF08BD943ADB2893569F9A78647&assignmentId=0198bf28-5f61-71e7-8437-bbdb3f283d9a&projectId=0198beef-981a-7243-9790-051e10551090","F42D2DF08BD943ADB2893569F9A78647-2025-08-18-22-06-32","","2839","","<span style=""color: red; font-size: 24px""> NOW RECORDING</span>
        <p>Please test Microphone</p>","","4",""
"","","","","","html-button-response","6","87496","0.0-4.0-2.0","F42D2DF08BD943ADB2893569F9A78647","F42D2DF08BD943ADB2893569F9A78647","0198bf28-5f61-71e7-8437-bbdb3f283d9a","0198beef-981a-7243-9790-051e10551090","{""num_scrambled_semantic"":""8"",""num_scrambled_causal"":""4"",""num_scrambled_schematic"":""4"",""participantId"":""F42D2DF08BD943ADB2893569F9A78647"",""assignmentId"":""0198bf28-5f61-71e7-8437-bbdb3f283d9a"",""projectId"":""0198beef-981a-7243-9790-051e10551090""}","https://test12345.live/?num_scrambled_semantic=8&num_scrambled_causal=4&num_scrambled_schematic=4&participantId=F42D2DF08BD943ADB2893569F9A78647&assignmentId=0198bf28-5f61-71e7-8437-bbdb3f283d9a&projectId=0198beef-981a-7243-9790-051e10551090","F42D2DF08BD943ADB2893569F9A78647-2025-08-18-22-06-32","","1591","","<p style=""font-size:48px; color:red;"">Is Microphone OK?</p>","1","",""
"","","","","","instructions","7","119568","0.0-5.0","F42D2DF08BD943ADB2893569F9A78647","F42D2DF08BD943ADB2893569F9A78647","0198bf28-5f61-71e7-8437-bbdb3f283d9a","0198beef-981a-7243-9790-051e10551090","{""num_scrambled_semantic"":""8"",""num_scrambled_causal"":""4"",""num_scrambled_schematic"":""4"",""participantId"":""F42D2DF08BD943ADB2893569F9A78647"",""assignmentId"":""0198bf28-5f61-71e7-8437-bbdb3f283d9a"",""projectId"":""0198beef-981a-7243-9790-051e10551090""}","https://test12345.live/?num_scrambled_semantic=8&num_scrambled_causal=4&num_scrambled_schematic=4&participantId=F42D2DF08BD943ADB2893569F9A78647&assignmentId=0198bf28-5f61-71e7-8437-bbdb3f283d9a&projectId=0198beef-981a-7243-9790-051e10551090","F42D2DF08BD943ADB2893569F9A78647-2025-08-18-22-06-32","[{""page_index"":0,""viewing_time"":1896},{""page_index"":1,""viewing_time"":5969},{""page_index"":2,""viewing_time"":24205}]","32070","","","","",""
"","","","","","image-button-response","8","125571","0.0-6.0-0.0","F42D2DF08BD943ADB2893569F9A78647","F42D2DF08BD943ADB2893569F9A78647","0198bf28-5f61-71e7-8437-bbdb3f283d9a","0198beef-981a-7243-9790-051e10551090","{""num_scrambled_semantic"":""8"",""num_scrambled_causal"":""4"",""num_scrambled_schematic"":""4"",""participantId"":""F42D2DF08BD943ADB2893569F9A78647"",""assignmentId"":""0198bf28-5f61-71e7-8437-bbdb3f283d9a"",""projectId"":""0198beef-981a-7243-9790-051e10551090""}","https://test12345.live/?num_scrambled_semantic=8&num_scrambled_causal=4&num_scrambled_schematic=4&participantId=F42D2DF08BD943ADB2893569F9A78647&assignmentId=0198bf28-5f61-71e7-8437-bbdb3f283d9a&projectId=0198beef-981a-7243-9790-051e10551090","F42D2DF08BD943ADB2893569F9A78647-2025-08-18-22-06-32","","null","","images/instructions/movie_0.png","null","",""
"","","","","","html-audio-response","9","160084","0.0-7.0","F42D2DF08BD943ADB2893569F9A78647","F42D2DF08BD943ADB2893569F9A78647","0198bf28-5f61-71e7-8437-bbdb3f283d9a","0198beef-981a-7243-9790-051e10551090","{""num_scrambled_semantic"":""8"",""num_scrambled_causal"":""4"",""num_scrambled_schematic"":""4"",""participantId"":""F42D2DF08BD943ADB2893569F9A78647"",""assignmentId"":""0198bf28-5f61-71e7-8437-bbdb3f283d9a"",""projectId"":""0198beef-981a-7243-9790-051e10551090""}","https://test12345.live/?num_scrambled_semantic=8&num_scrambled_causal=4&num_scrambled_schematic=4&participantId=F42D2DF08BD943ADB2893569F9A78647&assignmentId=0198bf28-5f61-71e7-8437-bbdb3f283d9a&projectId=0198beef-981a-7243-9790-051e10551090","F42D2DF08BD943ADB2893569F9A78647-2025-08-18-22-06-32","","14171","","[""<span style=\""color: red; font-size: 24px\""> NOW RECORDING</span><p>Please say out loud all the images you saw in part 1 of the experiment, as many as you can remember. The images can be said in any order.</p>""]","","3",""
"","","","","","instructions","10","163782","0.0-8.0","F42D2DF08BD943ADB2893569F9A78647","F42D2DF08BD943ADB2893569F9A78647","0198bf28-5f61-71e7-8437-bbdb3f283d9a","0198beef-981a-7243-9790-051e10551090","{""num_scrambled_semantic"":""8"",""num_scrambled_causal"":""4"",""num_scrambled_schematic"":""4"",""participantId"":""F42D2DF08BD943ADB2893569F9A78647"",""assignmentId"":""0198bf28-5f61-71e7-8437-bbdb3f283d9a"",""projectId"":""0198beef-981a-7243-9790-051e10551090""}","https://test12345.live/?num_scrambled_semantic=8&num_scrambled_causal=4&num_scrambled_schematic=4&participantId=F42D2DF08BD943ADB2893569F9A78647&assignmentId=0198bf28-5f61-71e7-8437-bbdb3f283d9a&projectId=0198beef-981a-7243-9790-051e10551090","F42D2DF08BD943ADB2893569F9A78647-2025-08-18-22-06-32","[{""page_index"":0,""viewing_time"":3691}]","3691","","","","",""
"","","","","","image-button-response","11","169785","0.0-9.0-0.0","F42D2DF08BD943ADB2893569F9A78647","F42D2DF08BD943ADB2893569F9A78647","0198bf28-5f61-71e7-8437-bbdb3f283d9a","0198beef-981a-7243-9790-051e10551090","{""num_scrambled_semantic"":""8"",""num_scrambled_causal"":""4"",""num_scrambled_schematic"":""4"",""participantId"":""F42D2DF08BD943ADB2893569F9A78647"",""assignmentId"":""0198bf28-5f61-71e7-8437-bbdb3f283d9a"",""projectId"":""0198beef-981a-7243-9790-051e10551090""}","https://test12345.live/?num_scrambled_semantic=8&num_scrambled_causal=4&num_scrambled_schematic=4&participantId=F42D2DF08BD943ADB2893569F9A78647&assignmentId=0198bf28-5f61-71e7-8437-bbdb3f283d9a&projectId=0198beef-981a-7243-9790-051e10551090","F42D2DF08BD943ADB2893569F9A78647-2025-08-18-22-06-32","","null","","images/semantic_sequence/creative_activities_semantic/creative_activities_semantic_0.png","null","",""
"","","","","","html-audio-response","12","208414","0.0-10.0","F42D2DF08BD943ADB2893569F9A78647","F42D2DF08BD943ADB2893569F9A78647","0198bf28-5f61-71e7-8437-bbdb3f283d9a","0198beef-981a-7243-9790-051e10551090","{""num_scrambled_semantic"":""8"",""num_scrambled_causal"":""4"",""num_scrambled_schematic"":""4"",""participantId"":""F42D2DF08BD943ADB2893569F9A78647"",""assignmentId"":""0198bf28-5f61-71e7-8437-bbdb3f283d9a"",""projectId"":""0198beef-981a-7243-9790-051e10551090""}","https://test12345.live/?num_scrambled_semantic=8&num_scrambled_causal=4&num_scrambled_schematic=4&participantId=F42D2DF08BD943ADB2893569F9A78647&assignmentId=0198bf28-5f61-71e7-8437-bbdb3f283d9a&projectId=0198beef-981a-7243-9790-051e10551090","F42D2DF08BD943ADB2893569F9A78647-2025-08-18-22-06-32","","17395","","[""<span style=\""color: red; font-size: 24px\""> NOW RECORDING</span><p>Please say out loud all the images you saw in part 1 of the experiment, as many as you can remember. The images can be said in any order.</p>""]","","10","creative_activities_semantic"
"","","","","","image-button-response","13","214423","0.0-11.0-0.0","F42D2DF08BD943ADB2893569F9A78647","F42D2DF08BD943ADB2893569F9A78647","0198bf28-5f61-71e7-8437-bbdb3f283d9a","0198beef-981a-7243-9790-051e10551090","{""num_scrambled_semantic"":""8"",""num_scrambled_causal"":""4"",""num_scrambled_schematic"":""4"",""participantId"":""F42D2DF08BD943ADB2893569F9A78647"",""assignmentId"":""0198bf28-5f61-71e7-8437-bbdb3f283d9a"",""projectId"":""0198beef-981a-7243-9790-051e10551090""}","https://test12345.live/?num_scrambled_semantic=8&num_scrambled_causal=4&num_scrambled_schematic=4&participantId=F42D2DF08BD943ADB2893569F9A78647&assignmentId=0198bf28-5f61-71e7-8437-bbdb3f283d9a&projectId=0198beef-981a-7243-9790-051e10551090","F42D2DF08BD943ADB2893569F9A78647-2025-08-18-22-06-32","","null","","images/causal_sequence/dog_causal/dog_causal_0.png","null","",""
"","","","","","html-audio-response","14","332753","0.0-12.0","F42D2DF08BD943ADB2893569F9A78647","F42D2DF08BD943ADB2893569F9A78647","0198bf28-5f61-71e7-8437-bbdb3f283d9a","0198beef-981a-7243-9790-051e10551090","{""num_scrambled_semantic"":""8"",""num_scrambled_causal"":""4"",""num_scrambled_schematic"":""4"",""participantId"":""F42D2DF08BD943ADB2893569F9A78647"",""assignmentId"":""0198bf28-5f61-71e7-8437-bbdb3f283d9a"",""projectId"":""0198beef-981a-7243-9790-051e10551090""}","https://test12345.live/?num_scrambled_semantic=8&num_scrambled_causal=4&num_scrambled_schematic=4&participantId=F42D2DF08BD943ADB2893569F9A78647&assignmentId=0198bf28-5f61-71e7-8437-bbdb3f283d9a&projectId=0198beef-981a-7243-9790-051e10551090","F42D2DF08BD943ADB2893569F9A78647-2025-08-18-22-06-32","","27002","","[""<span style=\""color: red; font-size: 24px\""> NOW RECORDING</span><p>Please say out loud all the images you saw in part 1 of the experiment, as many as you can remember. The images can be said in any order.</p>""]","","3","dog_causal"
"","","","","","image-button-response","15","338763","0.0-13.0-0.0","F42D2DF08BD943ADB2893569F9A78647","F42D2DF08BD943ADB2893569F9A78647","0198bf28-5f61-71e7-8437-bbdb3f283d9a","0198beef-981a-7243-9790-051e10551090","{""num_scrambled_semantic"":""8"",""num_scrambled_causal"":""4"",""num_scrambled_schematic"":""4"",""participantId"":""F42D2DF08BD943ADB2893569F9A78647"",""assignmentId"":""0198bf28-5f61-71e7-8437-bbdb3f283d9a"",""projectId"":""0198beef-981a-7243-9790-051e10551090""}","https://test12345.live/?num_scrambled_semantic=8&num_scrambled_causal=4&num_scrambled_schematic=4&participantId=F42D2DF08BD943ADB2893569F9A78647&assignmentId=0198bf28-5f61-71e7-8437-bbdb3f283d9a&projectId=0198beef-981a-7243-9790-051e10551090","F42D2DF08BD943ADB2893569F9A78647-2025-08-18-22-06-32","","null","","images/semantic_sequence/cat_care_semantic/cat_care_semantic_0.png","null","",""
"","","","","","html-audio-response","16","391529","0.0-14.0","F42D2DF08BD943ADB2893569F9A78647","F42D2DF08BD943ADB2893569F9A78647","0198bf28-5f61-71e7-8437-bbdb3f283d9a","0198beef-981a-7243-9790-051e10551090","{""num_scrambled_semantic"":""8"",""num_scrambled_causal"":""4"",""num_scrambled_schematic"":""4"",""participantId"":""F42D2DF08BD943ADB2893569F9A78647"",""assignmentId"":""0198bf28-5f61-71e7-8437-bbdb3f283d9a"",""projectId"":""0198beef-981a-7243-9790-051e10551090""}","https://test12345.live/?num_scrambled_semantic=8&num_scrambled_causal=4&num_scrambled_schematic=4&participantId=F42D2DF08BD943ADB2893569F9A78647&assignmentId=0198bf28-5f61-71e7-8437-bbdb3f283d9a&projectId=0198beef-981a-7243-9790-051e10551090","F42D2DF08BD943ADB2893569F9A78647-2025-08-18-22-06-32","","24138","","[""<span style=\""color: red; font-size: 24px\""> NOW RECORDING</span><p>Please say out loud all the images you saw in part 1 of the experiment, as many as you can remember. The images can be said in any order.</p>""]","","3","cat_care_semantic"
"","","","","","image-button-response","17","397539","0.0-15.0-0.0","F42D2DF08BD943ADB2893569F9A78647","F42D2DF08BD943ADB2893569F9A78647","0198bf28-5f61-71e7-8437-bbdb3f283d9a","0198beef-981a-7243-9790-051e10551090","{""num_scrambled_semantic"":""8"",""num_scrambled_causal"":""4"",""num_scrambled_schematic"":""4"",""participantId"":""F42D2DF08BD943ADB2893569F9A78647"",""assignmentId"":""0198bf28-5f61-71e7-8437-bbdb3f283d9a"",""projectId"":""0198beef-981a-7243-9790-051e10551090""}","https://test12345.live/?num_scrambled_semantic=8&num_scrambled_causal=4&num_scrambled_schematic=4&participantId=F42D2DF08BD943ADB2893569F9A78647&assignmentId=0198bf28-5f61-71e7-8437-bbdb3f283d9a&projectId=0198beef-981a-7243-9790-051e10551090","F42D2DF08BD943ADB2893569F9A78647-2025-08-18-22-06-32","","null","","images/causal_sequence/museum_causal/museum_causal_0.png","null","",""
"","","","","","html-audio-response","18","485140","0.0-16.0","F42D2DF08BD943ADB2893569F9A78647","F42D2DF08BD943ADB2893569F9A78647","0198bf28-5f61-71e7-8437-bbdb3f283d9a","0198beef-981a-7243-9790-051e10551090","{""num_scrambled_semantic"":""8"",""num_scrambled_causal"":""4"",""num_scrambled_schematic"":""4"",""participantId"":""F42D2DF08BD943ADB2893569F9A78647"",""assignmentId"":""0198bf28-5f61-71e7-8437-bbdb3f283d9a"",""projectId"":""0198beef-981a-7243-9790-051e10551090""}","https://test12345.live/?num_scrambled_semantic=8&num_scrambled_causal=4&num_scrambled_schematic=4&participantId=F42D2DF08BD943ADB2893569F9A78647&assignmentId=0198bf28-5f61-71e7-8437-bbdb3f283d9a&projectId=0198beef-981a-7243-9790-051e10551090","F42D2DF08BD943ADB2893569F9A78647-2025-08-18-22-06-32","","33142","","[""<span style=\""color: red; font-size: 24px\""> NOW RECORDING</span><p>Please say out loud all the images you saw in part 1 of the experiment, as many as you can remember. The images can be said in any order.</p>""]","","3","museum_causal"
"","","","","","image-button-response","19","491146","0.0-17.0-0.0","F42D2DF08BD943ADB2893569F9A78647","F42D2DF08BD943ADB2893569F9A78647","0198bf28-5f61-71e7-8437-bbdb3f283d9a","0198beef-981a-7243-9790-051e10551090","{""num_scrambled_semantic"":""8"",""num_scrambled_causal"":""4"",""num_scrambled_schematic"":""4"",""participantId"":""F42D2DF08BD943ADB2893569F9A78647"",""assignmentId"":""0198bf28-5f61-71e7-8437-bbdb3f283d9a"",""projectId"":""0198beef-981a-7243-9790-051e10551090""}","https://test12345.live/?num_scrambled_semantic=8&num_scrambled_causal=4&num_scrambled_schematic=4&participantId=F42D2DF08BD943ADB2893569F9A78647&assignmentId=0198bf28-5f61-71e7-8437-bbdb3f283d9a&projectId=0198beef-981a-7243-9790-051e10551090","F42D2DF08BD943ADB2893569F9A78647-2025-08-18-22-06-32","","null","","images/causal_sequence/saving_a_cat_causal/saving_a_cat_causal_0.png","null","",""
"","","","","","html-audio-response","20","564379","0.0-18.0","F42D2DF08BD943ADB2893569F9A78647","F42D2DF08BD943ADB2893569F9A78647","0198bf28-5f61-71e7-8437-bbdb3f283d9a","0198beef-981a-7243-9790-051e10551090","{""num_scrambled_semantic"":""8"",""num_scrambled_causal"":""4"",""num_scrambled_schematic"":""4"",""participantId"":""F42D2DF08BD943ADB2893569F9A78647"",""assignmentId"":""0198bf28-5f61-71e7-8437-bbdb3f283d9a"",""projectId"":""0198beef-981a-7243-9790-051e10551090""}","https://test12345.live/?num_scrambled_semantic=8&num_scrambled_causal=4&num_scrambled_schematic=4&participantId=F42D2DF08BD943ADB2893569F9A78647&assignmentId=0198bf28-5f61-71e7-8437-bbdb3f283d9a&projectId=0198beef-981a-7243-9790-051e10551090","F42D2DF08BD943ADB2893569F9A78647-2025-08-18-22-06-32","","35550","","[""<span style=\""color: red; font-size: 24px\""> NOW RECORDING</span><p>Please say out loud all the images you saw in part 1 of the experiment, as many as you can remember. The images can be said in any order.</p>""]","","2","saving_a_cat_causal"
"","","","","","image-button-response","21","570391","0.0-19.0-0.0","F42D2DF08BD943ADB2893569F9A78647","F42D2DF08BD943ADB2893569F9A78647","0198bf28-5f61-71e7-8437-bbdb3f283d9a","0198beef-981a-7243-9790-051e10551090","{""num_scrambled_semantic"":""8"",""num_scrambled_causal"":""4"",""num_scrambled_schematic"":""4"",""participantId"":""F42D2DF08BD943ADB2893569F9A78647"",""assignmentId"":""0198bf28-5f61-71e7-8437-bbdb3f283d9a"",""projectId"":""0198beef-981a-7243-9790-051e10551090""}","https://test12345.live/?num_scrambled_semantic=8&num_scrambled_causal=4&num_scrambled_schematic=4&participantId=F42D2DF08BD943ADB2893569F9A78647&assignmentId=0198bf28-5f61-71e7-8437-bbdb3f283d9a&projectId=0198beef-981a-7243-9790-051e10551090","F42D2DF08BD943ADB2893569F9A78647-2025-08-18-22-06-32","","null","","images/semantic_sequence/physical_activity_semantic/physical_activity_semantic_0.png","null","",""
"","","","","","html-audio-response","22","644706","0.0-20.0","F42D2DF08BD943ADB2893569F9A78647","F42D2DF08BD943ADB2893569F9A78647","0198bf28-5f61-71e7-8437-bbdb3f283d9a","0198beef-981a-7243-9790-051e10551090","{""num_scrambled_semantic"":""8"",""num_scrambled_causal"":""4"",""num_scrambled_schematic"":""4"",""participantId"":""F42D2DF08BD943ADB2893569F9A78647"",""assignmentId"":""0198bf28-5f61-71e7-8437-bbdb3f283d9a"",""projectId"":""0198beef-981a-7243-9790-051e10551090""}","https://test12345.live/?num_scrambled_semantic=8&num_scrambled_causal=4&num_scrambled_schematic=4&participantId=F42D2DF08BD943ADB2893569F9A78647&assignmentId=0198bf28-5f61-71e7-8437-bbdb3f283d9a&projectId=0198beef-981a-7243-9790-051e10551090","F42D2DF08BD943ADB2893569F9A78647-2025-08-18-22-06-32","","25946","","[""<span style=\""color: red; font-size: 24px\""> NOW RECORDING</span><p>Please say out loud all the images you saw in part 1 of the experiment, as many as you can remember. The images can be said in any order.</p>""]","","3","physical_activity_semantic"
"","","","","","image-button-response","23","650717","0.0-21.0-0.0","F42D2DF08BD943ADB2893569F9A78647","F42D2DF08BD943ADB2893569F9A78647","0198bf28-5f61-71e7-8437-bbdb3f283d9a","0198beef-981a-7243-9790-051e10551090","{""num_scrambled_semantic"":""8"",""num_scrambled_causal"":""4"",""num_scrambled_schematic"":""4"",""participantId"":""F42D2DF08BD943ADB2893569F9A78647"",""assignmentId"":""0198bf28-5f61-71e7-8437-bbdb3f283d9a"",""projectId"":""0198beef-981a-7243-9790-051e10551090""}","https://test12345.live/?num_scrambled_semantic=8&num_scrambled_causal=4&num_scrambled_schematic=4&participantId=F42D2DF08BD943ADB2893569F9A78647&assignmentId=0198bf28-5f61-71e7-8437-bbdb3f283d9a&projectId=0198beef-981a-7243-9790-051e10551090","F42D2DF08BD943ADB2893569F9A78647-2025-08-18-22-06-32","","null","","images/semantic_sequence/housework_semantic/housework_semantic_0.png","null","",""
"","","","","","html-audio-response","24","698698","0.0-22.0","F42D2DF08BD943ADB2893569F9A78647","F42D2DF08BD943ADB2893569F9A78647","0198bf28-5f61-71e7-8437-bbdb3f283d9a","0198beef-981a-7243-9790-051e10551090","{""num_scrambled_semantic"":""8"",""num_scrambled_causal"":""4"",""num_scrambled_schematic"":""4"",""participantId"":""F42D2DF08BD943ADB2893569F9A78647"",""assignmentId"":""0198bf28-5f61-71e7-8437-bbdb3f283d9a"",""projectId"":""0198beef-981a-7243-9790-051e10551090""}","https://test12345.live/?num_scrambled_semantic=8&num_scrambled_causal=4&num_scrambled_schematic=4&participantId=F42D2DF08BD943ADB2893569F9A78647&assignmentId=0198bf28-5f61-71e7-8437-bbdb3f283d9a&projectId=0198beef-981a-7243-9790-051e10551090","F42D2DF08BD943ADB2893569F9A78647-2025-08-18-22-06-32","","23778","","[""<span style=\""color: red; font-size: 24px\""> NOW RECORDING</span><p>Please say out loud all the images you saw in part 1 of the experiment, as many as you can remember. The images can be said in any order.</p>""]","","3","housework_semantic"
"","","","","","image-button-response","25","704710","0.0-23.0-0.0","F42D2DF08BD943ADB2893569F9A78647","F42D2DF08BD943ADB2893569F9A78647","0198bf28-5f61-71e7-8437-bbdb3f283d9a","0198beef-981a-7243-9790-051e10551090","{""num_scrambled_semantic"":""8"",""num_scrambled_causal"":""4"",""num_scrambled_schematic"":""4"",""participantId"":""F42D2DF08BD943ADB2893569F9A78647"",""assignmentId"":""0198bf28-5f61-71e7-8437-bbdb3f283d9a"",""projectId"":""0198beef-981a-7243-9790-051e10551090""}","https://test12345.live/?num_scrambled_semantic=8&num_scrambled_causal=4&num_scrambled_schematic=4&participantId=F42D2DF08BD943ADB2893569F9A78647&assignmentId=0198bf28-5f61-71e7-8437-bbdb3f283d9a&projectId=0198beef-981a-7243-9790-051e10551090","F42D2DF08BD943ADB2893569F9A78647-2025-08-18-22-06-32","","null","","images/semantic_sequence/using_technology_semantic/using_technology_semantic_0.png","null","",""
"","","","","","html-audio-response","26","759340","0.0-24.0","F42D2DF08BD943ADB2893569F9A78647","F42D2DF08BD943ADB2893569F9A78647","0198bf28-5f61-71e7-8437-bbdb3f283d9a","0198beef-981a-7243-9790-051e10551090","{""num_scrambled_semantic"":""8"",""num_scrambled_causal"":""4"",""num_scrambled_schematic"":""4"",""participantId"":""F42D2DF08BD943ADB2893569F9A78647"",""assignmentId"":""0198bf28-5f61-71e7-8437-bbdb3f283d9a"",""projectId"":""0198beef-981a-7243-9790-051e10551090""}","https://test12345.live/?num_scrambled_semantic=8&num_scrambled_causal=4&num_scrambled_schematic=4&participantId=F42D2DF08BD943ADB2893569F9A78647&assignmentId=0198bf28-5f61-71e7-8437-bbdb3f283d9a&projectId=0198beef-981a-7243-9790-051e10551090","F42D2DF08BD943ADB2893569F9A78647-2025-08-18-22-06-32","","26189","","[""<span style=\""color: red; font-size: 24px\""> NOW RECORDING</span><p>Please say out loud all the images you saw in part 1 of the experiment, as many as you can remember. The images can be said in any order.</p>""]","","3","using_technology_semantic"
"","","","","","image-button-response","27","765350","0.0-25.0-0.0","F42D2DF08BD943ADB2893569F9A78647","F42D2DF08BD943ADB2893569F9A78647","0198bf28-5f61-71e7-8437-bbdb3f283d9a","0198beef-981a-7243-9790-051e10551090","{""num_scrambled_semantic"":""8"",""num_scrambled_causal"":""4"",""num_scrambled_schematic"":""4"",""participantId"":""F42D2DF08BD943ADB2893569F9A78647"",""assignmentId"":""0198bf28-5f61-71e7-8437-bbdb3f283d9a"",""projectId"":""0198beef-981a-7243-9790-051e10551090""}","https://test12345.live/?num_scrambled_semantic=8&num_scrambled_causal=4&num_scrambled_schematic=4&participantId=F42D2DF08BD943ADB2893569F9A78647&assignmentId=0198bf28-5f61-71e7-8437-bbdb3f283d9a&projectId=0198beef-981a-7243-9790-051e10551090","F42D2DF08BD943ADB2893569F9A78647-2025-08-18-22-06-32","","null","","images/semantic_sequence/maintaining_a_car_semantic/maintaining_a_car_semantic_0.png","null","",""
"","","","","","html-audio-response","28","816439","0.0-26.0","F42D2DF08BD943ADB2893569F9A78647","F42D2DF08BD943ADB2893569F9A78647","0198bf28-5f61-71e7-8437-bbdb3f283d9a","0198beef-981a-7243-9790-051e10551090","{""num_scrambled_semantic"":""8"",""num_scrambled_causal"":""4"",""num_scrambled_schematic"":""4"",""participantId"":""F42D2DF08BD943ADB2893569F9A78647"",""assignmentId"":""0198bf28-5f61-71e7-8437-bbdb3f283d9a"",""projectId"":""0198beef-981a-7243-9790-051e10551090""}","https://test12345.live/?num_scrambled_semantic=8&num_scrambled_causal=4&num_scrambled_schematic=4&participantId=F42D2DF08BD943ADB2893569F9A78647&assignmentId=0198bf28-5f61-71e7-8437-bbdb3f283d9a&projectId=0198beef-981a-7243-9790-051e10551090","F42D2DF08BD943ADB2893569F9A78647-2025-08-18-22-06-32","","24942","","[""<span style=\""color: red; font-size: 24px\""> NOW RECORDING</span><p>Please say out loud all the images you saw in part 1 of the experiment, as many as you can remember. The images can be said in any order.</p>""]","","2","maintaining_a_car_semantic"
"","","","","","image-button-response","29","822444","0.0-27.0-0.0","F42D2DF08BD943ADB2893569F9A78647","F42D2DF08BD943ADB2893569F9A78647","0198bf28-5f61-71e7-8437-bbdb3f283d9a","0198beef-981a-7243-9790-051e10551090","{""num_scrambled_semantic"":""8"",""num_scrambled_causal"":""4"",""num_scrambled_schematic"":""4"",""participantId"":""F42D2DF08BD943ADB2893569F9A78647"",""assignmentId"":""0198bf28-5f61-71e7-8437-bbdb3f283d9a"",""projectId"":""0198beef-981a-7243-9790-051e10551090""}","https://test12345.live/?num_scrambled_semantic=8&num_scrambled_causal=4&num_scrambled_schematic=4&participantId=F42D2DF08BD943ADB2893569F9A78647&assignmentId=0198bf28-5f61-71e7-8437-bbdb3f283d9a&projectId=0198beef-981a-7243-9790-051e10551090","F42D2DF08BD943ADB2893569F9A78647-2025-08-18-22-06-32","","null","","images/causal_sequence/the_performance_causal/the_performance_causal_0.png","null","",""
"","","","","","html-audio-response","30","887188","0.0-28.0","F42D2DF08BD943ADB2893569F9A78647","F42D2DF08BD943ADB2893569F9A78647","0198bf28-5f61-71e7-8437-bbdb3f283d9a","0198beef-981a-7243-9790-051e10551090","{""num_scrambled_semantic"":""8"",""num_scrambled_causal"":""4"",""num_scrambled_schematic"":""4"",""participantId"":""F42D2DF08BD943ADB2893569F9A78647"",""assignmentId"":""0198bf28-5f61-71e7-8437-bbdb3f283d9a"",""projectId"":""0198beef-981a-7243-9790-051e10551090""}","https://test12345.live/?num_scrambled_semantic=8&num_scrambled_causal=4&num_scrambled_schematic=4&participantId=F42D2DF08BD943ADB2893569F9A78647&assignmentId=0198bf28-5f61-71e7-8437-bbdb3f283d9a&projectId=0198beef-981a-7243-9790-051e10551090","F42D2DF08BD943ADB2893569F9A78647-2025-08-18-22-06-32","","31236","","[""<span style=\""color: red; font-size: 24px\""> NOW RECORDING</span><p>Please say out loud all the images you saw in part 1 of the experiment, as many as you can remember. The images can be said in any order.</p>""]","","2","the_performance_causal"
"","","","","","image-button-response","31","893199","0.0-29.0-0.0","F42D2DF08BD943ADB2893569F9A78647","F42D2DF08BD943ADB2893569F9A78647","0198bf28-5f61-71e7-8437-bbdb3f283d9a","0198beef-981a-7243-9790-051e10551090","{""num_scrambled_semantic"":""8"",""num_scrambled_causal"":""4"",""num_scrambled_schematic"":""4"",""participantId"":""F42D2DF08BD943ADB2893569F9A78647"",""assignmentId"":""0198bf28-5f61-71e7-8437-bbdb3f283d9a"",""projectId"":""0198beef-981a-7243-9790-051e10551090""}","https://test12345.live/?num_scrambled_semantic=8&num_scrambled_causal=4&num_scrambled_schematic=4&participantId=F42D2DF08BD943ADB2893569F9A78647&assignmentId=0198bf28-5f61-71e7-8437-bbdb3f283d9a&projectId=0198beef-981a-7243-9790-051e10551090","F42D2DF08BD943ADB2893569F9A78647-2025-08-18-22-06-32","","null","","images/semantic_sequence/redecorating_semantic/redecorating_semantic_0.png","null","",""
"","","","","","html-audio-response","32","938355","0.0-30.0","F42D2DF08BD943ADB2893569F9A78647","F42D2DF08BD943ADB2893569F9A78647","0198bf28-5f61-71e7-8437-bbdb3f283d9a","0198beef-981a-7243-9790-051e10551090","{""num_scrambled_semantic"":""8"",""num_scrambled_causal"":""4"",""num_scrambled_schematic"":""4"",""participantId"":""F42D2DF08BD943ADB2893569F9A78647"",""assignmentId"":""0198bf28-5f61-71e7-8437-bbdb3f283d9a"",""projectId"":""0198beef-981a-7243-9790-051e10551090""}","https://test12345.live/?num_scrambled_semantic=8&num_scrambled_causal=4&num_scrambled_schematic=4&participantId=F42D2DF08BD943ADB2893569F9A78647&assignmentId=0198bf28-5f61-71e7-8437-bbdb3f283d9a&projectId=0198beef-981a-7243-9790-051e10551090","F42D2DF08BD943ADB2893569F9A78647-2025-08-18-22-06-32","","22100","","[""<span style=\""color: red; font-size: 24px\""> NOW RECORDING</span><p>Please say out loud all the images you saw in part 1 of the experiment, as many as you can remember. The images can be said in any order.</p>""]","","3","redecorating_semantic"
"","","","","","image-button-response","33","944363","0.0-31.0-0.0","F42D2DF08BD943ADB2893569F9A78647","F42D2DF08BD943ADB2893569F9A78647","0198bf28-5f61-71e7-8437-bbdb3f283d9a","0198beef-981a-7243-9790-051e10551090","{""num_scrambled_semantic"":""8"",""num_scrambled_causal"":""4"",""num_scrambled_schematic"":""4"",""participantId"":""F42D2DF08BD943ADB2893569F9A78647"",""assignmentId"":""0198bf28-5f61-71e7-8437-bbdb3f283d9a"",""projectId"":""0198beef-981a-7243-9790-051e10551090""}","https://test12345.live/?num_scrambled_semantic=8&num_scrambled_causal=4&num_scrambled_schematic=4&participantId=F42D2DF08BD943ADB2893569F9A78647&assignmentId=0198bf28-5f61-71e7-8437-bbdb3f283d9a&projectId=0198beef-981a-7243-9790-051e10551090","F42D2DF08BD943ADB2893569F9A78647-2025-08-18-22-06-32","","null","","images/causal_sequence/coin_causal/coin_causal_0.png","null","",""
"","","","","","html-audio-response","34","994642","0.0-32.0","F42D2DF08BD943ADB2893569F9A78647","F42D2DF08BD943ADB2893569F9A78647","0198bf28-5f61-71e7-8437-bbdb3f283d9a","0198beef-981a-7243-9790-051e10551090","{""num_scrambled_semantic"":""8"",""num_scrambled_causal"":""4"",""num_scrambled_schematic"":""4"",""participantId"":""F42D2DF08BD943ADB2893569F9A78647"",""assignmentId"":""0198bf28-5f61-71e7-8437-bbdb3f283d9a"",""projectId"":""0198beef-981a-7243-9790-051e10551090""}","https://test12345.live/?num_scrambled_semantic=8&num_scrambled_causal=4&num_scrambled_schematic=4&participantId=F42D2DF08BD943ADB2893569F9A78647&assignmentId=0198bf28-5f61-71e7-8437-bbdb3f283d9a&projectId=0198beef-981a-7243-9790-051e10551090","F42D2DF08BD943ADB2893569F9A78647-2025-08-18-22-06-32","","38132","","[""<span style=\""color: red; font-size: 24px\""> NOW RECORDING</span><p>Please say out loud all the images you saw in part 1 of the experiment, as many as you can remember. The images can be said in any order.</p>""]","","3","coin_causal"
"","","","","","image-button-response","35","1000649","0.0-33.0-0.0","F42D2DF08BD943ADB2893569F9A78647","F42D2DF08BD943ADB2893569F9A78647","0198bf28-5f61-71e7-8437-bbdb3f283d9a","0198beef-981a-7243-9790-051e10551090","{""num_scrambled_semantic"":""8"",""num_scrambled_causal"":""4"",""num_scrambled_schematic"":""4"",""participantId"":""F42D2DF08BD943ADB2893569F9A78647"",""assignmentId"":""0198bf28-5f61-71e7-8437-bbdb3f283d9a"",""projectId"":""0198beef-981a-7243-9790-051e10551090""}","https://test12345.live/?num_scrambled_semantic=8&num_scrambled_causal=4&num_scrambled_schematic=4&participantId=F42D2DF08BD943ADB2893569F9A78647&assignmentId=0198bf28-5f61-71e7-8437-bbdb3f283d9a&projectId=0198beef-981a-7243-9790-051e10551090","F42D2DF08BD943ADB2893569F9A78647-2025-08-18-22-06-32","","null","","images/causal_sequence/package_causal/package_causal_0.png","null","",""
"","","","","","html-audio-response","36","1035399","0.0-34.0","F42D2DF08BD943ADB2893569F9A78647","F42D2DF08BD943ADB2893569F9A78647","0198bf28-5f61-71e7-8437-bbdb3f283d9a","0198beef-981a-7243-9790-051e10551090","{""num_scrambled_semantic"":""8"",""num_scrambled_causal"":""4"",""num_scrambled_schematic"":""4"",""participantId"":""F42D2DF08BD943ADB2893569F9A78647"",""assignmentId"":""0198bf28-5f61-71e7-8437-bbdb3f283d9a"",""projectId"":""0198beef-981a-7243-9790-051e10551090""}","https://test12345.live/?num_scrambled_semantic=8&num_scrambled_causal=4&num_scrambled_schematic=4&participantId=F42D2DF08BD943ADB2893569F9A78647&assignmentId=0198bf28-5f61-71e7-8437-bbdb3f283d9a&projectId=0198beef-981a-7243-9790-051e10551090","F42D2DF08BD943ADB2893569F9A78647-2025-08-18-22-06-32","","28065","","[""<span style=\""color: red; font-size: 24px\""> NOW RECORDING</span><p>Please say out loud all the images you saw in part 1 of the experiment, as many as you can remember. The images can be said in any order.</p>""]","","2","package_causal"
"","","","","","survey-text","37","1041700","0.0-35.0","F42D2DF08BD943ADB2893569F9A78647","F42D2DF08BD943ADB2893569F9A78647","0198bf28-5f61-71e7-8437-bbdb3f283d9a","0198beef-981a-7243-9790-051e10551090","{""num_scrambled_semantic"":""8"",""num_scrambled_causal"":""4"",""num_scrambled_schematic"":""4"",""participantId"":""F42D2DF08BD943ADB2893569F9A78647"",""assignmentId"":""0198bf28-5f61-71e7-8437-bbdb3f283d9a"",""projectId"":""0198beef-981a-7243-9790-051e10551090""}","https://test12345.live/?num_scrambled_semantic=8&num_scrambled_causal=4&num_scrambled_schematic=4&participantId=F42D2DF08BD943ADB2893569F9A78647&assignmentId=0198bf28-5f61-71e7-8437-bbdb3f283d9a&projectId=0198beef-981a-7243-9790-051e10551090","F42D2DF08BD943ADB2893569F9A78647-2025-08-18-22-06-32","","6284","","","{""Q0"":""FEMALE"",""Q1"":""19""}","",""
"","","","","","instructions","38","1046723","0.0-36.0","F42D2DF08BD943ADB2893569F9A78647","F42D2DF08BD943ADB2893569F9A78647","0198bf28-5f61-71e7-8437-bbdb3f283d9a","0198beef-981a-7243-9790-051e10551090","{""num_scrambled_semantic"":""8"",""num_scrambled_causal"":""4"",""num_scrambled_schematic"":""4"",""participantId"":""F42D2DF08BD943ADB2893569F9A78647"",""assignmentId"":""0198bf28-5f61-71e7-8437-bbdb3f283d9a"",""projectId"":""0198beef-981a-7243-9790-051e10551090""}","https://test12345.live/?num_scrambled_semantic=8&num_scrambled_causal=4&num_scrambled_schematic=4&participantId=F42D2DF08BD943ADB2893569F9A78647&assignmentId=0198bf28-5f61-71e7-8437-bbdb3f283d9a&projectId=0198beef-981a-7243-9790-051e10551090","F42D2DF08BD943ADB2893569F9A78647-2025-08-18-22-06-32","[{""page_index"":0,""viewing_time"":5021}]","5021","","","","",""
"","","","","","survey-text","39","1049047","0.0-37.0","F42D2DF08BD943ADB2893569F9A78647","F42D2DF08BD943ADB2893569F9A78647","0198bf28-5f61-71e7-8437-bbdb3f283d9a","0198beef-981a-7243-9790-051e10551090","{""num_scrambled_semantic"":""8"",""num_scrambled_causal"":""4"",""num_scrambled_schematic"":""4"",""participantId"":""F42D2DF08BD943ADB2893569F9A78647"",""assignmentId"":""0198bf28-5f61-71e7-8437-bbdb3f283d9a"",""projectId"":""0198beef-981a-7243-9790-051e10551090""}","https://test12345.live/?num_scrambled_semantic=8&num_scrambled_causal=4&num_scrambled_schematic=4&participantId=F42D2DF08BD943ADB2893569F9A78647&assignmentId=0198bf28-5f61-71e7-8437-bbdb3f283d9a&projectId=0198beef-981a-7243-9790-051e10551090","F42D2DF08BD943ADB2893569F9A78647-2025-08-18-22-06-32","","2320","","","{""Q0"":""AJFHBG896""}","",""
