"success","timeout","failed_images","failed_audio","failed_video","trial_type","trial_index","time_elapsed","internal_node_id","subject","subject_id","study_id","session_id","urlvar","current_url","audio_id","view_history","rt","device_id","stimulus","response","estimated_stimulus_onset","seq_name"
"true","false","[]","[]","[]","preload","0","25082","0.0-0.0","FA89614C7189452A8C1F1E553E47B67A","FA89614C7189452A8C1F1E553E47B67A","3f1b3f9e-df46-4cf6-a68d-bc8e071db26a","9596d7a2-d401-47b1-aedd-70105f5f2f42","{""part"":""2"",""participantId"":""FA89614C7189452A8C1F1E553E47B67A"",""assignmentId"":""3f1b3f9e-df46-4cf6-a68d-bc8e071db26a"",""projectId"":""9596d7a2-d401-47b1-aedd-70105f5f2f42""}","https://test12345.live/?part=2&participantId=FA89614C7189452A8C1F1E553E47B67A&assignmentId=3f1b3f9e-df46-4cf6-a68d-bc8e071db26a&projectId=9596d7a2-d401-47b1-aedd-70105f5f2f42","FA89614C7189452A8C1F1E553E47B67A-2025-05-28-17-52-06","","","","","","",""
"","","","","","instructions","1","105179","0.0-1.0","FA89614C7189452A8C1F1E553E47B67A","FA89614C7189452A8C1F1E553E47B67A","3f1b3f9e-df46-4cf6-a68d-bc8e071db26a","9596d7a2-d401-47b1-aedd-70105f5f2f42","{""part"":""2"",""participantId"":""FA89614C7189452A8C1F1E553E47B67A"",""assignmentId"":""3f1b3f9e-df46-4cf6-a68d-bc8e071db26a"",""projectId"":""9596d7a2-d401-47b1-aedd-70105f5f2f42""}","https://test12345.live/?part=2&participantId=FA89614C7189452A8C1F1E553E47B67A&assignmentId=3f1b3f9e-df46-4cf6-a68d-bc8e071db26a&projectId=9596d7a2-d401-47b1-aedd-70105f5f2f42","FA89614C7189452A8C1F1E553E47B67A-2025-05-28-17-52-06","[{""page_index"":0,""viewing_time"":80093}]","80097","","","","",""
"","","","","","instructions","2","109908","0.0-2.0","FA89614C7189452A8C1F1E553E47B67A","FA89614C7189452A8C1F1E553E47B67A","3f1b3f9e-df46-4cf6-a68d-bc8e071db26a","9596d7a2-d401-47b1-aedd-70105f5f2f42","{""part"":""2"",""participantId"":""FA89614C7189452A8C1F1E553E47B67A"",""assignmentId"":""3f1b3f9e-df46-4cf6-a68d-bc8e071db26a"",""projectId"":""9596d7a2-d401-47b1-aedd-70105f5f2f42""}","https://test12345.live/?part=2&participantId=FA89614C7189452A8C1F1E553E47B67A&assignmentId=3f1b3f9e-df46-4cf6-a68d-bc8e071db26a&projectId=9596d7a2-d401-47b1-aedd-70105f5f2f42","FA89614C7189452A8C1F1E553E47B67A-2025-05-28-17-52-06","[{""page_index"":0,""viewing_time"":4725}]","4726","","","","",""
"true","","","","","fullscreen","3","112380","0.0-3.0","FA89614C7189452A8C1F1E553E47B67A","FA89614C7189452A8C1F1E553E47B67A","3f1b3f9e-df46-4cf6-a68d-bc8e071db26a","9596d7a2-d401-47b1-aedd-70105f5f2f42","{""part"":""2"",""participantId"":""FA89614C7189452A8C1F1E553E47B67A"",""assignmentId"":""3f1b3f9e-df46-4cf6-a68d-bc8e071db26a"",""projectId"":""9596d7a2-d401-47b1-aedd-70105f5f2f42""}","https://test12345.live/?part=2&participantId=FA89614C7189452A8C1F1E553E47B67A&assignmentId=3f1b3f9e-df46-4cf6-a68d-bc8e071db26a&projectId=9596d7a2-d401-47b1-aedd-70105f5f2f42","FA89614C7189452A8C1F1E553E47B67A-2025-05-28-17-52-06","","1454","","","","",""
"","","","","","initialize-microphone","4","118144","0.0-4.0-0.0","FA89614C7189452A8C1F1E553E47B67A","FA89614C7189452A8C1F1E553E47B67A","3f1b3f9e-df46-4cf6-a68d-bc8e071db26a","9596d7a2-d401-47b1-aedd-70105f5f2f42","{""part"":""2"",""participantId"":""FA89614C7189452A8C1F1E553E47B67A"",""assignmentId"":""3f1b3f9e-df46-4cf6-a68d-bc8e071db26a"",""projectId"":""9596d7a2-d401-47b1-aedd-70105f5f2f42""}","https://test12345.live/?part=2&participantId=FA89614C7189452A8C1F1E553E47B67A&assignmentId=3f1b3f9e-df46-4cf6-a68d-bc8e071db26a&projectId=9596d7a2-d401-47b1-aedd-70105f5f2f42","FA89614C7189452A8C1F1E553E47B67A-2025-05-28-17-52-06","","","f2ccb1dcb5d34f6452993783b4ad7ed2b9ea1d2e1348f4db48f4a27423c449da","","","",""
"","","","","","html-audio-response","5","123161","0.0-4.0-1.0","FA89614C7189452A8C1F1E553E47B67A","FA89614C7189452A8C1F1E553E47B67A","3f1b3f9e-df46-4cf6-a68d-bc8e071db26a","9596d7a2-d401-47b1-aedd-70105f5f2f42","{""part"":""2"",""participantId"":""FA89614C7189452A8C1F1E553E47B67A"",""assignmentId"":""3f1b3f9e-df46-4cf6-a68d-bc8e071db26a"",""projectId"":""9596d7a2-d401-47b1-aedd-70105f5f2f42""}","https://test12345.live/?part=2&participantId=FA89614C7189452A8C1F1E553E47B67A&assignmentId=3f1b3f9e-df46-4cf6-a68d-bc8e071db26a&projectId=9596d7a2-d401-47b1-aedd-70105f5f2f42","FA89614C7189452A8C1F1E553E47B67A-2025-05-28-17-52-06","","2266","","<span style=""color: red; font-size: 24px""> NOW RECORDING</span>
        <p>Please test Microphone</p>","","4",""
"","","","","","html-button-response","6","124793","0.0-4.0-2.0","FA89614C7189452A8C1F1E553E47B67A","FA89614C7189452A8C1F1E553E47B67A","3f1b3f9e-df46-4cf6-a68d-bc8e071db26a","9596d7a2-d401-47b1-aedd-70105f5f2f42","{""part"":""2"",""participantId"":""FA89614C7189452A8C1F1E553E47B67A"",""assignmentId"":""3f1b3f9e-df46-4cf6-a68d-bc8e071db26a"",""projectId"":""9596d7a2-d401-47b1-aedd-70105f5f2f42""}","https://test12345.live/?part=2&participantId=FA89614C7189452A8C1F1E553E47B67A&assignmentId=3f1b3f9e-df46-4cf6-a68d-bc8e071db26a&projectId=9596d7a2-d401-47b1-aedd-70105f5f2f42","FA89614C7189452A8C1F1E553E47B67A-2025-05-28-17-52-06","","1627","","<p style=""font-size:48px; color:red;"">Is Microphone OK?</p>","1","",""
"","","","","","instructions","7","136665","0.0-5.0","FA89614C7189452A8C1F1E553E47B67A","FA89614C7189452A8C1F1E553E47B67A","3f1b3f9e-df46-4cf6-a68d-bc8e071db26a","9596d7a2-d401-47b1-aedd-70105f5f2f42","{""part"":""2"",""participantId"":""FA89614C7189452A8C1F1E553E47B67A"",""assignmentId"":""3f1b3f9e-df46-4cf6-a68d-bc8e071db26a"",""projectId"":""9596d7a2-d401-47b1-aedd-70105f5f2f42""}","https://test12345.live/?part=2&participantId=FA89614C7189452A8C1F1E553E47B67A&assignmentId=3f1b3f9e-df46-4cf6-a68d-bc8e071db26a&projectId=9596d7a2-d401-47b1-aedd-70105f5f2f42","FA89614C7189452A8C1F1E553E47B67A-2025-05-28-17-52-06","[{""page_index"":0,""viewing_time"":1093},{""page_index"":1,""viewing_time"":5056},{""page_index"":2,""viewing_time"":5722}]","11871","","","","",""
"","","","","","image-button-response","8","142681","0.0-6.0-0.0","FA89614C7189452A8C1F1E553E47B67A","FA89614C7189452A8C1F1E553E47B67A","3f1b3f9e-df46-4cf6-a68d-bc8e071db26a","9596d7a2-d401-47b1-aedd-70105f5f2f42","{""part"":""2"",""participantId"":""FA89614C7189452A8C1F1E553E47B67A"",""assignmentId"":""3f1b3f9e-df46-4cf6-a68d-bc8e071db26a"",""projectId"":""9596d7a2-d401-47b1-aedd-70105f5f2f42""}","https://test12345.live/?part=2&participantId=FA89614C7189452A8C1F1E553E47B67A&assignmentId=3f1b3f9e-df46-4cf6-a68d-bc8e071db26a&projectId=9596d7a2-d401-47b1-aedd-70105f5f2f42","FA89614C7189452A8C1F1E553E47B67A-2025-05-28-17-52-06","","null","","images/instructions/movie_0.png","null","",""
"","","","","","html-audio-response","9","149306","0.0-7.0","FA89614C7189452A8C1F1E553E47B67A","FA89614C7189452A8C1F1E553E47B67A","3f1b3f9e-df46-4cf6-a68d-bc8e071db26a","9596d7a2-d401-47b1-aedd-70105f5f2f42","{""part"":""2"",""participantId"":""FA89614C7189452A8C1F1E553E47B67A"",""assignmentId"":""3f1b3f9e-df46-4cf6-a68d-bc8e071db26a"",""projectId"":""9596d7a2-d401-47b1-aedd-70105f5f2f42""}","https://test12345.live/?part=2&participantId=FA89614C7189452A8C1F1E553E47B67A&assignmentId=3f1b3f9e-df46-4cf6-a68d-bc8e071db26a&projectId=9596d7a2-d401-47b1-aedd-70105f5f2f42","FA89614C7189452A8C1F1E553E47B67A-2025-05-28-17-52-06","","4257","","[""<span style=\""color: red; font-size: 24px\""> NOW RECORDING</span><p>Please say out loud all the images you saw in part 1 of the experiment, in the exact order you saw them. Try to recall as many images as you can, but remember: getting the order right is more important than the number of images you recall.</p>""]","","1",""
"","","","","","instructions","10","153168","0.0-8.0","FA89614C7189452A8C1F1E553E47B67A","FA89614C7189452A8C1F1E553E47B67A","3f1b3f9e-df46-4cf6-a68d-bc8e071db26a","9596d7a2-d401-47b1-aedd-70105f5f2f42","{""part"":""2"",""participantId"":""FA89614C7189452A8C1F1E553E47B67A"",""assignmentId"":""3f1b3f9e-df46-4cf6-a68d-bc8e071db26a"",""projectId"":""9596d7a2-d401-47b1-aedd-70105f5f2f42""}","https://test12345.live/?part=2&participantId=FA89614C7189452A8C1F1E553E47B67A&assignmentId=3f1b3f9e-df46-4cf6-a68d-bc8e071db26a&projectId=9596d7a2-d401-47b1-aedd-70105f5f2f42","FA89614C7189452A8C1F1E553E47B67A-2025-05-28-17-52-06","[{""page_index"":0,""viewing_time"":3853}]","3853","","","","",""
"","","","","","image-button-response","11","159189","0.0-9.0-0.0","FA89614C7189452A8C1F1E553E47B67A","FA89614C7189452A8C1F1E553E47B67A","3f1b3f9e-df46-4cf6-a68d-bc8e071db26a","9596d7a2-d401-47b1-aedd-70105f5f2f42","{""part"":""2"",""participantId"":""FA89614C7189452A8C1F1E553E47B67A"",""assignmentId"":""3f1b3f9e-df46-4cf6-a68d-bc8e071db26a"",""projectId"":""9596d7a2-d401-47b1-aedd-70105f5f2f42""}","https://test12345.live/?part=2&participantId=FA89614C7189452A8C1F1E553E47B67A&assignmentId=3f1b3f9e-df46-4cf6-a68d-bc8e071db26a&projectId=9596d7a2-d401-47b1-aedd-70105f5f2f42","FA89614C7189452A8C1F1E553E47B67A-2025-05-28-17-52-06","","null","","images/semantic_sequence/cat_care_semantic/cat_care_semantic_0.png","null","",""
"","","","","","html-audio-response","12","195785","0.0-10.0","FA89614C7189452A8C1F1E553E47B67A","FA89614C7189452A8C1F1E553E47B67A","3f1b3f9e-df46-4cf6-a68d-bc8e071db26a","9596d7a2-d401-47b1-aedd-70105f5f2f42","{""part"":""2"",""participantId"":""FA89614C7189452A8C1F1E553E47B67A"",""assignmentId"":""3f1b3f9e-df46-4cf6-a68d-bc8e071db26a"",""projectId"":""9596d7a2-d401-47b1-aedd-70105f5f2f42""}","https://test12345.live/?part=2&participantId=FA89614C7189452A8C1F1E553E47B67A&assignmentId=3f1b3f9e-df46-4cf6-a68d-bc8e071db26a&projectId=9596d7a2-d401-47b1-aedd-70105f5f2f42","FA89614C7189452A8C1F1E553E47B67A-2025-05-28-17-52-06","","35733","","[""<span style=\""color: red; font-size: 24px\""> NOW RECORDING</span><p>Please say out loud all the images you saw in part 1 of the experiment, in the exact order you saw them. Try to recall as many images as you can, but remember: getting the order right is more important than the number of images you recall. </p>""]","","10","cat_care_semantic"
"","","","","","image-button-response","13","201802","0.0-11.0-0.0","FA89614C7189452A8C1F1E553E47B67A","FA89614C7189452A8C1F1E553E47B67A","3f1b3f9e-df46-4cf6-a68d-bc8e071db26a","9596d7a2-d401-47b1-aedd-70105f5f2f42","{""part"":""2"",""participantId"":""FA89614C7189452A8C1F1E553E47B67A"",""assignmentId"":""3f1b3f9e-df46-4cf6-a68d-bc8e071db26a"",""projectId"":""9596d7a2-d401-47b1-aedd-70105f5f2f42""}","https://test12345.live/?part=2&participantId=FA89614C7189452A8C1F1E553E47B67A&assignmentId=3f1b3f9e-df46-4cf6-a68d-bc8e071db26a&projectId=9596d7a2-d401-47b1-aedd-70105f5f2f42","FA89614C7189452A8C1F1E553E47B67A-2025-05-28-17-52-06","","null","","images/semantic_sequence/visiting_cities_semantic/visiting_cities_semantic_0.png","null","",""
"","","","","","html-audio-response","14","228639","0.0-12.0","FA89614C7189452A8C1F1E553E47B67A","FA89614C7189452A8C1F1E553E47B67A","3f1b3f9e-df46-4cf6-a68d-bc8e071db26a","9596d7a2-d401-47b1-aedd-70105f5f2f42","{""part"":""2"",""participantId"":""FA89614C7189452A8C1F1E553E47B67A"",""assignmentId"":""3f1b3f9e-df46-4cf6-a68d-bc8e071db26a"",""projectId"":""9596d7a2-d401-47b1-aedd-70105f5f2f42""}","https://test12345.live/?part=2&participantId=FA89614C7189452A8C1F1E553E47B67A&assignmentId=3f1b3f9e-df46-4cf6-a68d-bc8e071db26a&projectId=9596d7a2-d401-47b1-aedd-70105f5f2f42","FA89614C7189452A8C1F1E553E47B67A-2025-05-28-17-52-06","","25815","","[""<span style=\""color: red; font-size: 24px\""> NOW RECORDING</span><p>Please say out loud all the images you saw in part 1 of the experiment, in the exact order you saw them. Try to recall as many images as you can, but remember: getting the order right is more important than the number of images you recall. </p>""]","","1","visiting_cities_semantic"
"","","","","","image-button-response","15","234663","0.0-13.0-0.0","FA89614C7189452A8C1F1E553E47B67A","FA89614C7189452A8C1F1E553E47B67A","3f1b3f9e-df46-4cf6-a68d-bc8e071db26a","9596d7a2-d401-47b1-aedd-70105f5f2f42","{""part"":""2"",""participantId"":""FA89614C7189452A8C1F1E553E47B67A"",""assignmentId"":""3f1b3f9e-df46-4cf6-a68d-bc8e071db26a"",""projectId"":""9596d7a2-d401-47b1-aedd-70105f5f2f42""}","https://test12345.live/?part=2&participantId=FA89614C7189452A8C1F1E553E47B67A&assignmentId=3f1b3f9e-df46-4cf6-a68d-bc8e071db26a&projectId=9596d7a2-d401-47b1-aedd-70105f5f2f42","FA89614C7189452A8C1F1E553E47B67A-2025-05-28-17-52-06","","null","","images/schematic_sequence/supermarket_scheme/supermarket_scheme_0.png","null","",""
"","","","","","html-audio-response","16","268634","0.0-14.0","FA89614C7189452A8C1F1E553E47B67A","FA89614C7189452A8C1F1E553E47B67A","3f1b3f9e-df46-4cf6-a68d-bc8e071db26a","9596d7a2-d401-47b1-aedd-70105f5f2f42","{""part"":""2"",""participantId"":""FA89614C7189452A8C1F1E553E47B67A"",""assignmentId"":""3f1b3f9e-df46-4cf6-a68d-bc8e071db26a"",""projectId"":""9596d7a2-d401-47b1-aedd-70105f5f2f42""}","https://test12345.live/?part=2&participantId=FA89614C7189452A8C1F1E553E47B67A&assignmentId=3f1b3f9e-df46-4cf6-a68d-bc8e071db26a&projectId=9596d7a2-d401-47b1-aedd-70105f5f2f42","FA89614C7189452A8C1F1E553E47B67A-2025-05-28-17-52-06","","33318","","[""<span style=\""color: red; font-size: 24px\""> NOW RECORDING</span><p>Please say out loud all the images you saw in part 1 of the experiment, in the exact order you saw them. Try to recall as many images as you can, but remember: getting the order right is more important than the number of images you recall. </p>""]","","3","supermarket_scheme"
"","","","","","image-button-response","17","274660","0.0-15.0-0.0","FA89614C7189452A8C1F1E553E47B67A","FA89614C7189452A8C1F1E553E47B67A","3f1b3f9e-df46-4cf6-a68d-bc8e071db26a","9596d7a2-d401-47b1-aedd-70105f5f2f42","{""part"":""2"",""participantId"":""FA89614C7189452A8C1F1E553E47B67A"",""assignmentId"":""3f1b3f9e-df46-4cf6-a68d-bc8e071db26a"",""projectId"":""9596d7a2-d401-47b1-aedd-70105f5f2f42""}","https://test12345.live/?part=2&participantId=FA89614C7189452A8C1F1E553E47B67A&assignmentId=3f1b3f9e-df46-4cf6-a68d-bc8e071db26a&projectId=9596d7a2-d401-47b1-aedd-70105f5f2f42","FA89614C7189452A8C1F1E553E47B67A-2025-05-28-17-52-06","","null","","images/semantic_sequence/maintaining_a_car_semantic/maintaining_a_car_semantic_0.png","null","",""
"","","","","","html-audio-response","18","327337","0.0-16.0","FA89614C7189452A8C1F1E553E47B67A","FA89614C7189452A8C1F1E553E47B67A","3f1b3f9e-df46-4cf6-a68d-bc8e071db26a","9596d7a2-d401-47b1-aedd-70105f5f2f42","{""part"":""2"",""participantId"":""FA89614C7189452A8C1F1E553E47B67A"",""assignmentId"":""3f1b3f9e-df46-4cf6-a68d-bc8e071db26a"",""projectId"":""9596d7a2-d401-47b1-aedd-70105f5f2f42""}","https://test12345.live/?part=2&participantId=FA89614C7189452A8C1F1E553E47B67A&assignmentId=3f1b3f9e-df46-4cf6-a68d-bc8e071db26a&projectId=9596d7a2-d401-47b1-aedd-70105f5f2f42","FA89614C7189452A8C1F1E553E47B67A-2025-05-28-17-52-06","","18780","","[""<span style=\""color: red; font-size: 24px\""> NOW RECORDING</span><p>Please say out loud all the images you saw in part 1 of the experiment, in the exact order you saw them. Try to recall as many images as you can, but remember: getting the order right is more important than the number of images you recall. </p>""]","","1","maintaining_a_car_semantic"
"","","","","","image-button-response","19","333360","0.0-17.0-0.0","FA89614C7189452A8C1F1E553E47B67A","FA89614C7189452A8C1F1E553E47B67A","3f1b3f9e-df46-4cf6-a68d-bc8e071db26a","9596d7a2-d401-47b1-aedd-70105f5f2f42","{""part"":""2"",""participantId"":""FA89614C7189452A8C1F1E553E47B67A"",""assignmentId"":""3f1b3f9e-df46-4cf6-a68d-bc8e071db26a"",""projectId"":""9596d7a2-d401-47b1-aedd-70105f5f2f42""}","https://test12345.live/?part=2&participantId=FA89614C7189452A8C1F1E553E47B67A&assignmentId=3f1b3f9e-df46-4cf6-a68d-bc8e071db26a&projectId=9596d7a2-d401-47b1-aedd-70105f5f2f42","FA89614C7189452A8C1F1E553E47B67A-2025-05-28-17-52-06","","null","","images/causal_sequence/the_performance_causal/the_performance_causal_0.png","null","",""
"","","","","","html-audio-response","20","350419","0.0-18.0","FA89614C7189452A8C1F1E553E47B67A","FA89614C7189452A8C1F1E553E47B67A","3f1b3f9e-df46-4cf6-a68d-bc8e071db26a","9596d7a2-d401-47b1-aedd-70105f5f2f42","{""part"":""2"",""participantId"":""FA89614C7189452A8C1F1E553E47B67A"",""assignmentId"":""3f1b3f9e-df46-4cf6-a68d-bc8e071db26a"",""projectId"":""9596d7a2-d401-47b1-aedd-70105f5f2f42""}","https://test12345.live/?part=2&participantId=FA89614C7189452A8C1F1E553E47B67A&assignmentId=3f1b3f9e-df46-4cf6-a68d-bc8e071db26a&projectId=9596d7a2-d401-47b1-aedd-70105f5f2f42","FA89614C7189452A8C1F1E553E47B67A-2025-05-28-17-52-06","","16362","","[""<span style=\""color: red; font-size: 24px\""> NOW RECORDING</span><p>Please say out loud all the images you saw in part 1 of the experiment, in the exact order you saw them. Try to recall as many images as you can, but remember: getting the order right is more important than the number of images you recall. </p>""]","","1","the_performance_causal"
"","","","","","image-button-response","21","356426","0.0-19.0-0.0","FA89614C7189452A8C1F1E553E47B67A","FA89614C7189452A8C1F1E553E47B67A","3f1b3f9e-df46-4cf6-a68d-bc8e071db26a","9596d7a2-d401-47b1-aedd-70105f5f2f42","{""part"":""2"",""participantId"":""FA89614C7189452A8C1F1E553E47B67A"",""assignmentId"":""3f1b3f9e-df46-4cf6-a68d-bc8e071db26a"",""projectId"":""9596d7a2-d401-47b1-aedd-70105f5f2f42""}","https://test12345.live/?part=2&participantId=FA89614C7189452A8C1F1E553E47B67A&assignmentId=3f1b3f9e-df46-4cf6-a68d-bc8e071db26a&projectId=9596d7a2-d401-47b1-aedd-70105f5f2f42","FA89614C7189452A8C1F1E553E47B67A-2025-05-28-17-52-06","","null","","images/semantic_sequence/self_care_activities_semantic/self_care_activities_semantic_0.png","null","",""
"","","","","","html-audio-response","22","404572","0.0-20.0","FA89614C7189452A8C1F1E553E47B67A","FA89614C7189452A8C1F1E553E47B67A","3f1b3f9e-df46-4cf6-a68d-bc8e071db26a","9596d7a2-d401-47b1-aedd-70105f5f2f42","{""part"":""2"",""participantId"":""FA89614C7189452A8C1F1E553E47B67A"",""assignmentId"":""3f1b3f9e-df46-4cf6-a68d-bc8e071db26a"",""projectId"":""9596d7a2-d401-47b1-aedd-70105f5f2f42""}","https://test12345.live/?part=2&participantId=FA89614C7189452A8C1F1E553E47B67A&assignmentId=3f1b3f9e-df46-4cf6-a68d-bc8e071db26a&projectId=9596d7a2-d401-47b1-aedd-70105f5f2f42","FA89614C7189452A8C1F1E553E47B67A-2025-05-28-17-52-06","","17669","","[""<span style=\""color: red; font-size: 24px\""> NOW RECORDING</span><p>Please say out loud all the images you saw in part 1 of the experiment, in the exact order you saw them. Try to recall as many images as you can, but remember: getting the order right is more important than the number of images you recall. </p>""]","","4","self_care_activities_semantic"
"","","","","","image-button-response","23","410606","0.0-21.0-0.0","FA89614C7189452A8C1F1E553E47B67A","FA89614C7189452A8C1F1E553E47B67A","3f1b3f9e-df46-4cf6-a68d-bc8e071db26a","9596d7a2-d401-47b1-aedd-70105f5f2f42","{""part"":""2"",""participantId"":""FA89614C7189452A8C1F1E553E47B67A"",""assignmentId"":""3f1b3f9e-df46-4cf6-a68d-bc8e071db26a"",""projectId"":""9596d7a2-d401-47b1-aedd-70105f5f2f42""}","https://test12345.live/?part=2&participantId=FA89614C7189452A8C1F1E553E47B67A&assignmentId=3f1b3f9e-df46-4cf6-a68d-bc8e071db26a&projectId=9596d7a2-d401-47b1-aedd-70105f5f2f42","FA89614C7189452A8C1F1E553E47B67A-2025-05-28-17-52-06","","null","","images/semantic_sequence/using_technology_semantic/using_technology_semantic_0.png","null","",""
"","","","","","html-audio-response","24","438784","0.0-22.0","FA89614C7189452A8C1F1E553E47B67A","FA89614C7189452A8C1F1E553E47B67A","3f1b3f9e-df46-4cf6-a68d-bc8e071db26a","9596d7a2-d401-47b1-aedd-70105f5f2f42","{""part"":""2"",""participantId"":""FA89614C7189452A8C1F1E553E47B67A"",""assignmentId"":""3f1b3f9e-df46-4cf6-a68d-bc8e071db26a"",""projectId"":""9596d7a2-d401-47b1-aedd-70105f5f2f42""}","https://test12345.live/?part=2&participantId=FA89614C7189452A8C1F1E553E47B67A&assignmentId=3f1b3f9e-df46-4cf6-a68d-bc8e071db26a&projectId=9596d7a2-d401-47b1-aedd-70105f5f2f42","FA89614C7189452A8C1F1E553E47B67A-2025-05-28-17-52-06","","27453","","[""<span style=\""color: red; font-size: 24px\""> NOW RECORDING</span><p>Please say out loud all the images you saw in part 1 of the experiment, in the exact order you saw them. Try to recall as many images as you can, but remember: getting the order right is more important than the number of images you recall. </p>""]","","2","using_technology_semantic"
"","","","","","image-button-response","25","444805","0.0-23.0-0.0","FA89614C7189452A8C1F1E553E47B67A","FA89614C7189452A8C1F1E553E47B67A","3f1b3f9e-df46-4cf6-a68d-bc8e071db26a","9596d7a2-d401-47b1-aedd-70105f5f2f42","{""part"":""2"",""participantId"":""FA89614C7189452A8C1F1E553E47B67A"",""assignmentId"":""3f1b3f9e-df46-4cf6-a68d-bc8e071db26a"",""projectId"":""9596d7a2-d401-47b1-aedd-70105f5f2f42""}","https://test12345.live/?part=2&participantId=FA89614C7189452A8C1F1E553E47B67A&assignmentId=3f1b3f9e-df46-4cf6-a68d-bc8e071db26a&projectId=9596d7a2-d401-47b1-aedd-70105f5f2f42","FA89614C7189452A8C1F1E553E47B67A-2025-05-28-17-52-06","","null","","images/semantic_sequence/redecorating_semantic/redecorating_semantic_0.png","null","",""
"","","","","","html-audio-response","26","476885","0.0-24.0","FA89614C7189452A8C1F1E553E47B67A","FA89614C7189452A8C1F1E553E47B67A","3f1b3f9e-df46-4cf6-a68d-bc8e071db26a","9596d7a2-d401-47b1-aedd-70105f5f2f42","{""part"":""2"",""participantId"":""FA89614C7189452A8C1F1E553E47B67A"",""assignmentId"":""3f1b3f9e-df46-4cf6-a68d-bc8e071db26a"",""projectId"":""9596d7a2-d401-47b1-aedd-70105f5f2f42""}","https://test12345.live/?part=2&participantId=FA89614C7189452A8C1F1E553E47B67A&assignmentId=3f1b3f9e-df46-4cf6-a68d-bc8e071db26a&projectId=9596d7a2-d401-47b1-aedd-70105f5f2f42","FA89614C7189452A8C1F1E553E47B67A-2025-05-28-17-52-06","","31338","","[""<span style=\""color: red; font-size: 24px\""> NOW RECORDING</span><p>Please say out loud all the images you saw in part 1 of the experiment, in the exact order you saw them. Try to recall as many images as you can, but remember: getting the order right is more important than the number of images you recall. </p>""]","","3","redecorating_semantic"
"","","","","","image-button-response","27","482914","0.0-25.0-0.0","FA89614C7189452A8C1F1E553E47B67A","FA89614C7189452A8C1F1E553E47B67A","3f1b3f9e-df46-4cf6-a68d-bc8e071db26a","9596d7a2-d401-47b1-aedd-70105f5f2f42","{""part"":""2"",""participantId"":""FA89614C7189452A8C1F1E553E47B67A"",""assignmentId"":""3f1b3f9e-df46-4cf6-a68d-bc8e071db26a"",""projectId"":""9596d7a2-d401-47b1-aedd-70105f5f2f42""}","https://test12345.live/?part=2&participantId=FA89614C7189452A8C1F1E553E47B67A&assignmentId=3f1b3f9e-df46-4cf6-a68d-bc8e071db26a&projectId=9596d7a2-d401-47b1-aedd-70105f5f2f42","FA89614C7189452A8C1F1E553E47B67A-2025-05-28-17-52-06","","null","","images/causal_sequence/coin_causal/coin_causal_0.png","null","",""
"","","","","","html-audio-response","28","523048","0.0-26.0","FA89614C7189452A8C1F1E553E47B67A","FA89614C7189452A8C1F1E553E47B67A","3f1b3f9e-df46-4cf6-a68d-bc8e071db26a","9596d7a2-d401-47b1-aedd-70105f5f2f42","{""part"":""2"",""participantId"":""FA89614C7189452A8C1F1E553E47B67A"",""assignmentId"":""3f1b3f9e-df46-4cf6-a68d-bc8e071db26a"",""projectId"":""9596d7a2-d401-47b1-aedd-70105f5f2f42""}","https://test12345.live/?part=2&participantId=FA89614C7189452A8C1F1E553E47B67A&assignmentId=3f1b3f9e-df46-4cf6-a68d-bc8e071db26a&projectId=9596d7a2-d401-47b1-aedd-70105f5f2f42","FA89614C7189452A8C1F1E553E47B67A-2025-05-28-17-52-06","","39295","","[""<span style=\""color: red; font-size: 24px\""> NOW RECORDING</span><p>Please say out loud all the images you saw in part 1 of the experiment, in the exact order you saw them. Try to recall as many images as you can, but remember: getting the order right is more important than the number of images you recall. </p>""]","","3","coin_causal"
"","","","","","image-button-response","29","529079","0.0-27.0-0.0","FA89614C7189452A8C1F1E553E47B67A","FA89614C7189452A8C1F1E553E47B67A","3f1b3f9e-df46-4cf6-a68d-bc8e071db26a","9596d7a2-d401-47b1-aedd-70105f5f2f42","{""part"":""2"",""participantId"":""FA89614C7189452A8C1F1E553E47B67A"",""assignmentId"":""3f1b3f9e-df46-4cf6-a68d-bc8e071db26a"",""projectId"":""9596d7a2-d401-47b1-aedd-70105f5f2f42""}","https://test12345.live/?part=2&participantId=FA89614C7189452A8C1F1E553E47B67A&assignmentId=3f1b3f9e-df46-4cf6-a68d-bc8e071db26a&projectId=9596d7a2-d401-47b1-aedd-70105f5f2f42","FA89614C7189452A8C1F1E553E47B67A-2025-05-28-17-52-06","","null","","images/causal_sequence/dog_causal/dog_causal_0.png","null","",""
"","","","","","html-audio-response","30","553644","0.0-28.0","FA89614C7189452A8C1F1E553E47B67A","FA89614C7189452A8C1F1E553E47B67A","3f1b3f9e-df46-4cf6-a68d-bc8e071db26a","9596d7a2-d401-47b1-aedd-70105f5f2f42","{""part"":""2"",""participantId"":""FA89614C7189452A8C1F1E553E47B67A"",""assignmentId"":""3f1b3f9e-df46-4cf6-a68d-bc8e071db26a"",""projectId"":""9596d7a2-d401-47b1-aedd-70105f5f2f42""}","https://test12345.live/?part=2&participantId=FA89614C7189452A8C1F1E553E47B67A&assignmentId=3f1b3f9e-df46-4cf6-a68d-bc8e071db26a&projectId=9596d7a2-d401-47b1-aedd-70105f5f2f42","FA89614C7189452A8C1F1E553E47B67A-2025-05-28-17-52-06","","23943","","[""<span style=\""color: red; font-size: 24px\""> NOW RECORDING</span><p>Please say out loud all the images you saw in part 1 of the experiment, in the exact order you saw them. Try to recall as many images as you can, but remember: getting the order right is more important than the number of images you recall. </p>""]","","2","dog_causal"
"","","","","","image-button-response","31","559675","0.0-29.0-0.0","FA89614C7189452A8C1F1E553E47B67A","FA89614C7189452A8C1F1E553E47B67A","3f1b3f9e-df46-4cf6-a68d-bc8e071db26a","9596d7a2-d401-47b1-aedd-70105f5f2f42","{""part"":""2"",""participantId"":""FA89614C7189452A8C1F1E553E47B67A"",""assignmentId"":""3f1b3f9e-df46-4cf6-a68d-bc8e071db26a"",""projectId"":""9596d7a2-d401-47b1-aedd-70105f5f2f42""}","https://test12345.live/?part=2&participantId=FA89614C7189452A8C1F1E553E47B67A&assignmentId=3f1b3f9e-df46-4cf6-a68d-bc8e071db26a&projectId=9596d7a2-d401-47b1-aedd-70105f5f2f42","FA89614C7189452A8C1F1E553E47B67A-2025-05-28-17-52-06","","null","","images/causal_sequence/package_causal/package_causal_0.png","null","",""
"","","","","","html-audio-response","32","592961","0.0-30.0","FA89614C7189452A8C1F1E553E47B67A","FA89614C7189452A8C1F1E553E47B67A","3f1b3f9e-df46-4cf6-a68d-bc8e071db26a","9596d7a2-d401-47b1-aedd-70105f5f2f42","{""part"":""2"",""participantId"":""FA89614C7189452A8C1F1E553E47B67A"",""assignmentId"":""3f1b3f9e-df46-4cf6-a68d-bc8e071db26a"",""projectId"":""9596d7a2-d401-47b1-aedd-70105f5f2f42""}","https://test12345.live/?part=2&participantId=FA89614C7189452A8C1F1E553E47B67A&assignmentId=3f1b3f9e-df46-4cf6-a68d-bc8e071db26a&projectId=9596d7a2-d401-47b1-aedd-70105f5f2f42","FA89614C7189452A8C1F1E553E47B67A-2025-05-28-17-52-06","","32570","","[""<span style=\""color: red; font-size: 24px\""> NOW RECORDING</span><p>Please say out loud all the images you saw in part 1 of the experiment, in the exact order you saw them. Try to recall as many images as you can, but remember: getting the order right is more important than the number of images you recall. </p>""]","","1","package_causal"
"","","","","","image-button-response","33","598982","0.0-31.0-0.0","FA89614C7189452A8C1F1E553E47B67A","FA89614C7189452A8C1F1E553E47B67A","3f1b3f9e-df46-4cf6-a68d-bc8e071db26a","9596d7a2-d401-47b1-aedd-70105f5f2f42","{""part"":""2"",""participantId"":""FA89614C7189452A8C1F1E553E47B67A"",""assignmentId"":""3f1b3f9e-df46-4cf6-a68d-bc8e071db26a"",""projectId"":""9596d7a2-d401-47b1-aedd-70105f5f2f42""}","https://test12345.live/?part=2&participantId=FA89614C7189452A8C1F1E553E47B67A&assignmentId=3f1b3f9e-df46-4cf6-a68d-bc8e071db26a&projectId=9596d7a2-d401-47b1-aedd-70105f5f2f42","FA89614C7189452A8C1F1E553E47B67A-2025-05-28-17-52-06","","null","","images/causal_sequence/museum_causal/museum_causal_0.png","null","",""
"","","","","","html-audio-response","34","630908","0.0-32.0","FA89614C7189452A8C1F1E553E47B67A","FA89614C7189452A8C1F1E553E47B67A","3f1b3f9e-df46-4cf6-a68d-bc8e071db26a","9596d7a2-d401-47b1-aedd-70105f5f2f42","{""part"":""2"",""participantId"":""FA89614C7189452A8C1F1E553E47B67A"",""assignmentId"":""3f1b3f9e-df46-4cf6-a68d-bc8e071db26a"",""projectId"":""9596d7a2-d401-47b1-aedd-70105f5f2f42""}","https://test12345.live/?part=2&participantId=FA89614C7189452A8C1F1E553E47B67A&assignmentId=3f1b3f9e-df46-4cf6-a68d-bc8e071db26a&projectId=9596d7a2-d401-47b1-aedd-70105f5f2f42","FA89614C7189452A8C1F1E553E47B67A-2025-05-28-17-52-06","","31307","","[""<span style=\""color: red; font-size: 24px\""> NOW RECORDING</span><p>Please say out loud all the images you saw in part 1 of the experiment, in the exact order you saw them. Try to recall as many images as you can, but remember: getting the order right is more important than the number of images you recall. </p>""]","","3","museum_causal"
"","","","","","image-button-response","35","636927","0.0-33.0-0.0","FA89614C7189452A8C1F1E553E47B67A","FA89614C7189452A8C1F1E553E47B67A","3f1b3f9e-df46-4cf6-a68d-bc8e071db26a","9596d7a2-d401-47b1-aedd-70105f5f2f42","{""part"":""2"",""participantId"":""FA89614C7189452A8C1F1E553E47B67A"",""assignmentId"":""3f1b3f9e-df46-4cf6-a68d-bc8e071db26a"",""projectId"":""9596d7a2-d401-47b1-aedd-70105f5f2f42""}","https://test12345.live/?part=2&participantId=FA89614C7189452A8C1F1E553E47B67A&assignmentId=3f1b3f9e-df46-4cf6-a68d-bc8e071db26a&projectId=9596d7a2-d401-47b1-aedd-70105f5f2f42","FA89614C7189452A8C1F1E553E47B67A-2025-05-28-17-52-06","","null","","images/causal_sequence/saving_a_cat_causal/saving_a_cat_causal_0.png","null","",""
"","","","","","html-audio-response","36","667584","0.0-34.0","FA89614C7189452A8C1F1E553E47B67A","FA89614C7189452A8C1F1E553E47B67A","3f1b3f9e-df46-4cf6-a68d-bc8e071db26a","9596d7a2-d401-47b1-aedd-70105f5f2f42","{""part"":""2"",""participantId"":""FA89614C7189452A8C1F1E553E47B67A"",""assignmentId"":""3f1b3f9e-df46-4cf6-a68d-bc8e071db26a"",""projectId"":""9596d7a2-d401-47b1-aedd-70105f5f2f42""}","https://test12345.live/?part=2&participantId=FA89614C7189452A8C1F1E553E47B67A&assignmentId=3f1b3f9e-df46-4cf6-a68d-bc8e071db26a&projectId=9596d7a2-d401-47b1-aedd-70105f5f2f42","FA89614C7189452A8C1F1E553E47B67A-2025-05-28-17-52-06","","30013","","[""<span style=\""color: red; font-size: 24px\""> NOW RECORDING</span><p>Please say out loud all the images you saw in part 1 of the experiment, in the exact order you saw them. Try to recall as many images as you can, but remember: getting the order right is more important than the number of images you recall. </p>""]","","3","saving_a_cat_causal"
"","","","","","instructions","37","673278","0.0-35.0","FA89614C7189452A8C1F1E553E47B67A","FA89614C7189452A8C1F1E553E47B67A","3f1b3f9e-df46-4cf6-a68d-bc8e071db26a","9596d7a2-d401-47b1-aedd-70105f5f2f42","{""part"":""2"",""participantId"":""FA89614C7189452A8C1F1E553E47B67A"",""assignmentId"":""3f1b3f9e-df46-4cf6-a68d-bc8e071db26a"",""projectId"":""9596d7a2-d401-47b1-aedd-70105f5f2f42""}","https://test12345.live/?part=2&participantId=FA89614C7189452A8C1F1E553E47B67A&assignmentId=3f1b3f9e-df46-4cf6-a68d-bc8e071db26a&projectId=9596d7a2-d401-47b1-aedd-70105f5f2f42","FA89614C7189452A8C1F1E553E47B67A-2025-05-28-17-52-06","[{""page_index"":0,""viewing_time"":5685}]","5685","","","","",""
"","","","","","image-button-response","38","679286","0.0-36.0-0.0","FA89614C7189452A8C1F1E553E47B67A","FA89614C7189452A8C1F1E553E47B67A","3f1b3f9e-df46-4cf6-a68d-bc8e071db26a","9596d7a2-d401-47b1-aedd-70105f5f2f42","{""part"":""2"",""participantId"":""FA89614C7189452A8C1F1E553E47B67A"",""assignmentId"":""3f1b3f9e-df46-4cf6-a68d-bc8e071db26a"",""projectId"":""9596d7a2-d401-47b1-aedd-70105f5f2f42""}","https://test12345.live/?part=2&participantId=FA89614C7189452A8C1F1E553E47B67A&assignmentId=3f1b3f9e-df46-4cf6-a68d-bc8e071db26a&projectId=9596d7a2-d401-47b1-aedd-70105f5f2f42","FA89614C7189452A8C1F1E553E47B67A-2025-05-28-17-52-06","","null","","images/semantic_sequence/exploring_nature_semantic/exploring_nature_semantic_0.png","null","",""
"","","","","","html-audio-response","39","703625","0.0-37.0","FA89614C7189452A8C1F1E553E47B67A","FA89614C7189452A8C1F1E553E47B67A","3f1b3f9e-df46-4cf6-a68d-bc8e071db26a","9596d7a2-d401-47b1-aedd-70105f5f2f42","{""part"":""2"",""participantId"":""FA89614C7189452A8C1F1E553E47B67A"",""assignmentId"":""3f1b3f9e-df46-4cf6-a68d-bc8e071db26a"",""projectId"":""9596d7a2-d401-47b1-aedd-70105f5f2f42""}","https://test12345.live/?part=2&participantId=FA89614C7189452A8C1F1E553E47B67A&assignmentId=3f1b3f9e-df46-4cf6-a68d-bc8e071db26a&projectId=9596d7a2-d401-47b1-aedd-70105f5f2f42","FA89614C7189452A8C1F1E553E47B67A-2025-05-28-17-52-06","","23736","","[""<span style=\""color: red; font-size: 24px\""> NOW RECORDING</span><p>Please say out loud all the images you saw in part 1 of the experiment, in the exact order you saw them. Try to recall as many images as you can, but remember: getting the order right is more important than the number of images you recall. </p>""]","","1","exploring_nature_semantic"
"","","","","","image-button-response","40","709651","0.0-38.0-0.0","FA89614C7189452A8C1F1E553E47B67A","FA89614C7189452A8C1F1E553E47B67A","3f1b3f9e-df46-4cf6-a68d-bc8e071db26a","9596d7a2-d401-47b1-aedd-70105f5f2f42","{""part"":""2"",""participantId"":""FA89614C7189452A8C1F1E553E47B67A"",""assignmentId"":""3f1b3f9e-df46-4cf6-a68d-bc8e071db26a"",""projectId"":""9596d7a2-d401-47b1-aedd-70105f5f2f42""}","https://test12345.live/?part=2&participantId=FA89614C7189452A8C1F1E553E47B67A&assignmentId=3f1b3f9e-df46-4cf6-a68d-bc8e071db26a&projectId=9596d7a2-d401-47b1-aedd-70105f5f2f42","FA89614C7189452A8C1F1E553E47B67A-2025-05-28-17-52-06","","null","","images/semantic_sequence/housework_semantic/housework_semantic_0.png","null","",""
"","","","","","html-audio-response","41","793110","0.0-39.0","FA89614C7189452A8C1F1E553E47B67A","FA89614C7189452A8C1F1E553E47B67A","3f1b3f9e-df46-4cf6-a68d-bc8e071db26a","9596d7a2-d401-47b1-aedd-70105f5f2f42","{""part"":""2"",""participantId"":""FA89614C7189452A8C1F1E553E47B67A"",""assignmentId"":""3f1b3f9e-df46-4cf6-a68d-bc8e071db26a"",""projectId"":""9596d7a2-d401-47b1-aedd-70105f5f2f42""}","https://test12345.live/?part=2&participantId=FA89614C7189452A8C1F1E553E47B67A&assignmentId=3f1b3f9e-df46-4cf6-a68d-bc8e071db26a&projectId=9596d7a2-d401-47b1-aedd-70105f5f2f42","FA89614C7189452A8C1F1E553E47B67A-2025-05-28-17-52-06","","25732","","[""<span style=\""color: red; font-size: 24px\""> NOW RECORDING</span><p>Please say out loud all the images you saw in part 1 of the experiment, in the exact order you saw them. Try to recall as many images as you can, but remember: getting the order right is more important than the number of images you recall. </p>""]","","2","housework_semantic"
"","","","","","image-button-response","42","799125","0.0-40.0-0.0","FA89614C7189452A8C1F1E553E47B67A","FA89614C7189452A8C1F1E553E47B67A","3f1b3f9e-df46-4cf6-a68d-bc8e071db26a","9596d7a2-d401-47b1-aedd-70105f5f2f42","{""part"":""2"",""participantId"":""FA89614C7189452A8C1F1E553E47B67A"",""assignmentId"":""3f1b3f9e-df46-4cf6-a68d-bc8e071db26a"",""projectId"":""9596d7a2-d401-47b1-aedd-70105f5f2f42""}","https://test12345.live/?part=2&participantId=FA89614C7189452A8C1F1E553E47B67A&assignmentId=3f1b3f9e-df46-4cf6-a68d-bc8e071db26a&projectId=9596d7a2-d401-47b1-aedd-70105f5f2f42","FA89614C7189452A8C1F1E553E47B67A-2025-05-28-17-52-06","","null","","images/semantic_sequence/physical_activity_semantic/physical_activity_semantic_0.png","null","",""
"","","","","","html-audio-response","43","824654","0.0-41.0","FA89614C7189452A8C1F1E553E47B67A","FA89614C7189452A8C1F1E553E47B67A","3f1b3f9e-df46-4cf6-a68d-bc8e071db26a","9596d7a2-d401-47b1-aedd-70105f5f2f42","{""part"":""2"",""participantId"":""FA89614C7189452A8C1F1E553E47B67A"",""assignmentId"":""3f1b3f9e-df46-4cf6-a68d-bc8e071db26a"",""projectId"":""9596d7a2-d401-47b1-aedd-70105f5f2f42""}","https://test12345.live/?part=2&participantId=FA89614C7189452A8C1F1E553E47B67A&assignmentId=3f1b3f9e-df46-4cf6-a68d-bc8e071db26a&projectId=9596d7a2-d401-47b1-aedd-70105f5f2f42","FA89614C7189452A8C1F1E553E47B67A-2025-05-28-17-52-06","","24888","","[""<span style=\""color: red; font-size: 24px\""> NOW RECORDING</span><p>Please say out loud all the images you saw in part 1 of the experiment, in the exact order you saw them. Try to recall as many images as you can, but remember: getting the order right is more important than the number of images you recall. </p>""]","","3","physical_activity_semantic"
"","","","","","image-button-response","44","830665","0.0-42.0-0.0","FA89614C7189452A8C1F1E553E47B67A","FA89614C7189452A8C1F1E553E47B67A","3f1b3f9e-df46-4cf6-a68d-bc8e071db26a","9596d7a2-d401-47b1-aedd-70105f5f2f42","{""part"":""2"",""participantId"":""FA89614C7189452A8C1F1E553E47B67A"",""assignmentId"":""3f1b3f9e-df46-4cf6-a68d-bc8e071db26a"",""projectId"":""9596d7a2-d401-47b1-aedd-70105f5f2f42""}","https://test12345.live/?part=2&participantId=FA89614C7189452A8C1F1E553E47B67A&assignmentId=3f1b3f9e-df46-4cf6-a68d-bc8e071db26a&projectId=9596d7a2-d401-47b1-aedd-70105f5f2f42","FA89614C7189452A8C1F1E553E47B67A-2025-05-28-17-52-06","","null","","images/schematic_sequence/hotel_scheme/hotel_scheme_0.png","null","",""
"","","","","","html-audio-response","45","856581","0.0-43.0","FA89614C7189452A8C1F1E553E47B67A","FA89614C7189452A8C1F1E553E47B67A","3f1b3f9e-df46-4cf6-a68d-bc8e071db26a","9596d7a2-d401-47b1-aedd-70105f5f2f42","{""part"":""2"",""participantId"":""FA89614C7189452A8C1F1E553E47B67A"",""assignmentId"":""3f1b3f9e-df46-4cf6-a68d-bc8e071db26a"",""projectId"":""9596d7a2-d401-47b1-aedd-70105f5f2f42""}","https://test12345.live/?part=2&participantId=FA89614C7189452A8C1F1E553E47B67A&assignmentId=3f1b3f9e-df46-4cf6-a68d-bc8e071db26a&projectId=9596d7a2-d401-47b1-aedd-70105f5f2f42","FA89614C7189452A8C1F1E553E47B67A-2025-05-28-17-52-06","","25309","","[""<span style=\""color: red; font-size: 24px\""> NOW RECORDING</span><p>Please say out loud all the images you saw in part 1 of the experiment, in the exact order you saw them. Try to recall as many images as you can, but remember: getting the order right is more important than the number of images you recall. </p>""]","","4","hotel_scheme"
"","","","","","image-button-response","46","862595","0.0-44.0-0.0","FA89614C7189452A8C1F1E553E47B67A","FA89614C7189452A8C1F1E553E47B67A","3f1b3f9e-df46-4cf6-a68d-bc8e071db26a","9596d7a2-d401-47b1-aedd-70105f5f2f42","{""part"":""2"",""participantId"":""FA89614C7189452A8C1F1E553E47B67A"",""assignmentId"":""3f1b3f9e-df46-4cf6-a68d-bc8e071db26a"",""projectId"":""9596d7a2-d401-47b1-aedd-70105f5f2f42""}","https://test12345.live/?part=2&participantId=FA89614C7189452A8C1F1E553E47B67A&assignmentId=3f1b3f9e-df46-4cf6-a68d-bc8e071db26a&projectId=9596d7a2-d401-47b1-aedd-70105f5f2f42","FA89614C7189452A8C1F1E553E47B67A-2025-05-28-17-52-06","","null","","images/schematic_sequence/flight_scheme/flight_scheme_0.png","null","",""
"","","","","","html-audio-response","47","885224","0.0-45.0","FA89614C7189452A8C1F1E553E47B67A","FA89614C7189452A8C1F1E553E47B67A","3f1b3f9e-df46-4cf6-a68d-bc8e071db26a","9596d7a2-d401-47b1-aedd-70105f5f2f42","{""part"":""2"",""participantId"":""FA89614C7189452A8C1F1E553E47B67A"",""assignmentId"":""3f1b3f9e-df46-4cf6-a68d-bc8e071db26a"",""projectId"":""9596d7a2-d401-47b1-aedd-70105f5f2f42""}","https://test12345.live/?part=2&participantId=FA89614C7189452A8C1F1E553E47B67A&assignmentId=3f1b3f9e-df46-4cf6-a68d-bc8e071db26a&projectId=9596d7a2-d401-47b1-aedd-70105f5f2f42","FA89614C7189452A8C1F1E553E47B67A-2025-05-28-17-52-06","","22038","","[""<span style=\""color: red; font-size: 24px\""> NOW RECORDING</span><p>Please say out loud all the images you saw in part 1 of the experiment, in the exact order you saw them. Try to recall as many images as you can, but remember: getting the order right is more important than the number of images you recall. </p>""]","","3","flight_scheme"
"","","","","","image-button-response","48","891240","0.0-46.0-0.0","FA89614C7189452A8C1F1E553E47B67A","FA89614C7189452A8C1F1E553E47B67A","3f1b3f9e-df46-4cf6-a68d-bc8e071db26a","9596d7a2-d401-47b1-aedd-70105f5f2f42","{""part"":""2"",""participantId"":""FA89614C7189452A8C1F1E553E47B67A"",""assignmentId"":""3f1b3f9e-df46-4cf6-a68d-bc8e071db26a"",""projectId"":""9596d7a2-d401-47b1-aedd-70105f5f2f42""}","https://test12345.live/?part=2&participantId=FA89614C7189452A8C1F1E553E47B67A&assignmentId=3f1b3f9e-df46-4cf6-a68d-bc8e071db26a&projectId=9596d7a2-d401-47b1-aedd-70105f5f2f42","FA89614C7189452A8C1F1E553E47B67A-2025-05-28-17-52-06","","null","","images/schematic_sequence/dinner_party_scheme/dinner_party_scheme_0.png","null","",""
"","","","","","html-audio-response","49","914364","0.0-47.0","FA89614C7189452A8C1F1E553E47B67A","FA89614C7189452A8C1F1E553E47B67A","3f1b3f9e-df46-4cf6-a68d-bc8e071db26a","9596d7a2-d401-47b1-aedd-70105f5f2f42","{""part"":""2"",""participantId"":""FA89614C7189452A8C1F1E553E47B67A"",""assignmentId"":""3f1b3f9e-df46-4cf6-a68d-bc8e071db26a"",""projectId"":""9596d7a2-d401-47b1-aedd-70105f5f2f42""}","https://test12345.live/?part=2&participantId=FA89614C7189452A8C1F1E553E47B67A&assignmentId=3f1b3f9e-df46-4cf6-a68d-bc8e071db26a&projectId=9596d7a2-d401-47b1-aedd-70105f5f2f42","FA89614C7189452A8C1F1E553E47B67A-2025-05-28-17-52-06","","22556","","[""<span style=\""color: red; font-size: 24px\""> NOW RECORDING</span><p>Please say out loud all the images you saw in part 1 of the experiment, in the exact order you saw them. Try to recall as many images as you can, but remember: getting the order right is more important than the number of images you recall. </p>""]","","3","dinner_party_scheme"
"","","","","","image-button-response","50","920380","0.0-48.0-0.0","FA89614C7189452A8C1F1E553E47B67A","FA89614C7189452A8C1F1E553E47B67A","3f1b3f9e-df46-4cf6-a68d-bc8e071db26a","9596d7a2-d401-47b1-aedd-70105f5f2f42","{""part"":""2"",""participantId"":""FA89614C7189452A8C1F1E553E47B67A"",""assignmentId"":""3f1b3f9e-df46-4cf6-a68d-bc8e071db26a"",""projectId"":""9596d7a2-d401-47b1-aedd-70105f5f2f42""}","https://test12345.live/?part=2&participantId=FA89614C7189452A8C1F1E553E47B67A&assignmentId=3f1b3f9e-df46-4cf6-a68d-bc8e071db26a&projectId=9596d7a2-d401-47b1-aedd-70105f5f2f42","FA89614C7189452A8C1F1E553E47B67A-2025-05-28-17-52-06","","null","","images/schematic_sequence/restaurant_scheme/restaurant_scheme_0.png","null","",""
"","","","","","html-audio-response","51","931407","0.0-49.0","FA89614C7189452A8C1F1E553E47B67A","FA89614C7189452A8C1F1E553E47B67A","3f1b3f9e-df46-4cf6-a68d-bc8e071db26a","9596d7a2-d401-47b1-aedd-70105f5f2f42","{""part"":""2"",""participantId"":""FA89614C7189452A8C1F1E553E47B67A"",""assignmentId"":""3f1b3f9e-df46-4cf6-a68d-bc8e071db26a"",""projectId"":""9596d7a2-d401-47b1-aedd-70105f5f2f42""}","https://test12345.live/?part=2&participantId=FA89614C7189452A8C1F1E553E47B67A&assignmentId=3f1b3f9e-df46-4cf6-a68d-bc8e071db26a&projectId=9596d7a2-d401-47b1-aedd-70105f5f2f42","FA89614C7189452A8C1F1E553E47B67A-2025-05-28-17-52-06","","10408","","[""<span style=\""color: red; font-size: 24px\""> NOW RECORDING</span><p>Please say out loud all the images you saw in part 1 of the experiment, in the exact order you saw them. Try to recall as many images as you can, but remember: getting the order right is more important than the number of images you recall. </p>""]","","2","restaurant_scheme"
"","","","","","image-button-response","52","937414","0.0-50.0-0.0","FA89614C7189452A8C1F1E553E47B67A","FA89614C7189452A8C1F1E553E47B67A","3f1b3f9e-df46-4cf6-a68d-bc8e071db26a","9596d7a2-d401-47b1-aedd-70105f5f2f42","{""part"":""2"",""participantId"":""FA89614C7189452A8C1F1E553E47B67A"",""assignmentId"":""3f1b3f9e-df46-4cf6-a68d-bc8e071db26a"",""projectId"":""9596d7a2-d401-47b1-aedd-70105f5f2f42""}","https://test12345.live/?part=2&participantId=FA89614C7189452A8C1F1E553E47B67A&assignmentId=3f1b3f9e-df46-4cf6-a68d-bc8e071db26a&projectId=9596d7a2-d401-47b1-aedd-70105f5f2f42","FA89614C7189452A8C1F1E553E47B67A-2025-05-28-17-52-06","","null","","images/semantic_sequence/creative_activities_semantic/creative_activities_semantic_0.png","null","",""
"","","","","","html-audio-response","53","957581","0.0-51.0","FA89614C7189452A8C1F1E553E47B67A","FA89614C7189452A8C1F1E553E47B67A","3f1b3f9e-df46-4cf6-a68d-bc8e071db26a","9596d7a2-d401-47b1-aedd-70105f5f2f42","{""part"":""2"",""participantId"":""FA89614C7189452A8C1F1E553E47B67A"",""assignmentId"":""3f1b3f9e-df46-4cf6-a68d-bc8e071db26a"",""projectId"":""9596d7a2-d401-47b1-aedd-70105f5f2f42""}","https://test12345.live/?part=2&participantId=FA89614C7189452A8C1F1E553E47B67A&assignmentId=3f1b3f9e-df46-4cf6-a68d-bc8e071db26a&projectId=9596d7a2-d401-47b1-aedd-70105f5f2f42","FA89614C7189452A8C1F1E553E47B67A-2025-05-28-17-52-06","","19491","","[""<span style=\""color: red; font-size: 24px\""> NOW RECORDING</span><p>Please say out loud all the images you saw in part 1 of the experiment, in the exact order you saw them. Try to recall as many images as you can, but remember: getting the order right is more important than the number of images you recall. </p>""]","","3","creative_activities_semantic"
"","","","","","image-button-response","54","963603","0.0-52.0-0.0","FA89614C7189452A8C1F1E553E47B67A","FA89614C7189452A8C1F1E553E47B67A","3f1b3f9e-df46-4cf6-a68d-bc8e071db26a","9596d7a2-d401-47b1-aedd-70105f5f2f42","{""part"":""2"",""participantId"":""FA89614C7189452A8C1F1E553E47B67A"",""assignmentId"":""3f1b3f9e-df46-4cf6-a68d-bc8e071db26a"",""projectId"":""9596d7a2-d401-47b1-aedd-70105f5f2f42""}","https://test12345.live/?part=2&participantId=FA89614C7189452A8C1F1E553E47B67A&assignmentId=3f1b3f9e-df46-4cf6-a68d-bc8e071db26a&projectId=9596d7a2-d401-47b1-aedd-70105f5f2f42","FA89614C7189452A8C1F1E553E47B67A-2025-05-28-17-52-06","","null","","images/schematic_sequence/interview_scheme/interview_scheme_0.png","null","",""
"","","","","","html-audio-response","55","994668","0.0-53.0","FA89614C7189452A8C1F1E553E47B67A","FA89614C7189452A8C1F1E553E47B67A","3f1b3f9e-df46-4cf6-a68d-bc8e071db26a","9596d7a2-d401-47b1-aedd-70105f5f2f42","{""part"":""2"",""participantId"":""FA89614C7189452A8C1F1E553E47B67A"",""assignmentId"":""3f1b3f9e-df46-4cf6-a68d-bc8e071db26a"",""projectId"":""9596d7a2-d401-47b1-aedd-70105f5f2f42""}","https://test12345.live/?part=2&participantId=FA89614C7189452A8C1F1E553E47B67A&assignmentId=3f1b3f9e-df46-4cf6-a68d-bc8e071db26a&projectId=9596d7a2-d401-47b1-aedd-70105f5f2f42","FA89614C7189452A8C1F1E553E47B67A-2025-05-28-17-52-06","","30089","","[""<span style=\""color: red; font-size: 24px\""> NOW RECORDING</span><p>Please say out loud all the images you saw in part 1 of the experiment, in the exact order you saw them. Try to recall as many images as you can, but remember: getting the order right is more important than the number of images you recall. </p>""]","","3","interview_scheme"
"","","","","","image-button-response","56","1000703","0.0-54.0-0.0","FA89614C7189452A8C1F1E553E47B67A","FA89614C7189452A8C1F1E553E47B67A","3f1b3f9e-df46-4cf6-a68d-bc8e071db26a","9596d7a2-d401-47b1-aedd-70105f5f2f42","{""part"":""2"",""participantId"":""FA89614C7189452A8C1F1E553E47B67A"",""assignmentId"":""3f1b3f9e-df46-4cf6-a68d-bc8e071db26a"",""projectId"":""9596d7a2-d401-47b1-aedd-70105f5f2f42""}","https://test12345.live/?part=2&participantId=FA89614C7189452A8C1F1E553E47B67A&assignmentId=3f1b3f9e-df46-4cf6-a68d-bc8e071db26a&projectId=9596d7a2-d401-47b1-aedd-70105f5f2f42","FA89614C7189452A8C1F1E553E47B67A-2025-05-28-17-52-06","","null","","images/semantic_sequence/market_semantic/market_semantic_0.png","null","",""
"","","","","","html-audio-response","57","1024285","0.0-55.0","FA89614C7189452A8C1F1E553E47B67A","FA89614C7189452A8C1F1E553E47B67A","3f1b3f9e-df46-4cf6-a68d-bc8e071db26a","9596d7a2-d401-47b1-aedd-70105f5f2f42","{""part"":""2"",""participantId"":""FA89614C7189452A8C1F1E553E47B67A"",""assignmentId"":""3f1b3f9e-df46-4cf6-a68d-bc8e071db26a"",""projectId"":""9596d7a2-d401-47b1-aedd-70105f5f2f42""}","https://test12345.live/?part=2&participantId=FA89614C7189452A8C1F1E553E47B67A&assignmentId=3f1b3f9e-df46-4cf6-a68d-bc8e071db26a&projectId=9596d7a2-d401-47b1-aedd-70105f5f2f42","FA89614C7189452A8C1F1E553E47B67A-2025-05-28-17-52-06","","23005","","[""<span style=\""color: red; font-size: 24px\""> NOW RECORDING</span><p>Please say out loud all the images you saw in part 1 of the experiment, in the exact order you saw them. Try to recall as many images as you can, but remember: getting the order right is more important than the number of images you recall. </p>""]","","1","market_semantic"
"","","","","","image-button-response","58","1030309","0.0-56.0-0.0","FA89614C7189452A8C1F1E553E47B67A","FA89614C7189452A8C1F1E553E47B67A","3f1b3f9e-df46-4cf6-a68d-bc8e071db26a","9596d7a2-d401-47b1-aedd-70105f5f2f42","{""part"":""2"",""participantId"":""FA89614C7189452A8C1F1E553E47B67A"",""assignmentId"":""3f1b3f9e-df46-4cf6-a68d-bc8e071db26a"",""projectId"":""9596d7a2-d401-47b1-aedd-70105f5f2f42""}","https://test12345.live/?part=2&participantId=FA89614C7189452A8C1F1E553E47B67A&assignmentId=3f1b3f9e-df46-4cf6-a68d-bc8e071db26a&projectId=9596d7a2-d401-47b1-aedd-70105f5f2f42","FA89614C7189452A8C1F1E553E47B67A-2025-05-28-17-52-06","","null","","images/semantic_sequence/kitchen_operations_semantic/kitchen_operations_semantic_0.png","null","",""
"","","","","","html-audio-response","59","1036824","0.0-57.0","FA89614C7189452A8C1F1E553E47B67A","FA89614C7189452A8C1F1E553E47B67A","3f1b3f9e-df46-4cf6-a68d-bc8e071db26a","9596d7a2-d401-47b1-aedd-70105f5f2f42","{""part"":""2"",""participantId"":""FA89614C7189452A8C1F1E553E47B67A"",""assignmentId"":""3f1b3f9e-df46-4cf6-a68d-bc8e071db26a"",""projectId"":""9596d7a2-d401-47b1-aedd-70105f5f2f42""}","https://test12345.live/?part=2&participantId=FA89614C7189452A8C1F1E553E47B67A&assignmentId=3f1b3f9e-df46-4cf6-a68d-bc8e071db26a&projectId=9596d7a2-d401-47b1-aedd-70105f5f2f42","FA89614C7189452A8C1F1E553E47B67A-2025-05-28-17-52-06","","5854","","[""<span style=\""color: red; font-size: 24px\""> NOW RECORDING</span><p>Please say out loud all the images you saw in part 1 of the experiment, in the exact order you saw them. Try to recall as many images as you can, but remember: getting the order right is more important than the number of images you recall. </p>""]","","1","kitchen_operations_semantic"
"","","","","","survey-text","60","1041070","0.0-58.0","FA89614C7189452A8C1F1E553E47B67A","FA89614C7189452A8C1F1E553E47B67A","3f1b3f9e-df46-4cf6-a68d-bc8e071db26a","9596d7a2-d401-47b1-aedd-70105f5f2f42","{""part"":""2"",""participantId"":""FA89614C7189452A8C1F1E553E47B67A"",""assignmentId"":""3f1b3f9e-df46-4cf6-a68d-bc8e071db26a"",""projectId"":""9596d7a2-d401-47b1-aedd-70105f5f2f42""}","https://test12345.live/?part=2&participantId=FA89614C7189452A8C1F1E553E47B67A&assignmentId=3f1b3f9e-df46-4cf6-a68d-bc8e071db26a&projectId=9596d7a2-d401-47b1-aedd-70105f5f2f42","FA89614C7189452A8C1F1E553E47B67A-2025-05-28-17-52-06","","4227","","","{""Q0"":""Male"",""Q1"":""26""}","",""
"","","","","","instructions","61","1044478","0.0-59.0","FA89614C7189452A8C1F1E553E47B67A","FA89614C7189452A8C1F1E553E47B67A","3f1b3f9e-df46-4cf6-a68d-bc8e071db26a","9596d7a2-d401-47b1-aedd-70105f5f2f42","{""part"":""2"",""participantId"":""FA89614C7189452A8C1F1E553E47B67A"",""assignmentId"":""3f1b3f9e-df46-4cf6-a68d-bc8e071db26a"",""projectId"":""9596d7a2-d401-47b1-aedd-70105f5f2f42""}","https://test12345.live/?part=2&participantId=FA89614C7189452A8C1F1E553E47B67A&assignmentId=3f1b3f9e-df46-4cf6-a68d-bc8e071db26a&projectId=9596d7a2-d401-47b1-aedd-70105f5f2f42","FA89614C7189452A8C1F1E553E47B67A-2025-05-28-17-52-06","[{""page_index"":0,""viewing_time"":3408}]","3408","","","","",""
"","","","","","survey-text","62","1046096","0.0-60.0","FA89614C7189452A8C1F1E553E47B67A","FA89614C7189452A8C1F1E553E47B67A","3f1b3f9e-df46-4cf6-a68d-bc8e071db26a","9596d7a2-d401-47b1-aedd-70105f5f2f42","{""part"":""2"",""participantId"":""FA89614C7189452A8C1F1E553E47B67A"",""assignmentId"":""3f1b3f9e-df46-4cf6-a68d-bc8e071db26a"",""projectId"":""9596d7a2-d401-47b1-aedd-70105f5f2f42""}","https://test12345.live/?part=2&participantId=FA89614C7189452A8C1F1E553E47B67A&assignmentId=3f1b3f9e-df46-4cf6-a68d-bc8e071db26a&projectId=9596d7a2-d401-47b1-aedd-70105f5f2f42","FA89614C7189452A8C1F1E553E47B67A-2025-05-28-17-52-06","","1613","","","{""Q0"":""AJFHBG896""}","",""
