"success","timeout","failed_images","failed_audio","failed_video","trial_type","trial_index","time_elapsed","internal_node_id","subject","subject_id","study_id","session_id","urlvar","current_url","audio_id","view_history","rt","device_id","stimulus","response","estimated_stimulus_onset","seq_name"
"true","false","[]","[]","[]","preload","0","616","0.0-0.0","FE63079ABABB4127A56A3267CD5022D9","FE63079ABABB4127A56A3267CD5022D9","74e80de4-d581-4548-8d0d-78d53ad45bed","e9cc2542-c7dc-4d8f-b94f-d088ad8989d1","{""part"":""2"",""participantId"":""FE63079ABABB4127A56A3267CD5022D9"",""assignmentId"":""74e80de4-d581-4548-8d0d-78d53ad45bed"",""projectId"":""e9cc2542-c7dc-4d8f-b94f-d088ad8989d1""}","https://test12345.live/?part=2&participantId=FE63079ABABB4127A56A3267CD5022D9&assignmentId=74e80de4-d581-4548-8d0d-78d53ad45bed&projectId=e9cc2542-c7dc-4d8f-b94f-d088ad8989d1","FE63079ABABB4127A56A3267CD5022D9-2025-05-16-21-16-02","","","","","","",""
"","","","","","instructions","1","10524","0.0-1.0","FE63079ABABB4127A56A3267CD5022D9","FE63079ABABB4127A56A3267CD5022D9","74e80de4-d581-4548-8d0d-78d53ad45bed","e9cc2542-c7dc-4d8f-b94f-d088ad8989d1","{""part"":""2"",""participantId"":""FE63079ABABB4127A56A3267CD5022D9"",""assignmentId"":""74e80de4-d581-4548-8d0d-78d53ad45bed"",""projectId"":""e9cc2542-c7dc-4d8f-b94f-d088ad8989d1""}","https://test12345.live/?part=2&participantId=FE63079ABABB4127A56A3267CD5022D9&assignmentId=74e80de4-d581-4548-8d0d-78d53ad45bed&projectId=e9cc2542-c7dc-4d8f-b94f-d088ad8989d1","FE63079ABABB4127A56A3267CD5022D9-2025-05-16-21-16-02","[{""page_index"":0,""viewing_time"":9907}]","9908","","","","",""
"","","","","","instructions","2","15219","0.0-2.0","FE63079ABABB4127A56A3267CD5022D9","FE63079ABABB4127A56A3267CD5022D9","74e80de4-d581-4548-8d0d-78d53ad45bed","e9cc2542-c7dc-4d8f-b94f-d088ad8989d1","{""part"":""2"",""participantId"":""FE63079ABABB4127A56A3267CD5022D9"",""assignmentId"":""74e80de4-d581-4548-8d0d-78d53ad45bed"",""projectId"":""e9cc2542-c7dc-4d8f-b94f-d088ad8989d1""}","https://test12345.live/?part=2&participantId=FE63079ABABB4127A56A3267CD5022D9&assignmentId=74e80de4-d581-4548-8d0d-78d53ad45bed&projectId=e9cc2542-c7dc-4d8f-b94f-d088ad8989d1","FE63079ABABB4127A56A3267CD5022D9-2025-05-16-21-16-02","[{""page_index"":0,""viewing_time"":4695}]","4695","","","","",""
"true","","","","","fullscreen","3","24944","0.0-3.0","FE63079ABABB4127A56A3267CD5022D9","FE63079ABABB4127A56A3267CD5022D9","74e80de4-d581-4548-8d0d-78d53ad45bed","e9cc2542-c7dc-4d8f-b94f-d088ad8989d1","{""part"":""2"",""participantId"":""FE63079ABABB4127A56A3267CD5022D9"",""assignmentId"":""74e80de4-d581-4548-8d0d-78d53ad45bed"",""projectId"":""e9cc2542-c7dc-4d8f-b94f-d088ad8989d1""}","https://test12345.live/?part=2&participantId=FE63079ABABB4127A56A3267CD5022D9&assignmentId=74e80de4-d581-4548-8d0d-78d53ad45bed&projectId=e9cc2542-c7dc-4d8f-b94f-d088ad8989d1","FE63079ABABB4127A56A3267CD5022D9-2025-05-16-21-16-02","","8707","","","","",""
"","","","","","initialize-microphone","4","38478","0.0-4.0-0.0","FE63079ABABB4127A56A3267CD5022D9","FE63079ABABB4127A56A3267CD5022D9","74e80de4-d581-4548-8d0d-78d53ad45bed","e9cc2542-c7dc-4d8f-b94f-d088ad8989d1","{""part"":""2"",""participantId"":""FE63079ABABB4127A56A3267CD5022D9"",""assignmentId"":""74e80de4-d581-4548-8d0d-78d53ad45bed"",""projectId"":""e9cc2542-c7dc-4d8f-b94f-d088ad8989d1""}","https://test12345.live/?part=2&participantId=FE63079ABABB4127A56A3267CD5022D9&assignmentId=74e80de4-d581-4548-8d0d-78d53ad45bed&projectId=e9cc2542-c7dc-4d8f-b94f-d088ad8989d1","FE63079ABABB4127A56A3267CD5022D9-2025-05-16-21-16-02","","","87be8820e5578a2f572eec7414cff2e59975ee86a303fafd711f7e2e2c302e2e","","","",""
"","","","","","html-audio-response","5","49783","0.0-4.0-1.0","FE63079ABABB4127A56A3267CD5022D9","FE63079ABABB4127A56A3267CD5022D9","74e80de4-d581-4548-8d0d-78d53ad45bed","e9cc2542-c7dc-4d8f-b94f-d088ad8989d1","{""part"":""2"",""participantId"":""FE63079ABABB4127A56A3267CD5022D9"",""assignmentId"":""74e80de4-d581-4548-8d0d-78d53ad45bed"",""projectId"":""e9cc2542-c7dc-4d8f-b94f-d088ad8989d1""}","https://test12345.live/?part=2&participantId=FE63079ABABB4127A56A3267CD5022D9&assignmentId=74e80de4-d581-4548-8d0d-78d53ad45bed&projectId=e9cc2542-c7dc-4d8f-b94f-d088ad8989d1","FE63079ABABB4127A56A3267CD5022D9-2025-05-16-21-16-02","","4633","","<span style=""color: red; font-size: 24px""> NOW RECORDING</span>
        <p>Please test Microphone</p>","","16",""
"","","","","","html-button-response","6","51063","0.0-4.0-2.0","FE63079ABABB4127A56A3267CD5022D9","FE63079ABABB4127A56A3267CD5022D9","74e80de4-d581-4548-8d0d-78d53ad45bed","e9cc2542-c7dc-4d8f-b94f-d088ad8989d1","{""part"":""2"",""participantId"":""FE63079ABABB4127A56A3267CD5022D9"",""assignmentId"":""74e80de4-d581-4548-8d0d-78d53ad45bed"",""projectId"":""e9cc2542-c7dc-4d8f-b94f-d088ad8989d1""}","https://test12345.live/?part=2&participantId=FE63079ABABB4127A56A3267CD5022D9&assignmentId=74e80de4-d581-4548-8d0d-78d53ad45bed&projectId=e9cc2542-c7dc-4d8f-b94f-d088ad8989d1","FE63079ABABB4127A56A3267CD5022D9-2025-05-16-21-16-02","","1278","","<p style=""font-size:48px; color:red;"">Is Microphone OK?</p>","1","",""
"","","","","","instructions","7","63990","0.0-5.0","FE63079ABABB4127A56A3267CD5022D9","FE63079ABABB4127A56A3267CD5022D9","74e80de4-d581-4548-8d0d-78d53ad45bed","e9cc2542-c7dc-4d8f-b94f-d088ad8989d1","{""part"":""2"",""participantId"":""FE63079ABABB4127A56A3267CD5022D9"",""assignmentId"":""74e80de4-d581-4548-8d0d-78d53ad45bed"",""projectId"":""e9cc2542-c7dc-4d8f-b94f-d088ad8989d1""}","https://test12345.live/?part=2&participantId=FE63079ABABB4127A56A3267CD5022D9&assignmentId=74e80de4-d581-4548-8d0d-78d53ad45bed&projectId=e9cc2542-c7dc-4d8f-b94f-d088ad8989d1","FE63079ABABB4127A56A3267CD5022D9-2025-05-16-21-16-02","[{""page_index"":0,""viewing_time"":1101},{""page_index"":1,""viewing_time"":6215},{""page_index"":2,""viewing_time"":5610}]","12927","","","","",""
"","","","","","image-button-response","8","70001","0.0-6.0-0.0","FE63079ABABB4127A56A3267CD5022D9","FE63079ABABB4127A56A3267CD5022D9","74e80de4-d581-4548-8d0d-78d53ad45bed","e9cc2542-c7dc-4d8f-b94f-d088ad8989d1","{""part"":""2"",""participantId"":""FE63079ABABB4127A56A3267CD5022D9"",""assignmentId"":""74e80de4-d581-4548-8d0d-78d53ad45bed"",""projectId"":""e9cc2542-c7dc-4d8f-b94f-d088ad8989d1""}","https://test12345.live/?part=2&participantId=FE63079ABABB4127A56A3267CD5022D9&assignmentId=74e80de4-d581-4548-8d0d-78d53ad45bed&projectId=e9cc2542-c7dc-4d8f-b94f-d088ad8989d1","FE63079ABABB4127A56A3267CD5022D9-2025-05-16-21-16-02","","null","","images/instructions/movie_0.png","null","",""
"","","","","","html-audio-response","9","97209","0.0-7.0","FE63079ABABB4127A56A3267CD5022D9","FE63079ABABB4127A56A3267CD5022D9","74e80de4-d581-4548-8d0d-78d53ad45bed","e9cc2542-c7dc-4d8f-b94f-d088ad8989d1","{""part"":""2"",""participantId"":""FE63079ABABB4127A56A3267CD5022D9"",""assignmentId"":""74e80de4-d581-4548-8d0d-78d53ad45bed"",""projectId"":""e9cc2542-c7dc-4d8f-b94f-d088ad8989d1""}","https://test12345.live/?part=2&participantId=FE63079ABABB4127A56A3267CD5022D9&assignmentId=74e80de4-d581-4548-8d0d-78d53ad45bed&projectId=e9cc2542-c7dc-4d8f-b94f-d088ad8989d1","FE63079ABABB4127A56A3267CD5022D9-2025-05-16-21-16-02","","25262","","[""<span style=\""color: red; font-size: 24px\""> NOW RECORDING</span><p>Please say out loud all the images you saw in part 1 of the experiment, as many as you can remember. The images can be said in any order.</p>""]","","2",""
"","","","","","instructions","10","100158","0.0-8.0","FE63079ABABB4127A56A3267CD5022D9","FE63079ABABB4127A56A3267CD5022D9","74e80de4-d581-4548-8d0d-78d53ad45bed","e9cc2542-c7dc-4d8f-b94f-d088ad8989d1","{""part"":""2"",""participantId"":""FE63079ABABB4127A56A3267CD5022D9"",""assignmentId"":""74e80de4-d581-4548-8d0d-78d53ad45bed"",""projectId"":""e9cc2542-c7dc-4d8f-b94f-d088ad8989d1""}","https://test12345.live/?part=2&participantId=FE63079ABABB4127A56A3267CD5022D9&assignmentId=74e80de4-d581-4548-8d0d-78d53ad45bed&projectId=e9cc2542-c7dc-4d8f-b94f-d088ad8989d1","FE63079ABABB4127A56A3267CD5022D9-2025-05-16-21-16-02","[{""page_index"":0,""viewing_time"":2943}]","2943","","","","",""
"","","","","","image-button-response","11","106174","0.0-9.0-0.0","FE63079ABABB4127A56A3267CD5022D9","FE63079ABABB4127A56A3267CD5022D9","74e80de4-d581-4548-8d0d-78d53ad45bed","e9cc2542-c7dc-4d8f-b94f-d088ad8989d1","{""part"":""2"",""participantId"":""FE63079ABABB4127A56A3267CD5022D9"",""assignmentId"":""74e80de4-d581-4548-8d0d-78d53ad45bed"",""projectId"":""e9cc2542-c7dc-4d8f-b94f-d088ad8989d1""}","https://test12345.live/?part=2&participantId=FE63079ABABB4127A56A3267CD5022D9&assignmentId=74e80de4-d581-4548-8d0d-78d53ad45bed&projectId=e9cc2542-c7dc-4d8f-b94f-d088ad8989d1","FE63079ABABB4127A56A3267CD5022D9-2025-05-16-21-16-02","","null","","images/semantic_sequence/kitchen_operations_semantic/kitchen_operations_semantic_0.png","null","",""
"","","","","","html-audio-response","12","137120","0.0-10.0","FE63079ABABB4127A56A3267CD5022D9","FE63079ABABB4127A56A3267CD5022D9","74e80de4-d581-4548-8d0d-78d53ad45bed","e9cc2542-c7dc-4d8f-b94f-d088ad8989d1","{""part"":""2"",""participantId"":""FE63079ABABB4127A56A3267CD5022D9"",""assignmentId"":""74e80de4-d581-4548-8d0d-78d53ad45bed"",""projectId"":""e9cc2542-c7dc-4d8f-b94f-d088ad8989d1""}","https://test12345.live/?part=2&participantId=FE63079ABABB4127A56A3267CD5022D9&assignmentId=74e80de4-d581-4548-8d0d-78d53ad45bed&projectId=e9cc2542-c7dc-4d8f-b94f-d088ad8989d1","FE63079ABABB4127A56A3267CD5022D9-2025-05-16-21-16-02","","29621","","[""<span style=\""color: red; font-size: 24px\""> NOW RECORDING</span><p>Please say out loud all the images you saw in part 1 of the experiment, as many as you can remember. The images can be said in any order.</p>""]","","2","kitchen_operations_semantic"
"","","","","","image-button-response","13","143131","0.0-11.0-0.0","FE63079ABABB4127A56A3267CD5022D9","FE63079ABABB4127A56A3267CD5022D9","74e80de4-d581-4548-8d0d-78d53ad45bed","e9cc2542-c7dc-4d8f-b94f-d088ad8989d1","{""part"":""2"",""participantId"":""FE63079ABABB4127A56A3267CD5022D9"",""assignmentId"":""74e80de4-d581-4548-8d0d-78d53ad45bed"",""projectId"":""e9cc2542-c7dc-4d8f-b94f-d088ad8989d1""}","https://test12345.live/?part=2&participantId=FE63079ABABB4127A56A3267CD5022D9&assignmentId=74e80de4-d581-4548-8d0d-78d53ad45bed&projectId=e9cc2542-c7dc-4d8f-b94f-d088ad8989d1","FE63079ABABB4127A56A3267CD5022D9-2025-05-16-21-16-02","","null","","images/schematic_sequence/flight_scheme/flight_scheme_0.png","null","",""
"","","","","","html-audio-response","14","215813","0.0-12.0","FE63079ABABB4127A56A3267CD5022D9","FE63079ABABB4127A56A3267CD5022D9","74e80de4-d581-4548-8d0d-78d53ad45bed","e9cc2542-c7dc-4d8f-b94f-d088ad8989d1","{""part"":""2"",""participantId"":""FE63079ABABB4127A56A3267CD5022D9"",""assignmentId"":""74e80de4-d581-4548-8d0d-78d53ad45bed"",""projectId"":""e9cc2542-c7dc-4d8f-b94f-d088ad8989d1""}","https://test12345.live/?part=2&participantId=FE63079ABABB4127A56A3267CD5022D9&assignmentId=74e80de4-d581-4548-8d0d-78d53ad45bed&projectId=e9cc2542-c7dc-4d8f-b94f-d088ad8989d1","FE63079ABABB4127A56A3267CD5022D9-2025-05-16-21-16-02","","25787","","[""<span style=\""color: red; font-size: 24px\""> NOW RECORDING</span><p>Please say out loud all the images you saw in part 1 of the experiment, as many as you can remember. The images can be said in any order.</p>""]","","7","flight_scheme"
"","","","","","image-button-response","15","221836","0.0-13.0-0.0","FE63079ABABB4127A56A3267CD5022D9","FE63079ABABB4127A56A3267CD5022D9","74e80de4-d581-4548-8d0d-78d53ad45bed","e9cc2542-c7dc-4d8f-b94f-d088ad8989d1","{""part"":""2"",""participantId"":""FE63079ABABB4127A56A3267CD5022D9"",""assignmentId"":""74e80de4-d581-4548-8d0d-78d53ad45bed"",""projectId"":""e9cc2542-c7dc-4d8f-b94f-d088ad8989d1""}","https://test12345.live/?part=2&participantId=FE63079ABABB4127A56A3267CD5022D9&assignmentId=74e80de4-d581-4548-8d0d-78d53ad45bed&projectId=e9cc2542-c7dc-4d8f-b94f-d088ad8989d1","FE63079ABABB4127A56A3267CD5022D9-2025-05-16-21-16-02","","null","","images/causal_sequence/museum_causal/museum_causal_0.png","null","",""
"","","","","","html-audio-response","16","257438","0.0-14.0","FE63079ABABB4127A56A3267CD5022D9","FE63079ABABB4127A56A3267CD5022D9","74e80de4-d581-4548-8d0d-78d53ad45bed","e9cc2542-c7dc-4d8f-b94f-d088ad8989d1","{""part"":""2"",""participantId"":""FE63079ABABB4127A56A3267CD5022D9"",""assignmentId"":""74e80de4-d581-4548-8d0d-78d53ad45bed"",""projectId"":""e9cc2542-c7dc-4d8f-b94f-d088ad8989d1""}","https://test12345.live/?part=2&participantId=FE63079ABABB4127A56A3267CD5022D9&assignmentId=74e80de4-d581-4548-8d0d-78d53ad45bed&projectId=e9cc2542-c7dc-4d8f-b94f-d088ad8989d1","FE63079ABABB4127A56A3267CD5022D9-2025-05-16-21-16-02","","34212","","[""<span style=\""color: red; font-size: 24px\""> NOW RECORDING</span><p>Please say out loud all the images you saw in part 1 of the experiment, as many as you can remember. The images can be said in any order.</p>""]","","7","museum_causal"
"","","","","","image-button-response","17","263452","0.0-15.0-0.0","FE63079ABABB4127A56A3267CD5022D9","FE63079ABABB4127A56A3267CD5022D9","74e80de4-d581-4548-8d0d-78d53ad45bed","e9cc2542-c7dc-4d8f-b94f-d088ad8989d1","{""part"":""2"",""participantId"":""FE63079ABABB4127A56A3267CD5022D9"",""assignmentId"":""74e80de4-d581-4548-8d0d-78d53ad45bed"",""projectId"":""e9cc2542-c7dc-4d8f-b94f-d088ad8989d1""}","https://test12345.live/?part=2&participantId=FE63079ABABB4127A56A3267CD5022D9&assignmentId=74e80de4-d581-4548-8d0d-78d53ad45bed&projectId=e9cc2542-c7dc-4d8f-b94f-d088ad8989d1","FE63079ABABB4127A56A3267CD5022D9-2025-05-16-21-16-02","","null","","images/semantic_sequence/self_care_activities_semantic/self_care_activities_semantic_0.png","null","",""
"","","","","","html-audio-response","18","290847","0.0-16.0","FE63079ABABB4127A56A3267CD5022D9","FE63079ABABB4127A56A3267CD5022D9","74e80de4-d581-4548-8d0d-78d53ad45bed","e9cc2542-c7dc-4d8f-b94f-d088ad8989d1","{""part"":""2"",""participantId"":""FE63079ABABB4127A56A3267CD5022D9"",""assignmentId"":""74e80de4-d581-4548-8d0d-78d53ad45bed"",""projectId"":""e9cc2542-c7dc-4d8f-b94f-d088ad8989d1""}","https://test12345.live/?part=2&participantId=FE63079ABABB4127A56A3267CD5022D9&assignmentId=74e80de4-d581-4548-8d0d-78d53ad45bed&projectId=e9cc2542-c7dc-4d8f-b94f-d088ad8989d1","FE63079ABABB4127A56A3267CD5022D9-2025-05-16-21-16-02","","25349","","[""<span style=\""color: red; font-size: 24px\""> NOW RECORDING</span><p>Please say out loud all the images you saw in part 1 of the experiment, as many as you can remember. The images can be said in any order.</p>""]","","5","self_care_activities_semantic"
"","","","","","image-button-response","19","296867","0.0-17.0-0.0","FE63079ABABB4127A56A3267CD5022D9","FE63079ABABB4127A56A3267CD5022D9","74e80de4-d581-4548-8d0d-78d53ad45bed","e9cc2542-c7dc-4d8f-b94f-d088ad8989d1","{""part"":""2"",""participantId"":""FE63079ABABB4127A56A3267CD5022D9"",""assignmentId"":""74e80de4-d581-4548-8d0d-78d53ad45bed"",""projectId"":""e9cc2542-c7dc-4d8f-b94f-d088ad8989d1""}","https://test12345.live/?part=2&participantId=FE63079ABABB4127A56A3267CD5022D9&assignmentId=74e80de4-d581-4548-8d0d-78d53ad45bed&projectId=e9cc2542-c7dc-4d8f-b94f-d088ad8989d1","FE63079ABABB4127A56A3267CD5022D9-2025-05-16-21-16-02","","null","","images/semantic_sequence/exploring_nature_semantic/exploring_nature_semantic_0.png","null","",""
"","","","","","html-audio-response","20","320266","0.0-18.0","FE63079ABABB4127A56A3267CD5022D9","FE63079ABABB4127A56A3267CD5022D9","74e80de4-d581-4548-8d0d-78d53ad45bed","e9cc2542-c7dc-4d8f-b94f-d088ad8989d1","{""part"":""2"",""participantId"":""FE63079ABABB4127A56A3267CD5022D9"",""assignmentId"":""74e80de4-d581-4548-8d0d-78d53ad45bed"",""projectId"":""e9cc2542-c7dc-4d8f-b94f-d088ad8989d1""}","https://test12345.live/?part=2&participantId=FE63079ABABB4127A56A3267CD5022D9&assignmentId=74e80de4-d581-4548-8d0d-78d53ad45bed&projectId=e9cc2542-c7dc-4d8f-b94f-d088ad8989d1","FE63079ABABB4127A56A3267CD5022D9-2025-05-16-21-16-02","","21632","","[""<span style=\""color: red; font-size: 24px\""> NOW RECORDING</span><p>Please say out loud all the images you saw in part 1 of the experiment, as many as you can remember. The images can be said in any order.</p>""]","","3","exploring_nature_semantic"
"","","","","","image-button-response","21","326275","0.0-19.0-0.0","FE63079ABABB4127A56A3267CD5022D9","FE63079ABABB4127A56A3267CD5022D9","74e80de4-d581-4548-8d0d-78d53ad45bed","e9cc2542-c7dc-4d8f-b94f-d088ad8989d1","{""part"":""2"",""participantId"":""FE63079ABABB4127A56A3267CD5022D9"",""assignmentId"":""74e80de4-d581-4548-8d0d-78d53ad45bed"",""projectId"":""e9cc2542-c7dc-4d8f-b94f-d088ad8989d1""}","https://test12345.live/?part=2&participantId=FE63079ABABB4127A56A3267CD5022D9&assignmentId=74e80de4-d581-4548-8d0d-78d53ad45bed&projectId=e9cc2542-c7dc-4d8f-b94f-d088ad8989d1","FE63079ABABB4127A56A3267CD5022D9-2025-05-16-21-16-02","","null","","images/semantic_sequence/using_technology_semantic/using_technology_semantic_0.png","null","",""
"","","","","","html-audio-response","22","353090","0.0-20.0","FE63079ABABB4127A56A3267CD5022D9","FE63079ABABB4127A56A3267CD5022D9","74e80de4-d581-4548-8d0d-78d53ad45bed","e9cc2542-c7dc-4d8f-b94f-d088ad8989d1","{""part"":""2"",""participantId"":""FE63079ABABB4127A56A3267CD5022D9"",""assignmentId"":""74e80de4-d581-4548-8d0d-78d53ad45bed"",""projectId"":""e9cc2542-c7dc-4d8f-b94f-d088ad8989d1""}","https://test12345.live/?part=2&participantId=FE63079ABABB4127A56A3267CD5022D9&assignmentId=74e80de4-d581-4548-8d0d-78d53ad45bed&projectId=e9cc2542-c7dc-4d8f-b94f-d088ad8989d1","FE63079ABABB4127A56A3267CD5022D9-2025-05-16-21-16-02","","23455","","[""<span style=\""color: red; font-size: 24px\""> NOW RECORDING</span><p>Please say out loud all the images you saw in part 1 of the experiment, as many as you can remember. The images can be said in any order.</p>""]","","3","using_technology_semantic"
"","","","","","image-button-response","23","359099","0.0-21.0-0.0","FE63079ABABB4127A56A3267CD5022D9","FE63079ABABB4127A56A3267CD5022D9","74e80de4-d581-4548-8d0d-78d53ad45bed","e9cc2542-c7dc-4d8f-b94f-d088ad8989d1","{""part"":""2"",""participantId"":""FE63079ABABB4127A56A3267CD5022D9"",""assignmentId"":""74e80de4-d581-4548-8d0d-78d53ad45bed"",""projectId"":""e9cc2542-c7dc-4d8f-b94f-d088ad8989d1""}","https://test12345.live/?part=2&participantId=FE63079ABABB4127A56A3267CD5022D9&assignmentId=74e80de4-d581-4548-8d0d-78d53ad45bed&projectId=e9cc2542-c7dc-4d8f-b94f-d088ad8989d1","FE63079ABABB4127A56A3267CD5022D9-2025-05-16-21-16-02","","null","","images/semantic_sequence/maintaining_a_car_semantic/maintaining_a_car_semantic_0.png","null","",""
"","","","","","html-audio-response","24","401214","0.0-22.0","FE63079ABABB4127A56A3267CD5022D9","FE63079ABABB4127A56A3267CD5022D9","74e80de4-d581-4548-8d0d-78d53ad45bed","e9cc2542-c7dc-4d8f-b94f-d088ad8989d1","{""part"":""2"",""participantId"":""FE63079ABABB4127A56A3267CD5022D9"",""assignmentId"":""74e80de4-d581-4548-8d0d-78d53ad45bed"",""projectId"":""e9cc2542-c7dc-4d8f-b94f-d088ad8989d1""}","https://test12345.live/?part=2&participantId=FE63079ABABB4127A56A3267CD5022D9&assignmentId=74e80de4-d581-4548-8d0d-78d53ad45bed&projectId=e9cc2542-c7dc-4d8f-b94f-d088ad8989d1","FE63079ABABB4127A56A3267CD5022D9-2025-05-16-21-16-02","","26852","","[""<span style=\""color: red; font-size: 24px\""> NOW RECORDING</span><p>Please say out loud all the images you saw in part 1 of the experiment, as many as you can remember. The images can be said in any order.</p>""]","","2","maintaining_a_car_semantic"
"","","","","","image-button-response","25","407223","0.0-23.0-0.0","FE63079ABABB4127A56A3267CD5022D9","FE63079ABABB4127A56A3267CD5022D9","74e80de4-d581-4548-8d0d-78d53ad45bed","e9cc2542-c7dc-4d8f-b94f-d088ad8989d1","{""part"":""2"",""participantId"":""FE63079ABABB4127A56A3267CD5022D9"",""assignmentId"":""74e80de4-d581-4548-8d0d-78d53ad45bed"",""projectId"":""e9cc2542-c7dc-4d8f-b94f-d088ad8989d1""}","https://test12345.live/?part=2&participantId=FE63079ABABB4127A56A3267CD5022D9&assignmentId=74e80de4-d581-4548-8d0d-78d53ad45bed&projectId=e9cc2542-c7dc-4d8f-b94f-d088ad8989d1","FE63079ABABB4127A56A3267CD5022D9-2025-05-16-21-16-02","","null","","images/causal_sequence/the_performance_causal/the_performance_causal_0.png","null","",""
"","","","","","html-audio-response","26","427047","0.0-24.0","FE63079ABABB4127A56A3267CD5022D9","FE63079ABABB4127A56A3267CD5022D9","74e80de4-d581-4548-8d0d-78d53ad45bed","e9cc2542-c7dc-4d8f-b94f-d088ad8989d1","{""part"":""2"",""participantId"":""FE63079ABABB4127A56A3267CD5022D9"",""assignmentId"":""74e80de4-d581-4548-8d0d-78d53ad45bed"",""projectId"":""e9cc2542-c7dc-4d8f-b94f-d088ad8989d1""}","https://test12345.live/?part=2&participantId=FE63079ABABB4127A56A3267CD5022D9&assignmentId=74e80de4-d581-4548-8d0d-78d53ad45bed&projectId=e9cc2542-c7dc-4d8f-b94f-d088ad8989d1","FE63079ABABB4127A56A3267CD5022D9-2025-05-16-21-16-02","","15497","","[""<span style=\""color: red; font-size: 24px\""> NOW RECORDING</span><p>Please say out loud all the images you saw in part 1 of the experiment, as many as you can remember. The images can be said in any order.</p>""]","","6","the_performance_causal"
"","","","","","image-button-response","27","433062","0.0-25.0-0.0","FE63079ABABB4127A56A3267CD5022D9","FE63079ABABB4127A56A3267CD5022D9","74e80de4-d581-4548-8d0d-78d53ad45bed","e9cc2542-c7dc-4d8f-b94f-d088ad8989d1","{""part"":""2"",""participantId"":""FE63079ABABB4127A56A3267CD5022D9"",""assignmentId"":""74e80de4-d581-4548-8d0d-78d53ad45bed"",""projectId"":""e9cc2542-c7dc-4d8f-b94f-d088ad8989d1""}","https://test12345.live/?part=2&participantId=FE63079ABABB4127A56A3267CD5022D9&assignmentId=74e80de4-d581-4548-8d0d-78d53ad45bed&projectId=e9cc2542-c7dc-4d8f-b94f-d088ad8989d1","FE63079ABABB4127A56A3267CD5022D9-2025-05-16-21-16-02","","null","","images/schematic_sequence/dinner_party_scheme/dinner_party_scheme_0.png","null","",""
"","","","","","html-audio-response","28","466672","0.0-26.0","FE63079ABABB4127A56A3267CD5022D9","FE63079ABABB4127A56A3267CD5022D9","74e80de4-d581-4548-8d0d-78d53ad45bed","e9cc2542-c7dc-4d8f-b94f-d088ad8989d1","{""part"":""2"",""participantId"":""FE63079ABABB4127A56A3267CD5022D9"",""assignmentId"":""74e80de4-d581-4548-8d0d-78d53ad45bed"",""projectId"":""e9cc2542-c7dc-4d8f-b94f-d088ad8989d1""}","https://test12345.live/?part=2&participantId=FE63079ABABB4127A56A3267CD5022D9&assignmentId=74e80de4-d581-4548-8d0d-78d53ad45bed&projectId=e9cc2542-c7dc-4d8f-b94f-d088ad8989d1","FE63079ABABB4127A56A3267CD5022D9-2025-05-16-21-16-02","","28606","","[""<span style=\""color: red; font-size: 24px\""> NOW RECORDING</span><p>Please say out loud all the images you saw in part 1 of the experiment, as many as you can remember. The images can be said in any order.</p>""]","","8","dinner_party_scheme"
"","","","","","image-button-response","29","472693","0.0-27.0-0.0","FE63079ABABB4127A56A3267CD5022D9","FE63079ABABB4127A56A3267CD5022D9","74e80de4-d581-4548-8d0d-78d53ad45bed","e9cc2542-c7dc-4d8f-b94f-d088ad8989d1","{""part"":""2"",""participantId"":""FE63079ABABB4127A56A3267CD5022D9"",""assignmentId"":""74e80de4-d581-4548-8d0d-78d53ad45bed"",""projectId"":""e9cc2542-c7dc-4d8f-b94f-d088ad8989d1""}","https://test12345.live/?part=2&participantId=FE63079ABABB4127A56A3267CD5022D9&assignmentId=74e80de4-d581-4548-8d0d-78d53ad45bed&projectId=e9cc2542-c7dc-4d8f-b94f-d088ad8989d1","FE63079ABABB4127A56A3267CD5022D9-2025-05-16-21-16-02","","null","","images/semantic_sequence/creative_activities_semantic/creative_activities_semantic_0.png","null","",""
"","","","","","html-audio-response","30","495861","0.0-28.0","FE63079ABABB4127A56A3267CD5022D9","FE63079ABABB4127A56A3267CD5022D9","74e80de4-d581-4548-8d0d-78d53ad45bed","e9cc2542-c7dc-4d8f-b94f-d088ad8989d1","{""part"":""2"",""participantId"":""FE63079ABABB4127A56A3267CD5022D9"",""assignmentId"":""74e80de4-d581-4548-8d0d-78d53ad45bed"",""projectId"":""e9cc2542-c7dc-4d8f-b94f-d088ad8989d1""}","https://test12345.live/?part=2&participantId=FE63079ABABB4127A56A3267CD5022D9&assignmentId=74e80de4-d581-4548-8d0d-78d53ad45bed&projectId=e9cc2542-c7dc-4d8f-b94f-d088ad8989d1","FE63079ABABB4127A56A3267CD5022D9-2025-05-16-21-16-02","","21086","","[""<span style=\""color: red; font-size: 24px\""> NOW RECORDING</span><p>Please say out loud all the images you saw in part 1 of the experiment, as many as you can remember. The images can be said in any order.</p>""]","","1","creative_activities_semantic"
"","","","","","image-button-response","31","501871","0.0-29.0-0.0","FE63079ABABB4127A56A3267CD5022D9","FE63079ABABB4127A56A3267CD5022D9","74e80de4-d581-4548-8d0d-78d53ad45bed","e9cc2542-c7dc-4d8f-b94f-d088ad8989d1","{""part"":""2"",""participantId"":""FE63079ABABB4127A56A3267CD5022D9"",""assignmentId"":""74e80de4-d581-4548-8d0d-78d53ad45bed"",""projectId"":""e9cc2542-c7dc-4d8f-b94f-d088ad8989d1""}","https://test12345.live/?part=2&participantId=FE63079ABABB4127A56A3267CD5022D9&assignmentId=74e80de4-d581-4548-8d0d-78d53ad45bed&projectId=e9cc2542-c7dc-4d8f-b94f-d088ad8989d1","FE63079ABABB4127A56A3267CD5022D9-2025-05-16-21-16-02","","null","","images/semantic_sequence/market_semantic/market_semantic_0.png","null","",""
"","","","","","html-audio-response","32","532915","0.0-30.0","FE63079ABABB4127A56A3267CD5022D9","FE63079ABABB4127A56A3267CD5022D9","74e80de4-d581-4548-8d0d-78d53ad45bed","e9cc2542-c7dc-4d8f-b94f-d088ad8989d1","{""part"":""2"",""participantId"":""FE63079ABABB4127A56A3267CD5022D9"",""assignmentId"":""74e80de4-d581-4548-8d0d-78d53ad45bed"",""projectId"":""e9cc2542-c7dc-4d8f-b94f-d088ad8989d1""}","https://test12345.live/?part=2&participantId=FE63079ABABB4127A56A3267CD5022D9&assignmentId=74e80de4-d581-4548-8d0d-78d53ad45bed&projectId=e9cc2542-c7dc-4d8f-b94f-d088ad8989d1","FE63079ABABB4127A56A3267CD5022D9-2025-05-16-21-16-02","","30073","","[""<span style=\""color: red; font-size: 24px\""> NOW RECORDING</span><p>Please say out loud all the images you saw in part 1 of the experiment, as many as you can remember. The images can be said in any order.</p>""]","","1","market_semantic"
"","","","","","image-button-response","33","538929","0.0-31.0-0.0","FE63079ABABB4127A56A3267CD5022D9","FE63079ABABB4127A56A3267CD5022D9","74e80de4-d581-4548-8d0d-78d53ad45bed","e9cc2542-c7dc-4d8f-b94f-d088ad8989d1","{""part"":""2"",""participantId"":""FE63079ABABB4127A56A3267CD5022D9"",""assignmentId"":""74e80de4-d581-4548-8d0d-78d53ad45bed"",""projectId"":""e9cc2542-c7dc-4d8f-b94f-d088ad8989d1""}","https://test12345.live/?part=2&participantId=FE63079ABABB4127A56A3267CD5022D9&assignmentId=74e80de4-d581-4548-8d0d-78d53ad45bed&projectId=e9cc2542-c7dc-4d8f-b94f-d088ad8989d1","FE63079ABABB4127A56A3267CD5022D9-2025-05-16-21-16-02","","null","","images/semantic_sequence/cat_care_semantic/cat_care_semantic_0.png","null","",""
"","","","","","html-audio-response","34","568448","0.0-32.0","FE63079ABABB4127A56A3267CD5022D9","FE63079ABABB4127A56A3267CD5022D9","74e80de4-d581-4548-8d0d-78d53ad45bed","e9cc2542-c7dc-4d8f-b94f-d088ad8989d1","{""part"":""2"",""participantId"":""FE63079ABABB4127A56A3267CD5022D9"",""assignmentId"":""74e80de4-d581-4548-8d0d-78d53ad45bed"",""projectId"":""e9cc2542-c7dc-4d8f-b94f-d088ad8989d1""}","https://test12345.live/?part=2&participantId=FE63079ABABB4127A56A3267CD5022D9&assignmentId=74e80de4-d581-4548-8d0d-78d53ad45bed&projectId=e9cc2542-c7dc-4d8f-b94f-d088ad8989d1","FE63079ABABB4127A56A3267CD5022D9-2025-05-16-21-16-02","","25289","","[""<span style=\""color: red; font-size: 24px\""> NOW RECORDING</span><p>Please say out loud all the images you saw in part 1 of the experiment, as many as you can remember. The images can be said in any order.</p>""]","","2","cat_care_semantic"
"","","","","","image-button-response","35","574465","0.0-33.0-0.0","FE63079ABABB4127A56A3267CD5022D9","FE63079ABABB4127A56A3267CD5022D9","74e80de4-d581-4548-8d0d-78d53ad45bed","e9cc2542-c7dc-4d8f-b94f-d088ad8989d1","{""part"":""2"",""participantId"":""FE63079ABABB4127A56A3267CD5022D9"",""assignmentId"":""74e80de4-d581-4548-8d0d-78d53ad45bed"",""projectId"":""e9cc2542-c7dc-4d8f-b94f-d088ad8989d1""}","https://test12345.live/?part=2&participantId=FE63079ABABB4127A56A3267CD5022D9&assignmentId=74e80de4-d581-4548-8d0d-78d53ad45bed&projectId=e9cc2542-c7dc-4d8f-b94f-d088ad8989d1","FE63079ABABB4127A56A3267CD5022D9-2025-05-16-21-16-02","","null","","images/semantic_sequence/redecorating_semantic/redecorating_semantic_0.png","null","",""
"","","","","","html-audio-response","36","593568","0.0-34.0","FE63079ABABB4127A56A3267CD5022D9","FE63079ABABB4127A56A3267CD5022D9","74e80de4-d581-4548-8d0d-78d53ad45bed","e9cc2542-c7dc-4d8f-b94f-d088ad8989d1","{""part"":""2"",""participantId"":""FE63079ABABB4127A56A3267CD5022D9"",""assignmentId"":""74e80de4-d581-4548-8d0d-78d53ad45bed"",""projectId"":""e9cc2542-c7dc-4d8f-b94f-d088ad8989d1""}","https://test12345.live/?part=2&participantId=FE63079ABABB4127A56A3267CD5022D9&assignmentId=74e80de4-d581-4548-8d0d-78d53ad45bed&projectId=e9cc2542-c7dc-4d8f-b94f-d088ad8989d1","FE63079ABABB4127A56A3267CD5022D9-2025-05-16-21-16-02","","17444","","[""<span style=\""color: red; font-size: 24px\""> NOW RECORDING</span><p>Please say out loud all the images you saw in part 1 of the experiment, as many as you can remember. The images can be said in any order.</p>""]","","1","redecorating_semantic"
"","","","","","image-button-response","37","599573","0.0-35.0-0.0","FE63079ABABB4127A56A3267CD5022D9","FE63079ABABB4127A56A3267CD5022D9","74e80de4-d581-4548-8d0d-78d53ad45bed","e9cc2542-c7dc-4d8f-b94f-d088ad8989d1","{""part"":""2"",""participantId"":""FE63079ABABB4127A56A3267CD5022D9"",""assignmentId"":""74e80de4-d581-4548-8d0d-78d53ad45bed"",""projectId"":""e9cc2542-c7dc-4d8f-b94f-d088ad8989d1""}","https://test12345.live/?part=2&participantId=FE63079ABABB4127A56A3267CD5022D9&assignmentId=74e80de4-d581-4548-8d0d-78d53ad45bed&projectId=e9cc2542-c7dc-4d8f-b94f-d088ad8989d1","FE63079ABABB4127A56A3267CD5022D9-2025-05-16-21-16-02","","null","","images/causal_sequence/package_causal/package_causal_0.png","null","",""
"","","","","","html-audio-response","38","626708","0.0-36.0","FE63079ABABB4127A56A3267CD5022D9","FE63079ABABB4127A56A3267CD5022D9","74e80de4-d581-4548-8d0d-78d53ad45bed","e9cc2542-c7dc-4d8f-b94f-d088ad8989d1","{""part"":""2"",""participantId"":""FE63079ABABB4127A56A3267CD5022D9"",""assignmentId"":""74e80de4-d581-4548-8d0d-78d53ad45bed"",""projectId"":""e9cc2542-c7dc-4d8f-b94f-d088ad8989d1""}","https://test12345.live/?part=2&participantId=FE63079ABABB4127A56A3267CD5022D9&assignmentId=74e80de4-d581-4548-8d0d-78d53ad45bed&projectId=e9cc2542-c7dc-4d8f-b94f-d088ad8989d1","FE63079ABABB4127A56A3267CD5022D9-2025-05-16-21-16-02","","25158","","[""<span style=\""color: red; font-size: 24px\""> NOW RECORDING</span><p>Please say out loud all the images you saw in part 1 of the experiment, as many as you can remember. The images can be said in any order.</p>""]","","2","package_causal"
"","","","","","image-button-response","39","632722","0.0-37.0-0.0","FE63079ABABB4127A56A3267CD5022D9","FE63079ABABB4127A56A3267CD5022D9","74e80de4-d581-4548-8d0d-78d53ad45bed","e9cc2542-c7dc-4d8f-b94f-d088ad8989d1","{""part"":""2"",""participantId"":""FE63079ABABB4127A56A3267CD5022D9"",""assignmentId"":""74e80de4-d581-4548-8d0d-78d53ad45bed"",""projectId"":""e9cc2542-c7dc-4d8f-b94f-d088ad8989d1""}","https://test12345.live/?part=2&participantId=FE63079ABABB4127A56A3267CD5022D9&assignmentId=74e80de4-d581-4548-8d0d-78d53ad45bed&projectId=e9cc2542-c7dc-4d8f-b94f-d088ad8989d1","FE63079ABABB4127A56A3267CD5022D9-2025-05-16-21-16-02","","null","","images/causal_sequence/coin_causal/coin_causal_0.png","null","",""
"","","","","","html-audio-response","40","667644","0.0-38.0","FE63079ABABB4127A56A3267CD5022D9","FE63079ABABB4127A56A3267CD5022D9","74e80de4-d581-4548-8d0d-78d53ad45bed","e9cc2542-c7dc-4d8f-b94f-d088ad8989d1","{""part"":""2"",""participantId"":""FE63079ABABB4127A56A3267CD5022D9"",""assignmentId"":""74e80de4-d581-4548-8d0d-78d53ad45bed"",""projectId"":""e9cc2542-c7dc-4d8f-b94f-d088ad8989d1""}","https://test12345.live/?part=2&participantId=FE63079ABABB4127A56A3267CD5022D9&assignmentId=74e80de4-d581-4548-8d0d-78d53ad45bed&projectId=e9cc2542-c7dc-4d8f-b94f-d088ad8989d1","FE63079ABABB4127A56A3267CD5022D9-2025-05-16-21-16-02","","32390","","[""<span style=\""color: red; font-size: 24px\""> NOW RECORDING</span><p>Please say out loud all the images you saw in part 1 of the experiment, as many as you can remember. The images can be said in any order.</p>""]","","2","coin_causal"
"","","","","","image-button-response","41","673656","0.0-39.0-0.0","FE63079ABABB4127A56A3267CD5022D9","FE63079ABABB4127A56A3267CD5022D9","74e80de4-d581-4548-8d0d-78d53ad45bed","e9cc2542-c7dc-4d8f-b94f-d088ad8989d1","{""part"":""2"",""participantId"":""FE63079ABABB4127A56A3267CD5022D9"",""assignmentId"":""74e80de4-d581-4548-8d0d-78d53ad45bed"",""projectId"":""e9cc2542-c7dc-4d8f-b94f-d088ad8989d1""}","https://test12345.live/?part=2&participantId=FE63079ABABB4127A56A3267CD5022D9&assignmentId=74e80de4-d581-4548-8d0d-78d53ad45bed&projectId=e9cc2542-c7dc-4d8f-b94f-d088ad8989d1","FE63079ABABB4127A56A3267CD5022D9-2025-05-16-21-16-02","","null","","images/schematic_sequence/restaurant_scheme/restaurant_scheme_0.png","null","",""
"","","","","","html-audio-response","42","706722","0.0-40.0","FE63079ABABB4127A56A3267CD5022D9","FE63079ABABB4127A56A3267CD5022D9","74e80de4-d581-4548-8d0d-78d53ad45bed","e9cc2542-c7dc-4d8f-b94f-d088ad8989d1","{""part"":""2"",""participantId"":""FE63079ABABB4127A56A3267CD5022D9"",""assignmentId"":""74e80de4-d581-4548-8d0d-78d53ad45bed"",""projectId"":""e9cc2542-c7dc-4d8f-b94f-d088ad8989d1""}","https://test12345.live/?part=2&participantId=FE63079ABABB4127A56A3267CD5022D9&assignmentId=74e80de4-d581-4548-8d0d-78d53ad45bed&projectId=e9cc2542-c7dc-4d8f-b94f-d088ad8989d1","FE63079ABABB4127A56A3267CD5022D9-2025-05-16-21-16-02","","30948","","[""<span style=\""color: red; font-size: 24px\""> NOW RECORDING</span><p>Please say out loud all the images you saw in part 1 of the experiment, as many as you can remember. The images can be said in any order.</p>""]","","1","restaurant_scheme"
"","","","","","image-button-response","43","712743","0.0-41.0-0.0","FE63079ABABB4127A56A3267CD5022D9","FE63079ABABB4127A56A3267CD5022D9","74e80de4-d581-4548-8d0d-78d53ad45bed","e9cc2542-c7dc-4d8f-b94f-d088ad8989d1","{""part"":""2"",""participantId"":""FE63079ABABB4127A56A3267CD5022D9"",""assignmentId"":""74e80de4-d581-4548-8d0d-78d53ad45bed"",""projectId"":""e9cc2542-c7dc-4d8f-b94f-d088ad8989d1""}","https://test12345.live/?part=2&participantId=FE63079ABABB4127A56A3267CD5022D9&assignmentId=74e80de4-d581-4548-8d0d-78d53ad45bed&projectId=e9cc2542-c7dc-4d8f-b94f-d088ad8989d1","FE63079ABABB4127A56A3267CD5022D9-2025-05-16-21-16-02","","null","","images/semantic_sequence/housework_semantic/housework_semantic_0.png","null","",""
"","","","","","html-audio-response","44","739537","0.0-42.0","FE63079ABABB4127A56A3267CD5022D9","FE63079ABABB4127A56A3267CD5022D9","74e80de4-d581-4548-8d0d-78d53ad45bed","e9cc2542-c7dc-4d8f-b94f-d088ad8989d1","{""part"":""2"",""participantId"":""FE63079ABABB4127A56A3267CD5022D9"",""assignmentId"":""74e80de4-d581-4548-8d0d-78d53ad45bed"",""projectId"":""e9cc2542-c7dc-4d8f-b94f-d088ad8989d1""}","https://test12345.live/?part=2&participantId=FE63079ABABB4127A56A3267CD5022D9&assignmentId=74e80de4-d581-4548-8d0d-78d53ad45bed&projectId=e9cc2542-c7dc-4d8f-b94f-d088ad8989d1","FE63079ABABB4127A56A3267CD5022D9-2025-05-16-21-16-02","","23802","","[""<span style=\""color: red; font-size: 24px\""> NOW RECORDING</span><p>Please say out loud all the images you saw in part 1 of the experiment, as many as you can remember. The images can be said in any order.</p>""]","","1","housework_semantic"
"","","","","","image-button-response","45","745554","0.0-43.0-0.0","FE63079ABABB4127A56A3267CD5022D9","FE63079ABABB4127A56A3267CD5022D9","74e80de4-d581-4548-8d0d-78d53ad45bed","e9cc2542-c7dc-4d8f-b94f-d088ad8989d1","{""part"":""2"",""participantId"":""FE63079ABABB4127A56A3267CD5022D9"",""assignmentId"":""74e80de4-d581-4548-8d0d-78d53ad45bed"",""projectId"":""e9cc2542-c7dc-4d8f-b94f-d088ad8989d1""}","https://test12345.live/?part=2&participantId=FE63079ABABB4127A56A3267CD5022D9&assignmentId=74e80de4-d581-4548-8d0d-78d53ad45bed&projectId=e9cc2542-c7dc-4d8f-b94f-d088ad8989d1","FE63079ABABB4127A56A3267CD5022D9-2025-05-16-21-16-02","","null","","images/causal_sequence/dog_causal/dog_causal_0.png","null","",""
"","","","","","html-audio-response","46","780860","0.0-44.0","FE63079ABABB4127A56A3267CD5022D9","FE63079ABABB4127A56A3267CD5022D9","74e80de4-d581-4548-8d0d-78d53ad45bed","e9cc2542-c7dc-4d8f-b94f-d088ad8989d1","{""part"":""2"",""participantId"":""FE63079ABABB4127A56A3267CD5022D9"",""assignmentId"":""74e80de4-d581-4548-8d0d-78d53ad45bed"",""projectId"":""e9cc2542-c7dc-4d8f-b94f-d088ad8989d1""}","https://test12345.live/?part=2&participantId=FE63079ABABB4127A56A3267CD5022D9&assignmentId=74e80de4-d581-4548-8d0d-78d53ad45bed&projectId=e9cc2542-c7dc-4d8f-b94f-d088ad8989d1","FE63079ABABB4127A56A3267CD5022D9-2025-05-16-21-16-02","","33637","","[""<span style=\""color: red; font-size: 24px\""> NOW RECORDING</span><p>Please say out loud all the images you saw in part 1 of the experiment, as many as you can remember. The images can be said in any order.</p>""]","","1","dog_causal"
"","","","","","image-button-response","47","786871","0.0-45.0-0.0","FE63079ABABB4127A56A3267CD5022D9","FE63079ABABB4127A56A3267CD5022D9","74e80de4-d581-4548-8d0d-78d53ad45bed","e9cc2542-c7dc-4d8f-b94f-d088ad8989d1","{""part"":""2"",""participantId"":""FE63079ABABB4127A56A3267CD5022D9"",""assignmentId"":""74e80de4-d581-4548-8d0d-78d53ad45bed"",""projectId"":""e9cc2542-c7dc-4d8f-b94f-d088ad8989d1""}","https://test12345.live/?part=2&participantId=FE63079ABABB4127A56A3267CD5022D9&assignmentId=74e80de4-d581-4548-8d0d-78d53ad45bed&projectId=e9cc2542-c7dc-4d8f-b94f-d088ad8989d1","FE63079ABABB4127A56A3267CD5022D9-2025-05-16-21-16-02","","null","","images/causal_sequence/saving_a_cat_causal/saving_a_cat_causal_0.png","null","",""
"","","","","","html-audio-response","48","828824","0.0-46.0","FE63079ABABB4127A56A3267CD5022D9","FE63079ABABB4127A56A3267CD5022D9","74e80de4-d581-4548-8d0d-78d53ad45bed","e9cc2542-c7dc-4d8f-b94f-d088ad8989d1","{""part"":""2"",""participantId"":""FE63079ABABB4127A56A3267CD5022D9"",""assignmentId"":""74e80de4-d581-4548-8d0d-78d53ad45bed"",""projectId"":""e9cc2542-c7dc-4d8f-b94f-d088ad8989d1""}","https://test12345.live/?part=2&participantId=FE63079ABABB4127A56A3267CD5022D9&assignmentId=74e80de4-d581-4548-8d0d-78d53ad45bed&projectId=e9cc2542-c7dc-4d8f-b94f-d088ad8989d1","FE63079ABABB4127A56A3267CD5022D9-2025-05-16-21-16-02","","39143","","[""<span style=\""color: red; font-size: 24px\""> NOW RECORDING</span><p>Please say out loud all the images you saw in part 1 of the experiment, as many as you can remember. The images can be said in any order.</p>""]","","1","saving_a_cat_causal"
"","","","","","image-button-response","49","834836","0.0-47.0-0.0","FE63079ABABB4127A56A3267CD5022D9","FE63079ABABB4127A56A3267CD5022D9","74e80de4-d581-4548-8d0d-78d53ad45bed","e9cc2542-c7dc-4d8f-b94f-d088ad8989d1","{""part"":""2"",""participantId"":""FE63079ABABB4127A56A3267CD5022D9"",""assignmentId"":""74e80de4-d581-4548-8d0d-78d53ad45bed"",""projectId"":""e9cc2542-c7dc-4d8f-b94f-d088ad8989d1""}","https://test12345.live/?part=2&participantId=FE63079ABABB4127A56A3267CD5022D9&assignmentId=74e80de4-d581-4548-8d0d-78d53ad45bed&projectId=e9cc2542-c7dc-4d8f-b94f-d088ad8989d1","FE63079ABABB4127A56A3267CD5022D9-2025-05-16-21-16-02","","null","","images/semantic_sequence/visiting_cities_semantic/visiting_cities_semantic_0.png","null","",""
"","","","","","html-audio-response","50","931753","0.0-48.0","FE63079ABABB4127A56A3267CD5022D9","FE63079ABABB4127A56A3267CD5022D9","74e80de4-d581-4548-8d0d-78d53ad45bed","e9cc2542-c7dc-4d8f-b94f-d088ad8989d1","{""part"":""2"",""participantId"":""FE63079ABABB4127A56A3267CD5022D9"",""assignmentId"":""74e80de4-d581-4548-8d0d-78d53ad45bed"",""projectId"":""e9cc2542-c7dc-4d8f-b94f-d088ad8989d1""}","https://test12345.live/?part=2&participantId=FE63079ABABB4127A56A3267CD5022D9&assignmentId=74e80de4-d581-4548-8d0d-78d53ad45bed&projectId=e9cc2542-c7dc-4d8f-b94f-d088ad8989d1","FE63079ABABB4127A56A3267CD5022D9-2025-05-16-21-16-02","","10690","","[""<span style=\""color: red; font-size: 24px\""> NOW RECORDING</span><p>Please say out loud all the images you saw in part 1 of the experiment, as many as you can remember. The images can be said in any order.</p>""]","","3","visiting_cities_semantic"
"","","","","","image-button-response","51","937772","0.0-49.0-0.0","FE63079ABABB4127A56A3267CD5022D9","FE63079ABABB4127A56A3267CD5022D9","74e80de4-d581-4548-8d0d-78d53ad45bed","e9cc2542-c7dc-4d8f-b94f-d088ad8989d1","{""part"":""2"",""participantId"":""FE63079ABABB4127A56A3267CD5022D9"",""assignmentId"":""74e80de4-d581-4548-8d0d-78d53ad45bed"",""projectId"":""e9cc2542-c7dc-4d8f-b94f-d088ad8989d1""}","https://test12345.live/?part=2&participantId=FE63079ABABB4127A56A3267CD5022D9&assignmentId=74e80de4-d581-4548-8d0d-78d53ad45bed&projectId=e9cc2542-c7dc-4d8f-b94f-d088ad8989d1","FE63079ABABB4127A56A3267CD5022D9-2025-05-16-21-16-02","","null","","images/semantic_sequence/physical_activity_semantic/physical_activity_semantic_0.png","null","",""
"","","","","","html-audio-response","52","978201","0.0-50.0","FE63079ABABB4127A56A3267CD5022D9","FE63079ABABB4127A56A3267CD5022D9","74e80de4-d581-4548-8d0d-78d53ad45bed","e9cc2542-c7dc-4d8f-b94f-d088ad8989d1","{""part"":""2"",""participantId"":""FE63079ABABB4127A56A3267CD5022D9"",""assignmentId"":""74e80de4-d581-4548-8d0d-78d53ad45bed"",""projectId"":""e9cc2542-c7dc-4d8f-b94f-d088ad8989d1""}","https://test12345.live/?part=2&participantId=FE63079ABABB4127A56A3267CD5022D9&assignmentId=74e80de4-d581-4548-8d0d-78d53ad45bed&projectId=e9cc2542-c7dc-4d8f-b94f-d088ad8989d1","FE63079ABABB4127A56A3267CD5022D9-2025-05-16-21-16-02","","18378","","[""<span style=\""color: red; font-size: 24px\""> NOW RECORDING</span><p>Please say out loud all the images you saw in part 1 of the experiment, as many as you can remember. The images can be said in any order.</p>""]","","6","physical_activity_semantic"
"","","","","","image-button-response","53","984216","0.0-51.0-0.0","FE63079ABABB4127A56A3267CD5022D9","FE63079ABABB4127A56A3267CD5022D9","74e80de4-d581-4548-8d0d-78d53ad45bed","e9cc2542-c7dc-4d8f-b94f-d088ad8989d1","{""part"":""2"",""participantId"":""FE63079ABABB4127A56A3267CD5022D9"",""assignmentId"":""74e80de4-d581-4548-8d0d-78d53ad45bed"",""projectId"":""e9cc2542-c7dc-4d8f-b94f-d088ad8989d1""}","https://test12345.live/?part=2&participantId=FE63079ABABB4127A56A3267CD5022D9&assignmentId=74e80de4-d581-4548-8d0d-78d53ad45bed&projectId=e9cc2542-c7dc-4d8f-b94f-d088ad8989d1","FE63079ABABB4127A56A3267CD5022D9-2025-05-16-21-16-02","","null","","images/schematic_sequence/supermarket_scheme/supermarket_scheme_0.png","null","",""
"","","","","","html-audio-response","54","1011073","0.0-52.0","FE63079ABABB4127A56A3267CD5022D9","FE63079ABABB4127A56A3267CD5022D9","74e80de4-d581-4548-8d0d-78d53ad45bed","e9cc2542-c7dc-4d8f-b94f-d088ad8989d1","{""part"":""2"",""participantId"":""FE63079ABABB4127A56A3267CD5022D9"",""assignmentId"":""74e80de4-d581-4548-8d0d-78d53ad45bed"",""projectId"":""e9cc2542-c7dc-4d8f-b94f-d088ad8989d1""}","https://test12345.live/?part=2&participantId=FE63079ABABB4127A56A3267CD5022D9&assignmentId=74e80de4-d581-4548-8d0d-78d53ad45bed&projectId=e9cc2542-c7dc-4d8f-b94f-d088ad8989d1","FE63079ABABB4127A56A3267CD5022D9-2025-05-16-21-16-02","","25385","","[""<span style=\""color: red; font-size: 24px\""> NOW RECORDING</span><p>Please say out loud all the images you saw in part 1 of the experiment, as many as you can remember. The images can be said in any order.</p>""]","","1","supermarket_scheme"
"","","","","","image-button-response","55","1017084","0.0-53.0-0.0","FE63079ABABB4127A56A3267CD5022D9","FE63079ABABB4127A56A3267CD5022D9","74e80de4-d581-4548-8d0d-78d53ad45bed","e9cc2542-c7dc-4d8f-b94f-d088ad8989d1","{""part"":""2"",""participantId"":""FE63079ABABB4127A56A3267CD5022D9"",""assignmentId"":""74e80de4-d581-4548-8d0d-78d53ad45bed"",""projectId"":""e9cc2542-c7dc-4d8f-b94f-d088ad8989d1""}","https://test12345.live/?part=2&participantId=FE63079ABABB4127A56A3267CD5022D9&assignmentId=74e80de4-d581-4548-8d0d-78d53ad45bed&projectId=e9cc2542-c7dc-4d8f-b94f-d088ad8989d1","FE63079ABABB4127A56A3267CD5022D9-2025-05-16-21-16-02","","null","","images/schematic_sequence/hotel_scheme/hotel_scheme_0.png","null","",""
"","","","","","html-audio-response","56","1039290","0.0-54.0","FE63079ABABB4127A56A3267CD5022D9","FE63079ABABB4127A56A3267CD5022D9","74e80de4-d581-4548-8d0d-78d53ad45bed","e9cc2542-c7dc-4d8f-b94f-d088ad8989d1","{""part"":""2"",""participantId"":""FE63079ABABB4127A56A3267CD5022D9"",""assignmentId"":""74e80de4-d581-4548-8d0d-78d53ad45bed"",""projectId"":""e9cc2542-c7dc-4d8f-b94f-d088ad8989d1""}","https://test12345.live/?part=2&participantId=FE63079ABABB4127A56A3267CD5022D9&assignmentId=74e80de4-d581-4548-8d0d-78d53ad45bed&projectId=e9cc2542-c7dc-4d8f-b94f-d088ad8989d1","FE63079ABABB4127A56A3267CD5022D9-2025-05-16-21-16-02","","20536","","[""<span style=\""color: red; font-size: 24px\""> NOW RECORDING</span><p>Please say out loud all the images you saw in part 1 of the experiment, as many as you can remember. The images can be said in any order.</p>""]","","1","hotel_scheme"
"","","","","","image-button-response","57","1045309","0.0-55.0-0.0","FE63079ABABB4127A56A3267CD5022D9","FE63079ABABB4127A56A3267CD5022D9","74e80de4-d581-4548-8d0d-78d53ad45bed","e9cc2542-c7dc-4d8f-b94f-d088ad8989d1","{""part"":""2"",""participantId"":""FE63079ABABB4127A56A3267CD5022D9"",""assignmentId"":""74e80de4-d581-4548-8d0d-78d53ad45bed"",""projectId"":""e9cc2542-c7dc-4d8f-b94f-d088ad8989d1""}","https://test12345.live/?part=2&participantId=FE63079ABABB4127A56A3267CD5022D9&assignmentId=74e80de4-d581-4548-8d0d-78d53ad45bed&projectId=e9cc2542-c7dc-4d8f-b94f-d088ad8989d1","FE63079ABABB4127A56A3267CD5022D9-2025-05-16-21-16-02","","null","","images/schematic_sequence/interview_scheme/interview_scheme_0.png","null","",""
"","","","","","html-audio-response","58","1068092","0.0-56.0","FE63079ABABB4127A56A3267CD5022D9","FE63079ABABB4127A56A3267CD5022D9","74e80de4-d581-4548-8d0d-78d53ad45bed","e9cc2542-c7dc-4d8f-b94f-d088ad8989d1","{""part"":""2"",""participantId"":""FE63079ABABB4127A56A3267CD5022D9"",""assignmentId"":""74e80de4-d581-4548-8d0d-78d53ad45bed"",""projectId"":""e9cc2542-c7dc-4d8f-b94f-d088ad8989d1""}","https://test12345.live/?part=2&participantId=FE63079ABABB4127A56A3267CD5022D9&assignmentId=74e80de4-d581-4548-8d0d-78d53ad45bed&projectId=e9cc2542-c7dc-4d8f-b94f-d088ad8989d1","FE63079ABABB4127A56A3267CD5022D9-2025-05-16-21-16-02","","21116","","[""<span style=\""color: red; font-size: 24px\""> NOW RECORDING</span><p>Please say out loud all the images you saw in part 1 of the experiment, as many as you can remember. The images can be said in any order.</p>""]","","6","interview_scheme"
"","","","","","survey-text","59","1076127","0.0-57.0","FE63079ABABB4127A56A3267CD5022D9","FE63079ABABB4127A56A3267CD5022D9","74e80de4-d581-4548-8d0d-78d53ad45bed","e9cc2542-c7dc-4d8f-b94f-d088ad8989d1","{""part"":""2"",""participantId"":""FE63079ABABB4127A56A3267CD5022D9"",""assignmentId"":""74e80de4-d581-4548-8d0d-78d53ad45bed"",""projectId"":""e9cc2542-c7dc-4d8f-b94f-d088ad8989d1""}","https://test12345.live/?part=2&participantId=FE63079ABABB4127A56A3267CD5022D9&assignmentId=74e80de4-d581-4548-8d0d-78d53ad45bed&projectId=e9cc2542-c7dc-4d8f-b94f-d088ad8989d1","FE63079ABABB4127A56A3267CD5022D9-2025-05-16-21-16-02","","8026","","","{""Q0"":""FEMALE"",""Q1"":""29""}","",""
"","","","","","instructions","60","1086190","0.0-58.0","FE63079ABABB4127A56A3267CD5022D9","FE63079ABABB4127A56A3267CD5022D9","74e80de4-d581-4548-8d0d-78d53ad45bed","e9cc2542-c7dc-4d8f-b94f-d088ad8989d1","{""part"":""2"",""participantId"":""FE63079ABABB4127A56A3267CD5022D9"",""assignmentId"":""74e80de4-d581-4548-8d0d-78d53ad45bed"",""projectId"":""e9cc2542-c7dc-4d8f-b94f-d088ad8989d1""}","https://test12345.live/?part=2&participantId=FE63079ABABB4127A56A3267CD5022D9&assignmentId=74e80de4-d581-4548-8d0d-78d53ad45bed&projectId=e9cc2542-c7dc-4d8f-b94f-d088ad8989d1","FE63079ABABB4127A56A3267CD5022D9-2025-05-16-21-16-02","[{""page_index"":0,""viewing_time"":10063}]","10064","","","","",""
"","","","","","survey-text","61","1089306","0.0-59.0","FE63079ABABB4127A56A3267CD5022D9","FE63079ABABB4127A56A3267CD5022D9","74e80de4-d581-4548-8d0d-78d53ad45bed","e9cc2542-c7dc-4d8f-b94f-d088ad8989d1","{""part"":""2"",""participantId"":""FE63079ABABB4127A56A3267CD5022D9"",""assignmentId"":""74e80de4-d581-4548-8d0d-78d53ad45bed"",""projectId"":""e9cc2542-c7dc-4d8f-b94f-d088ad8989d1""}","https://test12345.live/?part=2&participantId=FE63079ABABB4127A56A3267CD5022D9&assignmentId=74e80de4-d581-4548-8d0d-78d53ad45bed&projectId=e9cc2542-c7dc-4d8f-b94f-d088ad8989d1","FE63079ABABB4127A56A3267CD5022D9-2025-05-16-21-16-02","","3113","","","{""Q0"":""AJFHBG896""}","",""
